sep=,
DeviceTag:,A,,,,,,,,,,,,,,,,,
FirmwareVersion:,2.2.1,,,,,,,,,,,,,,,,,
AppVersion:,2022.0.1,,,,,,,,,,,,,,,,,
SyncStatus:,Synced,,,,,,,,,,,,,,,,,
OutputRate:,60Hz,,,,,,,,,,,,,,,,,
FilterProfile:,General,,,,,,,,,,,,,,,,,
Measurement Mode:,Inertial Mode - Rate quantities (with mag),,,,,,,,,,,,,,,,,
StartTime:,2022-08-05 15:38:54.143 +0300,,,,,,,,,,,,,,,,,
© Xsens Technologies B. V. 2005-2022,,,,,,,,,,,,,,,,,,,

PacketCounter,SampleTimeFine,Acc_X,Acc_Y,Acc_Z,Gyr_X,Gyr_Y,Gyr_Z,Mag_X,Mag_Y,Mag_Z
1, 3676180371, -5.148777008056641, 1.4426648616790771, 8.246487617492676, -2.655742883682251, -1.6692183017730713, -2.4341161251068115, 0.049560546875, -0.160888671875, -0.8427734375
2, 3676197038, -5.155600547790527, 1.4406931400299072, 8.251485824584961, -2.5378730297088623, -1.5692135095596313, -2.4256513118743896, 0.050048828125, -0.160888671875, -0.84228515625
3, 3676213705, -5.148583889007568, 1.4518311023712158, 8.243165969848633, -2.5460691452026367, -1.4154731035232544, -2.3529748916625977, 0.048583984375, -0.162841796875, -0.839599609375
4, 3676230372, -5.1628007888793945, 1.4569509029388428, 8.245940208435059, -2.6355342864990234, -1.4714113473892212, -2.44527006149292, 0.050537109375, -0.161376953125, -0.840576171875
5, 3676247039, -5.152642726898193, 1.4501086473464966, 8.233691215515137, -2.717968702316284, -1.57831871509552, -2.440762519836426, 0.050048828125, -0.161865234375, -0.841552734375
6, 3676263706, -5.153424263000488, 1.4526221752166748, 8.247170448303223, -2.678755521774292, -1.6744306087493896, -2.4580509662628174, 0.049560546875, -0.161865234375, -0.8427734375
7, 3676280373, -5.152883529663086, 1.4388577938079834, 8.259474754333496, -2.7191598415374756, -1.6252028942108154, -2.532686471939087, 0.050537109375, -0.161865234375, -0.842041015625
8, 3676297040, -5.160726547241211, 1.4575414657592773, 8.222382545471191, -2.7061870098114014, -1.653940200805664, -2.5219802856445312, 0.047119140625, -0.160400390625, -0.841796875
9, 3676313707, -5.152188777923584, 1.4611467123031616, 8.2611083984375, -2.8016068935394287, -1.6905279159545898, -2.554072618484497, 0.048583984375, -0.162841796875, -0.838623046875
10, 3676330374, -5.1424970626831055, 1.4460314512252808, 8.256561279296875, -2.7558236122131348, -1.657487392425537, -2.5489630699157715, 0.052490234375, -0.159912109375, -0.840576171875
11, 3676347041, -5.147995471954346, 1.4430687427520752, 8.264009475708008, -2.6116888523101807, -1.6495860815048218, -2.474891424179077, 0.049560546875, -0.161376953125, -0.8427734375
12, 3676363708, -5.14730167388916, 1.4401655197143555, 8.258346557617188, -2.7007572650909424, -1.5786901712417603, -2.4772093296051025, 0.049072265625, -0.160400390625, -0.84375
13, 3676380375, -5.144057273864746, 1.4614768028259277, 8.272611618041992, -2.639708995819092, -1.5482364892959595, -2.475813150405884, 0.049072265625, -0.162353515625, -0.84228515625
14, 3676397042, -5.140960216522217, 1.4448860883712769, 8.244622230529785, -2.5844626426696777, -1.5035297870635986, -2.364283323287964, 0.050048828125, -0.160400390625, -0.84130859375
15, 3676413709, -5.15826940536499, 1.4444606304168701, 8.255655288696289, -2.5241832733154297, -1.5397332906723022, -2.412447929382324, 0.050048828125, -0.1591796875, -0.84033203125
16, 3676430376, -5.146974086761475, 1.4432406425476074, 8.240239143371582, -2.5424835681915283, -1.61655855178833, -2.4583072662353516, 0.049072265625, -0.160888671875, -0.841796875
17, 3676447043, -5.13334846496582, 1.4324941635131836, 8.239059448242188, -2.5014262199401855, -1.5541914701461792, -2.4797065258026123, 0.049560546875, -0.161865234375, -0.8427734375
18, 3676463710, -5.153413772583008, 1.4544988870620728, 8.246891975402832, -2.648430109024048, -1.5076789855957031, -2.438521385192871, 0.050048828125, -0.161376953125, -0.84326171875
19, 3676480377, -5.1468305587768555, 1.4348841905593872, 8.263659477233887, -2.5645358562469482, -1.4557747840881348, -2.4805901050567627, 0.046630859375, -0.160400390625, -0.841796875
20, 3676497044, -5.151829242706299, 1.4536067247390747, 8.248430252075195, -2.585986375808716, -1.4232722520828247, -2.503206253051758, 0.049072265625, -0.1591796875, -0.8408203125
21, 3676513711, -5.144574165344238, 1.4374152421951294, 8.2443208694458, -2.6242644786834717, -1.4339913129806519, -2.3984375, 0.050048828125, -0.161376953125, -0.840087890625
22, 3676530378, -5.149313926696777, 1.4558279514312744, 8.258040428161621, -2.496892213821411, -1.514568567276001, -2.40203595161438, 0.047607421875, -0.15869140625, -0.83984375
23, 3676547045, -5.147883892059326, 1.4562711715698242, 8.262158393859863, -2.623342752456665, -1.5581871271133423, -2.3588528633117676, 0.049072265625, -0.160888671875, -0.8447265625
24, 3676563712, -5.146539211273193, 1.4465594291687012, 8.27663803100586, -2.5627427101135254, -1.4735755920410156, -2.4934349060058594, 0.048095703125, -0.159423828125, -0.84423828125
25, 3676580379, -5.154855251312256, 1.4442405700683594, 8.273530960083008, -2.495112180709839, -1.3470869064331055, -2.4480743408203125, 0.050048828125, -0.160888671875, -0.840087890625
26, 3676597046, -5.1382527351379395, 1.4443238973617554, 8.24991226196289, -2.389664888381958, -1.3473817110061646, -2.4162254333496094, 0.050048828125, -0.160888671875, -0.841796875
27, 3676613713, -5.144387722015381, 1.454013466835022, 8.251843452453613, -2.4297616481781006, -1.3722388744354248, -2.3956713676452637, 0.049072265625, -0.160400390625, -0.8408203125
28, 3676630380, -5.159135341644287, 1.4585050344467163, 8.231468200683594, -2.5512683391571045, -1.3921527862548828, -2.3592114448547363, 0.046630859375, -0.161865234375, -0.8408203125
29, 3676647047, -5.144535064697266, 1.4509979486465454, 8.213119506835938, -2.5704524517059326, -1.4497942924499512, -2.43542218208313, 0.049072265625, -0.160888671875, -0.84130859375
30, 3676663714, -5.148343086242676, 1.4280718564987183, 8.249675750732422, -2.539166212081909, -1.5380041599273682, -2.3523473739624023, 0.050048828125, -0.159912109375, -0.84326171875
31, 3676680381, -5.153707981109619, 1.4496440887451172, 8.277430534362793, -2.452467441558838, -1.4411242008209229, -2.3891525268554688, 0.047119140625, -0.161865234375, -0.84130859375
32, 3676697048, -5.139018535614014, 1.4354329109191895, 8.269824028015137, -2.374873638153076, -1.3569223880767822, -2.2933995723724365, 0.051025390625, -0.160888671875, -0.840576171875
33, 3676713715, -5.158747673034668, 1.4343665838241577, 8.269227981567383, -2.424651861190796, -1.3306951522827148, -2.359851837158203, 0.050537109375, -0.160888671875, -0.839111328125
34, 3676730382, -5.138569355010986, 1.4572057723999023, 8.25228500366211, -2.5343129634857178, -1.4421231746673584, -2.342012643814087, 0.051025390625, -0.160400390625, -0.841796875
35, 3676747049, -5.1445112228393555, 1.4489113092422485, 8.268559455871582, -2.611470937728882, -1.5683296918869019, -2.4513919353485107, 0.047607421875, -0.158203125, -0.8427734375
36, 3676763716, -5.145763397216797, 1.4433189630508423, 8.242749214172363, -2.5382189750671387, -1.623871088027954, -2.362861394882202, 0.049560546875, -0.161865234375, -0.8427734375
37, 3676780383, -5.161275386810303, 1.450761079788208, 8.257278442382812, -2.601712703704834, -1.538670301437378, -2.2813618183135986, 0.047119140625, -0.162841796875, -0.84228515625
38, 3676797050, -5.147699356079102, 1.4469425678253174, 8.256138801574707, -2.577521800994873, -1.5448302030563354, -2.415290594100952, 0.047119140625, -0.160888671875, -0.83984375
39, 3676813717, -5.151515007019043, 1.4441792964935303, 8.268531799316406, -2.6357007026672363, -1.633334755897522, -2.3152730464935303, 0.047607421875, -0.15869140625, -0.83935546875
40, 3676830384, -5.142448425292969, 1.4585894346237183, 8.247039794921875, -2.6171953678131104, -1.647101640701294, -2.363360643386841, 0.049072265625, -0.161376953125, -0.839111328125
41, 3676847051, -5.159494400024414, 1.4663718938827515, 8.234447479248047, -2.6590468883514404, -1.6969056129455566, -2.417057991027832, 0.047119140625, -0.160888671875, -0.841796875
42, 3676863718, -5.149388790130615, 1.449948787689209, 8.249136924743652, -2.777902364730835, -1.8085002899169922, -2.361811399459839, 0.047607421875, -0.1591796875, -0.84326171875
43, 3676880385, -5.147964000701904, 1.451188087463379, 8.235608100891113, -2.738804340362549, -1.8288747072219849, -2.434614896774292, 0.050048828125, -0.161376953125, -0.84375
44, 3676897052, -5.137637138366699, 1.4398175477981567, 8.255712509155273, -2.7468209266662598, -1.825250506401062, -2.4093997478485107, 0.048583984375, -0.160400390625, -0.83984375
45, 3676913719, -5.131185054779053, 1.434832215309143, 8.237024307250977, -2.771268367767334, -1.8121881484985352, -2.4043025970458984, 0.048095703125, -0.160400390625, -0.83935546875
46, 3676930386, -5.143955707550049, 1.4458194971084595, 8.27265739440918, -2.5993947982788086, -1.7149239778518677, -2.291517496109009, 0.046630859375, -0.161865234375, -0.8388671875
47, 3676947053, -5.141580581665039, 1.4637502431869507, 8.269587516784668, -2.58109450340271, -1.7580687999725342, -2.367049217224121, 0.049072265625, -0.15966796875, -0.839599609375
48, 3676963720, -5.138453006744385, 1.4524428844451904, 8.249486923217773, -2.6191163063049316, -1.7220572233200073, -2.3768584728240967, 0.047119140625, -0.160400390625, -0.84228515625
49, 3676980387, -5.140198230743408, 1.4489318132400513, 8.265162467956543, -2.709862470626831, -1.7411004304885864, -2.4486770629882812, 0.048095703125, -0.162353515625, -0.841796875
50, 3676997054, -5.1241374015808105, 1.4434831142425537, 8.271127700805664, -2.6188347339630127, -1.6304662227630615, -2.4181082248687744, 0.046142578125, -0.161376953125, -0.841796875
51, 3677013721, -5.130076885223389, 1.4468423128128052, 8.28286361694336, -2.6303861141204834, -1.6005120277404785, -2.44968843460083, 0.047607421875, -0.16015625, -0.8408203125
52, 3677030388, -5.131235599517822, 1.4443812370300293, 8.275829315185547, -2.6093709468841553, -1.5325489044189453, -2.465043544769287, 0.047607421875, -0.163330078125, -0.8408203125
53, 3677047055, -5.148715496063232, 1.4431204795837402, 8.262720108032227, -2.7276246547698975, -1.5981045961380005, -2.5143609046936035, 0.048583984375, -0.160400390625, -0.84375
54, 3677063722, -5.144606113433838, 1.4449528455734253, 8.249054908752441, -2.756208896636963, -1.6335270404815674, -2.4791946411132812, 0.049072265625, -0.160888671875, -0.84228515625
55, 3677080389, -5.133444786071777, 1.4444233179092407, 8.261738777160645, -2.8315606117248535, -1.6899514198303223, -2.53938364982605, 0.049072265625, -0.1591796875, -0.84228515625
56, 3677097056, -5.129140377044678, 1.4436458349227905, 8.275778770446777, -2.6830973625183105, -1.600396752357483, -2.4676685333251953, 0.047119140625, -0.16015625, -0.841796875
57, 3677113723, -5.132350444793701, 1.4377565383911133, 8.253610610961914, -2.720517158508301, -1.6438360214233398, -2.5476443767547607, 0.047607421875, -0.159912109375, -0.841796875
58, 3677130390, -5.129983901977539, 1.4473826885223389, 8.248757362365723, -2.551588773727417, -1.5687909126281738, -2.382173538208008, 0.048095703125, -0.161376953125, -0.84423828125
59, 3677147057, -5.137803077697754, 1.4435080289840698, 8.251823425292969, -2.536029100418091, -1.4093260765075684, -2.4005117416381836, 0.047119140625, -0.160400390625, -0.84228515625
60, 3677163724, -5.1462483406066895, 1.449814796447754, 8.259991645812988, -2.5786995887756348, -1.440932035446167, -2.368943929672241, 0.046142578125, -0.160400390625, -0.8427734375
61, 3677180391, -5.151240825653076, 1.4392017126083374, 8.259488105773926, -2.578559160232544, -1.4969985485076904, -2.3713009357452393, 0.048583984375, -0.161376953125, -0.841796875
62, 3677197058, -5.151819705963135, 1.4609912633895874, 8.273319244384766, -2.4810385704040527, -1.5422303676605225, -2.3968493938446045, 0.048583984375, -0.161376953125, -0.84228515625
63, 3677213725, -5.140522003173828, 1.4505513906478882, 8.25698184967041, -2.526078701019287, -1.5835052728652954, -2.4042515754699707, 0.047607421875, -0.161865234375, -0.8408203125
64, 3677230392, -5.1337971687316895, 1.446918249130249, 8.267574310302734, -2.518676280975342, -1.4754196405410767, -2.360491991043091, 0.046630859375, -0.16015625, -0.84228515625
65, 3677247059, -5.129154205322266, 1.451923131942749, 8.27161979675293, -2.490835189819336, -1.48823881149292, -2.384183883666992, 0.047119140625, -0.160400390625, -0.841796875
66, 3677263726, -5.139832496643066, 1.4487888813018799, 8.248517036437988, -2.5579280853271484, -1.5276696681976318, -2.445693016052246, 0.047119140625, -0.159912109375, -0.8447265625
67, 3677280393, -5.127252578735352, 1.4460136890411377, 8.24616813659668, -2.5414204597473145, -1.4368085861206055, -2.5061774253845215, 0.046630859375, -0.15869140625, -0.84033203125
68, 3677297060, -5.124426364898682, 1.4427052736282349, 8.255990028381348, -2.42107892036438, -1.4380121231079102, -2.46932053565979, 0.049072265625, -0.159912109375, -0.84033203125
69, 3677313727, -5.142566680908203, 1.4407100677490234, 8.263038635253906, -2.4841244220733643, -1.3366371393203735, -2.4058775901794434, 0.050048828125, -0.160888671875, -0.840576171875
70, 3677330394, -5.140284538269043, 1.4299370050430298, 8.26255989074707, -2.500798463821411, -1.4911458492279053, -2.4427473545074463, 0.048095703125, -0.160888671875, -0.8427734375
71, 3677347061, -5.133978366851807, 1.4412673711776733, 8.259178161621094, -2.5542776584625244, -1.438498854637146, -2.4642233848571777, 0.047119140625, -0.158203125, -0.8427734375
72, 3677363728, -5.1324052810668945, 1.4318314790725708, 8.280121803283691, -2.45204496383667, -1.3580495119094849, -2.447101354598999, 0.046630859375, -0.161376953125, -0.84326171875
73, 3677380395, -5.127003192901611, 1.4439212083816528, 8.25156021118164, -2.455169200897217, -1.4029356241226196, -2.4345126152038574, 0.049072265625, -0.159912109375, -0.8408203125
74, 3677397062, -5.1214494705200195, 1.448560118675232, 8.266237258911133, -2.528498411178589, -1.258569598197937, -2.5411252975463867, 0.046630859375, -0.16015625, -0.84228515625
75, 3677413729, -5.14287805557251, 1.4483166933059692, 8.262730598449707, -2.5762667655944824, -1.299691081047058, -2.526411533355713, 0.047607421875, -0.161865234375, -0.84033203125
76, 3677430396, -5.147160053253174, 1.4400111436843872, 8.253447532653809, -2.5543034076690674, -1.3087579011917114, -2.4611501693725586, 0.048095703125, -0.1591796875, -0.841796875
77, 3677447063, -5.147845268249512, 1.4482194185256958, 8.248939514160156, -2.5593621730804443, -1.3182730674743652, -2.5623974800109863, 0.049560546875, -0.160888671875, -0.84228515625
78, 3677463730, -5.14439582824707, 1.4528470039367676, 8.254668235778809, -2.490246295928955, -1.3615070581436157, -2.4884274005889893, 0.047607421875, -0.160888671875, -0.84326171875
79, 3677480397, -5.144416809082031, 1.4543341398239136, 8.275824546813965, -2.534965991973877, -1.3411962985992432, -2.4878768920898438, 0.049560546875, -0.161865234375, -0.84130859375
80, 3677497064, -5.1266188621521, 1.445701003074646, 8.258325576782227, -2.6211273670196533, -1.457298755645752, -2.457244396209717, 0.051025390625, -0.160400390625, -0.838623046875
81, 3677513731, -5.1407084465026855, 1.440211296081543, 8.265531539916992, -2.54293155670166, -1.3871840238571167, -2.483010768890381, 0.049560546875, -0.160400390625, -0.840087890625
82, 3677530398, -5.150075912475586, 1.4362980127334595, 8.277230262756348, -2.53778338432312, -1.4087624549865723, -2.463135004043579, 0.047119140625, -0.160400390625, -0.84228515625
83, 3677547065, -5.15087366104126, 1.4446594715118408, 8.25033187866211, -2.5951433181762695, -1.4960637092590332, -2.4065439701080322, 0.04541015625, -0.15966796875, -0.84228515625
84, 3677563732, -5.138703346252441, 1.4432480335235596, 8.25410270690918, -2.548489570617676, -1.590933084487915, -2.3748228549957275, 0.047119140625, -0.160888671875, -0.8447265625
85, 3677580399, -5.139510154724121, 1.4379210472106934, 8.255772590637207, -2.595604181289673, -1.5398486852645874, -2.4165587425231934, 0.048583984375, -0.159912109375, -0.84228515625
86, 3677597066, -5.149653911590576, 1.4336607456207275, 8.283703804016113, -2.6163883209228516, -1.4717826843261719, -2.4187097549438477, 0.046630859375, -0.15966796875, -0.841796875
87, 3677613733, -5.140690326690674, 1.4558175802230835, 8.268401145935059, -2.5797882080078125, -1.5057834386825562, -2.4175188541412354, 0.047607421875, -0.16015625, -0.83935546875
88, 3677630400, -5.144243240356445, 1.4389317035675049, 8.267056465148926, -2.5945026874542236, -1.5250828266143799, -2.456578254699707, 0.047119140625, -0.160888671875, -0.84033203125
89, 3677647067, -5.15025520324707, 1.4410107135772705, 8.240767478942871, -2.5613853931427, -1.5196402072906494, -2.5173444747924805, 0.048583984375, -0.159912109375, -0.84228515625
90, 3677663734, -5.142821311950684, 1.4374165534973145, 8.260172843933105, -2.5637547969818115, -1.49912428855896, -2.443016529083252, 0.048583984375, -0.15869140625, -0.841796875
91, 3677680401, -5.14084529876709, 1.4432429075241089, 8.271627426147461, -2.5557382106781006, -1.4518945217132568, -2.416853189468384, 0.048095703125, -0.160400390625, -0.83984375
92, 3677697068, -5.1309428215026855, 1.4379384517669678, 8.270514488220215, -2.561295747756958, -1.43824303150177, -2.4396867752075195, 0.049560546875, -0.159912109375, -0.84130859375
93, 3677713735, -5.151592254638672, 1.4403586387634277, 8.265756607055664, -2.570298910140991, -1.5309993028640747, -2.4218859672546387, 0.046630859375, -0.16015625, -0.83984375
94, 3677730402, -5.153074264526367, 1.4322996139526367, 8.270036697387695, -2.5683393478393555, -1.5080119371414185, -2.4342312812805176, 0.045654296875, -0.160888671875, -0.84130859375
95, 3677747069, -5.129775524139404, 1.4402799606323242, 8.269896507263184, -2.6132001876831055, -1.5292450189590454, -2.403047800064087, 0.047119140625, -0.161376953125, -0.84228515625
96, 3677763736, -5.133443355560303, 1.4528082609176636, 8.270537376403809, -2.5488224029541016, -1.4005153179168701, -2.4430673122406006, 0.047119140625, -0.15966796875, -0.84130859375
97, 3677780403, -5.140839099884033, 1.4671342372894287, 8.261735916137695, -2.5327377319335938, -1.5319597721099854, -2.425855875015259, 0.047607421875, -0.16015625, -0.84130859375
98, 3677797070, -5.144637584686279, 1.4463773965835571, 8.272159576416016, -2.6115610599517822, -1.5045157670974731, -2.368483304977417, 0.046142578125, -0.15966796875, -0.841796875
99, 3677813737, -5.138711929321289, 1.445602536201477, 8.235210418701172, -2.4779903888702393, -1.3751970529556274, -2.3689699172973633, 0.047119140625, -0.15966796875, -0.84228515625
100, 3677830404, -5.1332621574401855, 1.4420273303985596, 8.249663352966309, -2.4567575454711914, -1.3278392553329468, -2.4004480838775635, 0.048095703125, -0.159423828125, -0.84326171875
101, 3677847071, -5.136180877685547, 1.4472898244857788, 8.27058219909668, -2.470076084136963, -1.4425714015960693, -2.4224491119384766, 0.044921875, -0.16015625, -0.84033203125
102, 3677863738, -5.14165735244751, 1.432905673980713, 8.275248527526855, -2.3693156242370605, -1.3727638721466064, -2.3116230964660645, 0.047607421875, -0.161376953125, -0.8427734375
103, 3677880405, -5.135359764099121, 1.461518406867981, 8.26093864440918, -2.4173521995544434, -1.3561029434204102, -2.3552801609039307, 0.047119140625, -0.161376953125, -0.8427734375
104, 3677897072, -5.148670673370361, 1.457692265510559, 8.269390106201172, -2.5195469856262207, -1.3918583393096924, -2.3698277473449707, 0.049072265625, -0.161376953125, -0.84130859375
105, 3677913739, -5.142212390899658, 1.446262001991272, 8.252490043640137, -2.6051318645477295, -1.3887591361999512, -2.4847779273986816, 0.046142578125, -0.160888671875, -0.84130859375
106, 3677930406, -5.1421380043029785, 1.446824550628662, 8.25582504272461, -2.6100752353668213, -1.4801965951919556, -2.4210405349731445, 0.047607421875, -0.161376953125, -0.84033203125
107, 3677947073, -5.141870498657227, 1.4270992279052734, 8.24907398223877, -2.5165886878967285, -1.4182137250900269, -2.449854850769043, 0.047607421875, -0.159912109375, -0.84521484375
108, 3677963740, -5.137583255767822, 1.445631504058838, 8.255391120910645, -2.6544618606567383, -1.4724229574203491, -2.3684446811676025, 0.046630859375, -0.160888671875, -0.8408203125
109, 3677980407, -5.138014793395996, 1.436331868171692, 8.291749954223633, -2.6549103260040283, -1.3870173692703247, -2.498788356781006, 0.046142578125, -0.161865234375, -0.84228515625
110, 3677997074, -5.138413429260254, 1.4471970796585083, 8.252397537231445, -2.634816884994507, -1.4427249431610107, -2.527204990386963, 0.047119140625, -0.16015625, -0.84130859375
111, 3678013741, -5.152542591094971, 1.438712477684021, 8.250662803649902, -2.6264286041259766, -1.4277671575546265, -2.4613804817199707, 0.046630859375, -0.160888671875, -0.84130859375
112, 3678030408, -5.1568169593811035, 1.4479891061782837, 8.270466804504395, -2.607731580734253, -1.4606925249099731, -2.3726840019226074, 0.048095703125, -0.160400390625, -0.8427734375
113, 3678047075, -5.127062797546387, 1.4366453886032104, 8.253876686096191, -2.567929744720459, -1.5301542282104492, -2.499236583709717, 0.047607421875, -0.16015625, -0.84130859375
114, 3678063742, -5.136580467224121, 1.4354703426361084, 8.27447509765625, -2.583258628845215, -1.5240583419799805, -2.4365620613098145, 0.047607421875, -0.161865234375, -0.84228515625
115, 3678080409, -5.1396708488464355, 1.442832589149475, 8.267600059509277, -2.617771625518799, -1.55912184715271, -2.403252363204956, 0.049560546875, -0.161865234375, -0.84228515625
116, 3678097076, -5.151754856109619, 1.4368460178375244, 8.264273643493652, -2.6011109352111816, -1.5103809833526611, -2.4061083793640137, 0.047607421875, -0.1591796875, -0.8427734375
117, 3678113743, -5.1506266593933105, 1.4453023672103882, 8.270586967468262, -2.6449599266052246, -1.5820454359054565, -2.438572645187378, 0.049560546875, -0.160400390625, -0.8408203125
118, 3678130410, -5.142271518707275, 1.4487117528915405, 8.284305572509766, -2.6049911975860596, -1.5576366186141968, -2.4461798667907715, 0.045654296875, -0.16015625, -0.84228515625
119, 3678147077, -5.141184329986572, 1.4349359273910522, 8.26232624053955, -2.6507225036621094, -1.528041124343872, -2.4801807403564453, 0.04541015625, -0.160888671875, -0.84033203125
120, 3678163744, -5.136126518249512, 1.4259775876998901, 8.26095962524414, -2.593388557434082, -1.5916117429733276, -2.426906108856201, 0.048095703125, -0.15966796875, -0.8427734375
121, 3678180411, -5.133579730987549, 1.4388253688812256, 8.25207805633545, -2.628093719482422, -1.6220780611038208, -2.4774911403656006, 0.047119140625, -0.162353515625, -0.841796875
122, 3678197078, -5.127298355102539, 1.4390194416046143, 8.25224494934082, -2.5906097888946533, -1.6174036264419556, -2.4217193126678467, 0.047607421875, -0.159912109375, -0.841796875
123, 3678213745, -5.141797065734863, 1.4506539106369019, 8.27949333190918, -2.5534839630126953, -1.659703254699707, -2.4250361919403076, 0.0458984375, -0.1611328125, -0.8388671875
124, 3678230412, -5.125180721282959, 1.4438737630844116, 8.269052505493164, -2.629899501800537, -1.6120378971099854, -2.3877828121185303, 0.049560546875, -0.161376953125, -0.84130859375
125, 3678247079, -5.132826328277588, 1.436000943183899, 8.259366989135742, -2.551754951477051, -1.465571641921997, -2.391009569168091, 0.048095703125, -0.159912109375, -0.84228515625
126, 3678263746, -5.126156806945801, 1.4412803649902344, 8.252808570861816, -2.551140308380127, -1.4750229120254517, -2.418492317199707, 0.048095703125, -0.160400390625, -0.84326171875
127, 3678280413, -5.1260762214660645, 1.4393309354782104, 8.25571060180664, -2.5430338382720947, -1.4143844842910767, -2.4122936725616455, 0.047119140625, -0.162353515625, -0.84033203125
128, 3678297080, -5.141398906707764, 1.4410781860351562, 8.24589729309082, -2.5873823165893555, -1.4433014392852783, -2.4751603603363037, 0.047607421875, -0.159912109375, -0.84375
129, 3678313747, -5.1349101066589355, 1.4407120943069458, 8.240763664245605, -2.6055288314819336, -1.4504729509353638, -2.469961166381836, 0.048095703125, -0.160888671875, -0.84033203125
130, 3678330414, -5.144857406616211, 1.4315104484558105, 8.251967430114746, -2.597165822982788, -1.348777413368225, -2.3894855976104736, 0.046630859375, -0.1591796875, -0.84326171875
131, 3678347081, -5.144408702850342, 1.446449637413025, 8.252968788146973, -2.5606939792633057, -1.4283051490783691, -2.4486258029937744, 0.048095703125, -0.1591796875, -0.84375
132, 3678363748, -5.147583484649658, 1.4345563650131226, 8.258444786071777, -2.6510941982269287, -1.4575804471969604, -2.4298644065856934, 0.045654296875, -0.15869140625, -0.84326171875
133, 3678380415, -5.130452632904053, 1.4477832317352295, 8.25450611114502, -2.7491133213043213, -1.5846449136734009, -2.557888984680176, 0.048583984375, -0.160400390625, -0.84130859375
134, 3678397082, -5.1343841552734375, 1.4298923015594482, 8.27657413482666, -2.691049814224243, -1.5537049770355225, -2.4997870922088623, 0.046142578125, -0.161376953125, -0.8408203125
135, 3678413749, -5.135200500488281, 1.441102385520935, 8.28082275390625, -2.698323965072632, -1.572030782699585, -2.461355209350586, 0.048095703125, -0.162841796875, -0.84228515625
136, 3678430416, -5.148143291473389, 1.4385930299758911, 8.267950057983398, -2.6373400688171387, -1.4890583753585815, -2.515052318572998, 0.048095703125, -0.159912109375, -0.84375
137, 3678447083, -5.13917875289917, 1.4278737306594849, 8.259268760681152, -2.666653633117676, -1.5301927328109741, -2.4917831420898438, 0.047119140625, -0.1591796875, -0.84228515625
138, 3678463750, -5.139311790466309, 1.4472728967666626, 8.279607772827148, -2.6405417919158936, -1.5311017036437988, -2.410257577896118, 0.047607421875, -0.161865234375, -0.84326171875
139, 3678480417, -5.120631694793701, 1.4367955923080444, 8.240683555603027, -2.555866241455078, -1.5030943155288696, -2.4487922191619873, 0.047607421875, -0.15966796875, -0.84326171875
140, 3678497084, -5.147393226623535, 1.445089340209961, 8.257678985595703, -2.5009140968322754, -1.4790823459625244, -2.4774398803710938, 0.047119140625, -0.15966796875, -0.84033203125
141, 3678513751, -5.1411237716674805, 1.4383995532989502, 8.249468803405762, -2.4629557132720947, -1.3344089984893799, -2.451174020767212, 0.047119140625, -0.160888671875, -0.84130859375
142, 3678530418, -5.1432929039001465, 1.4403233528137207, 8.258354187011719, -2.40158748626709, -1.3280441761016846, -2.4159178733825684, 0.049560546875, -0.1591796875, -0.8408203125
143, 3678547085, -5.140342712402344, 1.4523065090179443, 8.257137298583984, -2.464876651763916, -1.2831065654754639, -2.2980096340179443, 0.048583984375, -0.159912109375, -0.84423828125
144, 3678563752, -5.139859199523926, 1.4424598217010498, 8.273689270019531, -2.5181126594543457, -1.435079574584961, -2.384286403656006, 0.047119140625, -0.15869140625, -0.84228515625
145, 3678580419, -5.145859241485596, 1.427769660949707, 8.279953002929688, -2.524221181869507, -1.447232723236084, -2.356752634048462, 0.049560546875, -0.160888671875, -0.840576171875
146, 3678597086, -5.124951362609863, 1.4536014795303345, 8.249933242797852, -2.6194753646850586, -1.4807217121124268, -2.436741352081299, 0.048095703125, -0.159912109375, -0.84228515625
147, 3678613753, -5.133267879486084, 1.4384608268737793, 8.265543937683105, -2.5299460887908936, -1.5595191717147827, -2.479463577270508, 0.047607421875, -0.16015625, -0.83984375
148, 3678630420, -5.130815505981445, 1.4432525634765625, 8.249469757080078, -2.601879358291626, -1.43250572681427, -2.4207334518432617, 0.046142578125, -0.15771484375, -0.8427734375
149, 3678647087, -5.127283573150635, 1.4410358667373657, 8.238690376281738, -2.550550937652588, -1.4687089920043945, -2.45666766166687, 0.049072265625, -0.159423828125, -0.84521484375
150, 3678663754, -5.148021221160889, 1.419345736503601, 8.256260871887207, -2.501605749130249, -1.511853814125061, -2.496201276779175, 0.047119140625, -0.16015625, -0.841796875
151, 3678680421, -5.14475154876709, 1.434717059135437, 8.275285720825195, -2.5936574935913086, -1.410273790359497, -2.5203540325164795, 0.050537109375, -0.159912109375, -0.841796875
152, 3678697088, -5.133577823638916, 1.4303460121154785, 8.260061264038086, -2.5453007221221924, -1.410901427268982, -2.470165967941284, 0.047607421875, -0.16015625, -0.84130859375
153, 3678713755, -5.131663799285889, 1.4431277513504028, 8.270272254943848, -2.559438705444336, -1.3626339435577393, -2.455143451690674, 0.047119140625, -0.161376953125, -0.84130859375
154, 3678730422, -5.126025676727295, 1.4250848293304443, 8.24586296081543, -2.5339159965515137, -1.4733195304870605, -2.436997413635254, 0.049560546875, -0.159912109375, -0.841796875
155, 3678747089, -5.144107341766357, 1.4342925548553467, 8.266170501708984, -2.586498975753784, -1.457157850265503, -2.476351261138916, 0.047607421875, -0.162353515625, -0.841796875
156, 3678763756, -5.137944221496582, 1.429341435432434, 8.252547264099121, -2.5652785301208496, -1.419737696647644, -2.444476366043091, 0.048583984375, -0.161865234375, -0.84326171875
157, 3678780423, -5.133511066436768, 1.4285931587219238, 8.22751235961914, -2.555366277694702, -1.4659686088562012, -2.419811487197876, 0.048583984375, -0.160400390625, -0.84130859375
158, 3678797090, -5.138553142547607, 1.4304214715957642, 8.271641731262207, -2.579378604888916, -1.384084939956665, -2.432553768157959, 0.04541015625, -0.160888671875, -0.8408203125
159, 3678813757, -5.139795780181885, 1.4426219463348389, 8.266986846923828, -2.6039793491363525, -1.4651106595993042, -2.440852165222168, 0.046630859375, -0.15771484375, -0.83984375
160, 3678830424, -5.151844501495361, 1.443205714225769, 8.260452270507812, -2.621396064758301, -1.4633561372756958, -2.4196832180023193, 0.049072265625, -0.161376953125, -0.8408203125
161, 3678847091, -5.134781837463379, 1.4390764236450195, 8.257600784301758, -2.5920441150665283, -1.444966197013855, -2.4662344455718994, 0.047607421875, -0.15869140625, -0.84130859375
162, 3678863758, -5.140964031219482, 1.4352227449417114, 8.247939109802246, -2.6690359115600586, -1.5130577087402344, -2.443157196044922, 0.047119140625, -0.161865234375, -0.84326171875
163, 3678880425, -5.140653133392334, 1.441618800163269, 8.248088836669922, -2.566226005554199, -1.4239507913589478, -2.3726580142974854, 0.049560546875, -0.159912109375, -0.84228515625
164, 3678897092, -5.123362064361572, 1.431704044342041, 8.264435768127441, -2.494241714477539, -1.4304181337356567, -2.4662725925445557, 0.048095703125, -0.161376953125, -0.839599609375
165, 3678913759, -5.1339263916015625, 1.4419476985931396, 8.276902198791504, -2.5981013774871826, -1.4229650497436523, -2.4590370655059814, 0.047119140625, -0.16015625, -0.84033203125
166, 3678930426, -5.147280216217041, 1.4223899841308594, 8.259177207946777, -2.5777525901794434, -1.456555962562561, -2.429595708847046, 0.047607421875, -0.15966796875, -0.83984375
167, 3678947093, -5.13640832901001, 1.4353424310684204, 8.242865562438965, -2.5411252975463867, -1.4031533002853394, -2.4309654235839844, 0.047119140625, -0.160400390625, -0.8427734375
168, 3678963760, -5.133049011230469, 1.4323166608810425, 8.267133712768555, -2.5884196758270264, -1.4597831964492798, -2.535670518875122, 0.047119140625, -0.161865234375, -0.84228515625
169, 3678980427, -5.143526554107666, 1.436297059059143, 8.235712051391602, -2.53572154045105, -1.4425716400146484, -2.4649152755737305, 0.050048828125, -0.159423828125, -0.841796875
170, 3678997094, -5.139364719390869, 1.4191676378250122, 8.261054992675781, -2.4860708713531494, -1.5129549503326416, -2.3936986923217773, 0.046630859375, -0.1591796875, -0.8408203125
171, 3679013761, -5.138200283050537, 1.4385123252868652, 8.26412582397461, -2.571809768676758, -1.5087546110153198, -2.381058931350708, 0.04638671875, -0.16015625, -0.8388671875
172, 3679030428, -5.13627815246582, 1.4428857564926147, 8.282423973083496, -2.5208661556243896, -1.5218427181243896, -2.3978867530822754, 0.049072265625, -0.160888671875, -0.840087890625
173, 3679047095, -5.139069557189941, 1.4341449737548828, 8.25246524810791, -2.5455949306488037, -1.6029835939407349, -2.3447787761688232, 0.048095703125, -0.16015625, -0.83984375
174, 3679063762, -5.138111114501953, 1.421924352645874, 8.257906913757324, -2.511594295501709, -1.5398868322372437, -2.4132797718048096, 0.047119140625, -0.161865234375, -0.84326171875
175, 3679080429, -5.148075103759766, 1.4257164001464844, 8.251594543457031, -2.4709978103637695, -1.5415772199630737, -2.346853017807007, 0.047119140625, -0.160888671875, -0.84326171875
176, 3679097096, -5.14124059677124, 1.4309049844741821, 8.265727043151855, -2.4443607330322266, -1.4559028148651123, -2.324070930480957, 0.048095703125, -0.159912109375, -0.84130859375
177, 3679113763, -5.131882667541504, 1.412843942642212, 8.247812271118164, -2.4304275512695312, -1.3955975770950317, -2.262049674987793, 0.047607421875, -0.161865234375, -0.8408203125
178, 3679130430, -5.138126850128174, 1.4493582248687744, 8.26943302154541, -2.4617133140563965, -1.5372612476348877, -2.271500587463379, 0.050048828125, -0.160888671875, -0.839111328125
179, 3679147097, -5.135247230529785, 1.4437700510025024, 8.24567699432373, -2.5053961277008057, -1.5515406131744385, -2.3427939414978027, 0.047119140625, -0.15966796875, -0.84033203125
180, 3679163764, -5.14633321762085, 1.431199550628662, 8.26331901550293, -2.5597078800201416, -1.6950231790542603, -2.386117935180664, 0.046630859375, -0.161865234375, -0.84423828125
181, 3679180431, -5.117799758911133, 1.4522408246994019, 8.263466835021973, -2.5507943630218506, -1.5732089281082153, -2.3084983825683594, 0.046630859375, -0.159912109375, -0.84375
182, 3679197098, -5.131202697753906, 1.4388837814331055, 8.262758255004883, -2.4679248332977295, -1.5371590852737427, -2.3474678993225098, 0.048583984375, -0.161865234375, -0.84228515625
183, 3679213765, -5.144096851348877, 1.4511579275131226, 8.273897171020508, -2.616337776184082, -1.7142199277877808, -2.4210665225982666, 0.049072265625, -0.160400390625, -0.84033203125
184, 3679230432, -5.134990692138672, 1.440191626548767, 8.289656639099121, -2.7982254028320312, -1.7632933855056763, -2.4487404823303223, 0.047607421875, -0.1591796875, -0.84326171875
185, 3679247099, -5.1241655349731445, 1.4295399188995361, 8.265848159790039, -2.7058796882629395, -1.7465943098068237, -2.4702558517456055, 0.048583984375, -0.159912109375, -0.841796875
186, 3679263766, -5.126103401184082, 1.4294942617416382, 8.257814407348633, -2.6153900623321533, -1.6662217378616333, -2.3642449378967285, 0.047607421875, -0.15966796875, -0.84228515625
187, 3679280433, -5.137020587921143, 1.4468897581100464, 8.270990371704102, -2.6127517223358154, -1.6175191402435303, -2.342153549194336, 0.048583984375, -0.15966796875, -0.84033203125
188, 3679297100, -5.126530170440674, 1.4231858253479004, 8.26650619506836, -2.610434055328369, -1.5873602628707886, -2.397054672241211, 0.0439453125, -0.15869140625, -0.8408203125
189, 3679313767, -5.130565643310547, 1.43402898311615, 8.2699556350708, -2.532122850418091, -1.6146247386932373, -2.321112632751465, 0.0458984375, -0.162353515625, -0.8388671875
190, 3679330434, -5.1263837814331055, 1.4408140182495117, 8.239109992980957, -2.4612011909484863, -1.571748971939087, -2.2718465328216553, 0.047607421875, -0.159912109375, -0.841796875
191, 3679347101, -5.125002861022949, 1.4259392023086548, 8.27457332611084, -2.5522804260253906, -1.6486257314682007, -2.4185309410095215, 0.047607421875, -0.1572265625, -0.841796875
192, 3679363768, -5.1345391273498535, 1.4306902885437012, 8.264852523803711, -2.6891798973083496, -1.7582353353500366, -2.449086904525757, 0.047607421875, -0.160888671875, -0.84375
193, 3679380435, -5.129755020141602, 1.437280535697937, 8.266542434692383, -2.785918712615967, -1.8762454986572266, -2.5277044773101807, 0.04541015625, -0.16064453125, -0.84033203125
194, 3679397102, -5.131931304931641, 1.437355399131775, 8.273386001586914, -2.821277141571045, -1.8600069284439087, -2.5207247734069824, 0.049072265625, -0.1591796875, -0.84326171875
195, 3679413769, -5.118756294250488, 1.4311176538467407, 8.286051750183105, -2.7166240215301514, -1.7429187297821045, -2.394813299179077, 0.047607421875, -0.160888671875, -0.84033203125
196, 3679430436, -5.1287126541137695, 1.4454452991485596, 8.269170761108398, -2.71823787689209, -1.6614961624145508, -2.4509053230285645, 0.0458984375, -0.1591796875, -0.84033203125
197, 3679447103, -5.134101390838623, 1.434459924697876, 8.269076347351074, -2.6678318977355957, -1.7133105993270874, -2.434999704360962, 0.046142578125, -0.160888671875, -0.83984375
198, 3679463770, -5.134762287139893, 1.4396705627441406, 8.265707969665527, -2.6574714183807373, -1.7589524984359741, -2.472074270248413, 0.046142578125, -0.15966796875, -0.84228515625
199, 3679480437, -5.133718013763428, 1.4336483478546143, 8.266937255859375, -2.634291887283325, -1.6990443468093872, -2.4681553840637207, 0.0439453125, -0.160888671875, -0.843505859375
200, 3679497104, -5.121016979217529, 1.4275410175323486, 8.243143081665039, -2.6134815216064453, -1.6968032121658325, -2.435371160507202, 0.047607421875, -0.15966796875, -0.841796875
201, 3679513771, -5.132057189941406, 1.4369958639144897, 8.263299942016602, -2.6227152347564697, -1.731060266494751, -2.452237129211426, 0.047607421875, -0.160400390625, -0.8408203125
202, 3679530438, -5.109927654266357, 1.4254144430160522, 8.251859664916992, -2.693969964981079, -1.6874418258666992, -2.43300199508667, 0.046630859375, -0.15869140625, -0.8408203125
203, 3679547105, -5.117574214935303, 1.434647798538208, 8.268038749694824, -2.6547696590423584, -1.6188125610351562, -2.399871826171875, 0.046630859375, -0.160400390625, -0.84130859375
204, 3679563772, -5.125357627868652, 1.4449483156204224, 8.253274917602539, -2.798725128173828, -1.6330784559249878, -2.4999401569366455, 0.045654296875, -0.160888671875, -0.84423828125
205, 3679580439, -5.113072395324707, 1.4259037971496582, 8.273255348205566, -2.861809015274048, -1.657768964767456, -2.453888416290283, 0.046630859375, -0.15966796875, -0.8408203125
206, 3679597106, -5.1135711669921875, 1.433499813079834, 8.27987003326416, -2.835735321044922, -1.7159099578857422, -2.560770273208618, 0.047607421875, -0.16015625, -0.8408203125
207, 3679613773, -5.108883380889893, 1.4191677570343018, 8.294806480407715, -2.7308905124664307, -1.6521217823028564, -2.4903359413146973, 0.046630859375, -0.16015625, -0.8408203125
208, 3679630440, -5.103848457336426, 1.4211033582687378, 8.282695770263672, -2.5754470825195312, -1.5014935731887817, -2.4633657932281494, 0.046142578125, -0.159423828125, -0.845947265625
209, 3679647107, -5.12487268447876, 1.429405689239502, 8.257715225219727, -2.6168243885040283, -1.4319038391113281, -2.453031063079834, 0.04541015625, -0.15869140625, -0.84228515625
210, 3679663774, -5.123279571533203, 1.4242511987686157, 8.254866600036621, -2.5030908584594727, -1.4822198152542114, -2.4460513591766357, 0.048095703125, -0.160888671875, -0.84033203125
211, 3679680441, -5.121586799621582, 1.417134404182434, 8.259031295776367, -2.475954055786133, -1.4995979070663452, -2.379739999771118, 0.046142578125, -0.15966796875, -0.841796875
212, 3679697108, -5.114631652832031, 1.4266035556793213, 8.27254867553711, -2.403905153274536, -1.347548007965088, -2.3761281967163086, 0.04345703125, -0.16015625, -0.84130859375
213, 3679713775, -5.1175994873046875, 1.4308910369873047, 8.285684585571289, -2.342742443084717, -1.3307719230651855, -2.34365177154541, 0.04541015625, -0.16064453125, -0.8408203125
214, 3679730442, -5.118438243865967, 1.4393463134765625, 8.262116432189941, -2.079892158508301, -1.3776559829711914, -2.277379035949707, 0.048095703125, -0.1591796875, -0.84375
215, 3679747109, -5.120176315307617, 1.4270005226135254, 8.267633438110352, -1.928648829460144, -1.390807867050171, -2.235360860824585, 0.045166015625, -0.158203125, -0.843017578125
216, 3679763776, -5.133482933044434, 1.433909296989441, 8.276593208312988, -1.9460786581039429, -1.644898772239685, -2.1837899684906006, 0.045654296875, -0.16015625, -0.8427734375
217, 3679780443, -5.106470584869385, 1.4537301063537598, 8.221353530883789, -1.7727829217910767, -1.4670697450637817, -1.996138334274292, 0.047119140625, -0.160888671875, -0.84130859375
218, 3679797110, -5.123401641845703, 1.4350775480270386, 8.261184692382812, -1.3861082792282104, -1.2989610433578491, -1.9778000116348267, 0.046630859375, -0.161376953125, -0.8408203125
219, 3679813777, -5.110724925994873, 1.4572678804397583, 8.272674560546875, -1.5313705205917358, -1.4967164993286133, -2.0240306854248047, 0.047119140625, -0.160888671875, -0.84521484375
220, 3679830444, -5.122323989868164, 1.4294790029525757, 8.286555290222168, -1.9577962160110474, -1.894033432006836, -2.1630308628082275, 0.044921875, -0.1591796875, -0.8427734375
221, 3679847111, -5.129579067230225, 1.4418586492538452, 8.273725509643555, -2.405083656311035, -2.3183846473693848, -2.4054677486419678, 0.045654296875, -0.160400390625, -0.84228515625
222, 3679863778, -5.104458332061768, 1.3854871988296509, 8.277095794677734, -2.4845986366271973, -2.1282875537872314, -2.3487234115600586, 0.04345703125, -0.160888671875, -0.84228515625
223, 3679880445, -5.075468063354492, 1.3756816387176514, 8.268802642822266, -2.611496925354004, -1.8183867931365967, -2.3359296321868896, 0.045654296875, -0.160400390625, -0.841796875
224, 3679897112, -5.080818176269531, 1.3469864130020142, 8.241615295410156, -2.738074541091919, -2.1285688877105713, -2.2746894359588623, 0.04443359375, -0.161865234375, -0.84130859375
225, 3679913779, -5.120936870574951, 1.4006413221359253, 8.241842269897461, -2.341923236846924, -2.74507999420166, -1.70052969455719, 0.04443359375, -0.161376953125, -0.84326171875
226, 3679930446, -5.116840362548828, 1.511551022529602, 8.216206550598145, -2.3530771732330322, -4.014432430267334, -1.715999722480774, 0.045166015625, -0.162841796875, -0.84228515625
227, 3679947113, -5.116232395172119, 1.54500412940979, 8.285285949707031, -3.06598162651062, -5.361891746520996, -2.0864877700805664, 0.04296875, -0.15966796875, -0.842041015625
228, 3679963780, -5.041715621948242, 1.4708551168441772, 8.351523399353027, -4.525969505310059, -6.772907257080078, -3.4593799114227295, 0.04345703125, -0.160400390625, -0.844482421875
229, 3679980447, -5.131405830383301, 1.5031239986419678, 8.275426864624023, -4.196258068084717, -6.50950813293457, -3.970635414123535, 0.0400390625, -0.16064453125, -0.843505859375
230, 3679997114, -5.083456993103027, 1.4613897800445557, 8.29985523223877, -4.68679141998291, -6.225192546844482, -4.008579730987549, 0.041015625, -0.1611328125, -0.843017578125
231, 3680013781, -5.038453578948975, 1.4463979005813599, 8.314443588256836, -4.377761363983154, -4.891846656799316, -3.944279670715332, 0.037109375, -0.16015625, -0.843017578125
232, 3680030448, -4.981898307800293, 1.3842560052871704, 8.356005668640137, -3.7360737323760986, -3.1884100437164307, -3.834247589111328, 0.03955078125, -0.1591796875, -0.842529296875
233, 3680047115, -4.920705795288086, 1.4448909759521484, 8.367090225219727, -3.0774810314178467, -1.9933725595474243, -3.8252055644989014, 0.03955078125, -0.15673828125, -0.843505859375
234, 3680063782, -4.969419002532959, 1.445074439048767, 8.345211029052734, -2.0207912921905518, -0.8277770280838013, -4.223637580871582, 0.03662109375, -0.15771484375, -0.84375
235, 3680080449, -5.018187046051025, 1.3162972927093506, 8.328733444213867, 0.502002477645874, 1.2495858669281006, -3.281831979751587, 0.0390625, -0.1591796875, -0.844482421875
236, 3680097116, -5.058481216430664, 1.3570895195007324, 8.305201530456543, 2.243807315826416, 3.4474246501922607, -2.0141444206237793, 0.04052734375, -0.15966796875, -0.841064453125
237, 3680113783, -5.149946212768555, 1.379465103149414, 8.29944133758545, 2.203608274459839, 4.54232931137085, -1.3028796911239624, 0.04248046875, -0.1611328125, -0.84130859375
238, 3680130450, -5.098016738891602, 1.437091588973999, 8.279986381530762, 1.443448781967163, 3.6111159324645996, -1.0308600664138794, 0.04345703125, -0.161376953125, -0.84130859375
239, 3680147117, -5.024661064147949, 1.544148325920105, 8.285801887512207, 0.35649678111076355, 2.9855127334594727, -1.8057979345321655, 0.03955078125, -0.163330078125, -0.841552734375
240, 3680163784, -5.063409805297852, 1.5304958820343018, 8.273513793945312, -0.9679937362670898, 2.4795467853546143, -3.069464921951294, 0.045654296875, -0.163330078125, -0.8427734375
241, 3680180451, -5.123747825622559, 1.4576480388641357, 8.2551908493042, -1.442123293876648, 2.684614896774292, -3.576263427734375, 0.046142578125, -0.164306640625, -0.83984375
242, 3680197118, -5.143695831298828, 1.4636149406433105, 8.25633716583252, -1.4508826732635498, 3.1991991996765137, -3.461236000061035, 0.045166015625, -0.166259765625, -0.84033203125
243, 3680213785, -5.168083667755127, 1.4630510807037354, 8.253118515014648, -1.4917731285095215, 3.2050514221191406, -3.3188295364379883, 0.047119140625, -0.164794921875, -0.838623046875
244, 3680230452, -5.165619850158691, 1.455035924911499, 8.263121604919434, -0.6530214548110962, 3.9104762077331543, -3.01375675201416, 0.047607421875, -0.162353515625, -0.83984375
245, 3680247119, -5.121181011199951, 1.4717082977294922, 8.267333030700684, -0.1817989945411682, 5.5462327003479, -3.415325880050659, 0.049560546875, -0.166259765625, -0.841552734375
246, 3680263786, -5.147732257843018, 1.6259074211120605, 8.212376594543457, -3.4657065868377686, 6.60828971862793, -6.003861904144287, 0.051025390625, -0.164794921875, -0.839599609375
247, 3680280453, -5.179864883422852, 1.671616554260254, 8.208888053894043, -4.84794807434082, 6.564992427825928, -8.880887031555176, 0.05517578125, -0.166259765625, -0.8408203125
248, 3680297120, -5.14566707611084, 1.456749677658081, 8.211074829101562, -3.6239430904388428, 8.259312629699707, -9.822668075561523, 0.054931640625, -0.163818359375, -0.837890625
249, 3680313787, -4.94366979598999, 1.4769858121871948, 8.284773826599121, -2.9298908710479736, 13.354647636413574, -9.907398223876953, 0.0615234375, -0.163330078125, -0.84033203125
250, 3680330454, -4.999120235443115, 1.3249704837799072, 8.190911293029785, 0.04918288812041283, 22.914100646972656, -10.143534660339355, 0.068115234375, -0.163330078125, -0.839111328125
251, 3680347121, -5.124509811401367, 1.2228235006332397, 8.163455963134766, 5.576478481292725, 33.343299865722656, -9.297539710998535, 0.07421875, -0.16455078125, -0.8369140625
252, 3680363788, -5.13106107711792, 1.2201464176177979, 8.246781349182129, 10.194822311401367, 45.02959442138672, -7.751691818237305, 0.085205078125, -0.16943359375, -0.8359375
253, 3680380455, -5.3097243309021, 1.336722493171692, 8.150397300720215, 13.860025405883789, 56.474735260009766, -6.6053900718688965, 0.099853515625, -0.170166015625, -0.8359375
254, 3680397122, -5.458738803863525, 1.3423254489898682, 8.163893699645996, 15.991767883300781, 67.17003631591797, -5.665521621704102, 0.115966796875, -0.17529296875, -0.829833984375
255, 3680413789, -5.460601329803467, 1.4706701040267944, 8.081843376159668, 14.079522132873535, 80.28984069824219, -6.559874057769775, 0.134033203125, -0.178466796875, -0.8251953125
256, 3680430456, -5.720517158508301, 1.6672381162643433, 7.841938495635986, 10.608537673950195, 94.47042846679688, -10.4364595413208, 0.157470703125, -0.179931640625, -0.82177734375
257, 3680447123, -5.967999458312988, 1.7782599925994873, 7.638459205627441, 7.0823869705200195, 108.54629516601562, -17.312698364257812, 0.181640625, -0.18310546875, -0.814453125
258, 3680463790, -6.240173816680908, 1.8019236326217651, 7.479100704193115, 5.0156426429748535, 121.62848663330078, -24.28090476989746, 0.211669921875, -0.181884765625, -0.80712890625
259, 3680480457, -6.438900470733643, 1.5256693363189697, 7.34486722946167, 2.989368200302124, 136.91990661621094, -27.99224281311035, 0.24462890625, -0.179931640625, -0.79443359375
260, 3680497124, -6.624794960021973, 1.3014289140701294, 7.152284145355225, -1.3787639141082764, 155.41717529296875, -30.187759399414062, 0.279296875, -0.17822265625, -0.78173828125
261, 3680513791, -6.974154472351074, 1.3322362899780273, 6.999950885772705, -8.401116371154785, 181.28018188476562, -33.5546760559082, 0.31982421875, -0.17529296875, -0.766845703125
262, 3680530458, -6.9346795082092285, 1.6138118505477905, 7.150023460388184, -16.051576614379883, 217.53985595703125, -40.288330078125, 0.368408203125, -0.16650390625, -0.745361328125
263, 3680547125, -7.183691501617432, 1.8897961378097534, 6.9878740310668945, -20.504470825195312, 273.7089538574219, -50.520694732666016, 0.4248046875, -0.15625, -0.71533203125
264, 3680563792, -7.678496360778809, 2.377467393875122, 7.289392471313477, -27.534265518188477, 342.8929443359375, -64.8764877319336, 0.4921875, -0.142822265625, -0.670166015625
265, 3680580459, -10.164202690124512, 1.9986042976379395, 7.734490871429443, -25.862531661987305, 398.2664794921875, -79.16091918945312, 0.56640625, -0.125732421875, -0.605224609375
266, 3680597126, -14.716839790344238, 0.891046941280365, 8.91139030456543, -11.722970962524414, 405.75, -83.02384185791016, 0.6337890625, -0.107666015625, -0.5283203125
267, 3680613793, -16.431598663330078, 1.3968329429626465, 8.811128616333008, 13.755891799926758, 392.065185546875, -70.71525573730469, 0.691650390625, -0.09521484375, -0.44677734375
268, 3680630460, -15.215108871459961, 2.205047845840454, 8.804068565368652, 18.419574737548828, 400.4836120605469, -73.3153076171875, 0.740478515625, -0.081787109375, -0.353515625
269, 3680647127, -14.244670867919922, 2.673530340194702, 10.277885437011719, 3.0181732177734375, 389.9153747558594, -85.56188201904297, 0.776123046875, -0.06298828125, -0.256103515625
270, 3680663794, -10.023051261901855, 3.2995333671569824, 10.113249778747559, 6.14060115814209, 346.1097717285156, -71.0918197631836, 0.79345703125, -0.04638671875, -0.161376953125
271, 3680680461, -10.466167449951172, 2.533935070037842, 14.0825777053833, 26.239965438842773, 226.61764526367188, -39.630516052246094, 0.79833984375, -0.036376953125, -0.093017578125
272, 3680697128, -27.149585723876953, 7.561148643493652, 26.760255813598633, 56.58121109008789, 67.83820343017578, -0.9412540793418884, 0.79736328125, -0.03564453125, -0.048095703125
273, 3680713795, -10.342705726623535, 5.433652877807617, 19.373315811157227, -2.5638811588287354, -149.24932861328125, -17.296836853027344, 0.7919921875, -0.03369140625, -0.057861328125
274, 3680730462, -3.3395566940307617, 1.4647210836410522, 9.67829418182373, -14.492433547973633, -201.45054626464844, -24.55946159362793, 0.796142578125, -0.02783203125, -0.086181640625
275, 3680747129, -3.0686895847320557, 1.9835999011993408, 7.232635974884033, -11.383161544799805, -210.03497314453125, -31.467498779296875, 0.799072265625, -0.02197265625, -0.125244140625
276, 3680763796, -4.362534999847412, 3.0944998264312744, 8.082103729248047, -18.9759578704834, -226.57676696777344, -35.25307846069336, 0.801025390625, -0.01220703125, -0.170166015625
277, 3680780463, -7.036795139312744, 3.6172759532928467, 9.370133399963379, -25.870040893554688, -276.7259826660156, -23.49187660217285, 0.797119140625, -0.007080078125, -0.22802734375
278, 3680797130, -8.002337455749512, 3.662370204925537, 8.576512336730957, -23.270742416381836, -335.45135498046875, -0.9276646971702576, 0.786376953125, -0.0029296875, -0.30517578125
279, 3680813797, -7.818649768829346, 3.7589457035064697, 6.469027519226074, -18.978897094726562, -370.9972839355469, 20.48102569580078, 0.765380859375, -0.00439453125, -0.400390625
280, 3680830464, -8.366447448730469, 4.1242241859436035, 5.984797954559326, -17.299392700195312, -380.7884826660156, 38.726749420166016, 0.713623046875, -0.012939453125, -0.508544921875
281, 3680847131, -8.902259826660156, 4.459829330444336, 6.343194007873535, -20.33408546447754, -389.34063720703125, 56.873348236083984, 0.638671875, -0.018310546875, -0.59619140625
282, 3680863798, -9.733118057250977, 3.873775005340576, 6.99721097946167, -18.28067970275879, -401.66845703125, 71.10797119140625, 0.554443359375, -0.019287109375, -0.66748046875
283, 3680880465, -10.676007270812988, 3.2678794860839844, 7.083035945892334, -2.3893537521362305, -412.618896484375, 84.56150817871094, 0.464111328125, -0.017333984375, -0.724365234375
284, 3680897132, -8.807940483093262, 1.8507006168365479, 3.929434299468994, 17.86399269104004, -380.25701904296875, 81.0938491821289, 0.375, -0.022705078125, -0.765380859375
285, 3680913799, -11.160181999206543, 0.5483537912368774, 4.812900543212891, 40.635276794433594, -299.6160888671875, 68.26499938964844, 0.29931640625, -0.03466796875, -0.78173828125
286, 3680930466, -15.897140502929688, 0.7370840907096863, 11.223148345947266, 72.62815856933594, -249.23178100585938, 63.855438232421875, 0.252685546875, -0.04833984375, -0.7744140625
287, 3680947133, -18.26366424560547, 1.5264962911605835, 10.653253555297852, 91.73473358154297, -251.3621368408203, 63.92184066772461, 0.2177734375, -0.07568359375, -0.767578125
288, 3680963800, -18.582433700561523, 1.4155323505401611, 8.227782249450684, 86.95359802246094, -225.3268280029297, 59.651573181152344, 0.2080078125, -0.099853515625, -0.778564453125
289, 3680980467, -20.815982818603516, 2.0892417430877686, 7.471806049346924, 75.46569061279297, -203.20364379882812, 71.48025512695312, 0.193359375, -0.12744140625, -0.818603515625
290, 3680997134, -20.828962326049805, 0.6016737222671509, 5.867791175842285, 50.96084976196289, -196.1726531982422, 83.55786895751953, 0.158935546875, -0.15576171875, -0.86962890625
291, 3681013801, -20.29620933532715, -2.8508358001708984, 3.608886957168579, 43.982810974121094, -188.8355712890625, 93.21815490722656, 0.0947265625, -0.18408203125, -0.912109375
292, 3681030468, -18.85887908935547, -4.125821590423584, 1.4675267934799194, 42.406822204589844, -171.44998168945312, 89.82752227783203, 0.024169921875, -0.21435546875, -0.937255859375
293, 3681047135, -18.048952102661133, -4.597835540771484, -0.3131119906902313, 20.965343475341797, -145.93106079101562, 70.2294692993164, -0.047607421875, -0.234619140625, -0.9462890625
294, 3681063802, -17.34490394592285, -5.068233489990234, -2.766209840774536, -1.4689651727676392, -113.72746276855469, 43.82515335083008, -0.103271484375, -0.244140625, -0.94580078125
295, 3681080469, -17.19659423828125, -5.7672929763793945, -3.995269536972046, 0.8443984985351562, -74.04193878173828, 25.839784622192383, -0.145263671875, -0.249755859375, -0.9375
296, 3681097136, -16.449350357055664, -4.7854905128479, -4.4301252365112305, 19.177078247070312, -32.10498046875, 17.025840759277344, -0.17138671875, -0.257080078125, -0.935546875
297, 3681113803, -16.2584228515625, -2.4529545307159424, -2.8742575645446777, 7.414695739746094, 10.604605674743652, 0.654961884021759, -0.179443359375, -0.26220703125, -0.933837890625
298, 3681130470, -7.130998134613037, -1.8884410858154297, 0.28790947794914246, -43.6680793762207, 62.271240234375, -33.867591857910156, -0.172607421875, -0.259765625, -0.945556640625
299, 3681147137, 3.535861015319824, 4.185342788696289, 11.909869194030762, -10.070085525512695, 86.40853881835938, -22.026700973510742, -0.154052734375, -0.257568359375, -0.960693359375
300, 3681163804, -0.24305975437164307, 10.778554916381836, 9.209977149963379, 20.654146194458008, 180.48538208007812, -43.7696647644043, -0.11767578125, -0.268310546875, -0.97216796875
301, 3681180471, -12.103714942932129, -4.809677600860596, 11.916707992553711, 33.490501403808594, 213.4321746826172, -39.503013610839844, -0.064208984375, -0.286376953125, -0.9833984375
302, 3681197138, -11.210412979125977, -2.9665331840515137, 14.93966007232666, 3.233926773071289, 153.89974975585938, -43.66419982910156, -0.020751953125, -0.291259765625, -0.991943359375
303, 3681213805, -7.9593377113342285, 5.588791370391846, 9.738645553588867, 10.78343677520752, 125.01866149902344, -26.319499969482422, 0.010986328125, -0.301513671875, -0.99951171875
304, 3681230472, -6.817040920257568, 3.585371494293213, 9.38883113861084, -0.05412224680185318, 114.38550567626953, -25.308298110961914, 0.041748046875, -0.305419921875, -1.001953125
305, 3681247139, -11.652290344238281, 7.6334123611450195, 11.095640182495117, -34.43641662597656, 90.55159759521484, -38.75734329223633, 0.069091796875, -0.301025390625, -1.01171875
306, 3681263806, -6.500588417053223, -0.9395390748977661, 10.537510871887207, -42.43830871582031, 51.91610336303711, -31.18117904663086, 0.086669921875, -0.293212890625, -1.013916015625
307, 3681280473, -5.844496250152588, 2.3627092838287354, 8.787101745605469, -43.50932312011719, 26.230194091796875, -20.353971481323242, 0.095703125, -0.279296875, -1.017822265625
308, 3681297140, -6.007269859313965, 1.0708143711090088, 9.148141860961914, -32.05946731567383, 14.972101211547852, -14.948070526123047, 0.1025390625, -0.272705078125, -1.019287109375
309, 3681313807, -5.279830455780029, 2.0674726963043213, 8.376612663269043, -22.023670196533203, 10.301229476928711, -9.421988487243652, 0.105712890625, -0.2646484375, -1.0234375
310, 3681330474, -5.220355033874512, 1.1811023950576782, 8.636831283569336, -12.980463027954102, 7.583587169647217, -6.279406547546387, 0.107666015625, -0.2607421875, -1.02392578125
311, 3681347141, -5.277694225311279, 1.4580318927764893, 8.462940216064453, -4.585851669311523, 6.4662275314331055, -2.0476584434509277, 0.108642578125, -0.2607421875, -1.02490234375
312, 3681363808, -5.026163101196289, 1.5648036003112793, 8.412006378173828, -1.4138084650039673, 7.650879383087158, 0.6852102279663086, 0.110107421875, -0.26025390625, -1.025390625
313, 3681380475, -4.95371675491333, 2.105745553970337, 8.179238319396973, -2.462430953979492, 8.258835792541504, 0.30561718344688416, 0.11328125, -0.26220703125, -1.026123046875
314, 3681397142, -4.967700481414795, 2.0856921672821045, 8.144599914550781, -4.193248271942139, 5.500693321228027, -2.9944965839385986, 0.1142578125, -0.26025390625, -1.025634765625
315, 3681413809, -5.457601547241211, 1.8494683504104614, 8.15007209777832, -6.810661315917969, 3.1393938064575195, -6.342909336090088, 0.11328125, -0.2587890625, -1.024658203125
316, 3681430476, -5.3705830574035645, 1.6274877786636353, 8.160974502563477, -9.501547813415527, 0.3738623559474945, -8.502946853637695, 0.11767578125, -0.2578125, -1.026123046875
317, 3681447143, -5.374160289764404, 1.6682283878326416, 8.205958366394043, -12.129223823547363, -0.9404863119125366, -9.572293281555176, 0.1171875, -0.25634765625, -1.028564453125
318, 3681463810, -5.249415874481201, 1.6818335056304932, 8.222393989562988, -12.997251510620117, -1.7137598991394043, -9.291539192199707, 0.11669921875, -0.251708984375, -1.02978515625
319, 3681480477, -5.213418960571289, 1.7301714420318604, 8.248108863830566, -14.495692253112793, -4.26728630065918, -10.92306137084961, 0.11376953125, -0.249755859375, -1.030517578125
320, 3681497144, -5.357794761657715, 1.8142650127410889, 8.243760108947754, -16.039813995361328, -8.25225830078125, -13.106910705566406, 0.11474609375, -0.244873046875, -1.031494140625
321, 3681513811, -5.274356365203857, 1.586588978767395, 8.250113487243652, -12.112517356872559, -7.08687686920166, -11.97070026397705, 0.11181640625, -0.244140625, -1.032958984375
322, 3681530478, -5.206364154815674, 1.4470244646072388, 8.243188858032227, -9.61662769317627, -4.078172206878662, -10.998689651489258, 0.11181640625, -0.2392578125, -1.03271484375
323, 3681547145, -5.130405902862549, 1.543415904045105, 8.232877731323242, -10.881205558776855, -0.9062421321868896, -11.431751251220703, 0.11181640625, -0.236328125, -1.03369140625
324, 3681563812, -5.2176432609558105, 1.6768923997879028, 8.203393936157227, -11.73736572265625, 0.2154862880706787, -13.451420783996582, 0.11279296875, -0.23486328125, -1.03369140625
325, 3681580479, -5.187662124633789, 1.6218489408493042, 8.218888282775879, -11.393720626831055, 0.888038158416748, -15.568646430969238, 0.11328125, -0.231689453125, -1.0341796875
326, 3681597146, -5.0445237159729, 1.5080703496932983, 8.244275093078613, -11.058670043945312, 5.325316905975342, -16.63643455505371, 0.1171875, -0.228759765625, -1.0341796875
327, 3681613813, -5.022689342498779, 1.175377368927002, 8.322571754455566, -6.378430366516113, 14.22049331665039, -15.209691047668457, 0.119140625, -0.226318359375, -1.033203125
328, 3681630480, -4.759018898010254, 1.055464506149292, 8.323534965515137, -2.371948003768921, 25.533727645874023, -13.864849090576172, 0.127197265625, -0.227294921875, -1.035400390625
329, 3681647147, -5.011075496673584, 1.3232170343399048, 8.336148262023926, 6.138854026794434, 44.119781494140625, -13.768749237060547, 0.13818359375, -0.224853515625, -1.031005859375
330, 3681663814, -5.014728546142578, 1.2779417037963867, 8.543753623962402, 8.191338539123535, 62.78131103515625, -15.098360061645508, 0.15380859375, -0.22900390625, -1.028076171875
331, 3681680481, -5.09756326675415, 1.1107635498046875, 8.320260047912598, 8.324328422546387, 84.39781951904297, -16.42230987548828, 0.179443359375, -0.230712890625, -1.023193359375
332, 3681697148, -5.356966495513916, 0.9439423084259033, 8.12092399597168, 13.955291748046875, 106.39875793457031, -14.437298774719238, 0.2060546875, -0.23388671875, -1.020263671875
333, 3681713815, -5.531002521514893, 1.1177610158920288, 8.059172630310059, 17.91655921936035, 129.8222198486328, -13.881474494934082, 0.2412109375, -0.241943359375, -1.00634765625
334, 3681730482, -5.545177936553955, 1.0941519737243652, 8.027369499206543, 19.49722671508789, 156.61056518554688, -15.528820991516113, 0.2822265625, -0.244140625, -0.992431640625
335, 3681747149, -5.690638065338135, 1.0217944383621216, 7.826292037963867, 19.803951263427734, 187.375732421875, -16.692838668823242, 0.330810546875, -0.246337890625, -0.9755859375
336, 3681763816, -5.815236568450928, 1.257338047027588, 7.804254055023193, 14.318903923034668, 229.8810272216797, -18.671146392822266, 0.38525390625, -0.249267578125, -0.9501953125
337, 3681780483, -6.548593521118164, 1.6211382150650024, 7.2200846672058105, 3.922429084777832, 291.4257507324219, -23.057418823242188, 0.4580078125, -0.24658203125, -0.91455078125
338, 3681797150, -6.829800605773926, 2.286432981491089, 7.81380558013916, -12.329936027526855, 374.1459045410156, -34.377559661865234, 0.543701171875, -0.240234375, -0.860595703125
339, 3681813817, -8.584662437438965, 3.0346171855926514, 9.733489990234375, -16.781558990478516, 471.4828186035156, -53.51744079589844, 0.642333984375, -0.225341796875, -0.781494140625
340, 3681830484, -15.726092338562012, 2.1016926765441895, 12.08393669128418, 5.774782657623291, 509.8735046386719, -76.89677429199219, 0.745849609375, -0.205322265625, -0.6748046875
341, 3681847151, -18.960142135620117, 2.3561689853668213, 11.547952651977539, 23.265954971313477, 492.7248840332031, -80.08171844482422, 0.8232421875, -0.18359375, -0.544921875
342, 3681863818, -19.094263076782227, 5.397820949554443, 11.479192733764648, 1.4026964902877808, 478.82562255859375, -105.6819839477539, 0.8740234375, -0.15185546875, -0.40625
343, 3681880485, -13.197840690612793, 4.434394836425781, 13.158611297607422, -12.299691200256348, 440.168701171875, -117.21774291992188, 0.903564453125, -0.1083984375, -0.26611328125
344, 3681897152, -4.877918720245361, 2.5839757919311523, 16.03494644165039, 8.463692665100098, 361.4416809082031, -75.07061004638672, 0.90869140625, -0.078125, -0.14453125
345, 3681913819, -27.83608055114746, 5.317828178405762, 21.386072158813477, 46.469566345214844, 223.77880859375, -58.68926239013672, 0.902099609375, -0.05908203125, -0.05908203125
346, 3681930486, -19.874082565307617, 7.691038608551025, 29.533720016479492, 47.877864837646484, -66.24192810058594, -24.107507705688477, 0.899169921875, -0.043212890625, -0.035888671875
347, 3681947153, -5.084039688110352, 5.0611042976379395, 14.215194702148438, 4.956877708435059, -220.44435119628906, -11.341485977172852, 0.9052734375, -0.0400390625, -0.07861328125
348, 3681963820, -1.9260454177856445, 2.6131293773651123, 7.212330341339111, -17.585229873657227, -239.3675079345703, -20.206838607788086, 0.9140625, -0.0400390625, -0.14794921875
349, 3681980487, -2.92161226272583, 2.7158424854278564, 6.155450820922852, -38.24956512451172, -244.7041778564453, -33.25398635864258, 0.906982421875, -0.03662109375, -0.23583984375
350, 3681997154, -4.7562174797058105, 2.9961464405059814, 7.547764778137207, -46.17867660522461, -280.4902038574219, -37.75723648071289, 0.873291015625, -0.032470703125, -0.330322265625
351, 3682013821, -6.367525100708008, 2.661299705505371, 7.674837589263916, -41.847679138183594, -330.2637023925781, -31.25554656982422, 0.813232421875, -0.026123046875, -0.418212890625
352, 3682030488, -7.151127815246582, 2.595022201538086, 6.945796489715576, -18.724321365356445, -372.16278076171875, -11.167882919311523, 0.74365234375, -0.02392578125, -0.496337890625
353, 3682047155, -7.553179740905762, 3.2272515296936035, 6.096347332000732, 2.463676691055298, -398.5077819824219, 13.922523498535156, 0.66064453125, -0.02685546875, -0.56640625
354, 3682063822, -7.620628833770752, 3.8679141998291016, 5.212980270385742, 8.671534538269043, -413.39617919921875, 36.80967712402344, 0.57373046875, -0.03466796875, -0.6220703125
355, 3682080489, -8.133743286132812, 3.219238758087158, 5.3677077293396, 4.229465007781982, -408.22772216796875, 55.353736877441406, 0.48828125, -0.042236328125, -0.66357421875
356, 3682097156, -9.797330856323242, 1.659534215927124, 6.493471622467041, 20.485092163085938, -405.07763671875, 71.88150024414062, 0.407470703125, -0.051513671875, -0.69482421875
357, 3682113823, -10.194944381713867, -1.3101133108139038, 5.083437442779541, 59.03707504272461, -384.02239990234375, 77.97354888916016, 0.333984375, -0.0732421875, -0.717041015625
358, 3682130490, -12.464558601379395, -3.54357647895813, 4.839080810546875, 103.05982971191406, -313.56207275390625, 64.74736785888672, 0.27587890625, -0.1005859375, -0.73193359375
359, 3682147157, -17.071226119995117, -2.0476226806640625, 10.432232856750488, 121.57018280029297, -265.23876953125, 32.094078063964844, 0.23681640625, -0.135986328125, -0.7392578125
360, 3682163824, -20.504621505737305, 0.5712532997131348, 10.276517868041992, 107.75670623779297, -272.359375, 7.71793794631958, 0.199462890625, -0.166748046875, -0.756103515625
361, 3682180491, -19.770566940307617, 2.822899341583252, 7.277141571044922, 85.2764663696289, -250.2696075439453, 21.753520965576172, 0.150634765625, -0.19970703125, -0.77783203125
362, 3682197158, -22.71245002746582, 4.383591175079346, 8.031112670898438, 56.0645637512207, -238.29139709472656, 60.424034118652344, 0.087890625, -0.22705078125, -0.794921875
363, 3682213825, -20.348798751831055, -0.20200113952159882, 2.2247233390808105, 39.79230880737305, -224.92076110839844, 88.26028442382812, 0.01220703125, -0.24755859375, -0.801025390625
364, 3682230492, -19.86765480041504, -4.914851665496826, -2.522242307662964, 57.26141357421875, -158.28416442871094, 83.87743377685547, -0.0537109375, -0.265625, -0.793701171875
365, 3682247159, -23.05487823486328, -4.160249710083008, -0.333526611328125, 69.49525451660156, -110.32350158691406, 73.170654296875, -0.095458984375, -0.283447265625, -0.778076171875
366, 3682263826, -22.81083869934082, -2.84612774848938, -1.835266351699829, 41.835411071777344, -103.56902313232422, 77.92424774169922, -0.12939453125, -0.29296875, -0.761962890625
367, 3682280493, -20.323707580566406, -3.609489917755127, -6.333208084106445, -8.224406242370605, -71.78700256347656, 79.66537475585938, -0.156982421875, -0.292724609375, -0.75
368, 3682297160, -20.850187301635742, -4.538661003112793, -6.415065288543701, -33.09550094604492, -26.71544075012207, 76.18643188476562, -0.17431640625, -0.283203125, -0.74365234375
369, 3682313827, -20.044326782226562, -5.475236892700195, -5.922370433807373, -36.92316818237305, 17.754051208496094, 65.27816009521484, -0.184814453125, -0.2724609375, -0.74072265625
370, 3682330494, -1.9936007261276245, -6.535099983215332, 2.9072141647338867, -52.244537353515625, 70.28277587890625, 17.611345291137695, -0.173828125, -0.256103515625, -0.748046875
371, 3682347161, 0.5444332361221313, 3.054852247238159, 22.844554901123047, 25.749698638916016, 118.28041076660156, -32.61638641357422, -0.15771484375, -0.259521484375, -0.748046875
372, 3682363828, -5.475121021270752, 0.21552515029907227, 4.3955912590026855, 38.61635971069336, 170.67041015625, -44.962066650390625, -0.12353515625, -0.27197265625, -0.747314453125
373, 3682380495, -11.655779838562012, 1.5541714429855347, 13.330277442932129, 27.840862274169922, 170.6579132080078, -20.63306999206543, -0.086181640625, -0.27978515625, -0.74658203125
374, 3682397162, -6.6622514724731445, 3.075611114501953, 9.88884162902832, 25.635976791381836, 128.62677001953125, -15.837446212768555, -0.05859375, -0.284912109375, -0.74365234375
375, 3682413829, -7.356174468994141, 6.790416717529297, 10.370101928710938, 11.194079399108887, 123.23263549804688, -20.231412887573242, -0.029052734375, -0.29052734375, -0.74365234375
376, 3682430496, -9.801518440246582, 5.302469253540039, 9.681717872619629, -30.510568618774414, 91.10558319091797, -42.16773986816406, -0.00439453125, -0.285400390625, -0.743896484375
377, 3682447163, -6.524704933166504, -0.868432343006134, 10.795300483703613, -46.47305679321289, 51.784095764160156, -31.272045135498047, 0.01025390625, -0.27783203125, -0.750244140625
378, 3682463830, -5.766240119934082, 2.0314784049987793, 9.011151313781738, -41.55297088623047, 35.04404830932617, -19.66819953918457, 0.018798828125, -0.26904296875, -0.75
379, 3682480497, -5.738162994384766, 1.35262930393219, 8.917523384094238, -29.081634521484375, 15.287898063659668, -13.7654390335083, 0.022705078125, -0.261474609375, -0.752197265625
380, 3682497164, -5.739412784576416, 2.3692030906677246, 8.39995002746582, -22.537002563476562, 5.649169921875, -13.48875617980957, 0.0234375, -0.25732421875, -0.753173828125
381, 3682513831, -5.581565856933594, 1.6452758312225342, 8.535712242126465, -15.516026496887207, -0.8073390126228333, -11.998016357421875, 0.025390625, -0.25390625, -0.754638671875
382, 3682530498, -5.100376129150391, 1.3515697717666626, 8.495318412780762, -15.985058784484863, -0.8495486974716187, -10.711487770080566, 0.02734375, -0.24951171875, -0.755615234375
383, 3682547165, -4.970613956451416, 1.7780073881149292, 8.381539344787598, -17.08047866821289, 1.9724301099777222, -8.818207740783691, 0.0283203125, -0.2470703125, -0.757080078125
384, 3682563832, -5.189411163330078, 1.9588676691055298, 8.367642402648926, -14.34892463684082, 1.6874876022338867, -7.891355514526367, 0.02880859375, -0.24658203125, -0.7587890625
385, 3682580499, -5.275506496429443, 2.040703535079956, 8.242252349853516, -13.151838302612305, -0.36475080251693726, -8.625789642333984, 0.029296875, -0.241455078125, -0.759765625
386, 3682597166, -5.2578277587890625, 1.7257986068725586, 8.26672077178955, -12.366039276123047, -2.457322835922241, -9.26336669921875, 0.03125, -0.239990234375, -0.7587890625
387, 3682613833, -5.207499980926514, 1.667659878730774, 8.250761032104492, -11.436782836914062, -3.012042999267578, -8.842266082763672, 0.031494140625, -0.239990234375, -0.76171875
388, 3682630500, -5.1060357093811035, 1.6638710498809814, 8.260499000549316, -10.449090957641602, -3.1427953243255615, -7.785791873931885, 0.0302734375, -0.237548828125, -0.759765625
389, 3682647167, -5.081666946411133, 1.7007173299789429, 8.28119945526123, -12.468708992004395, -3.605797290802002, -8.508174896240234, 0.02685546875, -0.2353515625, -0.7587890625
390, 3682663834, -5.100008487701416, 1.9330462217330933, 8.228833198547363, -15.647278785705566, -6.444701194763184, -11.673630714416504, 0.0283203125, -0.2314453125, -0.759521484375
391, 3682680501, -5.073523998260498, 1.6300829648971558, 8.236167907714844, -14.403450012207031, -6.814383506774902, -12.717171669006348, 0.02880859375, -0.22900390625, -0.760986328125
392, 3682697168, -5.0244832038879395, 1.4821313619613647, 8.265565872192383, -11.741398811340332, -3.9957644939422607, -11.550057411193848, 0.0263671875, -0.22802734375, -0.762451171875
393, 3682713835, -5.123005390167236, 1.4359700679779053, 8.295130729675293, -8.081476211547852, 0.04196001961827278, -9.682846069335938, 0.0283203125, -0.224365234375, -0.76318359375
394, 3682730502, -5.096881866455078, 1.4400310516357422, 8.307232856750488, -5.461525917053223, 3.1858558654785156, -8.110392570495605, 0.029296875, -0.225341796875, -0.762451171875
395, 3682747169, -5.127912998199463, 1.6157187223434448, 8.306150436401367, -4.190981864929199, 4.996328830718994, -8.2140474319458, 0.03125, -0.223388671875, -0.763427734375
396, 3682763836, -5.0024237632751465, 1.6808257102966309, 8.355209350585938, -4.449837684631348, 6.2119340896606445, -9.779638290405273, 0.0322265625, -0.223388671875, -0.760498046875
397, 3682780503, -4.970688343048096, 1.5890246629714966, 8.401415824890137, -4.007532596588135, 11.042009353637695, -10.943304061889648, 0.034912109375, -0.221923828125, -0.762939453125
398, 3682797170, -4.957587718963623, 1.3558804988861084, 8.41833782196045, -1.776692271232605, 19.957368850708008, -10.635872840881348, 0.040283203125, -0.22509765625, -0.76171875
399, 3682813837, -4.696951389312744, 0.9286901354789734, 8.373841285705566, 5.116433143615723, 33.57231140136719, -7.9682207107543945, 0.0478515625, -0.22509765625, -0.760986328125
400, 3682830504, -5.023191928863525, 1.0989245176315308, 8.28722858428955, 13.92776107788086, 49.68474197387695, -5.140081882476807, 0.058349609375, -0.22607421875, -0.758056640625
401, 3682847171, -4.987195014953613, 1.3577383756637573, 8.336956024169922, 16.784320831298828, 66.06761932373047, -3.767817974090576, 0.070556640625, -0.231201171875, -0.756591796875
402, 3682863838, -5.237524509429932, 1.6105408668518066, 8.263121604919434, 16.213720321655273, 83.55303192138672, -5.407260417938232, 0.087646484375, -0.23583984375, -0.75146484375
403, 3682880505, -5.485913276672363, 1.63336980342865, 8.063458442687988, 15.292464256286621, 101.49311828613281, -8.648772239685059, 0.11279296875, -0.238037109375, -0.74755859375
404, 3682897172, -5.495050430297852, 1.4751553535461426, 7.926944732666016, 15.894490242004395, 121.12234497070312, -11.941325187683105, 0.13720703125, -0.2412109375, -0.73974609375
405, 3682913839, -5.7055230140686035, 1.3343498706817627, 7.785457611083984, 18.30116081237793, 143.92796325683594, -14.132299423217773, 0.16796875, -0.246337890625, -0.731201171875
406, 3682930506, -5.708512306213379, 1.2441117763519287, 7.770988464355469, 21.991636276245117, 169.22740173339844, -13.903701782226562, 0.201904296875, -0.248046875, -0.721435546875
407, 3682947173, -5.775300979614258, 1.3568698167800903, 7.766613006591797, 22.19365882873535, 207.26422119140625, -12.385695457458496, 0.241943359375, -0.253662109375, -0.70556640625
408, 3682963840, -6.0917181968688965, 2.042694330215454, 7.534569263458252, 13.980772972106934, 259.9320983886719, -17.145179748535156, 0.294189453125, -0.25634765625, -0.68408203125
409, 3682980507, -6.920804977416992, 2.3570375442504883, 7.273118495941162, -1.6122255325317383, 333.41033935546875, -27.613162994384766, 0.356201171875, -0.254638671875, -0.65283203125
410, 3682997174, -7.582576274871826, 3.0634427070617676, 8.848372459411621, -4.758397579193115, 423.66845703125, -42.76336669921875, 0.429931640625, -0.249267578125, -0.603271484375
411, 3683013841, -13.305315017700195, 3.083739757537842, 11.1386079788208, 15.816449165344238, 473.050537109375, -67.33051300048828, 0.509521484375, -0.244873046875, -0.533447265625
412, 3683030508, -17.86670684814453, 1.6136457920074463, 10.911531448364258, 37.10706329345703, 460.0504455566406, -78.93828582763672, 0.584228515625, -0.23388671875, -0.4521484375
413, 3683047175, -17.833637237548828, 5.546241283416748, 10.825313568115234, 32.33537673950195, 454.2972106933594, -95.06843566894531, 0.64306640625, -0.21923828125, -0.362060546875
414, 3683063842, -14.858935356140137, 5.203498363494873, 12.123783111572266, 6.195880889892578, 432.0926208496094, -123.95350646972656, 0.689697265625, -0.197265625, -0.268798828125
415, 3683080509, -7.0417256355285645, 3.7046852111816406, 11.510462760925293, 19.41766929626465, 384.4035949707031, -104.23684692382812, 0.71728515625, -0.17138671875, -0.17431640625
416, 3683097176, -13.67348575592041, 3.138046979904175, 15.99473762512207, 56.50165939331055, 278.3056335449219, -75.44298553466797, 0.7294921875, -0.15283203125, -0.09814453125
417, 3683113843, -29.22877311706543, 7.175974369049072, 29.991409301757812, 78.64777374267578, 70.78223419189453, -62.1634635925293, 0.724853515625, -0.130859375, -0.049072265625
418, 3683130510, -10.542688369750977, 7.202661991119385, 20.687992095947266, 48.45335006713867, -187.91290283203125, -11.128741264343262, 0.715087890625, -0.10986328125, -0.052734375
419, 3683147177, -2.6256229877471924, 3.7670083045959473, 9.357732772827148, -15.678701400756836, -254.63290405273438, -27.294578552246094, 0.706298828125, -0.087890625, -0.064453125
420, 3683163844, -1.5838978290557861, 2.3847413063049316, 5.703954696655273, -59.95464324951172, -253.81024169921875, -58.322227478027344, 0.713623046875, -0.05224609375, -0.069091796875
421, 3683180511, -2.9699764251708984, 2.2156195640563965, 6.245750427246094, -92.06033325195312, -258.7671813964844, -77.8772201538086, 0.75390625, -0.0048828125, -0.077880859375
422, 3683197178, -5.0315470695495605, 1.953141450881958, 7.2819013595581055, -94.33349609375, -293.20648193359375, -88.4103012084961, 0.81298828125, 0.04296875, -0.126220703125
423, 3683213845, -5.700366973876953, 1.0503523349761963, 6.574487686157227, -56.67924118041992, -330.3238525390625, -74.18427276611328, 0.873779296875, 0.091552734375, -0.23681640625
424, 3683230512, -6.6531453132629395, 1.8572016954421997, 5.3387885093688965, -5.2763261795043945, -355.0272216796875, -41.6279182434082, 0.888916015625, 0.1240234375, -0.402099609375
425, 3683247179, -7.906090259552002, 3.3564677238464355, 5.428311824798584, 23.05125617980957, -368.9608459472656, -12.561004638671875, 0.825439453125, 0.130615234375, -0.572265625
426, 3683263846, -8.819843292236328, 4.245121955871582, 6.428308486938477, 27.489341735839844, -384.8545837402344, 20.082054138183594, 0.708740234375, 0.1240234375, -0.703125
427, 3683280513, -9.286474227905273, 3.403632640838623, 6.301682472229004, 25.536815643310547, -401.02020263671875, 41.16769027709961, 0.577392578125, 0.117919921875, -0.78515625
428, 3683297180, -8.696527481079102, 1.9980428218841553, 3.975032329559326, 42.37449645996094, -385.7779541015625, 47.120357513427734, 0.461181640625, 0.11181640625, -0.8330078125
429, 3683313847, -10.176895141601562, 2.170804500579834, 2.9414730072021484, 57.73970031738281, -315.744384765625, 53.552818298339844, 0.37109375, 0.09814453125, -0.866943359375
430, 3683330514, -12.665811538696289, 3.489166736602783, 6.949170112609863, 64.53084564208984, -242.15003967285156, 74.8581771850586, 0.299072265625, 0.077392578125, -0.900634765625
431, 3683347181, -18.968698501586914, 2.2168538570404053, 12.1028413772583, 72.53568267822266, -241.53773498535156, 103.29244995117188, 0.22412109375, 0.046875, -0.923828125
432, 3683363848, -19.049436569213867, -0.1594701111316681, 10.581780433654785, 80.00078582763672, -249.29490661621094, 105.58949279785156, 0.13623046875, 0.019775390625, -0.926025390625
433, 3683380515, -19.834148406982422, -1.6112011671066284, 9.750425338745117, 94.240966796875, -246.37339782714844, 95.86883544921875, 0.060791015625, -0.00830078125, -0.913330078125
434, 3683397182, -20.709007263183594, -2.124241352081299, 9.505061149597168, 99.4629135131836, -250.89877319335938, 88.1155014038086, -0.0048828125, -0.041259765625, -0.907958984375
435, 3683413849, -19.79062843322754, -4.295598983764648, 6.663599491119385, 90.13053131103516, -252.08116149902344, 72.5029296875, -0.07177734375, -0.073974609375, -0.900390625
436, 3683430516, -18.76002311706543, -5.895279884338379, 3.3257765769958496, 81.067626953125, -231.73236083984375, 48.18943405151367, -0.13671875, -0.10107421875, -0.890380859375
437, 3683447183, -18.83713150024414, -5.133619785308838, -0.08842319250106812, 68.54369354248047, -191.25552368164062, 24.94802474975586, -0.18994140625, -0.127197265625, -0.873291015625
438, 3683463850, -20.9829044342041, -4.001060485839844, -3.7022716999053955, 50.958126068115234, -146.38119506835938, 5.337248802185059, -0.23046875, -0.1474609375, -0.858642578125
439, 3683480517, -21.01252555847168, -4.341695785522461, -7.8815741539001465, 44.13842010498047, -96.93396759033203, -0.15776772797107697, -0.257568359375, -0.16015625, -0.842041015625
440, 3683497184, -19.96636390686035, -3.8845481872558594, -9.488216400146484, 33.93684005737305, -28.486398696899414, 12.724822998046875, -0.271728515625, -0.170654296875, -0.83544921875
441, 3683513851, -20.0692195892334, -1.6444650888442993, -5.722362041473389, -13.742228507995605, 28.236486434936523, 30.796554565429688, -0.270263671875, -0.16943359375, -0.83740234375
442, 3683530518, 0.34403496980667114, -5.213368892669678, 5.644198894500732, -94.2957534790039, 40.739749908447266, 21.709453582763672, -0.265625, -0.138427734375, -0.8427734375
443, 3683547185, 4.063183784484863, 1.875981330871582, 22.69453239440918, -8.31934642791748, 125.05686950683594, -26.885108947753906, -0.2490234375, -0.130126953125, -0.853515625
444, 3683563852, -2.9506452083587646, -1.3627946376800537, 3.571188449859619, 23.446712493896484, 191.5252227783203, -50.66377258300781, -0.204833984375, -0.134033203125, -0.861572265625
445, 3683580519, -10.938652038574219, -4.086770534515381, 13.444973945617676, 45.86341857910156, 217.32774353027344, -12.0433988571167, -0.1494140625, -0.14306640625, -0.867919921875
446, 3683597186, -8.266303062438965, 3.0672454833984375, 11.245824813842773, 58.52802658081055, 175.82223510742188, -5.495638847351074, -0.10498046875, -0.15283203125, -0.868896484375
447, 3683613853, -5.708767890930176, 6.030378818511963, 7.644528865814209, 52.37070846557617, 166.5335235595703, -3.210179328918457, -0.065185546875, -0.165771484375, -0.870361328125
448, 3683630520, -9.00273609161377, 7.317262649536133, 11.686562538146973, 23.897546768188477, 150.3980712890625, -22.526966094970703, -0.027099609375, -0.17041015625, -0.870849609375
449, 3683647187, -12.26529312133789, 3.804840087890625, 11.074601173400879, -43.088890075683594, 81.94816589355469, -44.13969039916992, 0.002685546875, -0.16064453125, -0.873046875
450, 3683663854, -6.537805557250977, -0.14553503692150116, 10.468228340148926, -47.18592834472656, 42.147396087646484, -26.836469650268555, 0.01513671875, -0.150634765625, -0.876220703125
451, 3683680521, -6.064828395843506, 2.1202824115753174, 8.833545684814453, -43.14703369140625, 21.22649383544922, -21.334714889526367, 0.023193359375, -0.13720703125, -0.878173828125
452, 3683697188, -5.919341564178467, 1.7786171436309814, 8.70753288269043, -35.27889633178711, 6.520972728729248, -17.590913772583008, 0.026611328125, -0.126220703125, -0.87939453125
453, 3683713855, -5.588706970214844, 1.9057692289352417, 8.576740264892578, -32.68046951293945, -2.615940570831299, -18.569185256958008, 0.026123046875, -0.1171875, -0.88037109375
454, 3683730522, -5.270064353942871, 1.8672425746917725, 8.41061019897461, -30.353313446044922, -8.292499542236328, -20.318092346191406, 0.026611328125, -0.108642578125, -0.882568359375
455, 3683747189, -5.021360397338867, 2.117647409439087, 8.216753959655762, -28.58707618713379, -11.671161651611328, -20.902036666870117, 0.024169921875, -0.1025390625, -0.8828125
456, 3683763856, -5.3496856689453125, 1.9652795791625977, 8.113116264343262, -26.048120498657227, -7.770614147186279, -17.760896682739258, 0.023193359375, -0.0966796875, -0.88330078125
457, 3683780523, -5.272702693939209, 1.2820590734481812, 8.52118968963623, -16.658906936645508, -0.5949966311454773, -11.00064468383789, 0.021484375, -0.093017578125, -0.882080078125
458, 3683797190, -5.271524906158447, 1.4978957176208496, 8.31551742553711, -11.483664512634277, 0.7786585092544556, -7.409975051879883, 0.021484375, -0.091552734375, -0.883544921875
459, 3683813857, -5.260091781616211, 1.662030577659607, 8.291269302368164, -10.329927444458008, -0.9253618121147156, -6.451318264007568, 0.022705078125, -0.087158203125, -0.88623046875
460, 3683830524, -5.000316143035889, 1.74494206905365, 8.251436233520508, -9.897136688232422, -2.607604742050171, -6.899744987487793, 0.02099609375, -0.0849609375, -0.8837890625
461, 3683847191, -5.093824863433838, 1.5129810571670532, 8.345406532287598, -9.855386734008789, -3.8969099521636963, -7.670981407165527, 0.024169921875, -0.083984375, -0.885986328125
462, 3683863858, -5.081328392028809, 1.5044641494750977, 8.331204414367676, -8.46873950958252, -3.120178461074829, -6.576663970947266, 0.0205078125, -0.08154296875, -0.88427734375
463, 3683880525, -4.978693008422852, 1.604728102684021, 8.252724647521973, -7.155383586883545, -2.1439754962921143, -6.002401351928711, 0.022216796875, -0.08056640625, -0.88720703125
464, 3683897192, -5.025059700012207, 1.6041779518127441, 8.264558792114258, -6.146998405456543, -1.7701964378356934, -6.425856590270996, 0.02197265625, -0.078125, -0.884765625
465, 3683913859, -4.982155799865723, 1.546096682548523, 8.264750480651855, -5.879447937011719, -1.2690199613571167, -7.119537830352783, 0.02099609375, -0.07861328125, -0.88232421875
466, 3683930526, -5.083537578582764, 1.577432632446289, 8.246725082397461, -6.484778881072998, -0.04146697372198105, -7.679586410522461, 0.02099609375, -0.07763671875, -0.8837890625
467, 3683947193, -5.164922714233398, 1.5520306825637817, 8.27275276184082, -6.388885974884033, 1.8166136741638184, -8.42931079864502, 0.02099609375, -0.074462890625, -0.88134765625
468, 3683963860, -5.0928120613098145, 1.648519515991211, 8.226872444152832, -6.227192401885986, 3.8367905616760254, -9.196948051452637, 0.024169921875, -0.073974609375, -0.8828125
469, 3683980527, -5.1871161460876465, 1.610358476638794, 8.23986530303955, -4.222857475280762, 5.868493556976318, -10.352401733398438, 0.026611328125, -0.07470703125, -0.8857421875
470, 3683997194, -5.120657444000244, 1.4632985591888428, 8.297232627868652, -2.1670665740966797, 9.367704391479492, -10.122415542602539, 0.029052734375, -0.07470703125, -0.885498046875
471, 3684013861, -5.068378448486328, 1.4554160833358765, 8.335614204406738, -1.6028447151184082, 15.986385345458984, -9.904647827148438, 0.033203125, -0.0732421875, -0.884521484375
472, 3684030528, -5.067713260650635, 1.3582338094711304, 8.381086349487305, 1.9955604076385498, 23.488340377807617, -8.382094383239746, 0.0380859375, -0.0732421875, -0.88330078125
473, 3684047195, -4.801091194152832, 1.0061075687408447, 8.351837158203125, 6.958077907562256, 36.92151641845703, -6.542798042297363, 0.045654296875, -0.07421875, -0.883544921875
474, 3684063862, -5.108747959136963, 1.1991409063339233, 8.295031547546387, 15.814600944519043, 55.778045654296875, -6.021182060241699, 0.059326171875, -0.078369140625, -0.884033203125
475, 3684080529, -5.124356269836426, 1.23782217502594, 8.363785743713379, 19.83685302734375, 72.93220520019531, -3.8452351093292236, 0.080322265625, -0.0869140625, -0.87939453125
476, 3684097196, -5.268286228179932, 1.7446277141571045, 8.24584674835205, 15.431929588317871, 92.18620300292969, -6.1467509269714355, 0.099853515625, -0.091064453125, -0.878662109375
477, 3684113863, -5.680581569671631, 1.7709660530090332, 7.90911865234375, 13.710811614990234, 111.09005737304688, -11.546794891357422, 0.1279296875, -0.0927734375, -0.8701171875
478, 3684130530, -5.684523105621338, 1.5014865398406982, 7.7922821044921875, 16.209476470947266, 128.4532470703125, -16.115991592407227, 0.15966796875, -0.096923828125, -0.867431640625
479, 3684147197, -5.778054237365723, 1.4106452465057373, 7.684926986694336, 20.5220890045166, 149.17318725585938, -18.25782585144043, 0.19580078125, -0.09912109375, -0.85986328125
480, 3684163864, -5.61667537689209, 1.1444085836410522, 7.813166618347168, 22.356706619262695, 178.53485107421875, -18.06537628173828, 0.23681640625, -0.10498046875, -0.845947265625
481, 3684180531, -5.76420783996582, 1.6861943006515503, 7.648340225219727, 18.150197982788086, 225.23423767089844, -19.260602951049805, 0.28955078125, -0.108154296875, -0.827392578125
482, 3684197198, -6.523305892944336, 1.58354651927948, 7.079174995422363, 8.867953300476074, 285.03302001953125, -24.301557540893555, 0.353515625, -0.1064453125, -0.797119140625
483, 3684213865, -6.983143329620361, 2.271054267883301, 8.188121795654297, -6.1934380531311035, 371.462158203125, -26.12818717956543, 0.43017578125, -0.104248046875, -0.758544921875
484, 3684230532, -9.326204299926758, 3.019163131713867, 10.7854585647583, -0.9067739248275757, 452.83349609375, -40.47822952270508, 0.5244140625, -0.096435546875, -0.694091796875
485, 3684247199, -17.216705322265625, 2.2574753761291504, 11.595311164855957, 27.063526153564453, 467.6113586425781, -61.332027435302734, 0.613037109375, -0.093505859375, -0.611328125
486, 3684263866, -16.976884841918945, 3.522092819213867, 10.950948715209961, 49.78165817260742, 460.5400390625, -68.95549011230469, 0.69287109375, -0.091552734375, -0.5185546875
487, 3684280533, -16.728960037231445, 6.088498115539551, 11.322872161865234, 28.486867904663086, 454.7433166503906, -104.53707885742188, 0.754150390625, -0.084716796875, -0.4150390625
488, 3684297200, -11.274703025817871, 4.4448747634887695, 12.417720794677734, 27.16805076599121, 423.9496154785156, -118.23542785644531, 0.802734375, -0.0673828125, -0.308837890625
489, 3684313867, -6.511387348175049, 2.809429168701172, 15.703027725219727, 66.52708435058594, 331.9683837890625, -77.7146224975586, 0.829833984375, -0.055908203125, -0.216064453125
490, 3684330534, -31.85419464111328, 7.4358930587768555, 24.467304229736328, 73.75655364990234, 159.99990844726562, -97.02693939208984, 0.836181640625, -0.043701171875, -0.159912109375
491, 3684347201, -14.481727600097656, 8.064643859863281, 24.960464477539062, 79.0119400024414, -121.33514404296875, -31.282390594482422, 0.82275390625, -0.045654296875, -0.1640625
492, 3684363868, -1.9371384382247925, 5.0921149253845215, 9.417864799499512, 2.943002223968506, -213.95034790039062, -42.9350700378418, 0.801513671875, -0.045166015625, -0.19287109375
493, 3684380535, -0.6115483045578003, 2.172266960144043, 4.504194736480713, -46.444358825683594, -208.03665161132812, -68.23751831054688, 0.779052734375, -0.031494140625, -0.22509765625
494, 3684397202, -2.1576716899871826, 1.123921275138855, 5.989639759063721, -68.81791687011719, -205.7789306640625, -69.35700988769531, 0.76025390625, -0.013916015625, -0.248779296875
495, 3684413869, -5.265788555145264, 1.5588029623031616, 8.680557250976562, -69.6489028930664, -253.5020294189453, -61.13443374633789, 0.742431640625, 9.765625E-4, -0.275390625
496, 3684430536, -6.32791805267334, 1.3170819282531738, 8.543710708618164, -59.65642166137695, -321.842529296875, -45.54011154174805, 0.72265625, 0.015380859375, -0.322509765625
497, 3684447203, -5.49905252456665, 1.7767598628997803, 6.512182235717773, -44.589256286621094, -361.80712890625, -26.57207679748535, 0.698486328125, 0.024169921875, -0.375
498, 3684463870, -5.648743629455566, 2.7474889755249023, 5.87583589553833, -35.07828903198242, -379.7232360839844, -6.010181903839111, 0.67333984375, 0.029052734375, -0.426513671875
499, 3684480537, -6.2086310386657715, 3.70337176322937, 6.538151741027832, -33.30510330200195, -393.80426025390625, 17.35386085510254, 0.65380859375, 0.030029296875, -0.485595703125
500, 3684497204, -7.242061614990234, 3.3459224700927734, 6.466526031494141, -25.785648345947266, -402.7152404785156, 39.375797271728516, 0.6357421875, 0.0185546875, -0.569091796875
501, 3684513871, -7.98588752746582, 1.268021583557129, 5.20480489730835, 8.350055694580078, -392.89697265625, 51.558101654052734, 0.58349609375, 0.001708984375, -0.6689453125
502, 3684530538, -10.659456253051758, 1.6278736591339111, 4.909531593322754, 45.15607452392578, -333.4994812011719, 57.233219146728516, 0.505615234375, -0.02099609375, -0.75390625
503, 3684547205, -12.36247444152832, 2.9777393341064453, 7.153313636779785, 52.956451416015625, -285.0768127441406, 65.00662231445312, 0.418212890625, -0.038818359375, -0.806396484375
504, 3684563872, -14.865214347839355, 3.8055498600006104, 8.239468574523926, 36.18523406982422, -246.31813049316406, 68.62101745605469, 0.33251953125, -0.060302734375, -0.827392578125
505, 3684580539, -18.18394660949707, 3.1013972759246826, 8.56750774383545, 50.868492126464844, -228.40496826171875, 89.54578399658203, 0.256103515625, -0.078369140625, -0.8173828125
506, 3684597206, -19.110361099243164, 6.523377418518066, 6.686849594116211, 53.51271057128906, -206.79794311523438, 126.71614074707031, 0.208251953125, -0.10498046875, -0.8017578125
507, 3684613873, -22.1539249420166, 8.690650939941406, 6.681777000427246, -6.425474643707275, -189.66249084472656, 170.78677368164062, 0.1796875, -0.123291015625, -0.787109375
508, 3684630540, -22.40022087097168, 3.198470115661621, 3.767771005630493, -72.45439147949219, -189.96620178222656, 180.76580810546875, 0.1513671875, -0.12646484375, -0.7890625
509, 3684647207, -20.590322494506836, -0.6417684555053711, 0.935340404510498, -71.49507904052734, -176.73199462890625, 175.032470703125, 0.120849609375, -0.12451171875, -0.799560546875
510, 3684663874, -20.69761848449707, 1.8233871459960938, 0.8083020448684692, -58.055843353271484, -156.82330322265625, 189.0821075439453, 0.09130859375, -0.125732421875, -0.815673828125
511, 3684680541, -19.582782745361328, 5.343881130218506, -2.24853253364563, -78.9603271484375, -129.68496704101562, 234.1731719970703, 0.058837890625, -0.11865234375, -0.830322265625
512, 3684697208, -18.694135665893555, 3.2724435329437256, -5.268429279327393, -104.5322265625, -77.83106231689453, 269.7221374511719, 0.02783203125, -0.1025390625, -0.84423828125
513, 3684713875, -19.821231842041016, -0.5776839256286621, -3.9653990268707275, -69.87666320800781, -30.17974853515625, 280.6799011230469, 0.0126953125, -0.0908203125, -0.8525390625
514, 3684730542, -19.75368881225586, -2.963538646697998, -3.846139907836914, -20.563631057739258, -13.299861907958984, 251.3799285888672, 0.003173828125, -0.086181640625, -0.86083984375
515, 3684747209, -17.049699783325195, -6.5952229499816895, -8.788165092468262, 114.73391723632812, 49.90196990966797, 238.99127197265625, 0.00439453125, -0.10791015625, -0.861083984375
516, 3684763876, -7.421148300170898, 0.6021504402160645, 3.2742807865142822, 75.20201873779297, 118.2656021118164, 117.39543151855469, 0.030517578125, -0.1416015625, -0.856201171875
517, 3684780543, -0.5036050081253052, -5.977725028991699, 23.11635398864746, 111.2273941040039, 144.5271759033203, 1.7972936630249023, 0.064697265625, -0.172119140625, -0.852294921875
518, 3684797210, -8.198205947875977, 4.416208267211914, 5.221596717834473, 95.42402648925781, 185.2433624267578, -18.32583236694336, 0.1171875, -0.202392578125, -0.8466796875
519, 3684813877, -12.432316780090332, 4.043218612670898, 14.001349449157715, 66.81900024414062, 144.6285400390625, 5.2749528884887695, 0.164794921875, -0.228759765625, -0.838134765625
520, 3684830544, -8.159319877624512, 5.389107704162598, 11.476213455200195, 38.72270965576172, 92.21854400634766, -12.008687973022461, 0.193603515625, -0.2431640625, -0.830322265625
521, 3684847211, -7.214888572692871, 7.078385829925537, 8.10914134979248, -1.1425786018371582, 71.737548828125, -13.7197904586792, 0.214111328125, -0.244140625, -0.82666015625
522, 3684863878, -6.55450439453125, 3.1698572635650635, 9.46331787109375, -14.006062507629395, 55.36458969116211, -19.956315994262695, 0.229736328125, -0.243896484375, -0.822265625
523, 3684880545, -5.7854228019714355, 2.951525926589966, 8.587584495544434, -22.458492279052734, 39.717002868652344, -22.108835220336914, 0.2421875, -0.23974609375, -0.8212890625
524, 3684897212, -5.213460445404053, 2.601022481918335, 8.390810012817383, -26.671165466308594, 29.397069931030273, -20.115087509155273, 0.254638671875, -0.2333984375, -0.819091796875
525, 3684913879, -4.8774800300598145, 2.6445093154907227, 8.150464057922363, -28.840118408203125, 27.777482986450195, -20.623146057128906, 0.26220703125, -0.226806640625, -0.81787109375
526, 3684930546, -4.895501613616943, 2.297079086303711, 8.368024826049805, -30.091365814208984, 23.805139541625977, -22.65631675720215, 0.269775390625, -0.218994140625, -0.81884765625
527, 3684947213, -5.264501571655273, 2.105886220932007, 8.358641624450684, -31.633079528808594, 17.442968368530273, -23.639789581298828, 0.27734375, -0.2109375, -0.817138671875
528, 3684963880, -6.285597801208496, 1.676186203956604, 8.991669654846191, -24.718101501464844, 8.791840553283691, -19.48862075805664, 0.2802734375, -0.204833984375, -0.818603515625
529, 3684980547, -5.288873195648193, 2.1560003757476807, 8.273880958557129, -18.921161651611328, 2.5304949283599854, -14.100701332092285, 0.283203125, -0.200439453125, -0.819091796875
530, 3684997214, -5.450717449188232, 1.8713493347167969, 8.354827880859375, -16.277830123901367, -0.8027032017707825, -12.427582740783691, 0.28515625, -0.197509765625, -0.82080078125
531, 3685013881, -5.141271591186523, 2.2899787425994873, 7.995841979980469, -16.329437255859375, -2.3255209922790527, -11.855430603027344, 0.2861328125, -0.196044921875, -0.818603515625
532, 3685030548, -5.195847511291504, 1.9774366617202759, 8.197399139404297, -17.747909545898438, 0.8996794819831848, -11.468026161193848, 0.286865234375, -0.189453125, -0.82275390625
533, 3685047215, -5.263770580291748, 1.9533476829528809, 8.240764617919922, -16.738780975341797, 1.3276937007904053, -10.783947944641113, 0.287353515625, -0.184326171875, -0.8212890625
534, 3685063882, -5.255812644958496, 1.8601405620574951, 8.233492851257324, -16.06663703918457, 0.18290692567825317, -10.676668167114258, 0.288330078125, -0.181396484375, -0.8232421875
535, 3685080549, -5.26139497756958, 1.7597076892852783, 8.28006362915039, -17.174224853515625, -1.462141513824463, -10.838900566101074, 0.287841796875, -0.176025390625, -0.821533203125
536, 3685097216, -5.101048469543457, 1.7424501180648804, 8.263970375061035, -17.592479705810547, -3.668999195098877, -10.93129825592041, 0.288818359375, -0.1728515625, -0.822998046875
537, 3685113883, -5.1603827476501465, 1.839307188987732, 8.200282096862793, -19.467689514160156, -6.452671527862549, -12.23661994934082, 0.289306640625, -0.16943359375, -0.823974609375
538, 3685130550, -5.281175136566162, 1.605481505393982, 8.214642524719238, -18.769018173217773, -5.758397579193115, -11.529743194580078, 0.289794921875, -0.162841796875, -0.82470703125
539, 3685147217, -5.186379432678223, 1.5198171138763428, 8.302281379699707, -16.31710433959961, -4.791771411895752, -9.81394100189209, 0.28759765625, -0.158935546875, -0.82666015625
540, 3685163884, -5.145015716552734, 1.5703073740005493, 8.299025535583496, -13.769911766052246, -4.086663246154785, -8.382684707641602, 0.289306640625, -0.15478515625, -0.827392578125
541, 3685180551, -5.184755325317383, 1.5701996088027954, 8.282272338867188, -13.378894805908203, -4.71226692199707, -8.28136157989502, 0.2880859375, -0.15380859375, -0.828369140625
542, 3685197218, -5.139563083648682, 1.619262933731079, 8.299290657043457, -13.68176555633545, -5.7010979652404785, -8.829986572265625, 0.28515625, -0.15087890625, -0.83154296875
543, 3685213885, -5.175281524658203, 1.5109398365020752, 8.325139045715332, -14.948511123657227, -7.969862461090088, -10.120498657226562, 0.28564453125, -0.1474609375, -0.830078125
544, 3685230552, -5.098676681518555, 1.3766283988952637, 8.249519348144531, -14.663212776184082, -8.702272415161133, -10.31191635131836, 0.283203125, -0.142333984375, -0.832275390625
545, 3685247219, -4.89261531829834, 1.3666112422943115, 8.297987937927246, -10.329789161682129, -4.679994583129883, -8.353870391845703, 0.283203125, -0.138916015625, -0.832763671875
546, 3685263886, -5.115420818328857, 1.286280632019043, 8.332559585571289, -8.258011817932129, -1.4501404762268066, -7.828474521636963, 0.28369140625, -0.138427734375, -0.833251953125
547, 3685280553, -5.148190498352051, 1.288083553314209, 8.302142143249512, -7.262265205383301, 0.36529481410980225, -6.709094047546387, 0.28515625, -0.13720703125, -0.831298828125
548, 3685297220, -5.006285190582275, 1.422324776649475, 8.318188667297363, -6.88099479675293, 0.7528278827667236, -6.983842372894287, 0.28466796875, -0.13525390625, -0.829833984375
549, 3685313887, -4.918110370635986, 1.407977819442749, 8.332218170166016, -6.62401008605957, 2.3670945167541504, -8.463528633117676, 0.28759765625, -0.134765625, -0.833251953125
550, 3685330554, -5.02935791015625, 1.2033705711364746, 8.355741500854492, -5.654902458190918, 6.874650001525879, -8.777539253234863, 0.2880859375, -0.130859375, -0.832763671875
551, 3685347221, -5.088526248931885, 1.1043986082077026, 8.44075870513916, -5.28562068939209, 13.520885467529297, -7.263229846954346, 0.291259765625, -0.13037109375, -0.8310546875
552, 3685363888, -4.919755458831787, 1.1907615661621094, 8.49332046508789, -5.260322093963623, 23.316617965698242, -5.935935020446777, 0.296630859375, -0.12939453125, -0.829833984375
553, 3685380555, -4.560325622558594, 1.085040807723999, 8.611078262329102, 2.2081825733184814, 44.16335678100586, -6.402438640594482, 0.30712890625, -0.13134765625, -0.8271484375
554, 3685397222, -4.883587837219238, 1.1729010343551636, 8.590827941894531, 6.564783573150635, 65.68583679199219, -6.802107810974121, 0.32177734375, -0.131591796875, -0.823486328125
555, 3685413889, -4.895209789276123, 1.6957039833068848, 8.720873832702637, 8.986988067626953, 94.84012603759766, -12.264616966247559, 0.3427734375, -0.134521484375, -0.811767578125
556, 3685430556, -4.924222946166992, 1.866127371788025, 8.55349063873291, 5.961371421813965, 134.5256805419922, -24.98346710205078, 0.376220703125, -0.13330078125, -0.799560546875
557, 3685447223, -5.069988250732422, 1.949641466140747, 8.419530868530273, 6.328743934631348, 182.7208709716797, -43.228240966796875, 0.413330078125, -0.130859375, -0.77978515625
558, 3685463890, -5.174449443817139, 2.5759904384613037, 8.978035926818848, -3.5820398330688477, 238.8596954345703, -70.29256439208984, 0.4658203125, -0.1220703125, -0.753173828125
559, 3685480557, -6.722037315368652, 3.7408578395843506, 9.620290756225586, -45.01018142700195, 291.2425537109375, -115.80533599853516, 0.53173828125, -0.104248046875, -0.71044921875
560, 3685497224, -9.78050708770752, 4.55980920791626, 10.355359077453613, -107.62381744384766, 332.646728515625, -173.5837860107422, 0.599365234375, -0.05810546875, -0.661865234375
561, 3685513891, -14.797412872314453, 7.823672771453857, 14.464295387268066, -179.02035522460938, 331.1853332519531, -226.34945678710938, 0.663330078125, 0.013427734375, -0.601318359375
562, 3685530558, -17.64337730407715, 10.639415740966797, 15.500767707824707, -272.00567626953125, 242.24468994140625, -280.37518310546875, 0.699951171875, 0.115966796875, -0.547119140625
563, 3685547225, -13.207199096679688, 10.42939281463623, 13.073650360107422, -339.10675048828125, 164.31532287597656, -294.7314453125, 0.70654296875, 0.232666015625, -0.49609375
564, 3685563892, -4.0121378898620605, 12.174354553222656, 9.090452194213867, -449.2139587402344, 150.30941772460938, -298.92535400390625, 0.69140625, 0.356689453125, -0.431396484375
565, 3685580559, -11.12022590637207, 8.861747741699219, 9.3529052734375, -621.6141967773438, 190.88917541503906, -283.1834411621094, 0.669189453125, 0.488037109375, -0.318359375
566, 3685597226, -16.10183334350586, -0.1709461808204651, 19.552457809448242, -354.0187072753906, 51.6485481262207, -32.625274658203125, 0.656005859375, 0.54736328125, -0.232177734375
567, 3685613893, -9.277046203613281, 3.2504143714904785, 13.013177871704102, -137.1150665283203, -96.85934448242188, 103.25337219238281, 0.65966796875, 0.551025390625, -0.2158203125
568, 3685630560, -2.3680291175842285, 5.50311803817749, 7.186138153076172, -74.80043029785156, -115.52620697021484, 138.27003479003906, 0.6728515625, 0.541748046875, -0.2255859375
569, 3685647227, -2.8749210834503174, 5.609295845031738, 6.37955379486084, -96.05075073242188, -102.78579711914062, 142.56216430664062, 0.6875, 0.528076171875, -0.228271484375
570, 3685663894, -4.179091453552246, 6.010019779205322, 6.75410795211792, -131.35948181152344, -115.44913482666016, 136.68246459960938, 0.706787109375, 0.51611328125, -0.231689453125
571, 3685680561, -5.430114269256592, 5.522643566131592, 7.65777587890625, -150.3866424560547, -146.1347198486328, 134.17005920410156, 0.728515625, 0.503173828125, -0.240478515625
572, 3685697228, -6.996026039123535, 4.632277011871338, 8.691637992858887, -132.4722137451172, -192.7400360107422, 151.25155639648438, 0.744873046875, 0.488525390625, -0.263427734375
573, 3685713895, -6.951475143432617, 4.390044689178467, 7.61375617980957, -96.29191589355469, -245.78074645996094, 168.9423065185547, 0.75146484375, 0.46142578125, -0.309814453125
574, 3685730562, -6.75583553314209, 4.487245082855225, 5.814127445220947, -71.50785064697266, -273.38311767578125, 168.34498596191406, 0.74560546875, 0.43310546875, -0.361572265625
575, 3685747229, -8.080293655395508, 4.824410915374756, 6.541193962097168, -58.85940933227539, -283.9260559082031, 158.66537475585938, 0.730712890625, 0.409912109375, -0.41162109375
576, 3685763896, -10.561076164245605, 5.734603404998779, 7.7585768699646, -44.694557189941406, -310.0777587890625, 159.63929748535156, 0.712158203125, 0.387939453125, -0.4599609375
577, 3685780563, -10.79855728149414, 7.020036697387695, 7.271113872528076, -40.49652862548828, -338.7318115234375, 167.1182403564453, 0.69091796875, 0.36572265625, -0.52197265625
578, 3685797230, -9.834941864013672, 6.606781959533691, 5.204814434051514, -37.84302520751953, -337.27130126953125, 181.40277099609375, 0.666259765625, 0.341552734375, -0.580078125
579, 3685813897, -10.910674095153809, 3.729113817214966, 5.146923542022705, -9.696240425109863, -301.66241455078125, 191.6677703857422, 0.64501953125, 0.3125, -0.639892578125
580, 3685830564, -12.05093002319336, 1.8670291900634766, 5.94600772857666, 41.13555908203125, -258.4205627441406, 183.48545837402344, 0.623779296875, 0.271728515625, -0.698486328125
581, 3685847231, -14.852255821228027, 1.7304073572158813, 10.085099220275879, 77.24268341064453, -231.06272888183594, 161.2109375, 0.602294921875, 0.224365234375, -0.75
582, 3685863898, -18.534109115600586, 2.043858051300049, 11.385165214538574, 79.61598205566406, -238.39891052246094, 129.1150360107422, 0.574951171875, 0.181884765625, -0.810791015625
583, 3685880565, -18.832979202270508, 0.5697345733642578, 8.658031463623047, 82.13683319091797, -231.93588256835938, 96.0354232788086, 0.527099609375, 0.13818359375, -0.87646484375
584, 3685897232, -19.842622756958008, 0.6252150535583496, 7.906717777252197, 94.34061431884766, -210.09568786621094, 72.86412048339844, 0.45068359375, 0.095458984375, -0.925537109375
585, 3685913899, -20.6948184967041, -0.271953284740448, 7.156887531280518, 95.44728088378906, -207.44735717773438, 61.47028350830078, 0.373046875, 0.05615234375, -0.944091796875
586, 3685930566, -18.217132568359375, -3.2433531284332275, 3.9375159740448, 85.51376342773438, -199.30819702148438, 46.93009948730469, 0.305908203125, 0.031494140625, -0.953857421875
587, 3685947233, -16.361547470092773, -4.944059371948242, 2.075843334197998, 74.85790252685547, -167.010009765625, 30.865327835083008, 0.250244140625, 0.01025390625, -0.96044921875
588, 3685963900, -17.274694442749023, -4.557910442352295, 1.62661874294281, 67.21158599853516, -136.63101196289062, 22.20627784729004, 0.203125, -0.010009765625, -0.96240234375
589, 3685980567, -16.370121002197266, -3.462630033493042, -1.2935712337493896, 50.48816680908203, -110.77982330322266, 12.631753921508789, 0.16552734375, -0.0244140625, -0.965087890625
590, 3685997234, -15.57198715209961, -3.6028549671173096, -3.3951632976531982, 44.18473434448242, -71.81011199951172, 9.153844833374023, 0.135986328125, -0.038330078125, -0.964111328125
591, 3686013901, -16.06533432006836, -2.869316339492798, -2.20357608795166, 34.18037033081055, -34.95934295654297, 19.302001953125, 0.124267578125, -0.050048828125, -0.96044921875
592, 3686030568, -15.210227012634277, -2.3060314655303955, -1.6977919340133667, -5.3189568519592285, -8.352676391601562, 30.518068313598633, 0.11767578125, -0.0537109375, -0.95751953125
593, 3686047235, -13.805014610290527, -0.721912145614624, 0.7544527649879456, -89.44395446777344, 34.919395446777344, 20.601858139038086, 0.121826171875, -0.044189453125, -0.953369140625
594, 3686063902, 0.3266354203224182, -6.006470680236816, 7.4726057052612305, -154.8063201904297, 52.59360122680664, -33.75053024291992, 0.1376953125, -0.00341796875, -0.946533203125
595, 3686080569, 4.662289619445801, 4.291543960571289, 15.96546459197998, -14.787211418151855, 115.8035888671875, -13.579874038696289, 0.1611328125, 4.8828125E-4, -0.94287109375
596, 3686097236, -5.281988143920898, -6.881922721862793, 9.362415313720703, -17.39764976501465, 178.49160766601562, -77.04718017578125, 0.207763671875, 0.005615234375, -0.92822265625
597, 3686113903, -10.748333930969238, -2.8866052627563477, 12.24396800994873, -8.819782257080078, 149.14398193359375, -52.48453903198242, 0.249267578125, 0.00341796875, -0.9189453125
598, 3686130570, -6.849347114562988, 7.5751261711120605, 8.911548614501953, -3.597399950027466, 152.7068634033203, -21.385295867919922, 0.291015625, 0.001220703125, -0.90576171875
599, 3686147237, -7.691035270690918, -2.0351970195770264, 11.145110130310059, 8.918506622314453, 148.0645751953125, -12.019646644592285, 0.3310546875, -0.001953125, -0.891845703125
600, 3686163904, -10.2095365524292, 5.958863735198975, 11.62625503540039, -2.5619516372680664, 113.62538146972656, -13.903522491455078, 0.365234375, -0.008544921875, -0.876708984375
601, 3686180571, -9.2152738571167, 3.2477362155914307, 10.06520938873291, -23.12757682800293, 66.08561706542969, -21.152429580688477, 0.3857421875, -0.002197265625, -0.867919921875
602, 3686197238, -6.557577133178711, 0.3963584303855896, 10.452746391296387, -18.828413009643555, 33.796512603759766, -11.229453086853027, 0.397216796875, 0.002197265625, -0.8642578125
603, 3686213905, -5.592260360717773, 1.5899399518966675, 9.207769393920898, -17.553438186645508, 17.762454986572266, -8.617080688476562, 0.402587890625, 0.003662109375, -0.85888671875
604, 3686230572, -4.794215679168701, 2.221130132675171, 8.26877212524414, -16.358970642089844, 10.6752290725708, -6.317727565765381, 0.406005859375, 0.00830078125, -0.85986328125
605, 3686247239, -4.982704162597656, 1.8628824949264526, 8.393535614013672, -15.05173110961914, 8.923315048217773, -7.612576961517334, 0.406982421875, 0.01123046875, -0.8564453125
606, 3686263906, -4.955552577972412, 1.367874264717102, 8.494464874267578, -9.091361999511719, 8.560007095336914, -5.0189528465271, 0.407958984375, 0.0126953125, -0.8544921875
607, 3686280573, -5.2398681640625, 2.0492353439331055, 8.288429260253906, -4.063763618469238, 10.360116958618164, -1.627828598022461, 0.41357421875, 0.01513671875, -0.853271484375
608, 3686297240, -5.004122734069824, 2.052748918533325, 8.260774612426758, -0.7758857607841492, 9.154603004455566, -1.7372974157333374, 0.41650390625, 0.01318359375, -0.8515625
609, 3686313907, -5.214565277099609, 2.1758692264556885, 8.198359489440918, -4.046820640563965, 7.583980083465576, -3.876291275024414, 0.4169921875, 0.013671875, -0.85009765625
610, 3686330574, -5.173948287963867, 2.0410640239715576, 8.230626106262207, -7.93447208404541, 5.584857940673828, -5.8580756187438965, 0.421142578125, 0.0126953125, -0.849853515625
611, 3686347241, -5.314416885375977, 1.7676759958267212, 8.292025566101074, -10.523176193237305, 3.749886989593506, -7.185596466064453, 0.422607421875, 0.015625, -0.847900390625
612, 3686363908, -5.359787464141846, 1.654805302619934, 8.278141975402832, -10.808786392211914, 2.632814645767212, -7.644231796264648, 0.421142578125, 0.018798828125, -0.846923828125
613, 3686380575, -5.301178455352783, 1.672709584236145, 8.213601112365723, -10.671102523803711, 2.1248114109039307, -6.987865924835205, 0.42041015625, 0.021240234375, -0.8466796875
614, 3686397242, -5.272884845733643, 1.768481731414795, 8.189483642578125, -10.289433479309082, 1.478794813156128, -6.514593124389648, 0.424560546875, 0.023681640625, -0.847412109375
615, 3686413909, -5.210922718048096, 1.794607162475586, 8.186939239501953, -10.355116844177246, 0.8188192248344421, -6.866499423980713, 0.425048828125, 0.026611328125, -0.847412109375
616, 3686430576, -5.284786224365234, 1.7576253414154053, 8.216116905212402, -10.500572204589844, 0.10331528633832932, -7.372221946716309, 0.425048828125, 0.0283203125, -0.845458984375
617, 3686447243, -5.25494909286499, 1.7410953044891357, 8.194788932800293, -10.634156227111816, -1.5691887140274048, -8.389880180358887, 0.425048828125, 0.029296875, -0.845947265625
618, 3686463910, -5.166858673095703, 1.749945878982544, 8.248939514160156, -9.326908111572266, -1.745160460472107, -8.260547637939453, 0.424560546875, 0.0341796875, -0.845703125
619, 3686480577, -5.101554870605469, 1.7599576711654663, 8.253584861755371, -7.306397914886475, -0.49770617485046387, -8.372052192687988, 0.425048828125, 0.03564453125, -0.84716796875
620, 3686497244, -5.18931770324707, 1.7271896600723267, 8.222311019897461, -5.791661739349365, 0.47151073813438416, -9.034255981445312, 0.424560546875, 0.03466796875, -0.8466796875
621, 3686513911, -5.249166488647461, 1.6780918836593628, 8.219826698303223, -3.588352680206299, 1.8685814142227173, -9.3407621383667, 0.425537109375, 0.038818359375, -0.8466796875
622, 3686530578, -5.157529830932617, 1.6251884698867798, 8.230595588684082, -0.19894669950008392, 5.03253173828125, -8.83332347869873, 0.425537109375, 0.039306640625, -0.84326171875
623, 3686547245, -5.092895984649658, 1.5740405321121216, 8.270010948181152, 1.4385191202163696, 11.370721817016602, -8.702690124511719, 0.428466796875, 0.037841796875, -0.842529296875
624, 3686563912, -4.9174041748046875, 1.741998314857483, 8.270071029663086, -0.6362846493721008, 19.97337532043457, -10.184907913208008, 0.432373046875, 0.038818359375, -0.83935546875
625, 3686580579, -4.768008708953857, 1.562110424041748, 8.203314781188965, 2.2157843112945557, 34.197410583496094, -13.270540237426758, 0.44140625, 0.039794921875, -0.838134765625
626, 3686597246, -5.162607192993164, 1.3270550966262817, 8.187789916992188, 10.491137504577637, 50.42308044433594, -13.606945991516113, 0.453857421875, 0.0380859375, -0.8291015625
627, 3686613913, -5.110082626342773, 1.3207542896270752, 8.18915843963623, 16.399755477905273, 68.80581665039062, -11.378673553466797, 0.468017578125, 0.0341796875, -0.821044921875
628, 3686630580, -5.287360191345215, 1.5452415943145752, 8.252793312072754, 15.464140892028809, 87.79413604736328, -10.289861679077148, 0.489501953125, 0.032470703125, -0.809326171875
629, 3686647247, -5.568622589111328, 1.5597292184829712, 7.971661567687988, 12.842127799987793, 107.90257263183594, -12.269513130187988, 0.512939453125, 0.030029296875, -0.79443359375
630, 3686663914, -5.759616374969482, 1.4600136280059814, 7.7632575035095215, 14.90389347076416, 126.12228393554688, -13.494863510131836, 0.541015625, 0.0263671875, -0.777099609375
631, 3686680581, -5.568382740020752, 1.382897138595581, 7.810868263244629, 19.584672927856445, 148.30258178710938, -14.052422523498535, 0.5732421875, 0.024658203125, -0.75341796875
632, 3686697248, -5.365123748779297, 1.665714144706726, 7.9290771484375, 20.951488494873047, 186.75289916992188, -15.666857719421387, 0.609619140625, 0.021240234375, -0.722900390625
633, 3686713915, -5.712385177612305, 2.1161999702453613, 7.712913990020752, 15.863068580627441, 238.55465698242188, -24.83482551574707, 0.656005859375, 0.020263671875, -0.677001953125
634, 3686730582, -6.84243106842041, 2.1527905464172363, 7.6749982833862305, -5.714913368225098, 307.6948547363281, -37.85688781738281, 0.712158203125, 0.029052734375, -0.623779296875
635, 3686747249, -7.214487552642822, 3.167140007019043, 9.001415252685547, -22.901668548583984, 398.2987365722656, -54.044307708740234, 0.774658203125, 0.042724609375, -0.538818359375
636, 3686763916, -11.208416938781738, 3.320505380630493, 11.372352600097656, -15.625336647033691, 467.4853515625, -76.62303924560547, 0.8388671875, 0.0615234375, -0.429443359375
637, 3686780583, -17.66672706604004, 1.6776645183563232, 11.48328971862793, 15.295812606811523, 466.81622314453125, -93.59459686279297, 0.892822265625, 0.08740234375, -0.312744140625
638, 3686797250, -18.124326705932617, 4.876511096954346, 11.760953903198242, 18.154821395874023, 453.34918212890625, -105.79399871826172, 0.924072265625, 0.12109375, -0.19677734375
639, 3686813917, -14.445239067077637, 5.028131008148193, 11.794880867004395, -6.311206817626953, 434.1028747558594, -129.525146484375, 0.940185546875, 0.161376953125, -0.07861328125
640, 3686830584, -7.927661895751953, 3.7681422233581543, 12.684514045715332, -18.990371704101562, 401.97607421875, -126.60724639892578, 0.9384765625, 0.207275390625, 0.02880859375
641, 3686847251, -11.563605308532715, 1.6549057960510254, 17.279272079467773, 2.2053866386413574, 288.2909851074219, -94.61966705322266, 0.92529296875, 0.243408203125, 0.105712890625
642, 3686863918, -28.838397979736328, 5.445257663726807, 28.938364028930664, 40.83024215698242, 67.93387603759766, -82.8096694946289, 0.9140625, 0.27587890625, 0.130126953125
643, 3686880585, -8.534480094909668, 7.006706237792969, 19.40419578552246, 34.125526428222656, -179.82240295410156, -32.158084869384766, 0.909423828125, 0.296142578125, 0.072998046875
644, 3686897252, -0.781980574131012, 4.415821075439453, 7.715130805969238, -18.85088348388672, -226.87477111816406, -39.97132110595703, 0.89453125, 0.312255859375, 0.003173828125
645, 3686913919, -1.2752608060836792, 3.661785125732422, 5.303670883178711, -69.70760345458984, -219.314697265625, -55.66867446899414, 0.868408203125, 0.328857421875, -0.055419921875
646, 3686930586, -3.08954119682312, 3.4967455863952637, 6.6486077308654785, -101.06969451904297, -232.93765258789062, -61.93940734863281, 0.838623046875, 0.354248046875, -0.09765625
647, 3686947253, -5.299599647521973, 3.236971855163574, 7.548545837402344, -107.1434555053711, -278.0162658691406, -61.666282653808594, 0.810791015625, 0.3798828125, -0.136962890625
648, 3686963920, -5.8226637840271, 2.3616220951080322, 6.917090892791748, -77.00000762939453, -323.275146484375, -39.119285583496094, 0.78564453125, 0.404296875, -0.178955078125
649, 3686980587, -5.972243785858154, 3.309225082397461, 5.707334995269775, -34.16543197631836, -351.6220703125, -2.648545265197754, 0.76953125, 0.420654296875, -0.23486328125
650, 3686997254, -7.429173946380615, 4.841486930847168, 5.935314178466797, -18.690528869628906, -369.79083251953125, 32.13860321044922, 0.75927734375, 0.42626953125, -0.304443359375
651, 3687013921, -9.017672538757324, 4.7868146896362305, 6.9649271965026855, -25.789875030517578, -385.1320495605469, 62.61412048339844, 0.7451171875, 0.418212890625, -0.393798828125
652, 3687030588, -8.881104469299316, 3.684077262878418, 6.543292999267578, -29.259578704833984, -396.20263671875, 75.6753158569336, 0.708740234375, 0.408935546875, -0.480712890625
653, 3687047255, -8.779711723327637, 2.4472265243530273, 4.80598258972168, -9.133397102355957, -379.3373107910156, 88.99691009521484, 0.66259765625, 0.393798828125, -0.564697265625
654, 3687063922, -10.398355484008789, 1.068383812904358, 4.675896644592285, 27.501752853393555, -325.49542236328125, 106.42977905273438, 0.614013671875, 0.367919921875, -0.63916015625
655, 3687080589, -14.554255485534668, -0.16453339159488678, 7.447088718414307, 52.0777473449707, -275.74346923828125, 104.94055938720703, 0.567138671875, 0.332763671875, -0.703125
