sep=,
DeviceTag:,A,,,,,,,,,,,,,,,,,
FirmwareVersion:,2.2.1,,,,,,,,,,,,,,,,,
AppVersion:,2022.0.1,,,,,,,,,,,,,,,,,
SyncStatus:,Synced,,,,,,,,,,,,,,,,,
OutputRate:,60Hz,,,,,,,,,,,,,,,,,
FilterProfile:,General,,,,,,,,,,,,,,,,,
Measurement Mode:,Inertial Mode - Rate quantities (with mag),,,,,,,,,,,,,,,,,
StartTime:,2022-08-05 15:30:02.475 +0300,,,,,,,,,,,,,,,,,
© Xsens Technologies B. V. 2005-2022,,,,,,,,,,,,,,,,,,,

PacketCounter,SampleTimeFine,Acc_X,Acc_Y,Acc_Z,Gyr_X,Gyr_Y,Gyr_Z,Mag_X,Mag_Y,Mag_Z
1, 3144519738, -5.122762680053711, 1.4658067226409912, 8.275995254516602, -2.558875560760498, -1.436385989189148, -2.528550148010254, 0.0498046875, -0.1025390625, -0.839599609375
2, 3144536405, -5.114530086517334, 1.4841125011444092, 8.276667594909668, -2.5261168479919434, -1.3195279836654663, -2.4862122535705566, 0.0478515625, -0.1005859375, -0.836181640625
3, 3144553072, -5.093652725219727, 1.4752048254013062, 8.276806831359863, -2.4759795665740967, -1.153621792793274, -2.5028860569000244, 0.05126953125, -0.10400390625, -0.8369140625
4, 3144569739, -5.0959014892578125, 1.4576313495635986, 8.282840728759766, -2.399052143096924, -1.0827770233154297, -2.4244213104248047, 0.048828125, -0.1044921875, -0.8359375
5, 3144586406, -5.114782333374023, 1.4768537282943726, 8.273201942443848, -2.3341493606567383, -1.0591362714767456, -2.4212965965270996, 0.048828125, -0.103515625, -0.838134765625
6, 3144603073, -5.128700256347656, 1.4749879837036133, 8.25162410736084, -2.367356300354004, -1.1326704025268555, -2.4566805362701416, 0.05078125, -0.1025390625, -0.837890625
7, 3144619740, -5.131787300109863, 1.4605634212493896, 8.25681209564209, -2.497443199157715, -1.1560548543930054, -2.3652305603027344, 0.05029296875, -0.1044921875, -0.83740234375
8, 3144636407, -5.127318859100342, 1.4766395092010498, 8.255715370178223, -2.4424781799316406, -1.3094619512557983, -2.4714205265045166, 0.05029296875, -0.10400390625, -0.8359375
9, 3144653074, -5.131577491760254, 1.4602690935134888, 8.249881744384766, -2.5144760608673096, -1.5234308242797852, -2.4216296672821045, 0.04931640625, -0.10498046875, -0.83251953125
10, 3144669741, -5.121000289916992, 1.4857239723205566, 8.255935668945312, -2.5094683170318604, -1.4020392894744873, -2.4372024536132812, 0.04833984375, -0.10595703125, -0.8349609375
11, 3144686408, -5.135748386383057, 1.4780761003494263, 8.281688690185547, -2.5070481300354004, -1.5181801319122314, -2.388819932937622, 0.04833984375, -0.10302734375, -0.83642578125
12, 3144703075, -5.113080978393555, 1.492702841758728, 8.259482383728027, -2.5456466674804688, -1.570468544960022, -2.4111156463623047, 0.04638671875, -0.10498046875, -0.837158203125
13, 3144719742, -5.114329814910889, 1.4486926794052124, 8.28912353515625, -2.590315341949463, -1.441790223121643, -2.490553617477417, 0.048828125, -0.103515625, -0.839111328125
14, 3144736409, -5.122940540313721, 1.463950276374817, 8.289533615112305, -2.438380241394043, -1.4329025745391846, -2.4193756580352783, 0.0498046875, -0.103515625, -0.8359375
15, 3144753076, -5.114706516265869, 1.4819276332855225, 8.273048400878906, -2.4503414630889893, -1.4458881616592407, -2.4046356678009033, 0.0478515625, -0.10693359375, -0.83544921875
16, 3144769743, -5.122557640075684, 1.481564998626709, 8.264012336730957, -2.4866089820861816, -1.3044804334640503, -2.481153726577759, 0.0498046875, -0.10400390625, -0.8359375
17, 3144786410, -5.113117218017578, 1.487892746925354, 8.273375511169434, -2.4592418670654297, -1.4144102334976196, -2.50681734085083, 0.05029296875, -0.10498046875, -0.83544921875
18, 3144803077, -5.129763603210449, 1.4705651998519897, 8.27260684967041, -2.5585296154022217, -1.4409321546554565, -2.490246057510376, 0.048828125, -0.10302734375, -0.83642578125
19, 3144819744, -5.125504016876221, 1.4706430435180664, 8.262288093566895, -2.6501078605651855, -1.554857611656189, -2.5248618125915527, 0.05029296875, -0.103515625, -0.83642578125
20, 3144836411, -5.110455513000488, 1.4742343425750732, 8.265310287475586, -2.6946613788604736, -1.5912917852401733, -2.477337598800659, 0.0478515625, -0.1044921875, -0.833984375
21, 3144853078, -5.115936279296875, 1.4797853231430054, 8.278136253356934, -2.6695992946624756, -1.583070158958435, -2.4379069805145264, 0.05078125, -0.103515625, -0.8359375
22, 3144869745, -5.100086688995361, 1.483418345451355, 8.269753456115723, -2.6956987380981445, -1.5101377964019775, -2.5172035694122314, 0.0478515625, -0.103515625, -0.836669921875
23, 3144886412, -5.115448474884033, 1.4543626308441162, 8.261558532714844, -2.656895399093628, -1.4497942924499512, -2.4840352535247803, 0.048828125, -0.10302734375, -0.83642578125
24, 3144903079, -5.111908912658691, 1.4737095832824707, 8.254834175109863, -2.6906142234802246, -1.4520480632781982, -2.5245161056518555, 0.05029296875, -0.1044921875, -0.837890625
25, 3144919746, -5.107820510864258, 1.4703631401062012, 8.244575500488281, -2.5844497680664062, -1.5278745889663696, -2.438239574432373, 0.048828125, -0.10205078125, -0.837158203125
26, 3144936413, -5.1287126541137695, 1.4656533002853394, 8.26492691040039, -2.5119142532348633, -1.3165056705474854, -2.4045329093933105, 0.05078125, -0.10302734375, -0.833984375
27, 3144953080, -5.116357803344727, 1.4681230783462524, 8.268054962158203, -2.52388858795166, -1.4338374137878418, -2.3710060119628906, 0.048828125, -0.103515625, -0.8349609375
28, 3144969747, -5.125243663787842, 1.4632586240768433, 8.264154434204102, -2.506932497024536, -1.3360097408294678, -2.353435754776001, 0.0478515625, -0.10400390625, -0.8349609375
29, 3144986414, -5.114971160888672, 1.4669265747070312, 8.275222778320312, -2.457166910171509, -1.388323426246643, -2.368803024291992, 0.04736328125, -0.1044921875, -0.8359375
30, 3145003081, -5.127246856689453, 1.4652117490768433, 8.255414009094238, -2.442491054534912, -1.4662119150161743, -2.335353374481201, 0.05029296875, -0.10302734375, -0.837890625
31, 3145019748, -5.102506637573242, 1.4822627305984497, 8.24405574798584, -2.528920888900757, -1.527016282081604, -2.347198963165283, 0.0498046875, -0.10302734375, -0.842041015625
32, 3145036415, -5.1224164962768555, 1.4557018280029297, 8.260086059570312, -2.484304189682007, -1.4933998584747314, -2.294206380844116, 0.04931640625, -0.1044921875, -0.837890625
33, 3145053082, -5.101959228515625, 1.46971595287323, 8.279914855957031, -2.388819932937622, -1.4007458686828613, -2.289980411529541, 0.05078125, -0.1044921875, -0.8349609375
34, 3145069749, -5.1130452156066895, 1.4710749387741089, 8.261747360229492, -2.4045844078063965, -1.5440489053726196, -2.292593002319336, 0.0478515625, -0.10498046875, -0.83544921875
35, 3145086416, -5.114373207092285, 1.4637722969055176, 8.272741317749023, -2.534146308898926, -1.5232386589050293, -2.3644237518310547, 0.04736328125, -0.1044921875, -0.836669921875
36, 3145103083, -5.125683784484863, 1.4737217426300049, 8.250996589660645, -2.5946688652038574, -1.5942625999450684, -2.365332841873169, 0.04931640625, -0.103515625, -0.840087890625
37, 3145119750, -5.1129608154296875, 1.4789612293243408, 8.27942180633545, -2.4351916313171387, -1.673316240310669, -2.260244131088257, 0.04736328125, -0.10546875, -0.83642578125
38, 3145136417, -5.118475437164307, 1.4841684103012085, 8.260299682617188, -2.4068000316619873, -1.6538376808166504, -2.229700803756714, 0.04931640625, -0.1044921875, -0.8369140625
39, 3145153084, -5.104460716247559, 1.4794166088104248, 8.268620491027832, -2.4127037525177, -1.6851749420166016, -2.2106449604034424, 0.04931640625, -0.10205078125, -0.833984375
40, 3145169751, -5.096138000488281, 1.477540135383606, 8.277666091918945, -2.573103427886963, -1.6353710889816284, -2.2834365367889404, 0.0498046875, -0.103515625, -0.83544921875
41, 3145186418, -5.118464469909668, 1.4806686639785767, 8.263917922973633, -2.4409546852111816, -1.5445866584777832, -2.2407655715942383, 0.0478515625, -0.10400390625, -0.83544921875
42, 3145203085, -5.113338947296143, 1.494464635848999, 8.28604507446289, -2.5133612155914307, -1.5479161739349365, -2.314453125, 0.04736328125, -0.10302734375, -0.837158203125
43, 3145219752, -5.110050201416016, 1.4789756536483765, 8.26566219329834, -2.571643114089966, -1.6289293766021729, -2.3386316299438477, 0.0498046875, -0.10546875, -0.83740234375
44, 3145236419, -5.121226787567139, 1.4714739322662354, 8.268327713012695, -2.5192654132843018, -1.6364210844039917, -2.3062827587127686, 0.0478515625, -0.10400390625, -0.83642578125
45, 3145253086, -5.100515842437744, 1.475842833518982, 8.296432495117188, -2.559887170791626, -1.659139633178711, -2.3049254417419434, 0.04833984375, -0.1025390625, -0.83447265625
46, 3145269753, -5.097055912017822, 1.491563320159912, 8.283308982849121, -2.4804494380950928, -1.6086314916610718, -2.2615630626678467, 0.04736328125, -0.10595703125, -0.8349609375
47, 3145286420, -5.115767002105713, 1.4856053590774536, 8.275193214416504, -2.5208020210266113, -1.503952145576477, -2.312173843383789, 0.0498046875, -0.103515625, -0.837890625
48, 3145303087, -5.094291687011719, 1.4779691696166992, 8.290879249572754, -2.525463581085205, -1.5732858180999756, -2.305872917175293, 0.048828125, -0.10302734375, -0.839111328125
49, 3145319754, -5.120749473571777, 1.4787887334823608, 8.25707721710205, -2.519355058670044, -1.5547422170639038, -2.382122039794922, 0.04736328125, -0.10400390625, -0.836669921875
50, 3145336421, -5.117041110992432, 1.4995205402374268, 8.253893852233887, -2.5678274631500244, -1.6335525512695312, -2.4389312267303467, 0.04931640625, -0.103515625, -0.8349609375
51, 3145353088, -5.103456974029541, 1.4815293550491333, 8.27261734008789, -2.700603485107422, -1.687211275100708, -2.5224926471710205, 0.048828125, -0.103515625, -0.833984375
52, 3145369755, -5.089847087860107, 1.4845356941223145, 8.257179260253906, -2.7136917114257812, -1.6040595769882202, -2.4881460666656494, 0.04833984375, -0.103515625, -0.83642578125
53, 3145386422, -5.108574867248535, 1.4646674394607544, 8.276881217956543, -2.662376642227173, -1.5343161821365356, -2.494997501373291, 0.048828125, -0.10498046875, -0.83642578125
54, 3145403089, -5.110533714294434, 1.4870275259017944, 8.280769348144531, -2.7423136234283447, -1.5162975788116455, -2.5692999362945557, 0.04833984375, -0.1025390625, -0.839599609375
55, 3145419756, -5.106348991394043, 1.482506513595581, 8.267610549926758, -2.6614668369293213, -1.402116060256958, -2.5092761516571045, 0.04931640625, -0.103515625, -0.83642578125
56, 3145436423, -5.097017765045166, 1.47554612159729, 8.272502899169922, -2.7308261394500732, -1.3539772033691406, -2.5576844215393066, 0.048828125, -0.1044921875, -0.83349609375
57, 3145453090, -5.109583377838135, 1.470788836479187, 8.266270637512207, -2.7673118114471436, -1.432364821434021, -2.5700936317443848, 0.048828125, -0.103515625, -0.83544921875
58, 3145469757, -5.109821796417236, 1.4778131246566772, 8.266131401062012, -2.7978932857513428, -1.4115033149719238, -2.602890968322754, 0.04931640625, -0.10498046875, -0.8349609375
59, 3145486424, -5.109753608703613, 1.4855104684829712, 8.271482467651367, -2.848132371902466, -1.3981715440750122, -2.7184934616088867, 0.04736328125, -0.10400390625, -0.839111328125
60, 3145503091, -5.084330081939697, 1.4826931953430176, 8.28837776184082, -2.777172088623047, -1.3337812423706055, -2.7647626399993896, 0.04736328125, -0.10302734375, -0.837158203125
61, 3145519758, -5.09269905090332, 1.470149278640747, 8.295999526977539, -2.721759557723999, -1.2270277738571167, -2.651465654373169, 0.04833984375, -0.10302734375, -0.837158203125
62, 3145536425, -5.0989837646484375, 1.4719306230545044, 8.287796020507812, -2.7419166564941406, -1.208176851272583, -2.7310056686401367, 0.04736328125, -0.1015625, -0.835693359375
63, 3145553092, -5.111823081970215, 1.490210771560669, 8.278299331665039, -2.736128330230713, -1.250168800354004, -2.6380956172943115, 0.04833984375, -0.10400390625, -0.83349609375
64, 3145569759, -5.117916107177734, 1.4805195331573486, 8.261009216308594, -2.715907335281372, -1.3354592323303223, -2.696018934249878, 0.04736328125, -0.103515625, -0.83349609375
65, 3145586426, -5.108567714691162, 1.471306562423706, 8.263940811157227, -2.7140631675720215, -1.2499127388000488, -2.636622905731201, 0.048828125, -0.10400390625, -0.837158203125
66, 3145603093, -5.1173553466796875, 1.4701423645019531, 8.262359619140625, -2.695481061935425, -1.232380747795105, -2.7280220985412598, 0.04736328125, -0.10302734375, -0.837646484375
67, 3145619760, -5.112577438354492, 1.4752336740493774, 8.290657043457031, -2.6797292232513428, -1.1899405717849731, -2.711937189102173, 0.04931640625, -0.10498046875, -0.83642578125
68, 3145636427, -5.1202239990234375, 1.4720125198364258, 8.268966674804688, -2.733016014099121, -1.3067216873168945, -2.6915879249572754, 0.046875, -0.1025390625, -0.836181640625
69, 3145653094, -5.127781867980957, 1.461448073387146, 8.266575813293457, -2.7044451236724854, -1.2766395807266235, -2.640554428100586, 0.0478515625, -0.10400390625, -0.83544921875
70, 3145669761, -5.117605209350586, 1.4760814905166626, 8.28687858581543, -2.8065881729125977, -1.4480522871017456, -2.6458942890167236, 0.04833984375, -0.10205078125, -0.8349609375
71, 3145686428, -5.100464820861816, 1.4534343481063843, 8.284746170043945, -2.6428725719451904, -1.418892502784729, -2.657010555267334, 0.04833984375, -0.1015625, -0.838134765625
72, 3145703095, -5.113308429718018, 1.4599345922470093, 8.270529747009277, -2.6897947788238525, -1.5252619981765747, -2.507009744644165, 0.04931640625, -0.103515625, -0.838623046875
73, 3145719762, -5.116575717926025, 1.4553816318511963, 8.274505615234375, -2.5434305667877197, -1.325879693031311, -2.497878313064575, 0.048828125, -0.1015625, -0.837646484375
74, 3145736429, -5.114359378814697, 1.4552353620529175, 8.263794898986816, -2.5538809299468994, -1.3379690647125244, -2.440659999847412, 0.04833984375, -0.10302734375, -0.83447265625
75, 3145753096, -5.106452465057373, 1.466054916381836, 8.250152587890625, -2.4780030250549316, -1.336253046989441, -2.500209093093872, 0.048828125, -0.103515625, -0.8349609375
76, 3145769763, -5.10889196395874, 1.4601682424545288, 8.247615814208984, -2.526872158050537, -1.3425408601760864, -2.4833433628082275, 0.05029296875, -0.10546875, -0.8349609375
77, 3145786430, -5.104572296142578, 1.473043441772461, 8.270173072814941, -2.5227489471435547, -1.333499789237976, -2.521301746368408, 0.0478515625, -0.10205078125, -0.838134765625
78, 3145803097, -5.128548622131348, 1.4483602046966553, 8.272583961486816, -2.4838173389434814, -1.329913854598999, -2.4755570888519287, 0.04833984375, -0.10302734375, -0.838623046875
79, 3145819764, -5.117240905761719, 1.4670279026031494, 8.263547897338867, -2.4917829036712646, -1.3678334951400757, -2.4258813858032227, 0.04931640625, -0.103515625, -0.8359375
80, 3145836431, -5.122962951660156, 1.4505800008773804, 8.27769660949707, -2.467552900314331, -1.4900058507919312, -2.388627529144287, 0.0478515625, -0.1025390625, -0.83349609375
81, 3145853098, -5.113966464996338, 1.469961166381836, 8.260483741760254, -2.494715452194214, -1.4094796180725098, -2.347301483154297, 0.0498046875, -0.10400390625, -0.833984375
82, 3145869765, -5.117831230163574, 1.4677331447601318, 8.278768539428711, -2.457231283187866, -1.389898657798767, -2.3754756450653076, 0.048828125, -0.103515625, -0.8359375
83, 3145886432, -5.083332061767578, 1.4614813327789307, 8.27649974822998, -2.393634796142578, -1.2390271425247192, -2.359621047973633, 0.05029296875, -0.103515625, -0.838134765625
84, 3145903099, -5.118078708648682, 1.4888255596160889, 8.276067733764648, -2.3179492950439453, -1.235249400138855, -2.305847406387329, 0.04931640625, -0.1025390625, -0.838134765625
85, 3145919766, -5.1132636070251465, 1.483273983001709, 8.289709091186523, -2.3481976985931396, -1.100283145904541, -2.4533379077911377, 0.0478515625, -0.10302734375, -0.837158203125
86, 3145936433, -5.107892990112305, 1.4833481311798096, 8.265982627868652, -2.44754958152771, -0.933480441570282, -2.535106658935547, 0.04736328125, -0.10498046875, -0.8330078125
87, 3145953100, -5.128901958465576, 1.4683815240859985, 8.266196250915527, -2.516204833984375, -0.919790506362915, -2.6565492153167725, 0.0498046875, -0.10302734375, -0.8349609375
88, 3145969767, -5.124064922332764, 1.47043776512146, 8.260568618774414, -2.5590035915374756, -0.9964109659194946, -2.701589584350586, 0.0498046875, -0.1044921875, -0.83642578125
89, 3145986434, -5.129485607147217, 1.4737807512283325, 8.242463111877441, -2.6540908813476562, -1.0728521347045898, -2.6336517333984375, 0.04931640625, -0.10302734375, -0.839599609375
90, 3146003101, -5.114467620849609, 1.4670543670654297, 8.281736373901367, -2.651772975921631, -1.138689637184143, -2.6682162284851074, 0.05029296875, -0.10302734375, -0.8369140625
91, 3146019768, -5.136697769165039, 1.4540096521377563, 8.247200965881348, -2.750753164291382, -1.1992251873016357, -2.6240596771240234, 0.048828125, -0.10498046875, -0.8369140625
92, 3146036435, -5.132993698120117, 1.452070713043213, 8.269670486450195, -2.650620222091675, -1.3198994398117065, -2.6509532928466797, 0.05078125, -0.1025390625, -0.83544921875
93, 3146053102, -5.117792129516602, 1.468934178352356, 8.241244316101074, -2.718071460723877, -1.3314636945724487, -2.531982421875, 0.04931640625, -0.10400390625, -0.83447265625
94, 3146069769, -5.123527526855469, 1.45406973361969, 8.264113426208496, -2.6618385314941406, -1.3961355686187744, -2.5913779735565186, 0.05126953125, -0.1025390625, -0.83251953125
95, 3146086436, -5.116261005401611, 1.4712703227996826, 8.294515609741211, -2.655524969100952, -1.4170740842819214, -2.540332078933716, 0.046875, -0.1025390625, -0.836669921875
96, 3146103103, -5.131931304931641, 1.4582531452178955, 8.278074264526367, -2.6622869968414307, -1.440227746963501, -2.5399348735809326, 0.0498046875, -0.10400390625, -0.837890625
97, 3146119770, -5.122539043426514, 1.4410616159439087, 8.275708198547363, -2.5599255561828613, -1.4782626628875732, -2.467015504837036, 0.04931640625, -0.10400390625, -0.83642578125
98, 3146136437, -5.133949279785156, 1.4582639932632446, 8.26134967803955, -2.628939151763916, -1.4017832279205322, -2.5416765213012695, 0.05126953125, -0.1025390625, -0.8349609375
99, 3146153104, -5.11649227142334, 1.4707542657852173, 8.263933181762695, -2.461073160171509, -1.4265122413635254, -2.431426525115967, 0.05029296875, -0.10302734375, -0.833984375
100, 3146169771, -5.125723838806152, 1.471897006034851, 8.243666648864746, -2.559387683868408, -1.4279978275299072, -2.486839771270752, 0.04931640625, -0.103515625, -0.83544921875
101, 3146186438, -5.112998008728027, 1.4587173461914062, 8.271818161010742, -2.5139763355255127, -1.4563894271850586, -2.445385217666626, 0.048828125, -0.10302734375, -0.836669921875
102, 3146203105, -5.120490550994873, 1.4527254104614258, 8.26717758178711, -2.4960601329803467, -1.4465798139572144, -2.432476758956909, 0.04833984375, -0.10302734375, -0.8359375
103, 3146219772, -5.130268096923828, 1.4634811878204346, 8.256148338317871, -2.4523777961730957, -1.4229520559310913, -2.3084213733673096, 0.04833984375, -0.1025390625, -0.836669921875
104, 3146236439, -5.133633613586426, 1.4799139499664307, 8.247964859008789, -2.547592878341675, -1.5251210927963257, -2.388679027557373, 0.048828125, -0.1044921875, -0.8330078125
105, 3146253106, -5.141308784484863, 1.449540615081787, 8.253238677978516, -2.493025064468384, -1.529757022857666, -2.2734344005584717, 0.04931640625, -0.10302734375, -0.8359375
106, 3146269773, -5.12328577041626, 1.4665063619613647, 8.236163139343262, -2.3533718585968018, -1.5573546886444092, -2.275662899017334, 0.04931640625, -0.1025390625, -0.83447265625
107, 3146286440, -5.135405540466309, 1.4612594842910767, 8.251716613769531, -2.360581636428833, -1.3048518896102905, -2.23423433303833, 0.048828125, -0.103515625, -0.837646484375
108, 3146303107, -5.120202541351318, 1.4837455749511719, 8.273866653442383, -2.4192733764648438, -1.3886053562164307, -2.3242502212524414, 0.04931640625, -0.103515625, -0.838134765625
109, 3146319774, -5.130051136016846, 1.4783138036727905, 8.251151084899902, -2.6662821769714355, -1.4883028268814087, -2.3853235244750977, 0.052734375, -0.1044921875, -0.83740234375
110, 3146336441, -5.122694969177246, 1.4613947868347168, 8.26163387298584, -2.6450493335723877, -1.5737468004226685, -2.423550605773926, 0.05126953125, -0.1044921875, -0.8349609375
111, 3146353108, -5.136103630065918, 1.4668960571289062, 8.263351440429688, -2.7169315814971924, -1.5906896591186523, -2.5377449989318848, 0.04931640625, -0.1044921875, -0.8330078125
112, 3146369775, -5.1244306564331055, 1.4628345966339111, 8.273088455200195, -2.6578047275543213, -1.5679584741592407, -2.529203176498413, 0.05224609375, -0.10400390625, -0.8359375
113, 3146386442, -5.109051704406738, 1.4599095582962036, 8.258444786071777, -2.6862730979919434, -1.4924522638320923, -2.4178903102874756, 0.04833984375, -0.10205078125, -0.838134765625
114, 3146403109, -5.116274356842041, 1.4513665437698364, 8.250255584716797, -2.589444398880005, -1.54052734375, -2.4548752307891846, 0.04833984375, -0.10400390625, -0.836669921875
115, 3146419776, -5.116057395935059, 1.4764978885650635, 8.268404006958008, -2.508751630783081, -1.5006612539291382, -2.4771199226379395, 0.0498046875, -0.10302734375, -0.83642578125
116, 3146436443, -5.123706340789795, 1.4780223369598389, 8.263347625732422, -2.5626020431518555, -1.5871295928955078, -2.392444133758545, 0.05029296875, -0.10205078125, -0.8349609375
117, 3146453110, -5.133912563323975, 1.4504921436309814, 8.245522499084473, -2.590622663497925, -1.550273060798645, -2.417275905609131, 0.052734375, -0.1025390625, -0.833984375
118, 3146469777, -5.119635581970215, 1.460060715675354, 8.264455795288086, -2.6152236461639404, -1.5610302686691284, -2.431990146636963, 0.05126953125, -0.103515625, -0.83447265625
119, 3146486444, -5.132867336273193, 1.4544652700424194, 8.247540473937988, -2.6476619243621826, -1.5764362812042236, -2.4781572818756104, 0.048828125, -0.10400390625, -0.837646484375
120, 3146503111, -5.120643138885498, 1.458594560623169, 8.275144577026367, -2.623176336288452, -1.5885766744613647, -2.419760227203369, 0.04931640625, -0.1025390625, -0.838134765625
121, 3146519778, -5.130340576171875, 1.4613012075424194, 8.26116943359375, -2.6444091796875, -1.5132240056991577, -2.440045118331909, 0.0498046875, -0.103515625, -0.8369140625
122, 3146536445, -5.119215488433838, 1.4487005472183228, 8.260540962219238, -2.6018919944763184, -1.5731579065322876, -2.4828317165374756, 0.05029296875, -0.10498046875, -0.83447265625
123, 3146553112, -5.13767671585083, 1.4533665180206299, 8.28649616241455, -2.551934242248535, -1.4776095151901245, -2.3986167907714844, 0.0498046875, -0.103515625, -0.83349609375
124, 3146569779, -5.140314102172852, 1.4560260772705078, 8.275672912597656, -2.5231332778930664, -1.5199090242385864, -2.467348575592041, 0.0498046875, -0.103515625, -0.83544921875
125, 3146586446, -5.118559837341309, 1.4670664072036743, 8.255950927734375, -2.556313991546631, -1.5545756816864014, -2.464761257171631, 0.0498046875, -0.1025390625, -0.8349609375
126, 3146603113, -5.134453296661377, 1.4675498008728027, 8.26237964630127, -2.591928482055664, -1.507691740989685, -2.3390800952911377, 0.05029296875, -0.1015625, -0.840087890625
127, 3146619780, -5.124871730804443, 1.4607577323913574, 8.280664443969727, -2.564945936203003, -1.4456706047058105, -2.43072247505188, 0.05029296875, -0.10107421875, -0.838623046875
128, 3146636447, -5.125541687011719, 1.4659574031829834, 8.282430648803711, -2.6238162517547607, -1.5544732809066772, -2.3039393424987793, 0.048828125, -0.10302734375, -0.8359375
129, 3146653114, -5.1312079429626465, 1.4638285636901855, 8.272053718566895, -2.509519577026367, -1.5003405809402466, -2.3732213973999023, 0.04931640625, -0.10205078125, -0.83447265625
130, 3146669781, -5.11871337890625, 1.4611858129501343, 8.278303146362305, -2.509493827819824, -1.5529619455337524, -2.526027202606201, 0.04931640625, -0.10546875, -0.8359375
131, 3146686448, -5.121535778045654, 1.4539387226104736, 8.2680082321167, -2.55853009223938, -1.484781265258789, -2.4316189289093018, 0.048828125, -0.1025390625, -0.837646484375
132, 3146703115, -5.13843297958374, 1.4677468538284302, 8.282936096191406, -2.570798397064209, -1.5441004037857056, -2.3948004245758057, 0.048828125, -0.1025390625, -0.837158203125
133, 3146719782, -5.127955436706543, 1.4605519771575928, 8.284725189208984, -2.6352782249450684, -1.5989370346069336, -2.4811794757843018, 0.04833984375, -0.10400390625, -0.837158203125
134, 3146736449, -5.121729850769043, 1.4752999544143677, 8.290217399597168, -2.6551663875579834, -1.6424401998519897, -2.449483871459961, 0.05029296875, -0.1044921875, -0.83642578125
135, 3146753116, -5.124143123626709, 1.4697881937026978, 8.275961875915527, -2.6160943508148193, -1.5227649211883545, -2.414586305618286, 0.05029296875, -0.10400390625, -0.83642578125
136, 3146769783, -5.12779426574707, 1.4812214374542236, 8.289456367492676, -2.650338649749756, -1.5505290031433105, -2.517690420150757, 0.05029296875, -0.1044921875, -0.8359375
137, 3146786450, -5.11154317855835, 1.457614541053772, 8.276348114013672, -2.6714179515838623, -1.5861561298370361, -2.4673614501953125, 0.05078125, -0.10205078125, -0.838134765625
138, 3146803117, -5.119297027587891, 1.4409191608428955, 8.288195610046387, -2.558196783065796, -1.5146968364715576, -2.4588451385498047, 0.04833984375, -0.10107421875, -0.838623046875
139, 3146819784, -5.114063262939453, 1.4626126289367676, 8.27797794342041, -2.548886299133301, -1.609566330909729, -2.4078376293182373, 0.0478515625, -0.10302734375, -0.836181640625
140, 3146836451, -5.111988544464111, 1.4490007162094116, 8.266894340515137, -2.6103827953338623, -1.5592502355575562, -2.390612840652466, 0.05029296875, -0.1025390625, -0.8359375
141, 3146853118, -5.126671314239502, 1.4628727436065674, 8.28258991241455, -2.5582222938537598, -1.3530422449111938, -2.414240598678589, 0.04931640625, -0.103515625, -0.8349609375
142, 3146869785, -5.123563766479492, 1.4714933633804321, 8.250327110290527, -2.604132652282715, -1.4741132259368896, -2.3384265899658203, 0.05078125, -0.1025390625, -0.8349609375
143, 3146886452, -5.113989353179932, 1.4332305192947388, 8.26011848449707, -2.575639247894287, -1.6175446510314941, -2.4880177974700928, 0.0478515625, -0.1005859375, -0.840087890625
144, 3146903119, -5.1222243309021, 1.45783269405365, 8.271400451660156, -2.611586570739746, -1.5066930055618286, -2.4248955249786377, 0.04833984375, -0.103515625, -0.836669921875
145, 3146919786, -5.098010540008545, 1.4685723781585693, 8.281014442443848, -2.608039140701294, -1.4979591369628906, -2.411935567855835, 0.0478515625, -0.10205078125, -0.836669921875
146, 3146936453, -5.127772331237793, 1.4600269794464111, 8.289640426635742, -2.6171443462371826, -1.5661144256591797, -2.420964002609253, 0.05029296875, -0.10205078125, -0.8349609375
147, 3146953120, -5.123539924621582, 1.4618178606033325, 8.258708000183105, -2.5991644859313965, -1.5081913471221924, -2.4269063472747803, 0.05126953125, -0.1044921875, -0.8359375
148, 3146969787, -5.101783752441406, 1.4415003061294556, 8.254114151000977, -2.5503334999084473, -1.5657172203063965, -2.4393537044525146, 0.0498046875, -0.10205078125, -0.837158203125
149, 3146986454, -5.121969223022461, 1.4526079893112183, 8.246248245239258, -2.49130916595459, -1.5130192041397095, -2.4604458808898926, 0.04736328125, -0.1025390625, -0.838623046875
150, 3147003121, -5.11272668838501, 1.4523943662643433, 8.267642974853516, -2.436715602874756, -1.5775376558303833, -2.4012033939361572, 0.04833984375, -0.10302734375, -0.838134765625
151, 3147019788, -5.1132330894470215, 1.452925205230713, 8.28187084197998, -2.5345308780670166, -1.6019593477249146, -2.4395718574523926, 0.04736328125, -0.10302734375, -0.837646484375
152, 3147036455, -5.11586332321167, 1.452541708946228, 8.271478652954102, -2.466426134109497, -1.5097662210464478, -2.375040292739868, 0.048828125, -0.10302734375, -0.83544921875
153, 3147053122, -5.1256232261657715, 1.4550344944000244, 8.273329734802246, -2.581568479537964, -1.5954152345657349, -2.3635149002075195, 0.0498046875, -0.10205078125, -0.833984375
154, 3147069789, -5.1075825691223145, 1.4747642278671265, 8.281789779663086, -2.5864861011505127, -1.663122534751892, -2.3874754905700684, 0.0478515625, -0.10302734375, -0.83544921875
155, 3147086456, -5.1120381355285645, 1.453397512435913, 8.248517990112305, -2.6589572429656982, -1.6484463214874268, -2.413011074066162, 0.04736328125, -0.10400390625, -0.837646484375
156, 3147103123, -5.1116557121276855, 1.4481748342514038, 8.275896072387695, -2.64499831199646, -1.7058957815170288, -2.3779218196868896, 0.048828125, -0.10205078125, -0.838623046875
157, 3147119790, -5.1040449142456055, 1.4646694660186768, 8.263642311096191, -2.591621160507202, -1.639046549797058, -2.411768913269043, 0.048828125, -0.103515625, -0.837646484375
158, 3147136457, -5.110073089599609, 1.4640828371047974, 8.26834774017334, -2.5351836681365967, -1.585183024406433, -2.448395013809204, 0.04833984375, -0.10302734375, -0.8349609375
159, 3147153124, -5.118381023406982, 1.4491350650787354, 8.262396812438965, -2.4816274642944336, -1.5037857294082642, -2.426534652709961, 0.05029296875, -0.10205078125, -0.833984375
160, 3147169791, -5.112636089324951, 1.4620927572250366, 8.291467666625977, -2.4314136505126953, -1.4703612327575684, -2.3963756561279297, 0.0478515625, -0.10302734375, -0.83544921875
161, 3147186458, -5.10933780670166, 1.4811341762542725, 8.277403831481934, -2.5033085346221924, -1.5127373933792114, -2.309702157974243, 0.048828125, -0.1005859375, -0.838623046875
162, 3147203125, -5.119219779968262, 1.4599452018737793, 8.278871536254883, -2.537220001220703, -1.6256639957427979, -2.3385422229766846, 0.04736328125, -0.1015625, -0.836181640625
163, 3147219792, -5.1149396896362305, 1.4621351957321167, 8.275012969970703, -2.5248875617980957, -1.6073122024536133, -2.336761951446533, 0.04833984375, -0.103515625, -0.838134765625
164, 3147236459, -5.109951019287109, 1.461521863937378, 8.293488502502441, -2.5499751567840576, -1.6248444318771362, -2.4638524055480957, 0.0478515625, -0.103515625, -0.83447265625
165, 3147253126, -5.104979038238525, 1.4653645753860474, 8.27392578125, -2.57718825340271, -1.701362133026123, -2.3782031536102295, 0.0478515625, -0.1015625, -0.835205078125
166, 3147269793, -5.120044708251953, 1.450413465499878, 8.28403091430664, -2.6178231239318848, -1.6928074359893799, -2.37908673286438, 0.048828125, -0.1044921875, -0.8369140625
167, 3147286460, -5.105282306671143, 1.4557608366012573, 8.280257225036621, -2.585115909576416, -1.6562838554382324, -2.352731943130493, 0.0478515625, -0.10205078125, -0.837158203125
168, 3147303127, -5.108880043029785, 1.4642786979675293, 8.270730018615723, -2.56961989402771, -1.6968926191329956, -2.3236098289489746, 0.0478515625, -0.1025390625, -0.8349609375
169, 3147319794, -5.121376991271973, 1.4634019136428833, 8.270750999450684, -2.508303165435791, -1.6974434852600098, -2.3216123580932617, 0.048828125, -0.1015625, -0.8359375
170, 3147336461, -5.108214855194092, 1.4554115533828735, 8.282418251037598, -2.537808895111084, -1.676722526550293, -2.39916729927063, 0.04833984375, -0.10400390625, -0.83642578125
171, 3147353128, -5.113232135772705, 1.4453667402267456, 8.295082092285156, -2.4938063621520996, -1.6340645551681519, -2.3813536167144775, 0.04736328125, -0.1044921875, -0.83544921875
172, 3147369795, -5.112284183502197, 1.4677125215530396, 8.27811336517334, -2.526423931121826, -1.6409415006637573, -2.288072109222412, 0.0478515625, -0.10205078125, -0.836669921875
173, 3147386462, -5.1068549156188965, 1.4670379161834717, 8.26923656463623, -2.5178310871124268, -1.5340986251831055, -2.408285617828369, 0.04638671875, -0.1025390625, -0.837646484375
174, 3147403129, -5.110256671905518, 1.4500287771224976, 8.272799491882324, -2.4828827381134033, -1.5195375680923462, -2.3165149688720703, 0.048828125, -0.10302734375, -0.836669921875
175, 3147419796, -5.111816883087158, 1.4632247686386108, 8.286079406738281, -2.483689308166504, -1.6101295948028564, -2.344906806945801, 0.04931640625, -0.103515625, -0.838134765625
176, 3147436463, -5.1066365242004395, 1.4615737199783325, 8.280019760131836, -2.511209726333618, -1.600204586982727, -2.275662660598755, 0.04833984375, -0.10400390625, -0.83544921875
177, 3147453130, -5.098988056182861, 1.4667937755584717, 8.265554428100586, -2.496662139892578, -1.5994236469268799, -2.3595829010009766, 0.04931640625, -0.10302734375, -0.83447265625
178, 3147469797, -5.114035129547119, 1.4628326892852783, 8.279706954956055, -2.459050178527832, -1.6718051433563232, -2.3923287391662598, 0.045654296875, -0.10205078125, -0.836181640625
179, 3147486464, -5.092868328094482, 1.45824134349823, 8.289271354675293, -2.544173240661621, -1.5990136861801147, -2.334251880645752, 0.0458984375, -0.10205078125, -0.840087890625
180, 3147503131, -5.1020379066467285, 1.4827653169631958, 8.267992973327637, -2.5363621711730957, -1.6375993490219116, -2.376359462738037, 0.046875, -0.10400390625, -0.838134765625
181, 3147519798, -5.1111602783203125, 1.4667673110961914, 8.292640686035156, -2.4535813331604004, -1.6439127922058105, -2.370224952697754, 0.04833984375, -0.10400390625, -0.836669921875
182, 3147536465, -5.105078220367432, 1.4588223695755005, 8.291017532348633, -2.5462353229522705, -1.6609069108963013, -2.4300308227539062, 0.04736328125, -0.10400390625, -0.83544921875
183, 3147553132, -5.113481521606445, 1.4751921892166138, 8.277891159057617, -2.573244333267212, -1.592777132987976, -2.392444372177124, 0.048828125, -0.10302734375, -0.8359375
184, 3147569799, -5.1122283935546875, 1.4629937410354614, 8.286964416503906, -2.6061439514160156, -1.7097760438919067, -2.4003326892852783, 0.04736328125, -0.1025390625, -0.837646484375
185, 3147586466, -5.098875999450684, 1.4574710130691528, 8.27592945098877, -2.4997870922088623, -1.6435799598693848, -2.372671127319336, 0.04638671875, -0.1005859375, -0.837646484375
186, 3147603133, -5.107924938201904, 1.4557013511657715, 8.279595375061035, -2.4382269382476807, -1.546251654624939, -2.2168948650360107, 0.0478515625, -0.1015625, -0.836669921875
187, 3147619800, -5.113971710205078, 1.4655277729034424, 8.281237602233887, -2.4014339447021484, -1.5778961181640625, -2.2632663249969482, 0.04736328125, -0.10302734375, -0.836669921875
188, 3147636467, -5.1189165115356445, 1.4745837450027466, 8.27828598022461, -2.4150729179382324, -1.554959774017334, -2.255723476409912, 0.0478515625, -0.10400390625, -0.8349609375
189, 3147653134, -5.104955673217773, 1.4506988525390625, 8.28203010559082, -2.485866069793701, -1.5525649785995483, -2.2800040245056152, 0.046875, -0.103515625, -0.837158203125
190, 3147669801, -5.086971282958984, 1.4574016332626343, 8.286354064941406, -2.3667285442352295, -1.6208868026733398, -2.1930618286132812, 0.0478515625, -0.103515625, -0.83544921875
191, 3147686468, -5.087268352508545, 1.4753226041793823, 8.273782730102539, -2.330089807510376, -1.5541787147521973, -2.1504294872283936, 0.04833984375, -0.103515625, -0.837158203125
192, 3147703135, -5.103371620178223, 1.4987730979919434, 8.280465126037598, -2.3785362243652344, -1.5028122663497925, -2.1318089962005615, 0.046875, -0.10302734375, -0.835693359375
193, 3147719802, -5.092970848083496, 1.4737316370010376, 8.270071029663086, -2.449854612350464, -1.5739387273788452, -2.2174322605133057, 0.044677734375, -0.10400390625, -0.835693359375
194, 3147736469, -5.095242023468018, 1.4676982164382935, 8.293295860290527, -2.4499573707580566, -1.552667498588562, -2.333240270614624, 0.044677734375, -0.10400390625, -0.834228515625
195, 3147753136, -5.103681564331055, 1.4716928005218506, 8.297273635864258, -2.496828317642212, -1.5011347532272339, -2.296024799346924, 0.046875, -0.103515625, -0.83447265625
196, 3147769803, -5.102537155151367, 1.470093846321106, 8.28864860534668, -2.4631733894348145, -1.5586737394332886, -2.2501142024993896, 0.045654296875, -0.10205078125, -0.835693359375
197, 3147786470, -5.099618911743164, 1.4800469875335693, 8.287693977355957, -2.498595714569092, -1.5838252305984497, -2.3087542057037354, 0.0458984375, -0.10400390625, -0.838134765625
198, 3147803137, -5.10410213470459, 1.4723632335662842, 8.286827087402344, -2.548643112182617, -1.6077605485916138, -2.3645265102386475, 0.045654296875, -0.10498046875, -0.836181640625
199, 3147819804, -5.085748195648193, 1.4828726053237915, 8.282835006713867, -2.62843918800354, -1.4533541202545166, -2.297382116317749, 0.045166015625, -0.10302734375, -0.836181640625
200, 3147836471, -5.0821404457092285, 1.4547780752182007, 8.281881332397461, -2.544955015182495, -1.576064944267273, -2.380406379699707, 0.044677734375, -0.10546875, -0.837158203125
201, 3147853138, -5.090811729431152, 1.4670257568359375, 8.287516593933105, -2.6486093997955322, -1.6499959230422974, -2.421668291091919, 0.04736328125, -0.1025390625, -0.8349609375
202, 3147869805, -5.090627670288086, 1.4787853956222534, 8.28715991973877, -2.70778751373291, -1.60537850856781, -2.361785411834717, 0.04931640625, -0.10498046875, -0.83642578125
203, 3147886472, -5.077857494354248, 1.479249358177185, 8.2910737991333, -2.663618564605713, -1.5017880201339722, -2.5422911643981934, 0.0458984375, -0.10205078125, -0.838623046875
204, 3147903139, -5.098876476287842, 1.4562664031982422, 8.282597541809082, -2.627056360244751, -1.354694128036499, -2.4881973266601562, 0.04736328125, -0.10205078125, -0.837646484375
205, 3147919806, -5.090189456939697, 1.478936791419983, 8.304861068725586, -2.61337947845459, -1.4138981103897095, -2.631756544113159, 0.04833984375, -0.1025390625, -0.836181640625
206, 3147936473, -5.091382026672363, 1.4816160202026367, 8.298992156982422, -2.579288959503174, -1.403255820274353, -2.5687620639801025, 0.0478515625, -0.10498046875, -0.833984375
207, 3147953140, -5.0882792472839355, 1.473718523979187, 8.268616676330566, -2.636725425720215, -1.3483936786651611, -2.538167953491211, 0.046875, -0.1044921875, -0.836181640625
208, 3147969807, -5.09188175201416, 1.4552419185638428, 8.279905319213867, -2.584219455718994, -1.22190523147583, -2.5298945903778076, 0.046875, -0.10400390625, -0.837158203125
209, 3147986474, -5.099592208862305, 1.4631050825119019, 8.276022911071777, -2.601034164428711, -1.182807445526123, -2.549424171447754, 0.0458984375, -0.10205078125, -0.837158203125
210, 3148003141, -5.109667778015137, 1.4703624248504639, 8.292912483215332, -2.5997023582458496, -1.315891146659851, -2.6371607780456543, 0.04638671875, -0.1015625, -0.836669921875
211, 3148019808, -5.105222702026367, 1.4720289707183838, 8.2914457321167, -2.644716501235962, -1.2151050567626953, -2.5059597492218018, 0.046875, -0.10400390625, -0.835693359375
212, 3148036475, -5.098552227020264, 1.4735721349716187, 8.29172420501709, -2.6104848384857178, -1.2876914739608765, -2.5922868251800537, 0.045654296875, -0.103515625, -0.834228515625
213, 3148053142, -5.100546836853027, 1.4630985260009766, 8.288206100463867, -2.6368021965026855, -1.3062222003936768, -2.627133369445801, 0.0478515625, -0.103515625, -0.836181640625
214, 3148069809, -5.086096286773682, 1.4523828029632568, 8.287530899047852, -2.6117658615112305, -1.3011125326156616, -2.6554481983184814, 0.0458984375, -0.10205078125, -0.836181640625
215, 3148086476, -5.106466770172119, 1.4484392404556274, 8.298945426940918, -2.569223165512085, -1.1775952577590942, -2.5788533687591553, 0.04541015625, -0.10107421875, -0.839599609375
216, 3148103143, -5.087643146514893, 1.4565221071243286, 8.281850814819336, -2.516576051712036, -1.2697240114212036, -2.6022632122039795, 0.04736328125, -0.1025390625, -0.838134765625
217, 3148119810, -5.092427730560303, 1.4801658391952515, 8.282032012939453, -2.566559314727783, -1.1358592510223389, -2.6032490730285645, 0.0498046875, -0.10302734375, -0.83740234375
218, 3148136477, -5.105474948883057, 1.4548884630203247, 8.285686492919922, -2.570695400238037, -1.1696168184280396, -2.626467227935791, 0.0478515625, -0.10205078125, -0.833984375
219, 3148153144, -5.086913585662842, 1.4723732471466064, 8.288824081420898, -2.601200819015503, -1.1180201768875122, -2.6569085121154785, 0.04931640625, -0.103515625, -0.83544921875
220, 3148169811, -5.115284442901611, 1.4513901472091675, 8.272204399108887, -2.533928632736206, -1.1192622184753418, -2.724961280822754, 0.0498046875, -0.10302734375, -0.8359375
221, 3148186478, -5.114396572113037, 1.4573051929473877, 8.273630142211914, -2.6155948638916016, -1.0673197507858276, -2.5684421062469482, 0.0478515625, -0.103515625, -0.837158203125
222, 3148203145, -5.115575790405273, 1.4455186128616333, 8.269519805908203, -2.5073423385620117, -1.1552352905273438, -2.555724859237671, 0.048828125, -0.10302734375, -0.837646484375
223, 3148219812, -5.112697601318359, 1.4705781936645508, 8.28427791595459, -2.5655596256256104, -1.2050262689590454, -2.506586790084839, 0.0478515625, -0.103515625, -0.838623046875
224, 3148236479, -5.105632305145264, 1.4644776582717896, 8.267852783203125, -2.587190628051758, -1.3872736692428589, -2.4508285522460938, 0.046630859375, -0.10302734375, -0.8330078125
225, 3148253146, -5.095846652984619, 1.4608184099197388, 8.28143310546875, -2.6246232986450195, -1.309295892715454, -2.537693738937378, 0.04736328125, -0.10400390625, -0.8359375
226, 3148269813, -5.108821868896484, 1.4628368616104126, 8.267354965209961, -2.5921847820281982, -1.4814132452011108, -2.451200008392334, 0.0478515625, -0.10205078125, -0.837646484375
227, 3148286480, -5.111059188842773, 1.462459921836853, 8.276117324829102, -2.492051601409912, -1.3107554912567139, -2.4420557022094727, 0.04736328125, -0.1025390625, -0.838623046875
228, 3148303147, -5.105015754699707, 1.4546946287155151, 8.272518157958984, -2.563101291656494, -1.4293296337127686, -2.4490222930908203, 0.04833984375, -0.1025390625, -0.836669921875
229, 3148319814, -5.120822429656982, 1.4544721841812134, 8.290149688720703, -2.6244568824768066, -1.462882399559021, -2.427777051925659, 0.04736328125, -0.10205078125, -0.833984375
230, 3148336481, -5.103769779205322, 1.4667398929595947, 8.293036460876465, -2.618450880050659, -1.5209463834762573, -2.489733934402466, 0.04833984375, -0.103515625, -0.83349609375
231, 3148353148, -5.094388961791992, 1.4595171213150024, 8.265326499938965, -2.6292974948883057, -1.6243319511413574, -2.4324123859405518, 0.04931640625, -0.10546875, -0.83642578125
232, 3148369815, -5.108990669250488, 1.4760538339614868, 8.301676750183105, -2.574396848678589, -1.5528854131698608, -2.4772861003875732, 0.04931640625, -0.1025390625, -0.8359375
233, 3148386482, -5.110340595245361, 1.46648108959198, 8.29552936553955, -2.611240863800049, -1.6184923648834229, -2.321727752685547, 0.046875, -0.1025390625, -0.83447265625
234, 3148403149, -5.090444564819336, 1.4534432888031006, 8.287420272827148, -2.686708450317383, -1.5569322109222412, -2.4312984943389893, 0.046142578125, -0.1015625, -0.835205078125
235, 3148419816, -5.095028400421143, 1.4717202186584473, 8.27512264251709, -2.623534917831421, -1.5879236459732056, -2.4569754600524902, 0.04736328125, -0.10498046875, -0.83642578125
236, 3148436483, -5.083422660827637, 1.4534626007080078, 8.285797119140625, -2.5646636486053467, -1.569430947303772, -2.5175490379333496, 0.04736328125, -0.10205078125, -0.836181640625
237, 3148453150, -5.11258602142334, 1.4408499002456665, 8.274031639099121, -2.680433511734009, -1.4550962448120117, -2.5102882385253906, 0.04736328125, -0.10205078125, -0.835693359375
238, 3148469817, -5.097695350646973, 1.4635545015335083, 8.282516479492188, -2.657830238342285, -1.4581183195114136, -2.48543119430542, 0.0478515625, -0.1025390625, -0.837646484375
239, 3148486484, -5.097623348236084, 1.4524524211883545, 8.275154113769531, -2.629477024078369, -1.3844947814941406, -2.4816277027130127, 0.0478515625, -0.10009765625, -0.838623046875
240, 3148503151, -5.101037979125977, 1.4651135206222534, 8.28543472290039, -2.622382402420044, -1.3319759368896484, -2.496175765991211, 0.046875, -0.10107421875, -0.838134765625
241, 3148519818, -5.091993808746338, 1.450362205505371, 8.266056060791016, -2.6349194049835205, -1.3123949766159058, -2.4210405349731445, 0.046875, -0.103515625, -0.836181640625
242, 3148536485, -5.099547386169434, 1.469445824623108, 8.275076866149902, -2.477811336517334, -1.2887030839920044, -2.5364770889282227, 0.0478515625, -0.10400390625, -0.8310546875
243, 3148553152, -5.0958027839660645, 1.4590691328048706, 8.252520561218262, -2.5556223392486572, -1.2895482778549194, -2.5279223918914795, 0.04638671875, -0.10205078125, -0.836669921875
244, 3148569819, -5.110437393188477, 1.4594851732254028, 8.252534866333008, -2.49130916595459, -1.2159757614135742, -2.4906816482543945, 0.0478515625, -0.103515625, -0.83447265625
245, 3148586486, -5.11501932144165, 1.4742056131362915, 8.26076602935791, -2.429518222808838, -1.248273253440857, -2.4755823612213135, 0.048828125, -0.10400390625, -0.83642578125
246, 3148603153, -5.1039533615112305, 1.4628006219863892, 8.27182388305664, -2.3644111156463623, -1.2562390565872192, -2.401754379272461, 0.046875, -0.103515625, -0.837646484375
247, 3148619820, -5.113744258880615, 1.4698882102966309, 8.285361289978027, -2.4794504642486572, -1.3243303298950195, -2.4221675395965576, 0.04736328125, -0.103515625, -0.83447265625
248, 3148636487, -5.132296085357666, 1.4597934484481812, 8.267180442810059, -2.5195086002349854, -1.415870189666748, -2.5714640617370605, 0.048828125, -0.10205078125, -0.8359375
249, 3148653154, -5.1131439208984375, 1.4496482610702515, 8.301493644714355, -2.702152967453003, -1.4058045148849487, -2.5567753314971924, 0.04736328125, -0.10302734375, -0.83544921875
250, 3148669821, -5.117829322814941, 1.4413920640945435, 8.273857116699219, -2.8596835136413574, -1.4207619428634644, -2.546030044555664, 0.04736328125, -0.10400390625, -0.838623046875
251, 3148686488, -5.108312129974365, 1.4576760530471802, 8.280095100402832, -2.7831404209136963, -1.4748563766479492, -2.4901952743530273, 0.0498046875, -0.1025390625, -0.837646484375
252, 3148703155, -5.096434116363525, 1.4583808183670044, 8.277938842773438, -2.635380744934082, -1.4630489349365234, -2.500261068344116, 0.04736328125, -0.1015625, -0.836181640625
253, 3148719822, -5.098779678344727, 1.4670253992080688, 8.283449172973633, -2.6589572429656982, -1.331514835357666, -2.5229921340942383, 0.04833984375, -0.1044921875, -0.83544921875
254, 3148736489, -5.099262714385986, 1.452122688293457, 8.273098945617676, -2.6051576137542725, -1.3644782304763794, -2.53682279586792, 0.05078125, -0.10107421875, -0.83544921875
255, 3148753156, -5.1187615394592285, 1.4661712646484375, 8.281720161437988, -2.3423969745635986, -1.2281289100646973, -2.389921188354492, 0.04736328125, -0.10302734375, -0.8349609375
256, 3148769823, -5.122566223144531, 1.4321380853652954, 8.274247169494629, -2.403444528579712, -1.230498194694519, -2.465324878692627, 0.04833984375, -0.103515625, -0.838134765625
257, 3148786490, -5.1055402755737305, 1.45454740524292, 8.282414436340332, -2.431682586669922, -1.2583903074264526, -2.3692002296447754, 0.046875, -0.10205078125, -0.836669921875
258, 3148803157, -5.135765552520752, 1.4692713022232056, 8.273488998413086, -2.4305171966552734, -1.2659587860107422, -2.3827364444732666, 0.0478515625, -0.1015625, -0.838623046875
259, 3148819824, -5.104538440704346, 1.469640851020813, 8.269807815551758, -2.4820497035980225, -1.2695574760437012, -2.4154696464538574, 0.04931640625, -0.1025390625, -0.83642578125
260, 3148836491, -5.111915588378906, 1.4771227836608887, 8.275158882141113, -2.396580696105957, -1.2145670652389526, -2.4374582767486572, 0.05078125, -0.1005859375, -0.83447265625
261, 3148853158, -5.097110748291016, 1.4638822078704834, 8.269865036010742, -2.3706090450286865, -1.1287133693695068, -2.5081748962402344, 0.0478515625, -0.1025390625, -0.83544921875
262, 3148869825, -5.108935356140137, 1.4308209419250488, 8.272006034851074, -2.3071281909942627, -1.1123340129852295, -2.5127851963043213, 0.046875, -0.1015625, -0.834716796875
263, 3148886492, -5.118600845336914, 1.4641743898391724, 8.262680053710938, -2.371133804321289, -1.1151896715164185, -2.4520699977874756, 0.04833984375, -0.10205078125, -0.837158203125
264, 3148903159, -5.112098693847656, 1.4737683534622192, 8.2998046875, -2.5410358905792236, -1.1960874795913696, -2.5443525314331055, 0.04833984375, -0.10302734375, -0.8349609375
265, 3148919826, -5.1221842765808105, 1.4644798040390015, 8.259988784790039, -2.8710556030273438, -1.3088089227676392, -2.659123420715332, 0.04931640625, -0.10205078125, -0.836669921875
266, 3148936493, -5.1100969314575195, 1.4460431337356567, 8.271132469177246, -2.7528016567230225, -1.4396129846572876, -2.696824789047241, 0.04833984375, -0.103515625, -0.83447265625
267, 3148953160, -5.092616081237793, 1.4760870933532715, 8.257230758666992, -2.9074766635894775, -1.3176069259643555, -2.689115524291992, 0.0498046875, -0.10302734375, -0.83544921875
268, 3148969827, -5.129253387451172, 1.4310648441314697, 8.281248092651367, -2.919053554534912, -1.4011554718017578, -2.7853167057037354, 0.0498046875, -0.10205078125, -0.83544921875
269, 3148986494, -5.106208801269531, 1.4613382816314697, 8.264205932617188, -2.4709980487823486, -1.3441928625106812, -2.471766471862793, 0.04736328125, -0.103515625, -0.838623046875
270, 3149003161, -5.127206802368164, 1.4601171016693115, 8.26612377166748, -2.336416244506836, -1.230933666229248, -2.3955817222595215, 0.048828125, -0.10400390625, -0.837158203125
271, 3149019828, -5.139046669006348, 1.4639041423797607, 8.279476165771484, -2.3869502544403076, -1.3921271562576294, -2.408170223236084, 0.0498046875, -0.1015625, -0.837158203125
272, 3149036495, -5.137601375579834, 1.4708975553512573, 8.256037712097168, -2.637570381164551, -1.5927259922027588, -2.460817575454712, 0.05126953125, -0.10205078125, -0.83349609375
273, 3149053162, -5.103264808654785, 1.4918564558029175, 8.294465065002441, -2.97750186920166, -1.797934651374817, -2.567340135574341, 0.048828125, -0.1015625, -0.83544921875
274, 3149069829, -5.113087177276611, 1.4721159934997559, 8.24478530883789, -2.891059160232544, -1.5945185422897339, -2.462481737136841, 0.05029296875, -0.1015625, -0.83544921875
275, 3149086496, -5.095186233520508, 1.4292020797729492, 8.27734088897705, -2.727688789367676, -1.4288303852081299, -2.506612539291382, 0.0478515625, -0.10302734375, -0.83544921875
276, 3149103163, -5.09653377532959, 1.470794916152954, 8.275634765625, -2.54521107673645, -1.1111173629760742, -2.463045358657837, 0.04833984375, -0.10302734375, -0.838623046875
277, 3149119830, -5.08690071105957, 1.4857754707336426, 8.259381294250488, -2.3965423107147217, -0.9550976157188416, -2.4873132705688477, 0.04833984375, -0.10205078125, -0.83544921875
278, 3149136497, -5.091876029968262, 1.4507887363433838, 8.273965835571289, -2.1669111251831055, -0.6927594542503357, -2.629028081893921, 0.04736328125, -0.103515625, -0.833984375
279, 3149153164, -5.101284027099609, 1.4092010259628296, 8.273233413696289, -1.8611083030700684, -0.5207061767578125, -2.502066135406494, 0.04833984375, -0.1015625, -0.835693359375
280, 3149169831, -5.116067886352539, 1.4588119983673096, 8.286870956420898, -1.5365186929702759, -0.4667786657810211, -2.2426865100860596, 0.04833984375, -0.10400390625, -0.8359375
281, 3149186498, -5.117895603179932, 1.4959741830825806, 8.222756385803223, -1.2259262800216675, -0.6698744893074036, -2.2195706367492676, 0.04833984375, -0.10400390625, -0.837158203125
282, 3149203165, -5.132720947265625, 1.4090757369995117, 8.26833438873291, -0.9842192530632019, -0.35869306325912476, -2.02752685546875, 0.04833984375, -0.1025390625, -0.837158203125
283, 3149219832, -5.117765426635742, 1.4622961282730103, 8.252195358276367, -0.08175572752952576, -0.19826790690422058, -1.386376976966858, 0.0517578125, -0.10400390625, -0.8369140625
284, 3149236499, -5.126675605773926, 1.4277780055999756, 8.298117637634277, 1.1572009325027466, -0.11879170686006546, -0.8871471285820007, 0.05126953125, -0.10693359375, -0.833251953125
285, 3149253166, -5.079535007476807, 1.5251160860061646, 8.22706127166748, 1.1859641075134277, -0.3289439380168915, -0.8687955141067505, 0.05126953125, -0.107177734375, -0.83642578125
286, 3149269833, -5.094580173492432, 1.4608017206192017, 8.246257781982422, 1.295637607574463, 0.0748082846403122, -0.8361648917198181, 0.04931640625, -0.107666015625, -0.83642578125
287, 3149286500, -5.127378463745117, 1.5195473432540894, 8.238263130187988, 1.2763895988464355, 0.2536105215549469, -0.8199265003204346, 0.05224609375, -0.106201171875, -0.83642578125
288, 3149303167, -5.087490081787109, 1.5554615259170532, 8.22287368774414, 0.8492339253425598, -0.4911491572856903, -1.2986536026000977, 0.05126953125, -0.109619140625, -0.8349609375
289, 3149319834, -5.11342716217041, 1.5867931842803955, 8.233195304870605, -0.18292587995529175, -1.514837384223938, -2.303875207901001, 0.0517578125, -0.108642578125, -0.834228515625
290, 3149336501, -5.150522232055664, 1.546472191810608, 8.239410400390625, -1.337994933128357, -2.298471450805664, -3.0801711082458496, 0.05224609375, -0.111083984375, -0.8369140625
291, 3149353168, -5.186277389526367, 1.559782862663269, 8.222603797912598, -2.67565655708313, -3.2039568424224854, -3.8940014839172363, 0.05322265625, -0.109619140625, -0.836181640625
292, 3149369835, -5.207982063293457, 1.5788911581039429, 8.24766731262207, -3.4346251487731934, -3.6001474857330322, -4.221190929412842, 0.04931640625, -0.108642578125, -0.83447265625
293, 3149386502, -5.209834098815918, 1.5915554761886597, 8.248144149780273, -4.487742900848389, -4.231654167175293, -4.856642723083496, 0.0478515625, -0.109130859375, -0.83740234375
294, 3149403169, -5.13449764251709, 1.5731537342071533, 8.279021263122559, -6.5865254402160645, -5.073723793029785, -5.962625503540039, 0.05126953125, -0.109619140625, -0.83740234375
295, 3149419836, -5.1192402839660645, 1.478670358657837, 8.280167579650879, -7.596357822418213, -4.963000774383545, -6.572234153747559, 0.04833984375, -0.1064453125, -0.83544921875
296, 3149436503, -5.067776679992676, 1.3764108419418335, 8.331887245178223, -5.5470709800720215, -2.4311065673828125, -5.042872428894043, 0.04833984375, -0.10546875, -0.8369140625
297, 3149453170, -5.0900797843933105, 1.413968801498413, 8.35136604309082, -4.011589050292969, -0.6691190600395203, -4.3142290115356445, 0.04736328125, -0.10693359375, -0.8349609375
298, 3149469837, -5.099429130554199, 1.4850893020629883, 8.30933666229248, -3.053213119506836, 0.37232542037963867, -3.7913711071014404, 0.048828125, -0.1025390625, -0.83544921875
299, 3149486504, -5.122447967529297, 1.4487601518630981, 8.279096603393555, -2.362886905670166, 0.921884298324585, -3.683183431625366, 0.048828125, -0.10498046875, -0.839111328125
300, 3149503171, -5.1260986328125, 1.4779926538467407, 8.244929313659668, -1.9900429248809814, 1.245782494544983, -3.5032026767730713, 0.04736328125, -0.10595703125, -0.837158203125
301, 3149519838, -5.11240291595459, 1.4931186437606812, 8.235352516174316, -1.941442608833313, 1.1819941997528076, -3.5649421215057373, 0.05224609375, -0.10498046875, -0.83447265625
302, 3149536505, -5.155917644500732, 1.4273494482040405, 8.22179889678955, -1.2567768096923828, 1.376560926437378, -3.308161973953247, 0.05322265625, -0.10595703125, -0.833251953125
303, 3149553172, -5.1677165031433105, 1.406099796295166, 8.254911422729492, 0.1645936220884323, 1.8914529085159302, -2.1208853721618652, 0.05126953125, -0.106689453125, -0.83447265625
304, 3149569839, -5.185790061950684, 1.4213300943374634, 8.263617515563965, 0.42115604877471924, 2.082472562789917, -1.3004080057144165, 0.052734375, -0.107177734375, -0.83544921875
305, 3149586506, -5.184475898742676, 1.4908803701400757, 8.246834754943848, 0.42218056321144104, 1.9121737480163574, -0.7728504538536072, 0.0537109375, -0.106689453125, -0.83544921875
306, 3149603173, -5.175321578979492, 1.5197886228561401, 8.253789901733398, 0.025042815133929253, 1.6056665182113647, -0.806825578212738, 0.0537109375, -0.106201171875, -0.8369140625
307, 3149619840, -5.154573917388916, 1.5352622270584106, 8.262828826904297, 0.5776752233505249, 1.7079380750656128, -0.8633784651756287, 0.056396484375, -0.107666015625, -0.837646484375
308, 3149636507, -5.140744686126709, 1.571178674697876, 8.250982284545898, 1.0295599699020386, 1.9883970022201538, -1.405701756477356, 0.055419921875, -0.107666015625, -0.833251953125
309, 3149653174, -5.166018009185791, 1.537235140800476, 8.240375518798828, 2.210792303085327, 3.5991549491882324, -2.2181880474090576, 0.055419921875, -0.111572265625, -0.833251953125
310, 3149669841, -5.161407947540283, 1.4667980670928955, 8.22213363647461, 3.2611567974090576, 5.61145544052124, -2.239971876144409, 0.059814453125, -0.111572265625, -0.83447265625
311, 3149686508, -5.194586277008057, 1.4845925569534302, 8.19691276550293, 4.398988723754883, 8.02984619140625, -1.7276923656463623, 0.0625, -0.1162109375, -0.8349609375
312, 3149703175, -5.180895805358887, 1.4897127151489258, 8.156694412231445, 5.787147045135498, 10.253772735595703, -0.9940037131309509, 0.06396484375, -0.1142578125, -0.833984375
313, 3149719842, -5.1496405601501465, 1.5705528259277344, 8.13341999053955, 8.94108772277832, 13.486960411071777, -0.7618503570556641, 0.06689453125, -0.11767578125, -0.830810546875
314, 3149736509, -5.0231733322143555, 1.4830111265182495, 8.200485229492188, 11.182082176208496, 18.303319931030273, -0.6696067452430725, 0.072998046875, -0.121337890625, -0.83154296875
315, 3149753176, -5.095602035522461, 1.6532546281814575, 8.176458358764648, 12.797710418701172, 25.440162658691406, -0.4654481112957001, 0.075927734375, -0.125732421875, -0.828857421875
316, 3149769843, -5.213873386383057, 1.5580545663833618, 8.070229530334473, 12.086627006530762, 32.512855529785156, 0.5863476395606995, 0.0859375, -0.12646484375, -0.829345703125
317, 3149786510, -5.312793731689453, 1.5914459228515625, 8.023202896118164, 14.807350158691406, 39.082069396972656, 2.218463897705078, 0.095947265625, -0.1328125, -0.82666015625
318, 3149803177, -5.350924968719482, 1.881022334098816, 7.901931285858154, 15.487443923950195, 46.0733757019043, 1.8678666353225708, 0.103515625, -0.135498046875, -0.826171875
319, 3149819844, -5.504462242126465, 2.006965398788452, 7.8958964347839355, 14.746834754943848, 54.49352264404297, -0.8897821307182312, 0.11865234375, -0.14208984375, -0.821533203125
320, 3149836511, -5.582163333892822, 1.9791057109832764, 7.79649019241333, 14.588205337524414, 63.1883544921875, -3.5472066402435303, 0.131591796875, -0.144287109375, -0.818115234375
321, 3149853178, -5.762420177459717, 1.8706145286560059, 7.7475762367248535, 15.119636535644531, 73.50261688232422, -5.198917865753174, 0.147705078125, -0.147705078125, -0.80908203125
322, 3149869845, -5.814174652099609, 2.0118212699890137, 7.611825466156006, 14.673713684082031, 85.98600769042969, -7.784281253814697, 0.168701171875, -0.1484375, -0.809326171875
323, 3149886512, -6.071457862854004, 2.058265209197998, 7.570919513702393, 12.568183898925781, 100.5233154296875, -12.357735633850098, 0.19287109375, -0.150146484375, -0.803466796875
324, 3149903179, -6.145789623260498, 2.0056400299072266, 7.4809889793396, 9.368928909301758, 115.2479248046875, -16.170087814331055, 0.219482421875, -0.15625, -0.797119140625
325, 3149919846, -6.428234100341797, 1.797480583190918, 7.192180633544922, 8.65958023071289, 131.1427001953125, -16.449811935424805, 0.25048828125, -0.1552734375, -0.784912109375
326, 3149936513, -6.553828239440918, 1.923906922340393, 6.99722957611084, 8.590320587158203, 150.8975067138672, -15.094624519348145, 0.283203125, -0.157470703125, -0.770263671875
327, 3149953180, -6.716442108154297, 2.1436636447906494, 6.819295406341553, 4.668644905090332, 178.61795043945312, -19.5610294342041, 0.32373046875, -0.15869140625, -0.7548828125
328, 3149969847, -6.97409200668335, 2.0378875732421875, 6.616055011749268, -0.8137593269348145, 214.02342224121094, -26.402801513671875, 0.3662109375, -0.1533203125, -0.73193359375
329, 3149986514, -7.193893909454346, 2.072524070739746, 6.76161527633667, -7.129190444946289, 262.9002990722656, -32.46733093261719, 0.420166015625, -0.1484375, -0.699462890625
330, 3150003181, -7.721254348754883, 2.42916202545166, 7.118114948272705, -4.558004856109619, 323.8245849609375, -39.58929443359375, 0.4833984375, -0.14208984375, -0.65673828125
331, 3150019848, -9.852359771728516, 2.2455413341522217, 7.5571818351745605, 12.012693405151367, 378.0045166015625, -48.799560546875, 0.55322265625, -0.1376953125, -0.597412109375
332, 3150036515, -13.760775566101074, 1.8921138048171997, 8.256418228149414, 30.42185401916504, 401.14959716796875, -51.51150894165039, 0.6171875, -0.13232421875, -0.523193359375
333, 3150053182, -13.73878002166748, 2.077531576156616, 7.915661334991455, 41.21918487548828, 407.3086853027344, -55.05067825317383, 0.676513671875, -0.1259765625, -0.437744140625
334, 3150069849, -14.563735008239746, 2.748892068862915, 8.129179000854492, 52.03467559814453, 430.1252136230469, -57.79785919189453, 0.727294921875, -0.123779296875, -0.343017578125
335, 3150086516, -16.917957305908203, 3.2318243980407715, 9.336641311645508, 50.979957580566406, 426.53607177734375, -61.51829147338867, 0.765380859375, -0.115478515625, -0.238525390625
336, 3150103183, -15.629685401916504, 2.836451292037964, 11.199739456176758, 68.66679382324219, 372.7721862792969, -50.84522247314453, 0.782470703125, -0.1064453125, -0.135009765625
337, 3150119850, -13.555570602416992, 0.9788163900375366, 20.174955368041992, 111.54627227783203, 202.72824096679688, -4.423328876495361, 0.7880859375, -0.10693359375, -0.05859375
338, 3150136517, -29.750913619995117, 6.949645519256592, 26.35162925720215, 118.33674621582031, -5.923827648162842, -40.3814811706543, 0.786865234375, -0.103271484375, -0.02880859375
339, 3150153184, -11.701520919799805, 5.479825973510742, 19.82413673400879, 65.489501953125, -270.5069885253906, -41.04834747314453, 0.78857421875, -0.098876953125, -0.06201171875
340, 3150169851, -0.537874698638916, 1.995301604270935, 5.788005828857422, 9.472579002380371, -292.9018859863281, -105.25540161132812, 0.793701171875, -0.0791015625, -0.116455078125
341, 3150186518, -0.8952975869178772, 1.257158875465393, 4.302234649658203, -9.461483001708984, -243.78697204589844, -132.80563354492188, 0.797119140625, -0.052001953125, -0.166259765625
342, 3150203185, -3.9114811420440674, 3.899308204650879, 7.319730281829834, -19.508821487426758, -235.4850311279297, -125.15975189208984, 0.796142578125, -0.022216796875, -0.21630859375
343, 3150219852, -5.9861860275268555, 4.979011535644531, 8.614771842956543, -36.2108268737793, -280.9794006347656, -101.0760269165039, 0.78857421875, 0.004638671875, -0.281982421875
344, 3150236519, -5.526937961578369, 4.728638172149658, 7.736813068389893, -39.45643615722656, -326.33428955078125, -58.6702880859375, 0.775390625, 0.019775390625, -0.359375
345, 3150253186, -5.877686977386475, 4.737980842590332, 6.076972007751465, -34.818077087402344, -350.3975830078125, -15.654050827026367, 0.74658203125, 0.0263671875, -0.453369140625
346, 3150269853, -5.8185529708862305, 4.482650279998779, 5.242063045501709, -31.3121395111084, -356.9834899902344, 18.48096466064453, 0.68994140625, 0.025634765625, -0.55078125
347, 3150286520, -6.8457441329956055, 3.933915376663208, 5.744697570800781, -25.746109008789062, -350.6496887207031, 48.00458908081055, 0.6123046875, 0.0283203125, -0.62646484375
348, 3150303187, -9.372364044189453, 2.833385944366455, 7.702343463897705, -11.844525337219238, -351.1632385253906, 66.59894561767578, 0.52734375, 0.031494140625, -0.68310546875
349, 3150319854, -10.218316078186035, 2.061579704284668, 7.6678595542907715, 6.306186676025391, -360.5149230957031, 69.348388671875, 0.447265625, 0.032958984375, -0.7265625
350, 3150336521, -9.951104164123535, 0.503305971622467, 5.083763122558594, 33.408084869384766, -333.1211853027344, 63.456817626953125, 0.371337890625, 0.029296875, -0.755859375
351, 3150353188, -11.538450241088867, 0.03503560274839401, 5.537752151489258, 71.48981475830078, -273.4911193847656, 61.80231857299805, 0.303955078125, 0.012939453125, -0.768798828125
352, 3150369855, -15.219062805175781, 0.7644174098968506, 10.733357429504395, 88.46025085449219, -243.37803649902344, 55.67404556274414, 0.259765625, -0.007080078125, -0.7626953125
353, 3150386522, -16.350194931030273, -0.17308035492897034, 9.622489929199219, 98.30765533447266, -237.37030029296875, 46.266395568847656, 0.235107421875, -0.03369140625, -0.757568359375
354, 3150403189, -17.531845092773438, -1.042243480682373, 7.826134204864502, 128.95440673828125, -208.6898956298828, 44.40898895263672, 0.233642578125, -0.06591796875, -0.775634765625
355, 3150419856, -20.621326446533203, 1.025556206703186, 8.90638542175293, 145.938720703125, -193.8278045654297, 49.25931167602539, 0.224609375, -0.110107421875, -0.808837890625
356, 3150436523, -20.296443939208984, 0.7013633847236633, 6.601685047149658, 112.52803039550781, -195.11309814453125, 44.76584243774414, 0.18896484375, -0.150390625, -0.857177734375
357, 3150453190, -18.61174201965332, -2.9262213706970215, 3.5357885360717773, 100.44469451904297, -180.00106811523438, 49.750572204589844, 0.13623046875, -0.18798828125, -0.90283203125
358, 3150469857, -18.704835891723633, -3.1514341831207275, 3.5345072746276855, 95.54778289794922, -163.62525939941406, 58.353885650634766, 0.07080078125, -0.230224609375, -0.929443359375
359, 3150486524, -17.2858943939209, -2.266641855239868, 2.2340328693389893, 43.10444259643555, -156.07867431640625, 58.69736099243164, 7.32421875E-4, -0.263427734375, -0.938232421875
360, 3150503191, -15.511241912841797, -2.7849771976470947, -0.42937758564949036, -9.32418155670166, -129.7725372314453, 59.691829681396484, -0.0625, -0.272705078125, -0.943603515625
361, 3150519858, -15.035767555236816, -2.099658966064453, -1.818311333656311, -26.076425552368164, -94.14940643310547, 65.90144348144531, -0.114013671875, -0.273681640625, -0.93359375
362, 3150536525, -14.37458610534668, -2.07759690284729, -2.262962579727173, -21.36379051208496, -58.510162353515625, 77.00331115722656, -0.150146484375, -0.27197265625, -0.926025390625
363, 3150553192, -13.894248962402344, -1.9087902307510376, -1.7694101333618164, -20.867403030395508, -19.17154884338379, 86.452392578125, -0.17529296875, -0.2666015625, -0.926025390625
364, 3150569859, -13.692150115966797, -1.5846368074417114, -0.9797839522361755, -32.48476028442383, 18.063392639160156, 84.57315063476562, -0.189453125, -0.259033203125, -0.927001953125
365, 3150586526, -10.980199813842773, -1.9052331447601318, 0.1772327721118927, -41.029876708984375, 61.108062744140625, 73.86907958984375, -0.19091796875, -0.24853515625, -0.933349609375
366, 3150603193, 1.392319917678833, -0.024311745539307594, 5.764105319976807, -45.68352508544922, 104.05535125732422, 44.870079040527344, -0.17529296875, -0.235107421875, -0.944580078125
367, 3150619860, 2.2587156295776367, 0.6801072955131531, 15.044403076171875, -3.1705446243286133, 168.2090606689453, -17.407543182373047, -0.1455078125, -0.23486328125, -0.956787109375
368, 3150636527, -8.324437141418457, -4.688533782958984, 10.881754875183105, 51.67719650268555, 193.01824951171875, -34.39193344116211, -0.102783203125, -0.251953125, -0.96142578125
369, 3150653194, -11.578754425048828, -2.621957302093506, 13.860936164855957, 32.16923522949219, 169.08457946777344, -37.798770904541016, -0.058349609375, -0.2646484375, -0.96728515625
370, 3150669861, -9.559566497802734, 7.101681709289551, 11.211094856262207, 15.912757873535156, 123.40888214111328, -28.37022590637207, -0.030517578125, -0.27001953125, -0.969482421875
371, 3150686528, -6.119144439697266, 3.8200843334198, 8.938383102416992, -3.9521994590759277, 112.25336456298828, -25.96700096130371, -0.001953125, -0.270751953125, -0.971923828125
372, 3150703195, -8.094377517700195, 5.493468761444092, 10.364517211914062, -31.934146881103516, 94.8111572265625, -39.6833381652832, 0.021728515625, -0.267822265625, -0.975830078125
373, 3150719862, -8.799192428588867, 2.5498995780944824, 9.86218547821045, -50.17629623413086, 65.29632568359375, -43.7949333190918, 0.040283203125, -0.255859375, -0.97705078125
374, 3150736529, -6.575268745422363, -0.3314991593360901, 10.576375007629395, -48.526546478271484, 34.24407196044922, -27.039552688598633, 0.0517578125, -0.240478515625, -0.9833984375
375, 3150753196, -5.794580936431885, 2.3052268028259277, 8.630850791931152, -38.262229919433594, 13.827557563781738, -19.90949821472168, 0.055908203125, -0.22998046875, -0.986572265625
376, 3150769863, -5.658307075500488, 1.7058440446853638, 8.685818672180176, -25.155410766601562, 6.435332298278809, -15.25469970703125, 0.057861328125, -0.222900390625, -0.988525390625
377, 3150786530, -5.521954536437988, 1.430336833000183, 8.533998489379883, -15.251973152160645, 3.4464426040649414, -11.19326400756836, 0.059326171875, -0.216064453125, -0.99072265625
378, 3150803197, -5.300100803375244, 1.288142204284668, 8.613374710083008, -8.59831428527832, 1.4710980653762817, -7.025707244873047, 0.058837890625, -0.214599609375, -0.9892578125
379, 3150819864, -5.021340370178223, 1.539240837097168, 8.511955261230469, -7.083653926849365, 2.340482473373413, -4.564388275146484, 0.061767578125, -0.216064453125, -0.988037109375
380, 3150836531, -5.099660873413086, 1.6129653453826904, 8.412969589233398, -3.4784739017486572, 5.2477545738220215, -1.9530580043792725, 0.060302734375, -0.213623046875, -0.98974609375
381, 3150853198, -5.182924747467041, 1.7994837760925293, 8.322495460510254, -2.847684383392334, 6.420368194580078, -1.816542387008667, 0.0625, -0.213134765625, -0.989501953125
382, 3150869865, -5.243585109710693, 1.7801579236984253, 8.206716537475586, -5.055973529815674, 5.1894097328186035, -4.09574031829834, 0.0625, -0.214111328125, -0.989990234375
383, 3150886532, -5.2016072273254395, 1.6132384538650513, 8.24446964263916, -6.175172328948975, 4.983791351318359, -5.031833648681641, 0.06689453125, -0.21044921875, -0.988037109375
384, 3150903199, -5.183806419372559, 1.6457998752593994, 8.233983993530273, -5.832282066345215, 6.038419723510742, -4.4534220695495605, 0.06494140625, -0.2119140625, -0.988037109375
385, 3150919866, -5.207685947418213, 1.7689242362976074, 8.235018730163574, -5.558534145355225, 6.29445743560791, -4.786118507385254, 0.06884765625, -0.208984375, -0.987548828125
386, 3150936533, -5.296618938446045, 1.7529213428497314, 8.195443153381348, -5.531167030334473, 5.325080871582031, -6.0618109703063965, 0.0712890625, -0.208984375, -0.989013671875
387, 3150953200, -5.354774475097656, 1.6969267129898071, 8.206604957580566, -5.4704132080078125, 4.057558536529541, -7.0812859535217285, 0.0693359375, -0.208984375, -0.987548828125
388, 3150969867, -5.332239151000977, 1.59719979763031, 8.188533782958984, -4.676650047302246, 3.9194679260253906, -7.151272773742676, 0.073486328125, -0.20654296875, -0.986328125
389, 3150986534, -5.288783073425293, 1.6791781187057495, 8.162175178527832, -3.6285905838012695, 3.593456506729126, -6.989349365234375, 0.073486328125, -0.20703125, -0.98779296875
390, 3151003201, -5.31649112701416, 1.6685470342636108, 8.242924690246582, -2.1316940784454346, 4.295090675354004, -7.731015205383301, 0.075439453125, -0.20556640625, -0.98681640625
391, 3151019868, -5.276815891265869, 1.5901820659637451, 8.241328239440918, -0.3963054418563843, 6.683783054351807, -7.993969917297363, 0.074462890625, -0.2080078125, -0.986328125
392, 3151036535, -5.159146308898926, 1.5885024070739746, 8.241179466247559, 0.37401607632637024, 11.0706148147583, -8.042430877685547, 0.081298828125, -0.2080078125, -0.985107421875
393, 3151053202, -4.965287208557129, 1.4496268033981323, 8.190101623535156, 1.3111990690231323, 18.442968368530273, -8.265780448913574, 0.08544921875, -0.20703125, -0.986572265625
394, 3151069869, -5.125491142272949, 1.498444676399231, 8.172579765319824, 5.137877941131592, 28.658281326293945, -7.701531887054443, 0.093994140625, -0.207275390625, -0.984619140625
395, 3151086536, -5.19803524017334, 1.3696790933609009, 8.139930725097656, 9.574625968933105, 38.433414459228516, -6.588123321533203, 0.10205078125, -0.209716796875, -0.982421875
396, 3151103203, -5.168807029724121, 1.493727684020996, 8.022547721862793, 13.928430557250977, 50.66485595703125, -4.551408290863037, 0.115478515625, -0.21630859375, -0.978271484375
397, 3151119870, -5.323915004730225, 1.6519855260849, 8.009713172912598, 15.983325958251953, 64.96192169189453, -5.020386219024658, 0.130615234375, -0.220458984375, -0.9736328125
398, 3151136537, -5.563913345336914, 1.8294693231582642, 7.911289691925049, 16.803789138793945, 79.31877899169922, -6.831488609313965, 0.154296875, -0.224609375, -0.969482421875
399, 3151153204, -5.535172462463379, 2.080142021179199, 7.902599811553955, 13.235514640808105, 95.5413589477539, -11.422901153564453, 0.1796875, -0.227783203125, -0.96337890625
400, 3151169871, -5.680880546569824, 1.824914813041687, 7.70454740524292, 9.957091331481934, 113.900634765625, -17.902389526367188, 0.207763671875, -0.23193359375, -0.953369140625
401, 3151186538, -6.002529144287109, 1.5350602865219116, 7.49138879776001, 12.844392776489258, 131.5935821533203, -19.919572830200195, 0.239501953125, -0.232177734375, -0.943359375
402, 3151203205, -6.107864856719971, 1.3682326078414917, 7.343033313751221, 15.352767944335938, 151.8199462890625, -18.831153869628906, 0.280029296875, -0.234130859375, -0.928466796875
403, 3151219872, -6.341453552246094, 1.383643388748169, 7.294023513793945, 13.425405502319336, 177.473388671875, -17.636436462402344, 0.324951171875, -0.2353515625, -0.910400390625
404, 3151236539, -6.380313873291016, 1.837715983390808, 7.181686878204346, 5.773092746734619, 217.59368896484375, -17.559650421142578, 0.373046875, -0.233642578125, -0.88720703125
405, 3151253206, -7.0476250648498535, 1.8690396547317505, 6.727843761444092, -5.687985420227051, 271.5804443359375, -24.543262481689453, 0.43408203125, -0.230224609375, -0.8525390625
406, 3151269873, -7.369745254516602, 2.432093858718872, 7.484439373016357, -10.497847557067871, 345.59075927734375, -33.248294830322266, 0.510498046875, -0.219970703125, -0.80517578125
407, 3151286540, -9.442028999328613, 2.926563024520874, 9.401082038879395, 3.9282212257385254, 418.1785888671875, -48.284446716308594, 0.59521484375, -0.211181640625, -0.7333984375
408, 3151303207, -15.390910148620605, 2.3305113315582275, 10.041610717773438, 27.62265396118164, 445.49420166015625, -64.6739501953125, 0.678955078125, -0.198486328125, -0.638671875
409, 3151319874, -15.761568069458008, 1.681389570236206, 9.617019653320312, 45.32450485229492, 447.98626708984375, -74.39063262939453, 0.753173828125, -0.185791015625, -0.52783203125
410, 3151336541, -16.673114776611328, 5.278863430023193, 9.843817710876465, 37.145381927490234, 464.8861083984375, -90.80486297607422, 0.815185546875, -0.1669921875, -0.4013671875
411, 3151353208, -16.38201904296875, 3.89214825630188, 12.021336555480957, 47.964813232421875, 439.2317810058594, -97.6383056640625, 0.85986328125, -0.140380859375, -0.26708984375
412, 3151369875, -11.104673385620117, 3.5127956867218018, 13.348002433776855, 88.05805969238281, 376.27288818359375, -65.1843490600586, 0.878173828125, -0.11962890625, -0.140869140625
413, 3151386542, -19.905452728271484, 7.265246868133545, 20.741260528564453, 93.18478393554688, 199.3515167236328, -47.752567291259766, 0.88671875, -0.107177734375, -0.06005859375
414, 3151403209, -25.446504592895508, 10.018474578857422, 31.570404052734375, 32.080020904541016, -63.23599624633789, -41.6164436340332, 0.891845703125, -0.09033203125, -0.035400390625
415, 3151419876, -5.415137767791748, 4.902444362640381, 15.180628776550293, -29.582185745239258, -245.34950256347656, -38.90155029296875, 0.902099609375, -0.083740234375, -0.087646484375
416, 3151436543, -0.660828709602356, 1.3714289665222168, 5.848284721374512, -39.12176513671875, -252.5198211669922, -58.329811096191406, 0.913818359375, -0.07373046875, -0.169677734375
417, 3151453210, -0.671596348285675, 1.4755038022994995, 4.744635105133057, -31.079004287719727, -225.56716918945312, -72.77702331542969, 0.903076171875, -0.060302734375, -0.254638671875
418, 3151469877, -3.5330042839050293, 2.905736207962036, 7.264271259307861, -28.434791564941406, -236.8372802734375, -73.5724868774414, 0.869384765625, -0.0478515625, -0.333251953125
419, 3151486544, -6.389697551727295, 3.825742483139038, 9.042933464050293, -35.12533950805664, -289.604736328125, -59.0349235534668, 0.814208984375, -0.033935546875, -0.408935546875
420, 3151503211, -7.114266395568848, 3.8795344829559326, 8.42137622833252, -32.93906021118164, -347.5287170410156, -31.880399703979492, 0.7490234375, -0.025390625, -0.484375
421, 3151519878, -7.696643829345703, 4.166778087615967, 7.276137351989746, -26.72989845275879, -385.3868713378906, -1.171987533569336, 0.67431640625, -0.021240234375, -0.549560546875
422, 3151536545, -7.649001598358154, 4.379561424255371, 6.054211139678955, -26.843027114868164, -404.9934387207031, 24.697202682495117, 0.589599609375, -0.021240234375, -0.609130859375
423, 3151553212, -7.449887275695801, 3.3511898517608643, 5.671041011810303, -25.516231536865234, -401.2255859375, 45.84492874145508, 0.503173828125, -0.022705078125, -0.6513671875
424, 3151569879, -9.449969291687012, 2.0976295471191406, 7.0165114402771, -5.773393630981445, -391.52313232421875, 61.99055862426758, 0.426513671875, -0.02685546875, -0.6845703125
425, 3151586546, -10.845922470092773, 1.3940190076828003, 7.630218982696533, 21.661447525024414, -388.2504577636719, 63.00908279418945, 0.35400390625, -0.0380859375, -0.707763671875
426, 3151603213, -11.516003608703613, -0.38569048047065735, 6.003880500793457, 56.58844757080078, -352.1485900878906, 53.45240020751953, 0.293212890625, -0.059326171875, -0.723876953125
427, 3151619880, -14.805273056030273, -0.6223262548446655, 8.218663215637207, 99.8495864868164, -287.5007019042969, 40.19968795776367, 0.250244140625, -0.084716796875, -0.736572265625
428, 3151636547, -20.20680046081543, 1.08419668674469, 12.480378150939941, 120.01273345947266, -278.0168762207031, 31.865854263305664, 0.21044921875, -0.11865234375, -0.759033203125
429, 3151653214, -18.818031311035156, 1.059016227722168, 7.626070976257324, 122.06185913085938, -261.4161071777344, 36.03361129760742, 0.157958984375, -0.16064453125, -0.783203125
430, 3151669881, -21.41830062866211, 1.2654343843460083, 6.535219669342041, 129.17286682128906, -217.2115936279297, 56.98481369018555, 0.096435546875, -0.20263671875, -0.802734375
431, 3151686548, -23.724964141845703, 1.3208332061767578, 6.0747857093811035, 111.21443176269531, -200.4825897216797, 79.47723388671875, 0.02587890625, -0.24072265625, -0.8037109375
432, 3151703215, -22.32539176940918, -2.7881736755371094, 1.9323303699493408, 91.39454650878906, -187.2045440673828, 92.12078094482422, -0.0390625, -0.268310546875, -0.792236328125
433, 3151719882, -21.62201690673828, -4.560471534729004, -0.859113335609436, 83.89598083496094, -158.08103942871094, 91.30418395996094, -0.095947265625, -0.290283203125, -0.77294921875
434, 3151736549, -20.57048797607422, -3.3471662998199463, -2.7096829414367676, 47.598472595214844, -122.43697357177734, 82.95014190673828, -0.137939453125, -0.300537109375, -0.7548828125
435, 3151753216, -19.397294998168945, -3.1323320865631104, -5.252476692199707, -5.6897664070129395, -84.26133728027344, 73.34725189208984, -0.1640625, -0.29931640625, -0.7421875
436, 3151769883, -17.900287628173828, -4.006518840789795, -6.987823009490967, -28.145586013793945, -37.70738983154297, 69.7080078125, -0.184326171875, -0.28759765625, -0.7353515625
437, 3151786550, -17.53816795349121, -4.018523693084717, -5.847182273864746, -16.370460510253906, 10.887434959411621, 76.68499755859375, -0.19140625, -0.279296875, -0.729736328125
438, 3151803217, -16.659269332885742, -1.220017910003662, -2.409888505935669, -24.837230682373047, 54.22348403930664, 80.45394134521484, -0.190673828125, -0.27490234375, -0.728759765625
439, 3151819884, 3.41402268409729, -3.272794246673584, 5.6713643074035645, -99.4486312866211, 90.07213592529297, 14.806736946105957, -0.18212890625, -0.250244140625, -0.7353515625
440, 3151836551, 1.124201774597168, -3.364535331726074, 20.461706161499023, 5.979705333709717, 173.81686401367188, -30.95020294189453, -0.15234375, -0.24755859375, -0.737060546875
441, 3151853218, -11.764317512512207, -5.2875142097473145, 11.327075004577637, 62.83985137939453, 177.00946044921875, -41.85083770751953, -0.115478515625, -0.262939453125, -0.737060546875
442, 3151869885, -12.38239574432373, 4.102176189422607, 12.13772201538086, 24.669891357421875, 139.4673614501953, -38.57694625854492, -0.081787109375, -0.275146484375, -0.73486328125
443, 3151886552, -8.117836952209473, 7.502747535705566, 9.840385437011719, 2.9895241260528564, 103.95783996582031, -21.39240837097168, -0.058349609375, -0.27783203125, -0.733154296875
444, 3151903219, -7.148626327514648, 3.8642170429229736, 10.249984741210938, -23.454187393188477, 95.5789794921875, -29.19818878173828, -0.03662109375, -0.2734375, -0.733642578125
445, 3151919886, -7.463750839233398, 4.497111797332764, 8.868184089660645, -48.972408294677734, 72.11096954345703, -41.66072463989258, -0.0185546875, -0.2666015625, -0.735107421875
446, 3151936553, -6.843479156494141, -1.1300148963928223, 11.072664260864258, -50.0860595703125, 50.09657287597656, -33.140419006347656, -0.00390625, -0.255126953125, -0.73828125
447, 3151953220, -5.53272819519043, 2.5404787063598633, 8.665972709655762, -43.40027618408203, 31.22060775756836, -21.31463623046875, 0.003662109375, -0.24560546875, -0.74267578125
448, 3151969887, -5.358590126037598, 1.2019022703170776, 9.052393913269043, -31.325685501098633, 16.059307098388672, -16.640979766845703, 0.007568359375, -0.23828125, -0.744873046875
449, 3151986554, -5.513230323791504, 1.9149917364120483, 8.695974349975586, -23.402149200439453, 9.237150192260742, -14.594964981079102, 0.010009765625, -0.235107421875, -0.745849609375
450, 3152003221, -5.365785121917725, 1.3524982929229736, 8.666383743286133, -15.766032218933105, 2.3174846172332764, -11.8917236328125, 0.01416015625, -0.233642578125, -0.74609375
451, 3152019888, -5.1985650062561035, 1.3210928440093994, 8.609642028808594, -14.451722145080566, 0.7279712557792664, -9.824426651000977, 0.01318359375, -0.229736328125, -0.744140625
452, 3152036555, -4.981201648712158, 1.4606878757476807, 8.542986869812012, -10.0620698928833, 2.5383799076080322, -6.618505001068115, 0.015625, -0.227783203125, -0.74560546875
453, 3152053222, -5.0951151847839355, 1.8729708194732666, 8.361496925354004, -6.560208320617676, 4.732043266296387, -4.542707920074463, 0.01416015625, -0.226806640625, -0.747314453125
454, 3152069889, -5.147566795349121, 1.9483109712600708, 8.292078971862793, -7.817037105560303, 3.307823419570923, -5.336740493774414, 0.017578125, -0.226806640625, -0.747802734375
455, 3152086556, -5.1995368003845215, 1.8217626810073853, 8.286014556884766, -10.324023246765137, 0.8893950581550598, -7.5826311111450195, 0.0146484375, -0.22265625, -0.746337890625
456, 3152103223, -5.116269588470459, 1.4850449562072754, 8.400822639465332, -8.947120666503906, 0.7648018598556519, -7.590633392333984, 0.0185546875, -0.22216796875, -0.746826171875
457, 3152119890, -4.985556125640869, 1.5380204916000366, 8.363143920898438, -6.859018325805664, 1.1911509037017822, -6.527948379516602, 0.01806640625, -0.220703125, -0.746337890625
458, 3152136557, -4.917315483093262, 1.6975088119506836, 8.317679405212402, -6.16038179397583, 1.4934065341949463, -6.741776943206787, 0.02001953125, -0.22216796875, -0.747802734375
459, 3152153224, -5.144632816314697, 1.671813726425171, 8.284486770629883, -6.75485372543335, 1.098842978477478, -8.253018379211426, 0.021240234375, -0.220703125, -0.747802734375
460, 3152169891, -5.16502046585083, 1.6099756956100464, 8.288785934448242, -7.074025630950928, 1.3585172891616821, -8.822720527648926, 0.021484375, -0.216796875, -0.746337890625
461, 3152186558, -5.174704074859619, 1.5329835414886475, 8.300331115722656, -6.963186740875244, 2.5346531867980957, -8.955971717834473, 0.021240234375, -0.216796875, -0.748779296875
462, 3152203225, -5.1881818771362305, 1.5002472400665283, 8.313720703125, -6.769362449645996, 3.5607235431671143, -8.434982299804688, 0.024658203125, -0.21728515625, -0.7470703125
463, 3152219892, -5.152772426605225, 1.603818416595459, 8.307143211364746, -4.345067977905273, 3.121093988418579, -7.766822338104248, 0.025634765625, -0.21533203125, -0.74853515625
464, 3152236559, -5.080113887786865, 1.7298970222473145, 8.314227104187012, -4.488370895385742, 3.184062957763672, -9.297706604003906, 0.026611328125, -0.216796875, -0.7451171875
465, 3152253226, -4.974018573760986, 1.694227933883667, 8.339921951293945, -6.103856086730957, 6.400944232940674, -11.693524360656738, 0.029541015625, -0.21435546875, -0.748046875
466, 3152269893, -5.114332675933838, 1.4145289659500122, 8.341151237487793, -5.3692474365234375, 12.24481201171875, -12.751426696777344, 0.03125, -0.2138671875, -0.748046875
467, 3152286560, -4.895627975463867, 1.0675082206726074, 8.29664134979248, -1.3942811489105225, 20.676767349243164, -10.889450073242188, 0.0341796875, -0.2138671875, -0.747802734375
468, 3152303227, -4.998612880706787, 1.3247652053833008, 8.272722244262695, 5.7937164306640625, 34.58976364135742, -9.92929744720459, 0.040771484375, -0.21630859375, -0.74853515625
469, 3152319894, -5.182819366455078, 1.34122633934021, 8.237167358398438, 9.343029975891113, 45.52996826171875, -9.724528312683105, 0.0537109375, -0.219482421875, -0.7451171875
470, 3152336561, -5.127192497253418, 1.4305851459503174, 8.293067932128906, 10.753931045532227, 55.894203186035156, -9.170541763305664, 0.06640625, -0.22265625, -0.7431640625
471, 3152353228, -5.21275520324707, 1.6941777467727661, 8.191169738769531, 7.0991291999816895, 70.16729736328125, -12.028016090393066, 0.080322265625, -0.22265625, -0.73974609375
472, 3152369895, -5.599555969238281, 1.4547007083892822, 7.93660831451416, 7.929119110107422, 86.01834869384766, -15.634136199951172, 0.097412109375, -0.22314453125, -0.73681640625
473, 3152386562, -5.712036609649658, 1.3099708557128906, 7.8575615882873535, 10.882726669311523, 99.800537109375, -15.607281684875488, 0.1201171875, -0.227294921875, -0.73046875
474, 3152403229, -5.742780685424805, 1.2887728214263916, 7.78327751159668, 12.632184028625488, 115.21283721923828, -15.300419807434082, 0.146240234375, -0.2294921875, -0.7255859375
475, 3152419896, -5.906160831451416, 1.1847615242004395, 7.638917446136475, 14.248217582702637, 133.5250244140625, -15.089410781860352, 0.173095703125, -0.232177734375, -0.716064453125
476, 3152436563, -6.030350208282471, 1.102103352546692, 7.608902931213379, 15.680140495300293, 156.10890197753906, -13.324519157409668, 0.203369140625, -0.23583984375, -0.7080078125
477, 3152453230, -6.2015380859375, 1.2206895351409912, 7.238286972045898, 14.06545352935791, 189.4393310546875, -11.635273933410645, 0.242919921875, -0.238037109375, -0.694091796875
478, 3152469897, -6.363236904144287, 1.573068380355835, 7.213535785675049, 10.635995864868164, 232.04371643066406, -15.671370506286621, 0.285888671875, -0.23779296875, -0.673583984375
479, 3152486564, -6.503181457519531, 1.7951433658599854, 7.309008598327637, 1.2151665687561035, 290.4888610839844, -16.15679168701172, 0.3408203125, -0.238037109375, -0.64501953125
480, 3152503231, -7.467705249786377, 2.206840991973877, 7.570403575897217, 2.3063509464263916, 369.27935791015625, -19.682371139526367, 0.40185546875, -0.236083984375, -0.603271484375
481, 3152519898, -10.98550796508789, 2.6304826736450195, 9.685208320617676, 22.020597457885742, 431.9402770996094, -28.292810440063477, 0.474609375, -0.23583984375, -0.54443359375
482, 3152536565, -17.021820068359375, 2.1565237045288086, 10.537026405334473, 40.9240608215332, 430.40478515625, -46.12714385986328, 0.54150390625, -0.235107421875, -0.471435546875
483, 3152553232, -15.186141014099121, 3.017860174179077, 9.561186790466309, 52.000850677490234, 430.8771667480469, -56.688690185546875, 0.6025390625, -0.231201171875, -0.392333984375
484, 3152569899, -16.2241153717041, 5.453949928283691, 10.31078052520752, 36.45346450805664, 443.085205078125, -84.84265899658203, 0.6552734375, -0.21630859375, -0.300048828125
485, 3152586566, -12.847034454345703, 3.8528332710266113, 11.332651138305664, 39.80154037475586, 420.89422607421875, -100.17940521240234, 0.68701171875, -0.195556640625, -0.206298828125
486, 3152603233, -8.349895477294922, 3.2617733478546143, 13.904287338256836, 84.97181701660156, 351.9816589355469, -61.51374435424805, 0.7080078125, -0.177978515625, -0.111328125
487, 3152619900, -24.265649795532227, 7.6393537521362305, 20.991788864135742, 93.07147979736328, 196.5131378173828, -68.04400634765625, 0.708251953125, -0.161865234375, -0.04248046875
488, 3152636567, -20.31604766845703, 9.13255500793457, 28.490068435668945, 59.20785903930664, -66.46858215332031, -37.25851821899414, 0.702880859375, -0.13818359375, -0.01513671875
489, 3152653234, -5.485283851623535, 6.0477294921875, 14.890157699584961, 2.730898857116699, -224.00975036621094, -25.02393913269043, 0.69677734375, -0.114501953125, -0.015625
490, 3152669901, -2.609942674636841, 3.3039355278015137, 7.777210712432861, -33.203914642333984, -249.69923400878906, -44.31317901611328, 0.709228515625, -0.0810546875, -0.015869140625
491, 3152686568, -2.997079372406006, 2.759840965270996, 6.849006652832031, -52.112911224365234, -262.1235046386719, -55.85171890258789, 0.746337890625, -0.041015625, -0.021484375
492, 3152703235, -5.0443291664123535, 3.215102195739746, 8.324727058410645, -57.93706130981445, -304.24603271484375, -59.29743576049805, 0.81298828125, -0.001220703125, -0.061279296875
493, 3152719902, -6.084593296051025, 2.90716814994812, 7.745121002197266, -57.7440299987793, -355.2828674316406, -56.35017776489258, 0.888427734375, 0.038330078125, -0.170166015625
494, 3152736569, -5.731827735900879, 2.496372699737549, 6.331045627593994, -34.582706451416016, -388.64825439453125, -37.30472183227539, 0.920166015625, 0.067138671875, -0.34619140625
495, 3152753236, -6.0807204246521, 3.1999728679656982, 5.54246187210083, -10.950772285461426, -404.0704040527344, -9.595796585083008, 0.86962890625, 0.0771484375, -0.540771484375
496, 3152769903, -5.901015281677246, 3.816906213760376, 5.10641622543335, -4.411674499511719, -404.7159118652344, 15.554372787475586, 0.75390625, 0.078125, -0.6845703125
497, 3152786570, -7.534700393676758, 2.7289116382598877, 6.831917762756348, 0.4159470498561859, -397.23419189453125, 40.09054183959961, 0.62158203125, 0.07958984375, -0.776123046875
498, 3152803237, -8.624356269836426, 1.171887993812561, 7.599607467651367, 21.326007843017578, -394.374267578125, 52.40867233276367, 0.50048828125, 0.08154296875, -0.832275390625
499, 3152819904, -9.616400718688965, -0.8458585739135742, 6.535542964935303, 54.148773193359375, -368.23760986328125, 46.12175369262695, 0.3974609375, 0.06884765625, -0.875244140625
500, 3152836571, -11.102995872497559, -1.6491729021072388, 6.891237258911133, 90.35308837890625, -297.5994873046875, 34.971065521240234, 0.3115234375, 0.040283203125, -0.913818359375
501, 3152853238, -18.420595169067383, -1.0763517618179321, 14.639486312866211, 126.81797790527344, -273.51409912109375, 35.48957443237305, 0.21630859375, 0.003662109375, -0.9375
502, 3152869905, -19.235668182373047, 1.0450780391693115, 11.851141929626465, 129.28977966308594, -284.81646728515625, 32.811927795410156, 0.1103515625, -0.02685546875, -0.932373046875
503, 3152886572, -21.232088088989258, 0.2171822190284729, 9.001920700073242, 107.9295654296875, -251.20077514648438, 35.56574249267578, 0.031982421875, -0.059814453125, -0.9130859375
504, 3152903239, -22.714387893676758, 0.6513348817825317, 7.122221946716309, 76.4621810913086, -225.44473266601562, 42.45028305053711, -0.029052734375, -0.09130859375, -0.9033203125
505, 3152919906, -21.97534942626953, -2.5779826641082764, 3.4967122077941895, 49.62588119506836, -197.6400146484375, 47.11016082763672, -0.083251953125, -0.115966796875, -0.89404296875
506, 3152936573, -22.58929443359375, -4.939691066741943, 1.7474031448364258, 69.30252075195312, -177.39932250976562, 59.79103088378906, -0.133056640625, -0.1376953125, -0.880126953125
507, 3152953240, -20.56226348876953, -3.9132261276245117, -1.6664278507232666, 70.19058990478516, -152.9976806640625, 66.35223388671875, -0.177001953125, -0.159912109375, -0.867919921875
508, 3152969907, -19.681291580200195, -2.678654909133911, -4.523380279541016, 26.46616554260254, -109.1576156616211, 69.80421447753906, -0.212158203125, -0.173583984375, -0.854248046875
509, 3152986574, -19.5274715423584, -3.899406671524048, -6.488363742828369, -5.056307792663574, -61.80039978027344, 75.17057800292969, -0.2353515625, -0.17138671875, -0.845947265625
510, 3153003241, -18.086978912353516, -4.707825183868408, -7.332194805145264, -11.668885231018066, -13.721966743469238, 76.30020141601562, -0.248046875, -0.164306640625, -0.84423828125
511, 3153019908, -17.738544464111328, -5.13642692565918, -4.562978267669678, -25.534626007080078, 35.8487434387207, 67.38507843017578, -0.24560546875, -0.15380859375, -0.846923828125
512, 3153036575, -3.462123394012451, -7.700244903564453, 3.233271598815918, -45.095664978027344, 85.20249938964844, 40.60169982910156, -0.232421875, -0.1337890625, -0.851806640625
513, 3153053242, 2.1893858909606934, -0.8227259516716003, 20.2279052734375, -0.1683891862630844, 134.29067993164062, -30.97005844116211, -0.205810546875, -0.12744140625, -0.858154296875
514, 3153069909, -5.766597747802734, 1.9918583631515503, 6.630960464477539, 39.76689147949219, 185.7709503173828, -46.10691833496094, -0.1650390625, -0.13427734375, -0.865478515625
515, 3153086576, -11.850860595703125, -0.08830821514129639, 12.379388809204102, 42.09006881713867, 193.436279296875, -16.489011764526367, -0.11669921875, -0.142822265625, -0.869384765625
516, 3153103243, -8.196956634521484, 3.8015849590301514, 10.44269847869873, 37.90664291381836, 153.59915161132812, -11.807721138000488, -0.075927734375, -0.150146484375, -0.87255859375
517, 3153119910, -7.385181903839111, 5.523852825164795, 10.235154151916504, 32.9733772277832, 143.93206787109375, -9.215143203735352, -0.0380859375, -0.157958984375, -0.870361328125
518, 3153136577, -11.977380752563477, 8.237303733825684, 10.48884391784668, -25.354904174804688, 104.74726104736328, -39.32200241088867, -0.007080078125, -0.153076171875, -0.870361328125
519, 3153153244, -6.221992015838623, -1.2392184734344482, 10.820760726928711, -50.192543029785156, 60.490020751953125, -35.899356842041016, 0.0107421875, -0.14013671875, -0.877197265625
520, 3153169911, -5.867587566375732, 1.3929988145828247, 9.182788848876953, -44.438961029052734, 28.709806442260742, -21.84615707397461, 0.020263671875, -0.126708984375, -0.87841796875
521, 3153186578, -6.8415446281433105, 1.461757779121399, 9.35124683380127, -29.866287231445312, 14.57702922821045, -14.083989143371582, 0.027587890625, -0.11669921875, -0.8798828125
522, 3153203245, -5.393898963928223, 1.9141145944595337, 8.605567932128906, -18.52924346923828, 5.152917861938477, -9.255598068237305, 0.026611328125, -0.11376953125, -0.87939453125
523, 3153219912, -5.3948493003845215, 1.661462664604187, 8.554654121398926, -7.307868957519531, 2.7344443798065186, -5.644182205200195, 0.02978515625, -0.11181640625, -0.88037109375
524, 3153236579, -5.440957069396973, 1.7482013702392578, 8.354104042053223, -5.397095680236816, 2.918355941772461, -3.918064594268799, 0.03173828125, -0.111328125, -0.88134765625
525, 3153253246, -5.2208662033081055, 1.9353960752487183, 8.251654624938965, -4.654429912567139, 3.823124647140503, -2.6972098350524902, 0.03125, -0.108642578125, -0.87890625
526, 3153269913, -5.241584300994873, 2.0624330043792725, 8.16608715057373, -4.7292070388793945, 4.8975396156311035, -2.9647345542907715, 0.0341796875, -0.108154296875, -0.8828125
527, 3153286580, -5.1675028800964355, 2.119133234024048, 8.136151313781738, -5.040772438049316, 4.1628642082214355, -3.9607486724853516, 0.03369140625, -0.108642578125, -0.880859375
528, 3153303247, -5.186534404754639, 2.081890106201172, 8.141398429870605, -6.370661735534668, 3.0712387561798096, -5.8782057762146, 0.03564453125, -0.105712890625, -0.87890625
529, 3153319914, -5.209280014038086, 1.9420579671859741, 8.134004592895508, -7.598343849182129, 1.2976489067077637, -7.433680057525635, 0.03564453125, -0.105712890625, -0.8798828125
530, 3153336581, -5.199352741241455, 1.787515640258789, 8.173569679260254, -9.110724449157715, 1.0049852132797241, -7.972673416137695, 0.038330078125, -0.104248046875, -0.88134765625
531, 3153353248, -5.227179527282715, 1.8586078882217407, 8.133541107177734, -11.132515907287598, 1.2147022485733032, -7.974288463592529, 0.0361328125, -0.101806640625, -0.880859375
532, 3153369915, -5.315848350524902, 1.8854773044586182, 8.13591480255127, -11.85962200164795, -0.31326910853385925, -8.379904747009277, 0.0380859375, -0.09716796875, -0.88232421875
533, 3153386582, -5.3447465896606445, 1.927935004234314, 8.15945053100586, -11.173714637756348, -1.868831992149353, -9.065211296081543, 0.03662109375, -0.09765625, -0.882568359375
534, 3153403249, -5.2635817527771, 1.8144817352294922, 8.1837797164917, -9.299848556518555, -2.3569202423095703, -8.795329093933105, 0.03857421875, -0.0927734375, -0.880859375
535, 3153419916, -5.2753496170043945, 1.7379577159881592, 8.172119140625, -8.778181076049805, -2.3568179607391357, -9.209077835083008, 0.0400390625, -0.09326171875, -0.87939453125
536, 3153436583, -5.2694783210754395, 1.8303654193878174, 8.128493309020996, -10.387442588806152, -2.9976742267608643, -10.317763328552246, 0.0390625, -0.089111328125, -0.882568359375
537, 3153453250, -5.257583141326904, 1.808107852935791, 8.127419471740723, -10.318442344665527, -3.4400949478149414, -11.180105209350586, 0.03857421875, -0.087646484375, -0.882080078125
538, 3153469917, -5.249820232391357, 1.7622392177581787, 8.084441184997559, -13.916349411010742, -4.3815836906433105, -13.8856782913208, 0.0380859375, -0.085205078125, -0.883544921875
539, 3153486584, -5.310400485992432, 1.7715964317321777, 8.116639137268066, -13.778883934020996, -3.5814802646636963, -14.612372398376465, 0.0361328125, -0.08203125, -0.88232421875
540, 3153503251, -5.178915023803711, 1.5958143472671509, 8.251494407653809, -9.782331466674805, 0.19828729331493378, -12.667475700378418, 0.03515625, -0.080078125, -0.8828125
541, 3153519918, -5.028167724609375, 1.5453811883926392, 8.244512557983398, -6.981975078582764, 5.8718366622924805, -11.609436988830566, 0.040283203125, -0.07958984375, -0.8876953125
542, 3153536585, -5.016495227813721, 1.6122843027114868, 8.252253532409668, -8.211929321289062, 13.671022415161133, -12.482368469238281, 0.042724609375, -0.07666015625, -0.881591796875
543, 3153553252, -4.881823539733887, 1.3269102573394775, 8.212288856506348, -3.4570319652557373, 25.214176177978516, -12.395862579345703, 0.05029296875, -0.076171875, -0.8828125
544, 3153569919, -5.031650066375732, 1.3379508256912231, 8.225608825683594, 5.302125453948975, 40.45302963256836, -12.302434921264648, 0.058837890625, -0.076416015625, -0.884521484375
545, 3153586586, -5.149720191955566, 1.2533817291259766, 8.232510566711426, 11.25564193725586, 56.16972351074219, -10.868674278259277, 0.0732421875, -0.077880859375, -0.881103515625
546, 3153603253, -5.334296226501465, 1.3562490940093994, 8.253538131713867, 11.93736743927002, 71.35204315185547, -9.27619743347168, 0.08935546875, -0.08203125, -0.876953125
547, 3153619920, -5.503469467163086, 1.4769126176834106, 8.096131324768066, 10.495268821716309, 87.81600189208984, -10.36103630065918, 0.112060546875, -0.085693359375, -0.875732421875
548, 3153636587, -5.623305797576904, 1.456983208656311, 7.927361965179443, 10.930852890014648, 105.03240203857422, -12.834663391113281, 0.134521484375, -0.0869140625, -0.87109375
549, 3153653254, -5.7637104988098145, 1.5671883821487427, 7.77288818359375, 12.235403060913086, 124.23599243164062, -16.54642105102539, 0.168212890625, -0.092041015625, -0.866455078125
550, 3153669921, -5.942676544189453, 1.68337082862854, 7.626425266265869, 12.164393424987793, 144.1354217529297, -21.33661460876465, 0.202392578125, -0.09130859375, -0.857666015625
551, 3153686588, -6.117687702178955, 1.6424049139022827, 7.561324119567871, 9.136457443237305, 167.14480590820312, -27.33055877685547, 0.243896484375, -0.091552734375, -0.845703125
552, 3153703255, -6.179759979248047, 1.6221204996109009, 7.45598840713501, 2.637277364730835, 202.92372131347656, -31.92620086669922, 0.29150390625, -0.092041015625, -0.82861328125
553, 3153719922, -6.808544158935547, 1.9653338193893433, 6.775681972503662, -8.365447044372559, 249.9765167236328, -43.36754608154297, 0.34765625, -0.08935546875, -0.80517578125
554, 3153736589, -7.024643421173096, 2.307447671890259, 7.711798667907715, -19.721189498901367, 317.37799072265625, -54.683135986328125, 0.416015625, -0.0791015625, -0.767822265625
555, 3153753256, -8.018000602722168, 2.8062806129455566, 8.952651023864746, -25.12002182006836, 404.7497863769531, -68.68960571289062, 0.499267578125, -0.063720703125, -0.717041015625
556, 3153769923, -13.818924903869629, 2.1734800338745117, 10.412322044372559, -3.4971249103546143, 454.0457458496094, -85.15467071533203, 0.588623046875, -0.0478515625, -0.642822265625
557, 3153786590, -17.72454833984375, 2.2945871353149414, 11.086118698120117, 27.016536712646484, 440.4777526855469, -91.04057312011719, 0.66943359375, -0.036865234375, -0.55859375
558, 3153803257, -16.680715560913086, 3.0689055919647217, 11.563855171203613, 23.55445098876953, 437.3699645996094, -106.77253723144531, 0.734375, -0.02783203125, -0.462158203125
559, 3153819924, -15.078141212463379, 4.841838359832764, 13.166977882385254, 15.154932975769043, 426.9219055175781, -119.22715759277344, 0.786865234375, -0.00927734375, -0.361083984375
560, 3153836591, -9.38762092590332, 3.2712364196777344, 13.505731582641602, 28.986114501953125, 367.74407958984375, -108.19519805908203, 0.821044921875, 0.007080078125, -0.264892578125
561, 3153853258, -16.68158721923828, 3.606156826019287, 17.982999801635742, 84.0329360961914, 226.09661865234375, -58.23230743408203, 0.83251953125, 0.013916015625, -0.197998046875
562, 3153869925, -22.973779678344727, 7.805947780609131, 30.079872131347656, 130.57696533203125, -16.956144332885742, -13.555028915405273, 0.82763671875, 0.006103515625, -0.172607421875
563, 3153886592, -4.872452259063721, 9.100621223449707, 15.061415672302246, 49.37724304199219, -189.03115844726562, 1.254365086555481, 0.806396484375, -0.009033203125, -0.199462890625
564, 3153903259, -1.2434160709381104, 4.00827169418335, 7.663948059082031, -27.647167205810547, -214.0236358642578, -6.3622541427612305, 0.781982421875, -0.010009765625, -0.23046875
565, 3153919926, -2.763697624206543, 2.556471586227417, 7.315086364746094, -70.23052978515625, -221.252685546875, -1.83259117603302, 0.7578125, -0.010498046875, -0.258056640625
566, 3153936593, -3.6177115440368652, 1.200587272644043, 7.796328544616699, -85.67780303955078, -261.51947021484375, -7.834341526031494, 0.739013671875, -0.008056640625, -0.28955078125
567, 3153953260, -3.5784411430358887, -0.5468502640724182, 7.117947578430176, -68.4154052734375, -299.77276611328125, -9.918780326843262, 0.71630859375, -0.002685546875, -0.328125
568, 3153969927, -4.917743682861328, -0.7866053581237793, 7.164984226226807, -26.926124572753906, -327.5450134277344, 2.0115482807159424, 0.693603515625, -0.001708984375, -0.371826171875
569, 3153986594, -5.894890785217285, 0.8513583540916443, 7.382290840148926, 0.7952552437782288, -357.32891845703125, 16.66444969177246, 0.66845703125, -0.00732421875, -0.419921875
570, 3154003261, -6.746067047119141, 1.999563455581665, 7.040634632110596, -6.086434364318848, -379.82470703125, 27.41522979736328, 0.64599609375, -0.01904296875, -0.469970703125
571, 3154019928, -8.331430435180664, 1.8787709474563599, 7.129844665527344, -15.459137916564941, -387.3425598144531, 40.00588607788086, 0.628662109375, -0.03515625, -0.545654296875
572, 3154036595, -9.194879531860352, -0.0817742794752121, 6.937368869781494, -4.878355026245117, -386.7395935058594, 51.75862503051758, 0.591552734375, -0.050537109375, -0.6396484375
573, 3154053262, -11.084489822387695, -1.198440432548523, 5.685980796813965, 30.028066635131836, -358.15142822265625, 50.74500274658203, 0.5166015625, -0.069091796875, -0.728515625
574, 3154069929, -13.05260944366455, 0.9352807402610779, 6.315670967102051, 53.5573616027832, -307.4699401855469, 52.885406494140625, 0.432861328125, -0.092041015625, -0.79150390625
575, 3154086596, -15.304332733154297, 4.963273525238037, 8.55871295928955, 33.96945571899414, -264.17242431640625, 76.12977600097656, 0.34375, -0.112548828125, -0.82421875
576, 3154103263, -19.391504287719727, 5.677447319030762, 10.490220069885254, -5.98928689956665, -254.96815490722656, 106.84944152832031, 0.25830078125, -0.12548828125, -0.82470703125
577, 3154119930, -19.477985382080078, 4.441956520080566, 8.803674697875977, -20.322141647338867, -251.64125061035156, 135.46136474609375, 0.19287109375, -0.12646484375, -0.806396484375
578, 3154136597, -19.925477981567383, 5.652663707733154, 8.126481056213379, -33.83295822143555, -241.2436981201172, 158.64105224609375, 0.1474609375, -0.134521484375, -0.795654296875
579, 3154153264, -19.792938232421875, 5.27216911315918, 6.490028381347656, -66.15716552734375, -238.3641815185547, 171.65098571777344, 0.1083984375, -0.1318359375, -0.7958984375
580, 3154169931, -17.957490921020508, 3.035352945327759, 3.221562385559082, -75.37307739257812, -217.87124633789062, 172.65040588378906, 0.068603515625, -0.1259765625, -0.80419921875
581, 3154186598, -16.37284278869629, 3.6171858310699463, 1.9555025100708008, -56.4118766784668, -178.31314086914062, 189.69677734375, 0.030029296875, -0.118896484375, -0.816650390625
582, 3154203265, -16.976320266723633, 4.036650657653809, 1.9088389873504639, -56.87010192871094, -142.18826293945312, 210.595947265625, -0.004150390625, -0.110107421875, -0.830078125
583, 3154219932, -16.83047103881836, 1.3650778532028198, 0.4596098065376282, -58.02648162841797, -115.89163208007812, 211.86021423339844, -0.03759765625, -0.099853515625, -0.8427734375
584, 3154236599, -15.805033683776855, 0.3404562473297119, -2.237053155899048, -41.0229377746582, -78.17465209960938, 194.6045379638672, -0.068359375, -0.087646484375, -0.85302734375
585, 3154253266, -15.610015869140625, 1.3916264772415161, -3.707057476043701, -2.231863498687744, -27.61964225769043, 195.2352294921875, -0.085693359375, -0.081787109375, -0.86083984375
586, 3154269933, -15.832884788513184, 4.0592942237854, -3.6700599193573, 30.883981704711914, 18.323890686035156, 213.12628173828125, -0.090576171875, -0.087158203125, -0.868408203125
587, 3154286600, -15.944770812988281, 4.847426414489746, -2.411839485168457, 7.712051868438721, 60.29851531982422, 214.8289794921875, -0.08349609375, -0.086669921875, -0.872802734375
588, 3154303267, -9.880314826965332, -3.5154812335968018, -3.3361141681671143, 121.13703918457031, 116.00129699707031, 224.9842987060547, -0.06298828125, -0.10693359375, -0.875732421875
589, 3154319934, -4.3037543296813965, 4.383983612060547, 9.549503326416016, 63.47176742553711, 133.46742248535156, 132.7974395751953, -0.03125, -0.1337890625, -0.875
590, 3154336601, -0.0952170193195343, -8.378992080688477, 20.38825035095215, 76.3248062133789, 166.54714965820312, 9.07329273223877, 0.01318359375, -0.15625, -0.875732421875
591, 3154353268, -9.209519386291504, -0.3782126307487488, 8.493081092834473, 94.43444061279297, 189.82803344726562, -25.124778747558594, 0.067138671875, -0.1826171875, -0.874755859375
592, 3154369935, -11.422799110412598, 5.4867401123046875, 12.911599159240723, 60.14878463745117, 151.68788146972656, -11.434805870056152, 0.11376953125, -0.203125, -0.87255859375
593, 3154386602, -6.809357166290283, 1.25526762008667, 10.94492244720459, 53.88438034057617, 119.89373016357422, -14.634551048278809, 0.150634765625, -0.220458984375, -0.868408203125
594, 3154403269, -6.855175971984863, 6.1967878341674805, 9.854035377502441, 38.50104904174805, 98.5231704711914, -17.31259536743164, 0.1796875, -0.235595703125, -0.86279296875
595, 3154419936, -8.205955505371094, 8.094300270080566, 9.28749942779541, -5.446878433227539, 76.32299041748047, -19.670446395874023, 0.205810546875, -0.23876953125, -0.8564453125
596, 3154436603, -5.76861047744751, 3.4060025215148926, 8.870450973510742, -17.945817947387695, 61.761199951171875, -22.795330047607422, 0.224853515625, -0.2373046875, -0.854248046875
597, 3154453270, -6.478875637054443, 3.398895502090454, 8.89383316040039, -22.03481101989746, 49.33283996582031, -24.163726806640625, 0.240478515625, -0.23046875, -0.85400390625
598, 3154469937, -5.708451747894287, 1.917811393737793, 9.26527214050293, -19.73075294494629, 32.74607849121094, -19.013708114624023, 0.25244140625, -0.22607421875, -0.8505859375
599, 3154486604, -4.912912368774414, 3.031325340270996, 8.111626625061035, -22.344703674316406, 22.75914764404297, -18.363393783569336, 0.259521484375, -0.220947265625, -0.848388671875
600, 3154503271, -5.435265064239502, 2.132432699203491, 8.63160514831543, -22.687644958496094, 16.77028465270996, -19.208450317382812, 0.2685546875, -0.213134765625, -0.849365234375
601, 3154519938, -5.222914695739746, 2.203347682952881, 8.362821578979492, -21.77326011657715, 11.623509407043457, -17.19442367553711, 0.27099609375, -0.209228515625, -0.850830078125
602, 3154536605, -5.009363174438477, 2.200897455215454, 8.214829444885254, -24.027713775634766, 10.061029434204102, -16.883895874023438, 0.277587890625, -0.20361328125, -0.852783203125
603, 3154553272, -4.691026210784912, 2.357646942138672, 7.991262435913086, -29.446687698364258, 10.044318199157715, -19.233091354370117, 0.281982421875, -0.196044921875, -0.85107421875
604, 3154569939, -5.781918525695801, 2.404352903366089, 8.515888214111328, -28.930599212646484, 8.273088455200195, -20.13656997680664, 0.287109375, -0.190185546875, -0.8525390625
605, 3154586606, -5.421903133392334, 2.0482420921325684, 8.172624588012695, -24.551847457885742, 6.356817245483398, -16.12759780883789, 0.28857421875, -0.1806640625, -0.853759765625
606, 3154603273, -5.291841983795166, 1.8445378541946411, 8.315914154052734, -18.5015811920166, 3.6560585498809814, -11.260488510131836, 0.29296875, -0.175537109375, -0.8525390625
607, 3154619940, -5.2955451011657715, 1.9656236171722412, 8.341032028198242, -14.810521125793457, 3.065311908721924, -9.637980461120605, 0.2919921875, -0.175048828125, -0.853271484375
608, 3154636607, -5.378532886505127, 1.8842010498046875, 8.319992065429688, -10.907366752624512, 0.8852458596229553, -8.262175559997559, 0.294189453125, -0.169677734375, -0.854248046875
609, 3154653274, -5.21631383895874, 2.0432910919189453, 8.1238431930542, -10.592512130737305, -1.0806646347045898, -8.232670783996582, 0.2939453125, -0.168212890625, -0.853271484375
610, 3154669941, -5.188981533050537, 1.970180630683899, 8.119329452514648, -12.57785701751709, -3.954373836517334, -9.83823013305664, 0.294677734375, -0.166259765625, -0.855712890625
611, 3154686608, -5.226029872894287, 1.7781587839126587, 8.193936347961426, -13.778918266296387, -4.684107303619385, -10.133316993713379, 0.295654296875, -0.16064453125, -0.855224609375
612, 3154703275, -5.180433750152588, 1.8787474632263184, 8.202597618103027, -12.756903648376465, -3.344304084777832, -8.730557441711426, 0.296142578125, -0.15771484375, -0.855224609375
613, 3154719942, -5.1672539710998535, 1.7695554494857788, 8.259969711303711, -12.513082504272461, -3.256849527359009, -8.854548454284668, 0.295166015625, -0.1572265625, -0.85595703125
614, 3154736609, -4.962442874908447, 1.6578923463821411, 8.290628433227539, -11.245506286621094, -1.871533989906311, -7.9295430183410645, 0.2939453125, -0.154052734375, -0.8544921875
615, 3154753276, -5.191788196563721, 1.8030844926834106, 8.209039688110352, -11.074591636657715, -0.09991519898176193, -7.336531639099121, 0.29443359375, -0.150634765625, -0.85595703125
616, 3154769943, -5.284477710723877, 1.7144722938537598, 8.175493240356445, -12.125496864318848, -1.2494523525238037, -7.521610260009766, 0.295654296875, -0.148681640625, -0.857421875
617, 3154786610, -5.267516136169434, 1.6680779457092285, 8.180900573730469, -11.79647445678711, -2.0852208137512207, -7.296972751617432, 0.29443359375, -0.14404296875, -0.858154296875
618, 3154803277, -4.994370460510254, 1.7690472602844238, 8.2584867477417, -11.73592758178711, -2.8922011852264404, -8.331587791442871, 0.297119140625, -0.142578125, -0.85693359375
619, 3154819944, -5.224811553955078, 1.574544072151184, 8.233893394470215, -11.49692153930664, -2.36090350151062, -9.141192436218262, 0.296142578125, -0.13916015625, -0.858642578125
620, 3154836611, -5.253195285797119, 1.5464258193969727, 8.252610206604004, -10.291418075561523, -0.7931488752365112, -8.106884956359863, 0.296142578125, -0.140625, -0.860107421875
621, 3154853278, -5.33057975769043, 1.5515323877334595, 8.221611976623535, -10.037442207336426, 0.0910467803478241, -7.551241397857666, 0.298583984375, -0.136474609375, -0.861083984375
622, 3154869945, -5.273087024688721, 1.518958330154419, 8.187006950378418, -9.986985206604004, -0.04144136607646942, -6.856663703918457, 0.299072265625, -0.132080078125, -0.861083984375
623, 3154886612, -5.141411781311035, 1.5088902711868286, 8.222919464111328, -8.980545997619629, 0.5348638296127319, -6.457374095916748, 0.297607421875, -0.130615234375, -0.8603515625
624, 3154903279, -5.164870262145996, 1.3882312774658203, 8.270567893981934, -7.193906307220459, 2.467700958251953, -5.861084461212158, 0.300048828125, -0.1279296875, -0.859130859375
625, 3154919946, -5.195250988006592, 1.3689886331558228, 8.277337074279785, -5.577192783355713, 4.2037434577941895, -4.566976070404053, 0.300048828125, -0.126953125, -0.858642578125
626, 3154936613, -5.139100074768066, 1.5866318941116333, 8.306169509887695, -8.912415504455566, 5.3470563888549805, -5.595147132873535, 0.302978515625, -0.126953125, -0.859619140625
627, 3154953280, -5.085339069366455, 1.6555606126785278, 8.239850044250488, -14.078779220581055, 6.949853897094727, -8.591277122497559, 0.303955078125, -0.1240234375, -0.860107421875
628, 3154969947, -4.960182189941406, 1.5371828079223633, 8.30290699005127, -12.605883598327637, 11.435132026672363, -10.297778129577637, 0.30859375, -0.12158203125, -0.859130859375
629, 3154986614, -4.396141052246094, 1.5557421445846558, 8.490815162658691, -5.736955642700195, 27.230323791503906, -12.606739044189453, 0.31396484375, -0.11669921875, -0.85693359375
630, 3155003281, -5.04402494430542, 0.8856472373008728, 8.496610641479492, 0.3666292726993561, 44.61760711669922, -10.651721000671387, 0.324462890625, -0.1171875, -0.853515625
631, 3155019948, -5.0910139083862305, 1.175212025642395, 8.490381240844727, 9.644242286682129, 66.91480255126953, -7.426036834716797, 0.340576171875, -0.11865234375, -0.846435546875
632, 3155036615, -5.377222537994385, 1.4375144243240356, 8.57420539855957, 10.525134086608887, 93.46910858154297, -10.13896656036377, 0.364013671875, -0.121337890625, -0.838623046875
633, 3155053282, -5.619234561920166, 1.3047840595245361, 8.231330871582031, 6.402167320251465, 117.68753814697266, -15.02838134765625, 0.39013671875, -0.119873046875, -0.8271484375
634, 3155069949, -5.595771312713623, 1.5786607265472412, 8.043049812316895, 3.2503159046173096, 141.99746704101562, -22.64157485961914, 0.422607421875, -0.11865234375, -0.81201171875
635, 3155086616, -5.820408344268799, 1.5909990072250366, 7.953674793243408, 0.7449687719345093, 172.44444274902344, -34.194602966308594, 0.462158203125, -0.1162109375, -0.791748046875
636, 3155103283, -6.168396949768066, 1.8616037368774414, 7.953755855560303, -8.683359146118164, 203.9855499267578, -51.92195510864258, 0.508056640625, -0.10791015625, -0.76708984375
637, 3155119950, -6.89613676071167, 2.618967056274414, 7.656186103820801, -23.160078048706055, 233.87655639648438, -79.13373565673828, 0.5634765625, -0.091552734375, -0.731689453125
638, 3155136617, -8.42286205291748, 3.5592873096466064, 7.568352222442627, -52.82387161254883, 262.31854248046875, -120.08586120605469, 0.61865234375, -0.064453125, -0.691162109375
639, 3155153284, -10.840370178222656, 5.729883670806885, 8.86323356628418, -92.9393081665039, 283.5651550292969, -172.2886962890625, 0.6748046875, -0.012939453125, -0.640625
640, 3155169951, -14.857196807861328, 6.075900554656982, 11.364119529724121, -140.18898010253906, 268.8104248046875, -217.65228271484375, 0.72119140625, 0.055419921875, -0.5849609375
641, 3155186618, -15.443156242370605, 5.9301629066467285, 11.574143409729004, -158.4659423828125, 225.75042724609375, -240.82275390625, 0.74853515625, 0.13623046875, -0.53173828125
642, 3155203285, -14.093826293945312, 7.665706634521484, 10.570158958435059, -156.81893920898438, 180.5370330810547, -253.467041015625, 0.75732421875, 0.220947265625, -0.48486328125
643, 3155219952, -7.179548740386963, 7.660055637359619, 7.762472152709961, -184.53305053710938, 165.8606414794922, -272.0850830078125, 0.748291015625, 0.3076171875, -0.432861328125
644, 3155236619, -5.527700901031494, 15.13096809387207, 3.5836679935455322, -356.9823303222656, 208.00125122070312, -299.16741943359375, 0.73486328125, 0.41259765625, -0.36572265625
645, 3155253286, -21.242677688598633, 12.757979393005371, 10.285086631774902, -449.0863952636719, 244.35244750976562, -156.022216796875, 0.724609375, 0.500244140625, -0.244873046875
646, 3155269953, -19.09967803955078, 6.468808174133301, 18.841005325317383, -378.4386291503906, 85.88702392578125, 27.263145446777344, 0.7255859375, 0.532470703125, -0.156005859375
647, 3155286620, -12.057448387145996, 1.316869854927063, 13.56009578704834, -247.89840698242188, -72.29463195800781, 121.45468139648438, 0.7353515625, 0.5234375, -0.121826171875
648, 3155303287, -5.161655426025391, 0.30408501625061035, 8.212386131286621, -181.95523071289062, -137.28408813476562, 134.40115356445312, 0.75390625, 0.50439453125, -0.120361328125
649, 3155319954, -2.434094190597534, -0.4977194666862488, 4.860037326812744, -158.65895080566406, -136.8318634033203, 106.30443572998047, 0.7705078125, 0.494140625, -0.125244140625
650, 3155336621, -2.050318479537964, -1.121993899345398, 5.016990661621094, -135.0090789794922, -131.00338745117188, 69.40379333496094, 0.78076171875, 0.486328125, -0.137451171875
651, 3155353288, -3.302340507507324, -0.27829721570014954, 6.540879726409912, -94.0227279663086, -147.64089965820312, 51.69191360473633, 0.7880859375, 0.484375, -0.159423828125
652, 3155369955, -5.022230625152588, 1.9522067308425903, 7.712408542633057, -61.75111389160156, -187.07095336914062, 47.23878860473633, 0.78564453125, 0.48046875, -0.202880859375
653, 3155386622, -6.781228542327881, 4.57640266418457, 8.047465324401855, -55.57881546020508, -236.2592315673828, 55.19736099243164, 0.7744140625, 0.475830078125, -0.24755859375
654, 3155403289, -8.447854042053223, 6.433609962463379, 8.018075942993164, -67.17223358154297, -286.1328125, 78.11569213867188, 0.760009765625, 0.468994140625, -0.301025390625
655, 3155419956, -9.706633567810059, 7.220021724700928, 6.930057048797607, -72.29147338867188, -332.501953125, 118.22250366210938, 0.742431640625, 0.461181640625, -0.359130859375
656, 3155436623, -9.613409042358398, 6.205313682556152, 5.147253513336182, -69.45066833496094, -352.37530517578125, 157.43447875976562, 0.724609375, 0.44580078125, -0.421630859375
657, 3155453290, -11.364363670349121, 4.7612080574035645, 5.189213752746582, -47.890743255615234, -355.7228088378906, 176.88824462890625, 0.706787109375, 0.426513671875, -0.487060546875
658, 3155469957, -12.11859130859375, 4.876081943511963, 5.0686821937561035, -28.04776382446289, -360.35504150390625, 171.77830505371094, 0.6884765625, 0.40625, -0.55810546875
