sep=,
DeviceTag:,A,,,,,,,,,,,,,,,,,
FirmwareVersion:,2.2.1,,,,,,,,,,,,,,,,,
AppVersion:,2022.0.1,,,,,,,,,,,,,,,,,
SyncStatus:,Synced,,,,,,,,,,,,,,,,,
OutputRate:,60Hz,,,,,,,,,,,,,,,,,
FilterProfile:,General,,,,,,,,,,,,,,,,,
Measurement Mode:,Inertial Mode - Rate quantities (with mag),,,,,,,,,,,,,,,,,
StartTime:,2022-08-05 16:05:10.400 +0300,,,,,,,,,,,,,,,,,
© Xsens Technologies B. V. 2005-2022,,,,,,,,,,,,,,,,,,,

PacketCounter,SampleTimeFine,Acc_X,Acc_Y,Acc_Z,Gyr_X,Gyr_Y,Gyr_Z,Mag_X,Mag_Y,Mag_Z
1, 957444599, -5.120849132537842, 1.260504126548767, 8.319250106811523, -2.666269540786743, -1.7429701089859009, -2.4536843299865723, 0.04541015625, -0.123046875, -0.846435546875
2, 957461266, -5.118628025054932, 1.2578887939453125, 8.313690185546875, -2.778529405593872, -1.8670375347137451, -2.3957862854003906, 0.044921875, -0.1220703125, -0.844970703125
3, 957477933, -5.101707458496094, 1.2573531866073608, 8.30309772491455, -2.7347960472106934, -1.9593586921691895, -2.3973231315612793, 0.04443359375, -0.123046875, -0.847900390625
4, 957494600, -5.092160224914551, 1.2660186290740967, 8.308938980102539, -2.783895254135132, -1.900193214416504, -2.4319255352020264, 0.0478515625, -0.12060546875, -0.845947265625
5, 957511267, -5.0825114250183105, 1.2753549814224243, 8.31130599975586, -2.740072250366211, -1.7960008382797241, -2.4235246181488037, 0.04638671875, -0.123046875, -0.845458984375
6, 957527934, -5.102895259857178, 1.2583528757095337, 8.294281005859375, -2.80704927444458, -1.7405236959457397, -2.4540164470672607, 0.0478515625, -0.12255859375, -0.84423828125
7, 957544601, -5.110568046569824, 1.253982663154602, 8.321586608886719, -2.6712896823883057, -1.748118281364441, -2.4687957763671875, 0.046875, -0.1220703125, -0.846435546875
8, 957561268, -5.101198196411133, 1.2651560306549072, 8.310214042663574, -2.676271438598633, -1.622462272644043, -2.4377145767211914, 0.0458984375, -0.12109375, -0.845458984375
9, 957577935, -5.090978622436523, 1.269728183746338, 8.323848724365234, -2.699284315109253, -1.6495862007141113, -2.4556949138641357, 0.04443359375, -0.12255859375, -0.844482421875
10, 957594602, -5.0815911293029785, 1.253351092338562, 8.31704330444336, -2.6556272506713867, -1.6549904346466064, -2.447908639907837, 0.044921875, -0.12060546875, -0.846435546875
11, 957611269, -5.084120273590088, 1.2656840085983276, 8.312811851501465, -2.6297972202301025, -1.636370062828064, -2.5396530628204346, 0.0458984375, -0.1220703125, -0.845458984375
12, 957627936, -5.095460414886475, 1.2636592388153076, 8.296172142028809, -2.6569724082946777, -1.4364885091781616, -2.4239094257354736, 0.04638671875, -0.12353515625, -0.843994140625
13, 957644603, -5.0832295417785645, 1.258264183998108, 8.33389663696289, -2.537757396697998, -1.348662257194519, -2.3812766075134277, 0.0458984375, -0.123779296875, -0.844482421875
14, 957661270, -5.108555316925049, 1.253173828125, 8.322357177734375, -2.4099631309509277, -1.216769814491272, -2.29129958152771, 0.0439453125, -0.12109375, -0.84765625
15, 957677937, -5.09417200088501, 1.2640103101730347, 8.305392265319824, -2.343344211578369, -1.1978931427001953, -2.3749375343322754, 0.04541015625, -0.12109375, -0.848388671875
16, 957694604, -5.088653087615967, 1.278512954711914, 8.30542278289795, -2.4003453254699707, -1.3949958086013794, -2.3557281494140625, 0.04541015625, -0.12255859375, -0.846435546875
17, 957711271, -5.099968433380127, 1.2647626399993896, 8.320427894592285, -2.4863781929016113, -1.3451404571533203, -2.3079731464385986, 0.046875, -0.12109375, -0.844482421875
18, 957727938, -5.083603858947754, 1.2537810802459717, 8.324393272399902, -2.4210660457611084, -1.1876096725463867, -2.325287342071533, 0.04638671875, -0.12158203125, -0.844970703125
19, 957744605, -5.108975887298584, 1.2632346153259277, 8.298659324645996, -2.3038623332977295, -1.14542555809021, -2.356253147125244, 0.04541015625, -0.12158203125, -0.844970703125
20, 957761272, -5.1021318435668945, 1.2524141073226929, 8.316123962402344, -2.3878591060638428, -1.1720242500305176, -2.3244807720184326, 0.04638671875, -0.12158203125, -0.846923828125
21, 957777939, -5.102335453033447, 1.2786076068878174, 8.307636260986328, -2.4782979488372803, -1.1962027549743652, -2.332958459854126, 0.0439453125, -0.123046875, -0.845458984375
22, 957794606, -5.112044334411621, 1.2716063261032104, 8.310766220092773, -2.4441046714782715, -1.2899324893951416, -2.3841710090637207, 0.0458984375, -0.12158203125, -0.848388671875
23, 957811273, -5.115396499633789, 1.2763397693634033, 8.309449195861816, -2.5603220462799072, -1.3289532661437988, -2.3950817584991455, 0.046875, -0.124267578125, -0.845947265625
24, 957827940, -5.103650093078613, 1.2605093717575073, 8.30984878540039, -2.558850049972534, -1.3014198541641235, -2.5462229251861572, 0.04638671875, -0.12255859375, -0.843505859375
25, 957844607, -5.103569507598877, 1.2526315450668335, 8.301290512084961, -2.588996171951294, -1.284425973892212, -2.5270261764526367, 0.0458984375, -0.12255859375, -0.845947265625
26, 957861274, -5.112537860870361, 1.249252438545227, 8.315057754516602, -2.639594078063965, -1.3636716604232788, -2.4627127647399902, 0.044921875, -0.12353515625, -0.843994140625
27, 957877941, -5.114579677581787, 1.2564438581466675, 8.31299877166748, -2.708338499069214, -1.436385989189148, -2.4793994426727295, 0.044921875, -0.12158203125, -0.846435546875
28, 957894608, -5.0978007316589355, 1.2627804279327393, 8.30596923828125, -2.6733901500701904, -1.34499990940094, -2.5285370349884033, 0.04638671875, -0.1220703125, -0.846923828125
29, 957911275, -5.097832202911377, 1.256948709487915, 8.322108268737793, -2.599407434463501, -1.3414779901504517, -2.5272693634033203, 0.046875, -0.12109375, -0.845458984375
30, 957927942, -5.088696479797363, 1.2611243724822998, 8.308127403259277, -2.677603244781494, -1.2759352922439575, -2.5420093536376953, 0.04638671875, -0.123046875, -0.844970703125
31, 957944609, -5.099223613739014, 1.266348123550415, 8.3065767288208, -2.675041913986206, -1.376221776008606, -2.592120885848999, 0.044921875, -0.12255859375, -0.844970703125
32, 957961276, -5.112222671508789, 1.2556196451187134, 8.306446075439453, -2.7218875885009766, -1.3935487270355225, -2.481499671936035, 0.04541015625, -0.1220703125, -0.845947265625
33, 957977943, -5.102600574493408, 1.2606806755065918, 8.30164909362793, -2.5840141773223877, -1.3428354263305664, -2.6129822731018066, 0.04541015625, -0.11962890625, -0.847412109375
34, 957994610, -5.104881763458252, 1.2539716958999634, 8.29700756072998, -2.697005033493042, -1.4575549364089966, -2.6253020763397217, 0.046875, -0.123779296875, -0.843994140625
35, 958011277, -5.096118450164795, 1.2622311115264893, 8.302159309387207, -2.6990795135498047, -1.3350492715835571, -2.5328147411346436, 0.04541015625, -0.12255859375, -0.844482421875
36, 958027944, -5.097153186798096, 1.2546507120132446, 8.300954818725586, -2.600585699081421, -1.2513470649719238, -2.522505283355713, 0.04736328125, -0.12158203125, -0.843994140625
37, 958044611, -5.100832939147949, 1.2566949129104614, 8.290495872497559, -2.443720579147339, -1.112718105316162, -2.521442174911499, 0.0458984375, -0.12158203125, -0.846435546875
38, 958061278, -5.108042240142822, 1.2551065683364868, 8.293051719665527, -2.3859896659851074, -1.0954551696777344, -2.460036039352417, 0.04638671875, -0.124267578125, -0.84375
39, 958077945, -5.1058502197265625, 1.2756537199020386, 8.308274269104004, -2.425798177719116, -1.1614656448364258, -2.4851555824279785, 0.046875, -0.12109375, -0.846923828125
40, 958094612, -5.12304162979126, 1.2668448686599731, 8.298596382141113, -2.5446219444274902, -1.202721357345581, -2.478630542755127, 0.044921875, -0.12353515625, -0.843994140625
41, 958111279, -5.111190319061279, 1.2683539390563965, 8.31991195678711, -2.634599208831787, -1.297821283340454, -2.541599750518799, 0.04736328125, -0.1220703125, -0.846923828125
42, 958127946, -5.106935501098633, 1.2658370733261108, 8.306439399719238, -2.7567975521087646, -1.4111062288284302, -2.5518958568573, 0.04736328125, -0.12158203125, -0.846435546875
43, 958144613, -5.121948719024658, 1.2638425827026367, 8.305817604064941, -2.682520866394043, -1.4542254209518433, -2.560194730758667, 0.04833984375, -0.12158203125, -0.845947265625
44, 958161280, -5.1121087074279785, 1.2476892471313477, 8.314784049987793, -2.7469491958618164, -1.5183335542678833, -2.6106767654418945, 0.04541015625, -0.123046875, -0.842529296875
45, 958177947, -5.110064506530762, 1.254636287689209, 8.296770095825195, -2.7605373859405518, -1.5718389749526978, -2.536195755004883, 0.04443359375, -0.123046875, -0.847412109375
46, 958194614, -5.117974281311035, 1.2671661376953125, 8.302523612976074, -2.8289477825164795, -1.60720956325531, -2.5520873069763184, 0.04345703125, -0.12109375, -0.844482421875
47, 958211281, -5.102535724639893, 1.2535144090652466, 8.315799713134766, -2.8475687503814697, -1.6664133071899414, -2.5944125652313232, 0.0458984375, -0.123046875, -0.846923828125
48, 958227948, -5.107395648956299, 1.2575527429580688, 8.308329582214355, -2.979012966156006, -1.6096941232681274, -2.571732521057129, 0.04833984375, -0.12158203125, -0.845458984375
49, 958244615, -5.102325916290283, 1.2639267444610596, 8.312919616699219, -2.855867385864258, -1.668295979499817, -2.612098217010498, 0.04833984375, -0.123291015625, -0.845947265625
50, 958261282, -5.0988545417785645, 1.2323721647262573, 8.307294845581055, -2.7200562953948975, -1.5138260126113892, -2.594784736633301, 0.044921875, -0.123046875, -0.844970703125
51, 958277949, -5.099854946136475, 1.248960256576538, 8.295490264892578, -2.748896360397339, -1.4212361574172974, -2.4565272331237793, 0.0458984375, -0.1201171875, -0.8486328125
52, 958294616, -5.093777179718018, 1.255659580230713, 8.310277938842773, -2.673428535461426, -1.5481725931167603, -2.56095027923584, 0.04541015625, -0.12060546875, -0.845458984375
53, 958311283, -5.100259304046631, 1.2454057931900024, 8.315817832946777, -2.6131486892700195, -1.2954647541046143, -2.4741742610931396, 0.044921875, -0.1220703125, -0.846435546875
54, 958327950, -5.0973052978515625, 1.2458282709121704, 8.293252944946289, -2.5764710903167725, -1.2894971370697021, -2.4304020404815674, 0.0458984375, -0.12158203125, -0.843017578125
55, 958344617, -5.110869407653809, 1.2489745616912842, 8.325374603271484, -2.543827533721924, -1.3620448112487793, -2.442631959915161, 0.04638671875, -0.1201171875, -0.844482421875
56, 958361284, -5.1128668785095215, 1.2458349466323853, 8.301173210144043, -2.5955400466918945, -1.4817715883255005, -2.4635961055755615, 0.044921875, -0.12109375, -0.846435546875
57, 958377951, -5.113982200622559, 1.232143521308899, 8.296756744384766, -2.6071555614471436, -1.507973551750183, -2.495535373687744, 0.046875, -0.12109375, -0.845458984375
58, 958394618, -5.117330074310303, 1.2615100145339966, 8.326029777526855, -2.6534507274627686, -1.6205799579620361, -2.4265475273132324, 0.0478515625, -0.12109375, -0.845458984375
59, 958411285, -5.100805282592773, 1.2356243133544922, 8.325937271118164, -2.6763224601745605, -1.716281533241272, -2.4915268421173096, 0.0478515625, -0.11865234375, -0.844970703125
60, 958427952, -5.098459720611572, 1.2409266233444214, 8.332267761230469, -2.700155019760132, -1.624152660369873, -2.5323023796081543, 0.0478515625, -0.12109375, -0.845947265625
61, 958444619, -5.095334529876709, 1.2524731159210205, 8.287947654724121, -2.5894699096679688, -1.4790440797805786, -2.426675796508789, 0.046875, -0.12109375, -0.844482421875
62, 958461286, -5.1084089279174805, 1.2532777786254883, 8.308682441711426, -2.6934447288513184, -1.6217067241668701, -2.45947265625, 0.044921875, -0.12109375, -0.844482421875
63, 958477953, -5.100739479064941, 1.240484595298767, 8.319074630737305, -2.705495595932007, -1.5646288394927979, -2.543431282043457, 0.0458984375, -0.12109375, -0.847412109375
64, 958494620, -5.10427713394165, 1.246394395828247, 8.305296897888184, -2.596910238265991, -1.561888337135315, -2.4345388412475586, 0.04638671875, -0.1220703125, -0.845947265625
65, 958511287, -5.110060214996338, 1.2412726879119873, 8.334312438964844, -2.489003896713257, -1.3892968893051147, -2.384427070617676, 0.046875, -0.1201171875, -0.845458984375
66, 958527954, -5.091921806335449, 1.250038981437683, 8.29981517791748, -2.446960687637329, -1.394688367843628, -2.412729024887085, 0.04638671875, -0.11962890625, -0.843994140625
67, 958544621, -5.101099967956543, 1.2609686851501465, 8.307939529418945, -2.5864734649658203, -1.3989787101745605, -2.4607021808624268, 0.04443359375, -0.12255859375, -0.847412109375
68, 958561288, -5.108631610870361, 1.2550199031829834, 8.314457893371582, -2.6446778774261475, -1.4295600652694702, -2.5154361724853516, 0.04541015625, -0.12060546875, -0.845458984375
69, 958577955, -5.1060614585876465, 1.2489161491394043, 8.299093246459961, -2.582080602645874, -1.3858650922775269, -2.4741358757019043, 0.044921875, -0.12255859375, -0.846923828125
70, 958594622, -5.101629734039307, 1.2541435956954956, 8.309065818786621, -2.552664041519165, -1.3495972156524658, -2.421949625015259, 0.04736328125, -0.12109375, -0.847412109375
71, 958611289, -5.101762771606445, 1.2496750354766846, 8.313530921936035, -2.5015664100646973, -1.3567173480987549, -2.439840078353882, 0.04541015625, -0.123046875, -0.847412109375
72, 958627956, -5.116348743438721, 1.2554118633270264, 8.323296546936035, -2.5124778747558594, -1.3407609462738037, -2.4254074096679688, 0.04638671875, -0.12109375, -0.843505859375
73, 958644623, -5.100505828857422, 1.246428370475769, 8.30245304107666, -2.4797449111938477, -1.3437831401824951, -2.411410093307495, 0.044921875, -0.12255859375, -0.845947265625
74, 958661290, -5.09456729888916, 1.2423510551452637, 8.316737174987793, -2.471011161804199, -1.262911081314087, -2.4093101024627686, 0.04443359375, -0.1201171875, -0.845458984375
75, 958677957, -5.108363628387451, 1.2434754371643066, 8.325145721435547, -2.48453426361084, -1.2999725341796875, -2.313889741897583, 0.044921875, -0.11962890625, -0.84765625
76, 958694624, -5.113917827606201, 1.2430955171585083, 8.307989120483398, -2.209479331970215, -1.181360125541687, -2.230494499206543, 0.0458984375, -0.1220703125, -0.844970703125
77, 958711291, -5.115189552307129, 1.2373195886611938, 8.305879592895508, -2.193190097808838, -1.1791189908981323, -2.2509591579437256, 0.0458984375, -0.1220703125, -0.844482421875
78, 958727958, -5.113597393035889, 1.251299262046814, 8.332292556762695, -2.36049222946167, -1.44125235080719, -2.2965757846832275, 0.049072265625, -0.119140625, -0.845458984375
79, 958744625, -5.119744777679443, 1.249662160873413, 8.305472373962402, -2.458768129348755, -1.472474217414856, -2.371864080429077, 0.0478515625, -0.1220703125, -0.845458984375
80, 958761292, -5.11185359954834, 1.2453217506408691, 8.291131019592285, -2.4953558444976807, -1.4337093830108643, -2.2710399627685547, 0.044921875, -0.12255859375, -0.846923828125
81, 958777959, -5.104470252990723, 1.2570639848709106, 8.304648399353027, -2.4386491775512695, -1.3567304611206055, -2.279402494430542, 0.04541015625, -0.124755859375, -0.847412109375
82, 958794626, -5.108253002166748, 1.2602852582931519, 8.300552368164062, -2.4649152755737305, -1.4265761375427246, -2.313441753387451, 0.04541015625, -0.11962890625, -0.845947265625
83, 958811293, -5.104322910308838, 1.2483571767807007, 8.300683975219727, -2.5078415870666504, -1.4102222919464111, -2.3188071250915527, 0.04541015625, -0.12255859375, -0.845947265625
84, 958827960, -5.103947162628174, 1.257567048072815, 8.317063331604004, -2.438354730606079, -1.514261245727539, -2.410680055618286, 0.0439453125, -0.123046875, -0.843994140625
85, 958844627, -5.076103210449219, 1.25258207321167, 8.315558433532715, -2.4498167037963867, -1.429764986038208, -2.393494129180908, 0.04541015625, -0.12109375, -0.843994140625
86, 958861294, -5.092531204223633, 1.2486659288406372, 8.321560859680176, -2.289339780807495, -1.0523104667663574, -2.37144136428833, 0.04541015625, -0.12353515625, -0.843994140625
87, 958877961, -5.107329368591309, 1.2510567903518677, 8.33739185333252, -2.19642972946167, -1.0159788131713867, -2.3196394443511963, 0.04736328125, -0.123779296875, -0.844482421875
88, 958894628, -5.111303806304932, 1.2534801959991455, 8.305817604064941, -2.207929849624634, -1.0382492542266846, -2.287649393081665, 0.048583984375, -0.12255859375, -0.846435546875
89, 958911295, -5.101289749145508, 1.2569363117218018, 8.311716079711914, -2.0167183876037598, -1.0461891889572144, -2.231557846069336, 0.0478515625, -0.12109375, -0.845458984375
90, 958927962, -5.108019828796387, 1.2636092901229858, 8.3251371383667, -1.9101696014404297, -0.9351453185081482, -2.1644906997680664, 0.04638671875, -0.123779296875, -0.845458984375
91, 958944629, -5.123349189758301, 1.2525042295455933, 8.317842483520508, -2.0335075855255127, -0.9378730058670044, -2.1988887786865234, 0.0458984375, -0.12158203125, -0.846435546875
92, 958961296, -5.118404865264893, 1.281522512435913, 8.308449745178223, -2.175132989883423, -1.0737354755401611, -2.2999820709228516, 0.0478515625, -0.1220703125, -0.846923828125
93, 958977963, -5.094529151916504, 1.2695894241333008, 8.304254531860352, -2.3989109992980957, -1.243265986442566, -2.3669464588165283, 0.0458984375, -0.12109375, -0.846435546875
94, 958994630, -5.125420093536377, 1.2626309394836426, 8.30712604522705, -2.460035800933838, -1.372584581375122, -2.3988983631134033, 0.049560546875, -0.123291015625, -0.846435546875
95, 959011297, -5.1232781410217285, 1.2688257694244385, 8.299893379211426, -2.6312828063964844, -1.4358737468719482, -2.5142199993133545, 0.04443359375, -0.12353515625, -0.845947265625
96, 959027964, -5.121219635009766, 1.2637490034103394, 8.312362670898438, -2.599241256713867, -1.4708095788955688, -2.497750997543335, 0.04736328125, -0.123779296875, -0.844482421875
97, 959044631, -5.111159324645996, 1.2726961374282837, 8.296464920043945, -2.6390817165374756, -1.441802978515625, -2.498199224472046, 0.0478515625, -0.123779296875, -0.844970703125
98, 959061298, -5.110160827636719, 1.2554233074188232, 8.327279090881348, -2.5257201194763184, -1.4195456504821777, -2.5354785919189453, 0.04833984375, -0.1220703125, -0.84326171875
99, 959077965, -5.0988335609436035, 1.2629948854446411, 8.318840980529785, -2.56101393699646, -1.4096206426620483, -2.470242738723755, 0.0458984375, -0.12353515625, -0.845458984375
100, 959094632, -5.102214336395264, 1.2572035789489746, 8.296858787536621, -2.602583408355713, -1.4948469400405884, -2.517165184020996, 0.04638671875, -0.1220703125, -0.843505859375
101, 959111299, -5.111636161804199, 1.2584540843963623, 8.310298919677734, -2.7746241092681885, -1.4874833822250366, -2.490746021270752, 0.0458984375, -0.1220703125, -0.844970703125
102, 959127966, -5.120630741119385, 1.2572170495986938, 8.292346000671387, -2.7312231063842773, -1.628609299659729, -2.5042564868927, 0.04638671875, -0.12255859375, -0.844970703125
103, 959144633, -5.107114791870117, 1.2720718383789062, 8.27974796295166, -2.7441322803497314, -1.6754804849624634, -2.452890157699585, 0.04345703125, -0.12451171875, -0.844482421875
104, 959161300, -5.128364562988281, 1.256833791732788, 8.308667182922363, -2.58793306350708, -1.6838173866271973, -2.486276388168335, 0.046875, -0.123046875, -0.845947265625
105, 959177967, -5.094077110290527, 1.2521814107894897, 8.296767234802246, -2.6027629375457764, -1.5984504222869873, -2.378152370452881, 0.04833984375, -0.12109375, -0.846435546875
106, 959194634, -5.118492126464844, 1.2506874799728394, 8.316784858703613, -2.5870747566223145, -1.6320157051086426, -2.29886794090271, 0.0478515625, -0.124267578125, -0.845458984375
107, 959211301, -5.114684581756592, 1.2559256553649902, 8.28420352935791, -2.5959880352020264, -1.5664727687835693, -2.1990807056427, 0.04931640625, -0.1201171875, -0.84423828125
108, 959227968, -5.104089736938477, 1.2591631412506104, 8.306587219238281, -2.527320384979248, -1.5932892560958862, -2.1986069679260254, 0.0478515625, -0.123779296875, -0.845458984375
109, 959244635, -5.117008686065674, 1.2684601545333862, 8.312305450439453, -2.6342408657073975, -1.7059341669082642, -2.2562999725341797, 0.04736328125, -0.123779296875, -0.844482421875
110, 959261302, -5.116708278656006, 1.2670841217041016, 8.29582405090332, -2.694956064224243, -1.8335109949111938, -2.2726407051086426, 0.0458984375, -0.1201171875, -0.845458984375
111, 959277969, -5.108256816864014, 1.262311339378357, 8.316527366638184, -2.7674527168273926, -1.784488320350647, -2.3409242630004883, 0.046875, -0.12060546875, -0.844970703125
112, 959294636, -5.105716705322266, 1.2701170444488525, 8.32450008392334, -2.82741117477417, -1.8208452463150024, -2.3247623443603516, 0.04541015625, -0.123046875, -0.846435546875
113, 959311303, -5.102771282196045, 1.2673325538635254, 8.31812858581543, -2.8999338150024414, -1.918929100036621, -2.2960119247436523, 0.04638671875, -0.12255859375, -0.846923828125
114, 959327970, -5.1008830070495605, 1.2805498838424683, 8.310225486755371, -2.861501693725586, -1.9701672792434692, -2.3423452377319336, 0.046875, -0.12158203125, -0.844970703125
115, 959344637, -5.087934494018555, 1.2608076333999634, 8.30270767211914, -2.8814539909362793, -2.0779454708099365, -2.340718984603882, 0.04736328125, -0.12158203125, -0.846923828125
116, 959361304, -5.089894771575928, 1.2555429935455322, 8.318683624267578, -2.9691009521484375, -1.9544155597686768, -2.394364833831787, 0.0439453125, -0.11962890625, -0.845458984375
117, 959377971, -5.0952935218811035, 1.2533866167068481, 8.308625221252441, -2.8706586360931396, -1.9308134317398071, -2.5008625984191895, 0.044921875, -0.1220703125, -0.846435546875
118, 959394638, -5.111957550048828, 1.2382982969284058, 8.326016426086426, -2.8519484996795654, -1.7929785251617432, -2.5008749961853027, 0.0458984375, -0.123046875, -0.847412109375
119, 959411305, -5.080967903137207, 1.261961817741394, 8.318151473999023, -2.7249228954315186, -1.6058396100997925, -2.4083240032196045, 0.04638671875, -0.12255859375, -0.846435546875
120, 959427972, -5.085986137390137, 1.2491198778152466, 8.321296691894531, -2.6415276527404785, -1.6447709798812866, -2.4327456951141357, 0.0458984375, -0.1220703125, -0.845458984375
121, 959444639, -5.086536407470703, 1.2497470378875732, 8.325658798217773, -2.6480462551116943, -1.5296803712844849, -2.5277304649353027, 0.04736328125, -0.12255859375, -0.846435546875
122, 959461306, -5.088977336883545, 1.2538456916809082, 8.304041862487793, -2.6814708709716797, -1.4754453897476196, -2.4823577404022217, 0.04638671875, -0.12255859375, -0.844970703125
123, 959477973, -5.085122585296631, 1.25368332862854, 8.338537216186523, -2.7613441944122314, -1.5429861545562744, -2.5391921997070312, 0.04345703125, -0.12158203125, -0.845947265625
124, 959494640, -5.090112686157227, 1.2598639726638794, 8.317048072814941, -2.7187631130218506, -1.5433062314987183, -2.527512788772583, 0.049072265625, -0.1220703125, -0.846923828125
125, 959511307, -5.099066734313965, 1.2446956634521484, 8.334155082702637, -2.601623058319092, -1.4313660860061646, -2.4180312156677246, 0.044921875, -0.123046875, -0.845458984375
126, 959527974, -5.094179153442383, 1.2685526609420776, 8.308423042297363, -2.527653455734253, -1.3721747398376465, -2.477221965789795, 0.04736328125, -0.12353515625, -0.844482421875
127, 959544641, -5.091291904449463, 1.263922929763794, 8.307336807250977, -2.531456708908081, -1.3202451467514038, -2.4070050716400146, 0.04345703125, -0.12109375, -0.843994140625
128, 959561308, -5.101327896118164, 1.267467737197876, 8.31035327911377, -2.5779571533203125, -1.4106196165084839, -2.4681167602539062, 0.04443359375, -0.1201171875, -0.844482421875
129, 959577975, -5.096650123596191, 1.2594963312149048, 8.315998077392578, -2.7269973754882812, -1.4447357654571533, -2.5991899967193604, 0.04248046875, -0.12109375, -0.84619140625
130, 959594642, -5.0968852043151855, 1.2519372701644897, 8.30322265625, -2.6453182697296143, -1.4039859771728516, -2.6309242248535156, 0.044921875, -0.1220703125, -0.846435546875
131, 959611309, -5.0928239822387695, 1.2611702680587769, 8.307580947875977, -2.6313211917877197, -1.3031229972839355, -2.690140724182129, 0.04443359375, -0.1220703125, -0.845458984375
132, 959627976, -5.095873832702637, 1.2524834871292114, 8.335192680358887, -2.5847957134246826, -1.077513575553894, -2.6906914710998535, 0.044921875, -0.12158203125, -0.845458984375
133, 959644643, -5.107911586761475, 1.2571227550506592, 8.322090148925781, -2.5835533142089844, -1.1179945468902588, -2.64786696434021, 0.044921875, -0.124267578125, -0.845947265625
134, 959661310, -5.101906776428223, 1.2630525827407837, 8.317831993103027, -2.755875825881958, -1.220061182975769, -2.6767706871032715, 0.046875, -0.12255859375, -0.845458984375
135, 959677977, -5.10269832611084, 1.252108097076416, 8.327983856201172, -2.851512908935547, -1.3953670263290405, -2.863217830657959, 0.04541015625, -0.1220703125, -0.846435546875
136, 959694644, -5.118929386138916, 1.253172755241394, 8.319838523864746, -2.892390727996826, -1.4964731931686401, -2.739290952682495, 0.04541015625, -0.1201171875, -0.847412109375
137, 959711311, -5.105358123779297, 1.239845633506775, 8.334551811218262, -2.8365678787231445, -1.4877135753631592, -2.676539897918701, 0.04541015625, -0.12109375, -0.846435546875
138, 959727978, -5.087145805358887, 1.2435431480407715, 8.324172973632812, -2.6412205696105957, -1.4949367046356201, -2.609332799911499, 0.04541015625, -0.12158203125, -0.844970703125
139, 959744645, -5.096396446228027, 1.250479817390442, 8.32277774810791, -2.49344801902771, -1.310602068901062, -2.5748960971832275, 0.04296875, -0.119140625, -0.844482421875
140, 959761312, -5.089482307434082, 1.2490427494049072, 8.300352096557617, -2.470075845718384, -1.193116307258606, -2.5920562744140625, 0.044921875, -0.11962890625, -0.845947265625
141, 959777979, -5.1125264167785645, 1.2445226907730103, 8.311378479003906, -2.3441002368927, -1.154607892036438, -2.492461681365967, 0.0458984375, -0.12060546875, -0.848388671875
142, 959794646, -5.099518775939941, 1.2593469619750977, 8.311771392822266, -2.3642702102661133, -1.0187321901321411, -2.5713999271392822, 0.04638671875, -0.1201171875, -0.847412109375
143, 959811313, -5.106451988220215, 1.2389991283416748, 8.305108070373535, -2.3216373920440674, -0.9907376170158386, -2.4242546558380127, 0.04638671875, -0.12060546875, -0.844970703125
144, 959827980, -5.1167988777160645, 1.2427111864089966, 8.298985481262207, -2.0663304328918457, -0.9370918273925781, -2.4297871589660645, 0.046875, -0.123046875, -0.845947265625
145, 959844647, -5.091574668884277, 1.2391383647918701, 8.296893119812012, -2.008112668991089, -0.8287501335144043, -2.2684273719787598, 0.04541015625, -0.12158203125, -0.844482421875
146, 959861314, -5.105365753173828, 1.2457735538482666, 8.293272972106934, -1.9057514667510986, -0.867809534072876, -2.217586040496826, 0.0458984375, -0.123046875, -0.843994140625
147, 959877981, -5.110734462738037, 1.2653661966323853, 8.316009521484375, -1.9717168807983398, -0.8756598234176636, -2.3487229347229004, 0.04541015625, -0.12353515625, -0.846435546875
148, 959894648, -5.107719421386719, 1.2656875848770142, 8.29215145111084, -2.143603563308716, -0.937719464302063, -2.4328866004943848, 0.04638671875, -0.12158203125, -0.847412109375
149, 959911315, -5.0981550216674805, 1.2433968782424927, 8.31683349609375, -1.8700600862503052, -0.8764026165008545, -2.326427459716797, 0.0478515625, -0.123046875, -0.844970703125
150, 959927982, -5.111627578735352, 1.2481670379638672, 8.307106018066406, -1.7329682111740112, -0.6833212971687317, -2.141913414001465, 0.04833984375, -0.123046875, -0.844970703125
151, 959944649, -5.100906848907471, 1.267028570175171, 8.321612358093262, -1.7988823652267456, -0.6568760275840759, -2.1572422981262207, 0.050537109375, -0.12255859375, -0.8447265625
152, 959961316, -5.124095439910889, 1.259112000465393, 8.300137519836426, -1.8200770616531372, -0.724839448928833, -2.27813458442688, 0.048583984375, -0.12255859375, -0.846923828125
153, 959977983, -5.132599353790283, 1.257414698600769, 8.301815032958984, -1.9476410150527954, -0.8384957909584045, -2.230712413787842, 0.04736328125, -0.122802734375, -0.847412109375
154, 959994650, -5.118556976318359, 1.2588244676589966, 8.306750297546387, -2.058210849761963, -0.9620386362075806, -2.309023380279541, 0.046875, -0.123046875, -0.845458984375
155, 960011317, -5.121138572692871, 1.2734768390655518, 8.294478416442871, -2.1128809452056885, -1.1242949962615967, -2.334174871444702, 0.048583984375, -0.123291015625, -0.846435546875
156, 960027984, -5.127532482147217, 1.2613328695297241, 8.30124282836914, -1.949036955833435, -1.0149800777435303, -2.0904958248138428, 0.04833984375, -0.125244140625, -0.84423828125
157, 960044651, -5.114063262939453, 1.2567391395568848, 8.29438304901123, -1.8710463047027588, -1.0025962591171265, -2.0473639965057373, 0.048583984375, -0.123291015625, -0.846923828125
158, 960061318, -5.111495494842529, 1.2437323331832886, 8.304762840270996, -2.0128378868103027, -1.0237780809402466, -2.001811981201172, 0.04833984375, -0.124267578125, -0.845458984375
159, 960077985, -5.128235816955566, 1.282151460647583, 8.302096366882324, -1.9764683246612549, -1.0669227838516235, -2.0205092430114746, 0.048583984375, -0.123291015625, -0.845947265625
160, 960094652, -5.134400367736816, 1.2764127254486084, 8.30327033996582, -2.02907657623291, -1.1107460260391235, -2.115455389022827, 0.048583984375, -0.122802734375, -0.846923828125
161, 960111319, -5.124571323394775, 1.2879629135131836, 8.301374435424805, -2.300661087036133, -1.1532118320465088, -2.193138837814331, 0.04736328125, -0.123046875, -0.844482421875
162, 960127986, -5.113640308380127, 1.2963606119155884, 8.29364013671875, -2.4991719722747803, -1.4196735620498657, -2.302159309387207, 0.049072265625, -0.123779296875, -0.84423828125
163, 960144653, -5.124240398406982, 1.2891757488250732, 8.306520462036133, -2.540318727493286, -1.5047078132629395, -2.38578462600708, 0.048828125, -0.123046875, -0.8447265625
164, 960161320, -5.110956192016602, 1.2724409103393555, 8.298408508300781, -2.6370582580566406, -1.6409931182861328, -2.401395797729492, 0.04736328125, -0.123291015625, -0.846435546875
165, 960177987, -5.131284713745117, 1.2859877347946167, 8.284912109375, -2.5817604064941406, -1.5845555067062378, -2.346226215362549, 0.046875, -0.123779296875, -0.844970703125
166, 960194654, -5.122182846069336, 1.2752889394760132, 8.30075454711914, -2.593106985092163, -1.5594037771224976, -2.371710777282715, 0.046875, -0.123291015625, -0.846435546875
167, 960211321, -5.125494956970215, 1.2769074440002441, 8.300116539001465, -2.567315101623535, -1.5609022378921509, -2.3756039142608643, 0.0478515625, -0.12255859375, -0.844970703125
168, 960227988, -5.129249572753906, 1.2751961946487427, 8.27011489868164, -2.6771037578582764, -1.6240758895874023, -2.3583920001983643, 0.048828125, -0.123046875, -0.84423828125
169, 960244655, -5.114338397979736, 1.2851859331130981, 8.30185604095459, -2.6665384769439697, -1.5958763360977173, -2.342627763748169, 0.04736328125, -0.123779296875, -0.844482421875
170, 960261322, -5.1212477684021, 1.2876996994018555, 8.299947738647461, -2.6252381801605225, -1.5725176334381104, -2.367100238800049, 0.04638671875, -0.1220703125, -0.845458984375
171, 960277989, -5.111898899078369, 1.2839242219924927, 8.291979789733887, -2.7357826232910156, -1.707291603088379, -2.45131516456604, 0.04736328125, -0.123046875, -0.845458984375
172, 960294656, -5.110823154449463, 1.2730293273925781, 8.27078628540039, -2.8460445404052734, -1.8380056619644165, -2.456052780151367, 0.0478515625, -0.123291015625, -0.846435546875
173, 960311323, -5.1179070472717285, 1.2664210796356201, 8.312088012695312, -2.6398117542266846, -1.6774271726608276, -2.3677921295166016, 0.048828125, -0.123291015625, -0.8447265625
174, 960327990, -5.1142778396606445, 1.2844171524047852, 8.309734344482422, -2.6704955101013184, -1.6732139587402344, -2.3610942363739014, 0.044921875, -0.123046875, -0.844970703125
175, 960344657, -5.121738433837891, 1.2892870903015137, 8.302971839904785, -2.6372885704040527, -1.64479660987854, -2.414727210998535, 0.046875, -0.123779296875, -0.845458984375
176, 960361324, -5.104729175567627, 1.2713733911514282, 8.30138111114502, -2.5951943397521973, -1.6214890480041504, -2.4938833713531494, 0.04736328125, -0.124267578125, -0.845458984375
177, 960377991, -5.121242523193359, 1.2700408697128296, 8.307244300842285, -2.5593748092651367, -1.4594502449035645, -2.456322193145752, 0.046875, -0.123046875, -0.846923828125
178, 960394658, -5.1068315505981445, 1.2791781425476074, 8.293466567993164, -2.6109976768493652, -1.3488034009933472, -2.435755491256714, 0.04736328125, -0.1220703125, -0.845458984375
179, 960411325, -5.118829250335693, 1.2782613039016724, 8.29705810546875, -2.743197441101074, -1.57949697971344, -2.5506668090820312, 0.04736328125, -0.12255859375, -0.846435546875
180, 960427992, -5.1140336990356445, 1.2892500162124634, 8.274003982543945, -3.062126398086548, -1.8174773454666138, -2.6584062576293945, 0.04541015625, -0.124755859375, -0.846923828125
181, 960444659, -5.1097211837768555, 1.262277364730835, 8.315628051757812, -3.166806221008301, -1.9110790491104126, -2.643563985824585, 0.046875, -0.1220703125, -0.846923828125
182, 960461326, -5.110739707946777, 1.28113853931427, 8.313956260681152, -3.405810832977295, -1.9846899509429932, -2.7740607261657715, 0.0458984375, -0.12158203125, -0.847900390625
183, 960477993, -5.116451740264893, 1.2843685150146484, 8.30263614654541, -3.7263925075531006, -2.2310073375701904, -2.854919910430908, 0.04638671875, -0.123046875, -0.844970703125
184, 960494660, -5.098324775695801, 1.2399545907974243, 8.303339004516602, -3.5538134574890137, -2.302044153213501, -2.879162549972534, 0.046875, -0.12158203125, -0.846923828125
185, 960511327, -5.110691070556641, 1.254593849182129, 8.318140029907227, -3.354572057723999, -2.155090808868408, -2.789863348007202, 0.0458984375, -0.123046875, -0.845458984375
186, 960527994, -5.1032328605651855, 1.2349554300308228, 8.316905975341797, -3.1288344860076904, -1.9181222915649414, -2.586805820465088, 0.04833984375, -0.1220703125, -0.844482421875
187, 960544661, -5.097959995269775, 1.2544420957565308, 8.280519485473633, -2.978360176086426, -1.8498133420944214, -2.5399346351623535, 0.046875, -0.123779296875, -0.844970703125
188, 960561328, -5.107203006744385, 1.2407935857772827, 8.312232971191406, -2.759870767593384, -1.7189961671829224, -2.4572949409484863, 0.04541015625, -0.12255859375, -0.845458984375
189, 960577995, -5.101551532745361, 1.250105619430542, 8.310816764831543, -2.6314876079559326, -1.8213578462600708, -2.4069924354553223, 0.0458984375, -0.12158203125, -0.844970703125
190, 960594662, -5.086119174957275, 1.2550538778305054, 8.302945137023926, -2.6494550704956055, -1.782464861869812, -2.263791561126709, 0.04443359375, -0.12158203125, -0.847900390625
191, 960611329, -5.08582878112793, 1.248474359512329, 8.302734375, -2.601623058319092, -1.7481311559677124, -2.1882083415985107, 0.044921875, -0.1201171875, -0.845458984375
192, 960627996, -5.092418193817139, 1.259644627571106, 8.317389488220215, -2.2826292514801025, -1.5572649240493774, -2.006831645965576, 0.04443359375, -0.1220703125, -0.846435546875
193, 960644663, -5.105569362640381, 1.269273281097412, 8.31290340423584, -2.255044460296631, -1.4731911420822144, -1.9850096702575684, 0.04638671875, -0.12060546875, -0.846923828125
194, 960661330, -5.077837944030762, 1.277717113494873, 8.317679405212402, -2.4593443870544434, -1.4869965314865112, -2.2032556533813477, 0.0439453125, -0.1220703125, -0.843994140625
195, 960677997, -5.08890962600708, 1.271628499031067, 8.306679725646973, -2.581542730331421, -1.5619267225265503, -2.4540555477142334, 0.04443359375, -0.119140625, -0.84716796875
196, 960694664, -5.097038269042969, 1.2661981582641602, 8.3269624710083, -2.7109124660491943, -1.4794793128967285, -2.4980196952819824, 0.046875, -0.123046875, -0.846435546875
197, 960711331, -5.089607238769531, 1.2558926343917847, 8.332989692687988, -2.729609966278076, -1.5070513486862183, -2.5500519275665283, 0.046875, -0.12255859375, -0.845458984375
198, 960727998, -5.097083568572998, 1.2485237121582031, 8.336480140686035, -2.6714563369750977, -1.4434552192687988, -2.4638524055480957, 0.044921875, -0.123046875, -0.844970703125
199, 960744665, -5.099790096282959, 1.2504719495773315, 8.290778160095215, -2.621178388595581, -1.4511772394180298, -2.5250282287597656, 0.04443359375, -0.11962890625, -0.846923828125
200, 960761332, -5.1023783683776855, 1.2562246322631836, 8.321626663208008, -2.665334701538086, -1.4545453786849976, -2.5876002311706543, 0.04541015625, -0.1220703125, -0.847412109375
201, 960777999, -5.103961944580078, 1.2309775352478027, 8.323893547058105, -2.613161563873291, -1.3935487270355225, -2.4967007637023926, 0.046875, -0.119140625, -0.844970703125
202, 960794666, -5.104703426361084, 1.2500489950180054, 8.31789493560791, -2.6728904247283936, -1.4092620611190796, -2.421757459640503, 0.04443359375, -0.1201171875, -0.845458984375
203, 960811333, -5.102644443511963, 1.2599763870239258, 8.337846755981445, -2.5698888301849365, -1.4380123615264893, -2.5585551261901855, 0.0458984375, -0.1201171875, -0.844970703125
204, 960828000, -5.103103160858154, 1.2563074827194214, 8.297124862670898, -2.6819956302642822, -1.4496405124664307, -2.490015745162964, 0.044921875, -0.12109375, -0.846923828125
205, 960844667, -5.100517272949219, 1.2537922859191895, 8.312568664550781, -2.875460624694824, -1.5492607355117798, -2.635303497314453, 0.04736328125, -0.119140625, -0.843994140625
206, 960861334, -5.107991695404053, 1.241395115852356, 8.327042579650879, -2.915595769882202, -1.5618879795074463, -2.6783838272094727, 0.049072265625, -0.11962890625, -0.845458984375
207, 960878001, -5.105016708374023, 1.2473666667938232, 8.31726360321045, -2.7928342819213867, -1.5550878047943115, -2.5762147903442383, 0.044921875, -0.12255859375, -0.848876953125
208, 960894668, -5.098203659057617, 1.2662959098815918, 8.320478439331055, -2.8592991828918457, -1.574668526649475, -2.619692325592041, 0.04638671875, -0.12158203125, -0.847412109375
209, 960911335, -5.106730937957764, 1.2542060613632202, 8.32999038696289, -3.0368595123291016, -1.7501925230026245, -2.7981746196746826, 0.046875, -0.12109375, -0.846435546875
210, 960928002, -5.090226173400879, 1.243466854095459, 8.320854187011719, -3.132805109024048, -1.820743203163147, -2.787046432495117, 0.04736328125, -0.12158203125, -0.846435546875
211, 960944669, -5.097822666168213, 1.228308916091919, 8.330424308776855, -2.973057985305786, -1.739153504371643, -2.8296139240264893, 0.0458984375, -0.12109375, -0.845458984375
212, 960961336, -5.095207214355469, 1.242907166481018, 8.326009750366211, -2.891929864883423, -1.5143507719039917, -2.6666786670684814, 0.04443359375, -0.1220703125, -0.845458984375
213, 960978003, -5.10359525680542, 1.2464319467544556, 8.33294677734375, -2.704803943634033, -1.375376582145691, -2.5067408084869385, 0.04443359375, -0.12060546875, -0.846923828125
214, 960994670, -5.0821614265441895, 1.243690013885498, 8.300813674926758, -2.655179262161255, -1.3018039464950562, -2.5811970233917236, 0.046875, -0.11962890625, -0.846923828125
215, 961011337, -5.093472957611084, 1.239166259765625, 8.30567455291748, -2.583233118057251, -1.2436376810073853, -2.5652146339416504, 0.04541015625, -0.12158203125, -0.844970703125
216, 961028004, -5.109469890594482, 1.2282707691192627, 8.336614608764648, -2.491513967514038, -1.1974321603775024, -2.5166783332824707, 0.0439453125, -0.1240234375, -0.845947265625
217, 961044671, -5.1010565757751465, 1.232356309890747, 8.320364952087402, -2.513387441635132, -1.2314202785491943, -2.507880449295044, 0.04541015625, -0.12060546875, -0.845458984375
218, 961061338, -5.090015411376953, 1.234760046005249, 8.310129165649414, -2.4219751358032227, -1.2628982067108154, -2.4397759437561035, 0.0419921875, -0.11962890625, -0.843994140625
219, 961078005, -5.100289344787598, 1.248640537261963, 8.299304962158203, -2.436613082885742, -1.2533830404281616, -2.4243574142456055, 0.044921875, -0.12109375, -0.846923828125
220, 961094672, -5.103671550750732, 1.257986307144165, 8.326233863830566, -2.5283191204071045, -1.3354461193084717, -2.467040777206421, 0.044921875, -0.12109375, -0.845458984375
221, 961111339, -5.113007545471191, 1.246084213256836, 8.31322193145752, -2.546978235244751, -1.3883748054504395, -2.4564883708953857, 0.04638671875, -0.12353515625, -0.844482421875
222, 961128006, -5.105700969696045, 1.239730954170227, 8.311441421508789, -2.5257067680358887, -1.4171122312545776, -2.452787399291992, 0.04345703125, -0.12353515625, -0.846435546875
223, 961144673, -5.109224796295166, 1.2512893676757812, 8.324877738952637, -2.5193932056427, -1.3373287916183472, -2.472919225692749, 0.04638671875, -0.124267578125, -0.845458984375
224, 961161340, -5.097681999206543, 1.236406683921814, 8.317481994628906, -2.5953352451324463, -1.3210008144378662, -2.5020666122436523, 0.04443359375, -0.12060546875, -0.843994140625
225, 961178007, -5.109455585479736, 1.2449313402175903, 8.314552307128906, -2.5094428062438965, -1.352517008781433, -2.4602794647216797, 0.04736328125, -0.1220703125, -0.847900390625
226, 961194674, -5.1016764640808105, 1.2514421939849854, 8.33497142791748, -2.5932095050811768, -1.3272759914398193, -2.5109541416168213, 0.04443359375, -0.12109375, -0.847412109375
227, 961211341, -5.101975440979004, 1.2414754629135132, 8.321020126342773, -2.535362958908081, -1.3924343585968018, -2.470524311065674, 0.04638671875, -0.1201171875, -0.844970703125
228, 961228008, -5.097875595092773, 1.2434556484222412, 8.321174621582031, -2.505037546157837, -1.3992217779159546, -2.4459874629974365, 0.04541015625, -0.1201171875, -0.846435546875
229, 961244675, -5.095559597015381, 1.2327368259429932, 8.298664093017578, -2.5935678482055664, -1.4757270812988281, -2.488223075866699, 0.04443359375, -0.123046875, -0.846435546875
230, 961261342, -5.105167388916016, 1.2456823587417603, 8.33077335357666, -2.6247637271881104, -1.406457543373108, -2.506049156188965, 0.04541015625, -0.1201171875, -0.845458984375
231, 961278009, -5.110782146453857, 1.250575065612793, 8.31684398651123, -2.6663849353790283, -1.4777120351791382, -2.5173444747924805, 0.04736328125, -0.11962890625, -0.846923828125
232, 961294676, -5.103488922119141, 1.2417588233947754, 8.314315795898438, -2.599766254425049, -1.4944754838943481, -2.4849443435668945, 0.044921875, -0.12255859375, -0.848388671875
233, 961311343, -5.0941243171691895, 1.2412577867507935, 8.33381462097168, -2.565547466278076, -1.556522250175476, -2.4849698543548584, 0.046875, -0.11962890625, -0.845458984375
234, 961328010, -5.1100335121154785, 1.2501797676086426, 8.30922794342041, -2.6394147872924805, -1.5811618566513062, -2.382826805114746, 0.04638671875, -0.12158203125, -0.843505859375
235, 961344677, -5.0974531173706055, 1.2337504625320435, 8.327343940734863, -2.629554033279419, -1.5241352319717407, -2.3911635875701904, 0.04541015625, -0.1201171875, -0.844482421875
236, 961361344, -5.101014137268066, 1.2422869205474854, 8.325366973876953, -2.571617841720581, -1.5186796188354492, -2.3782546520233154, 0.04345703125, -0.11962890625, -0.8466796875
237, 961378011, -5.109665870666504, 1.2426295280456543, 8.342145919799805, -2.5319430828094482, -1.5157338380813599, -2.3592493534088135, 0.04638671875, -0.12060546875, -0.846435546875
238, 961394678, -5.089703559875488, 1.2339019775390625, 8.321440696716309, -2.595040798187256, -1.584901213645935, -2.4368438720703125, 0.04541015625, -0.1201171875, -0.845947265625
239, 961411345, -5.091521263122559, 1.2519830465316772, 8.341020584106445, -2.4171345233917236, -1.4914276599884033, -2.370980739593506, 0.0478515625, -0.12060546875, -0.845458984375
240, 961428012, -5.110861778259277, 1.2475917339324951, 8.34326457977295, -2.387667417526245, -1.4684914350509644, -2.3438055515289307, 0.04541015625, -0.12158203125, -0.845947265625
241, 961444679, -5.098484992980957, 1.236099123954773, 8.322508811950684, -2.4022276401519775, -1.3930362462997437, -2.218533515930176, 0.04638671875, -0.1181640625, -0.845458984375
242, 961461346, -5.109138011932373, 1.2624735832214355, 8.341083526611328, -2.4539783000946045, -1.4454528093338013, -2.2868683338165283, 0.046875, -0.12109375, -0.844970703125
243, 961478013, -5.098860263824463, 1.264291763305664, 8.316344261169434, -2.5022456645965576, -1.5159772634506226, -2.370429754257202, 0.04541015625, -0.123046875, -0.845947265625
244, 961494680, -5.103409290313721, 1.246181607246399, 8.305174827575684, -2.570913553237915, -1.5107396841049194, -2.419478416442871, 0.04638671875, -0.12158203125, -0.844970703125
245, 961511347, -5.094000339508057, 1.2523903846740723, 8.325294494628906, -2.6321792602539062, -1.5462005138397217, -2.3694183826446533, 0.04736328125, -0.12060546875, -0.843994140625
246, 961528014, -5.1117472648620605, 1.242832899093628, 8.31114387512207, -2.5147831439971924, -1.4349899291992188, -2.3913936614990234, 0.04541015625, -0.1201171875, -0.845458984375
247, 961544681, -5.10094690322876, 1.255346655845642, 8.321028709411621, -2.561833620071411, -1.394957423210144, -2.455848217010498, 0.04443359375, -0.12060546875, -0.845947265625
248, 961561348, -5.094763278961182, 1.2425695657730103, 8.317313194274902, -2.5819265842437744, -1.4441592693328857, -2.4216291904449463, 0.0478515625, -0.123046875, -0.845947265625
249, 961578015, -5.104745864868164, 1.250985026359558, 8.313555717468262, -2.6369173526763916, -1.4506266117095947, -2.4598312377929688, 0.046875, -0.123046875, -0.845947265625
250, 961594682, -5.1006059646606445, 1.2518938779830933, 8.315269470214844, -2.659123659133911, -1.5464566946029663, -2.5010294914245605, 0.0478515625, -0.12158203125, -0.845458984375
251, 961611349, -5.109102249145508, 1.2508989572525024, 8.313770294189453, -2.673748731613159, -1.637765884399414, -2.403867483139038, 0.04638671875, -0.1220703125, -0.845947265625
252, 961628016, -5.087553024291992, 1.2471150159835815, 8.33175277709961, -2.5424065589904785, -1.4964349269866943, -2.4017927646636963, 0.04736328125, -0.12109375, -0.843505859375
253, 961644683, -5.106041431427002, 1.2383027076721191, 8.32288932800293, -2.5385005474090576, -1.4884052276611328, -2.4162638187408447, 0.044921875, -0.12109375, -0.845947265625
254, 961661350, -5.088006496429443, 1.2518292665481567, 8.328873634338379, -2.5822982788085938, -1.5609790086746216, -2.34828782081604, 0.04638671875, -0.1201171875, -0.847412109375
255, 961678017, -5.094314098358154, 1.236073613166809, 8.324478149414062, -2.6714818477630615, -1.5258896350860596, -2.482332229614258, 0.04248046875, -0.11962890625, -0.84765625
256, 961694684, -5.102348804473877, 1.2435967922210693, 8.308582305908203, -2.7597429752349854, -1.6524932384490967, -2.4273414611816406, 0.04345703125, -0.119140625, -0.845947265625
257, 961711351, -5.106709003448486, 1.2465379238128662, 8.323114395141602, -2.9129323959350586, -1.7516649961471558, -2.579019546508789, 0.04541015625, -0.12109375, -0.843505859375
258, 961728018, -5.107455730438232, 1.2507636547088623, 8.335283279418945, -3.054903268814087, -1.9336178302764893, -2.6140832901000977, 0.046875, -0.1220703125, -0.846923828125
259, 961744685, -5.117458820343018, 1.247741460800171, 8.327646255493164, -3.127720832824707, -1.9724470376968384, -2.628606081008911, 0.04638671875, -0.12109375, -0.843994140625
260, 961761352, -5.088728427886963, 1.2333306074142456, 8.295125007629395, -3.153282403945923, -2.0937745571136475, -2.6016228199005127, 0.04443359375, -0.1201171875, -0.843017578125
261, 961778019, -5.089721202850342, 1.2312272787094116, 8.329695701599121, -2.9395313262939453, -2.0323679447174072, -2.550615072250366, 0.04541015625, -0.119140625, -0.845947265625
262, 961794686, -5.086004734039307, 1.224540114402771, 8.309793472290039, -2.844059467315674, -1.8927013874053955, -2.470447063446045, 0.04443359375, -0.12060546875, -0.847412109375
263, 961811353, -5.09784460067749, 1.2277143001556396, 8.3076753616333, -2.8048341274261475, -1.948575735092163, -2.3393871784210205, 0.04638671875, -0.12109375, -0.845947265625
264, 961828020, -5.098878860473633, 1.2392555475234985, 8.322378158569336, -2.8485162258148193, -2.0592737197875977, -2.404545545578003, 0.04443359375, -0.12158203125, -0.846435546875
265, 961844687, -5.0904412269592285, 1.2158677577972412, 8.331915855407715, -2.7101311683654785, -1.917175054550171, -2.3536152839660645, 0.04443359375, -0.119140625, -0.845458984375
266, 961861354, -5.07002592086792, 1.220366358757019, 8.3145751953125, -2.605055332183838, -1.8379548788070679, -2.2939250469207764, 0.0439453125, -0.11865234375, -0.84716796875
267, 961878021, -5.0819010734558105, 1.2355493307113647, 8.317438125610352, -2.536515712738037, -1.7733980417251587, -2.2964861392974854, 0.04443359375, -0.119140625, -0.84814453125
268, 961894688, -5.079128265380859, 1.2438490390777588, 8.333826065063477, -2.57241153717041, -1.779852271080017, -2.3377606868743896, 0.04345703125, -0.12060546875, -0.845947265625
269, 961911355, -5.080601215362549, 1.2393244504928589, 8.315352439880371, -2.5619235038757324, -1.7723734378814697, -2.4793097972869873, 0.04443359375, -0.11962890625, -0.844970703125
270, 961928022, -5.075079441070557, 1.2417107820510864, 8.329063415527344, -2.6558189392089844, -1.856036901473999, -2.506138563156128, 0.0439453125, -0.12060546875, -0.846435546875
271, 961944689, -5.075286865234375, 1.241983413696289, 8.326234817504883, -2.748486280441284, -1.7416510581970215, -2.4337446689605713, 0.0439453125, -0.11865234375, -0.8466796875
272, 961961356, -5.0792317390441895, 1.2228951454162598, 8.316939353942871, -2.622023820877075, -1.5601979494094849, -2.4990060329437256, 0.0439453125, -0.11962890625, -0.8466796875
273, 961978023, -5.083649635314941, 1.2441062927246094, 8.336888313293457, -2.505882740020752, -1.5507724285125732, -2.4378809928894043, 0.04541015625, -0.11865234375, -0.847412109375
274, 961994690, -5.081371307373047, 1.2307648658752441, 8.338451385498047, -2.559041976928711, -1.5996415615081787, -2.3594167232513428, 0.04541015625, -0.12060546875, -0.845947265625
275, 962011357, -5.08130407333374, 1.2409629821777344, 8.33421802520752, -2.5567238330841064, -1.579317569732666, -2.423947811126709, 0.0439453125, -0.1201171875, -0.846435546875
276, 962028024, -5.079022407531738, 1.229282021522522, 8.329078674316406, -2.538769245147705, -1.631464958190918, -2.388307571411133, 0.044921875, -0.12109375, -0.845458984375
277, 962044691, -5.077882289886475, 1.23233163356781, 8.33768081665039, -2.558619499206543, -1.4575293064117432, -2.4108214378356934, 0.0419921875, -0.11865234375, -0.845703125
278, 962061358, -5.078273296356201, 1.230610728263855, 8.334046363830566, -2.3901004791259766, -1.3712271451950073, -2.3657171726226807, 0.04150390625, -0.1201171875, -0.84814453125
279, 962078025, -5.084207057952881, 1.2292530536651611, 8.343421936035156, -2.279146194458008, -1.1300451755523682, -2.273075819015503, 0.044921875, -0.1181640625, -0.846435546875
280, 962094692, -5.0811567306518555, 1.2429791688919067, 8.33476448059082, -2.1554110050201416, -1.2289100885391235, -2.3752193450927734, 0.04541015625, -0.12060546875, -0.844970703125
281, 962111359, -5.077691555023193, 1.2301667928695679, 8.326513290405273, -2.3013522624969482, -1.3081812858581543, -2.302351236343384, 0.04541015625, -0.11962890625, -0.846435546875
282, 962128026, -5.078228950500488, 1.228095531463623, 8.3208589553833, -2.285139322280884, -1.1840238571166992, -2.3468401432037354, 0.0439453125, -0.12109375, -0.845947265625
283, 962144693, -5.08553409576416, 1.2227267026901245, 8.33677864074707, -2.2833590507507324, -1.2766393423080444, -2.267876386642456, 0.04296875, -0.11962890625, -0.84619140625
284, 962161360, -5.086573600769043, 1.2403379678726196, 8.306557655334473, -2.2675564289093018, -1.3862618207931519, -2.2660837173461914, 0.04443359375, -0.1201171875, -0.846435546875
285, 962178027, -5.080613136291504, 1.244805097579956, 8.333304405212402, -2.3456497192382812, -1.420493245124817, -2.275214672088623, 0.0419921875, -0.11865234375, -0.84619140625
286, 962194694, -5.091475486755371, 1.2384285926818848, 8.319522857666016, -2.2749710083007812, -1.3395440578460693, -2.282334804534912, 0.04248046875, -0.12109375, -0.84619140625
287, 962211361, -5.06416654586792, 1.2562862634658813, 8.315555572509766, -2.226639986038208, -1.358267068862915, -2.279184341430664, 0.0439453125, -0.12109375, -0.846435546875
288, 962228028, -5.0749897956848145, 1.2510589361190796, 8.319828987121582, -2.289954662322998, -1.296937346458435, -2.3340723514556885, 0.0439453125, -0.12109375, -0.845947265625
289, 962244695, -5.076676845550537, 1.248555302619934, 8.334644317626953, -2.272998809814453, -1.2472360134124756, -2.27937650680542, 0.0419921875, -0.1201171875, -0.844970703125
290, 962261362, -5.077918529510498, 1.239951729774475, 8.3141508102417, -2.189758062362671, -1.222904086112976, -2.23077654838562, 0.0419921875, -0.123046875, -0.846435546875
291, 962278029, -5.07359504699707, 1.247031331062317, 8.313577651977539, -2.183687686920166, -1.2022857666015625, -2.221184492111206, 0.04296875, -0.1201171875, -0.84716796875
292, 962294696, -5.093170166015625, 1.2474409341812134, 8.324150085449219, -2.325248956680298, -1.3389294147491455, -2.225602865219116, 0.04345703125, -0.11962890625, -0.844970703125
293, 962311363, -5.088711261749268, 1.2550398111343384, 8.32031536102295, -2.5527029037475586, -1.538081407546997, -2.4373433589935303, 0.04248046875, -0.12255859375, -0.844970703125
294, 962328030, -5.076609134674072, 1.2532711029052734, 8.316132545471191, -2.4882612228393555, -1.4467461109161377, -2.364961862564087, 0.04296875, -0.1201171875, -0.843994140625
295, 962344697, -5.0822367668151855, 1.2500343322753906, 8.33453369140625, -2.4334113597869873, -1.394816517829895, -2.295410394668579, 0.04248046875, -0.12158203125, -0.845458984375
296, 962361364, -5.069385528564453, 1.2432036399841309, 8.3202486038208, -2.473508358001709, -1.390231728553772, -2.308626413345337, 0.04248046875, -0.11962890625, -0.845703125
297, 962378031, -5.092336177825928, 1.2578856945037842, 8.301857948303223, -2.7256014347076416, -1.7641006708145142, -2.4556562900543213, 0.044921875, -0.12109375, -0.84814453125
298, 962394698, -5.091585636138916, 1.2605537176132202, 8.314844131469727, -2.8152072429656982, -1.9133455753326416, -2.511657953262329, 0.04296875, -0.12060546875, -0.8466796875
299, 962411365, -5.074117660522461, 1.2290807962417603, 8.310381889343262, -2.786546230316162, -1.8914849758148193, -2.4471139907836914, 0.0439453125, -0.12158203125, -0.846435546875
300, 962428032, -5.0674262046813965, 1.2445729970932007, 8.328699111938477, -2.6586432456970215, -1.749558925628662, -2.392604112625122, 0.04296875, -0.12060546875, -0.845458984375
301, 962444699, -5.085423469543457, 1.257190465927124, 8.32521915435791, -2.6761560440063477, -1.7959882020950317, -2.349747657775879, 0.0419921875, -0.11962890625, -0.84521484375
302, 962461366, -5.079837322235107, 1.234377145767212, 8.324628829956055, -2.6472010612487793, -1.8574460744857788, -2.243455171585083, 0.04345703125, -0.1201171875, -0.845458984375
303, 962478033, -5.0763936042785645, 1.2383655309677124, 8.300128936767578, -2.2678635120391846, -1.7932218313217163, -2.098435640335083, 0.04345703125, -0.11962890625, -0.8466796875
304, 962494700, -5.065468788146973, 1.2122644186019897, 8.322011947631836, -1.895992636680603, -1.4385114908218384, -1.7983828783035278, 0.0439453125, -0.11865234375, -0.845458984375
305, 962511367, -5.059440612792969, 1.2834391593933105, 8.325705528259277, -1.8002910614013672, -1.3726997375488281, -1.7677884101867676, 0.0439453125, -0.12109375, -0.845947265625
306, 962528034, -5.056023597717285, 1.256189227104187, 8.328765869140625, -1.896056890487671, -1.5835306644439697, -2.007113456726074, 0.04296875, -0.12158203125, -0.844482421875
307, 962544701, -5.070819854736328, 1.2323068380355835, 8.340917587280273, -1.9063918590545654, -1.7091352939605713, -1.9966250658035278, 0.0439453125, -0.11962890625, -0.84716796875
308, 962561368, -5.0542988777160645, 1.2725473642349243, 8.323809623718262, -1.9547995328903198, -1.6763765811920166, -1.8742733001708984, 0.04443359375, -0.123046875, -0.847900390625
309, 962578035, -5.0615386962890625, 1.2802999019622803, 8.32094955444336, -2.434948444366455, -2.0000321865081787, -2.1573195457458496, 0.0439453125, -0.12158203125, -0.846435546875
310, 962594702, -5.050208568572998, 1.1956382989883423, 8.35137939453125, -3.548358917236328, -2.8089966773986816, -2.5773937702178955, 0.046875, -0.123291015625, -0.849853515625
311, 962611369, -5.000721454620361, 1.0473792552947998, 8.34556770324707, -4.053555488586426, -3.3509607315063477, -2.499645948410034, 0.04150390625, -0.12109375, -0.844970703125
312, 962628036, -5.008772850036621, 1.1643924713134766, 8.286940574645996, -3.0378453731536865, -2.744976758956909, -1.527054786682129, 0.041015625, -0.119140625, -0.84619140625
313, 962644703, -5.111420154571533, 1.314344048500061, 8.317691802978516, -1.8289515972137451, -2.2053558826446533, -0.8621874451637268, 0.04248046875, -0.12158203125, -0.84912109375
314, 962661370, -5.068904876708984, 1.3278629779815674, 8.311904907226562, -1.0830458402633667, -1.794348955154419, -0.7901262044906616, 0.040283203125, -0.1201171875, -0.84521484375
315, 962678037, -5.020391464233398, 1.3741207122802734, 8.349247932434082, -0.4859369695186615, -1.7715152502059937, -1.1107075214385986, 0.04150390625, -0.11962890625, -0.84619140625
316, 962694704, -5.105525970458984, 1.4939770698547363, 8.334063529968262, -2.1172993183135986, -3.663217782974243, -2.456859588623047, 0.04150390625, -0.12158203125, -0.84912109375
317, 962711371, -5.051736354827881, 1.3198455572128296, 8.335745811462402, -4.1160383224487305, -5.418239116668701, -3.6953113079071045, 0.038818359375, -0.12109375, -0.84765625
318, 962728038, -5.038177490234375, 1.2627403736114502, 8.382259368896484, -5.174969673156738, -5.775126934051514, -4.2546539306640625, 0.039794921875, -0.1220703125, -0.84619140625
319, 962744705, -5.045196533203125, 1.3419501781463623, 8.387248039245605, -6.617120742797852, -6.60422420501709, -4.973501205444336, 0.037841796875, -0.1201171875, -0.849365234375
320, 962761372, -5.044305324554443, 1.311160683631897, 8.383106231689453, -7.732120037078857, -7.401191234588623, -5.846269130706787, 0.033447265625, -0.11962890625, -0.846435546875
321, 962778039, -4.982728004455566, 1.1960699558258057, 8.422961235046387, -8.522296905517578, -8.198437690734863, -6.228320121765137, 0.034423828125, -0.1181640625, -0.848876953125
322, 962794706, -4.94360876083374, 1.189581036567688, 8.367228507995605, -7.7777099609375, -7.555123329162598, -5.905548572540283, 0.035400390625, -0.1171875, -0.847900390625
323, 962811373, -4.937839031219482, 1.0983062982559204, 8.38790512084961, -6.055356979370117, -6.413447856903076, -5.393742084503174, 0.032470703125, -0.115478515625, -0.846923828125
324, 962828040, -4.905791282653809, 1.0846232175827026, 8.381087303161621, -5.1809000968933105, -4.334963798522949, -4.7077436447143555, 0.03076171875, -0.114013671875, -0.84716796875
325, 962844707, -4.9269304275512695, 1.0910935401916504, 8.388812065124512, -4.027123928070068, -2.4901950359344482, -4.079258441925049, 0.03076171875, -0.114501953125, -0.84765625
326, 962861374, -4.953457355499268, 1.1979107856750488, 8.417522430419922, -3.580347776412964, -1.5704809427261353, -3.834707736968994, 0.02978515625, -0.114013671875, -0.85009765625
327, 962878041, -4.978816509246826, 1.2311292886734009, 8.440309524536133, -4.609864234924316, -2.651580810546875, -4.5062479972839355, 0.0302734375, -0.114013671875, -0.8505859375
328, 962894708, -4.9371867179870605, 1.1881171464920044, 8.44387149810791, -5.725489616394043, -4.113208293914795, -5.475010395050049, 0.03076171875, -0.114990234375, -0.84765625
329, 962911375, -4.924782752990723, 1.0920050144195557, 8.394411087036133, -5.726936340332031, -4.38134765625, -5.692333698272705, 0.029296875, -0.111572265625, -0.84912109375
330, 962928042, -4.890094757080078, 1.1138814687728882, 8.394355773925781, -4.694296360015869, -3.1992571353912354, -5.35337495803833, 0.029296875, -0.109130859375, -0.84912109375
331, 962944709, -4.90512752532959, 1.091352105140686, 8.395535469055176, -4.057397842407227, -2.4321184158325195, -5.179529190063477, 0.029296875, -0.109619140625, -0.84765625
332, 962961376, -4.928196430206299, 1.078208565711975, 8.409509658813477, -3.830700635910034, -2.3368008136749268, -5.175405502319336, 0.0283203125, -0.109619140625, -0.850830078125
333, 962978043, -4.893813133239746, 1.0595712661743164, 8.424863815307617, -3.0729990005493164, -1.3476380109786987, -4.935311317443848, 0.0283203125, -0.111083984375, -0.850830078125
334, 962994710, -4.877814769744873, 1.0590869188308716, 8.425875663757324, -1.9541209936141968, 0.31170016527175903, -4.6309943199157715, 0.02978515625, -0.111083984375, -0.84765625
335, 963011377, -4.841693878173828, 1.0069036483764648, 8.405500411987305, -0.26413100957870483, 3.0125339031219482, -4.128665447235107, 0.02978515625, -0.111572265625, -0.84716796875
336, 963028044, -4.862370014190674, 0.981162428855896, 8.359896659851074, 1.846387505531311, 6.258584976196289, -3.2018566131591797, 0.03076171875, -0.111083984375, -0.8466796875
337, 963044711, -4.9385504722595215, 1.0364048480987549, 8.355579376220703, 3.670192003250122, 8.409222602844238, -2.1360230445861816, 0.034423828125, -0.111572265625, -0.848388671875
338, 963061378, -4.947716236114502, 1.1704261302947998, 8.360113143920898, 5.126812934875488, 10.282472610473633, -1.670076847076416, 0.037841796875, -0.114013671875, -0.847412109375
339, 963078045, -5.015623092651367, 1.2358559370040894, 8.372599601745605, 6.061614513397217, 12.630661010742188, -2.143425941467285, 0.03955078125, -0.11669921875, -0.848876953125
340, 963094712, -4.98560905456543, 1.227174997329712, 8.386006355285645, 5.836249351501465, 15.18190860748291, -2.725193738937378, 0.0439453125, -0.1181640625, -0.84765625
341, 963111379, -4.938579082489014, 1.321357011795044, 8.390966415405273, 3.308044672012329, 19.520381927490234, -3.8801629543304443, 0.0478515625, -0.11962890625, -0.845947265625
342, 963128046, -4.975011825561523, 1.2165166139602661, 8.32288646697998, 3.395643472671509, 25.177324295043945, -5.144911766052246, 0.054443359375, -0.124267578125, -0.84423828125
343, 963144713, -4.8352131843566895, 0.9392651915550232, 8.254590034484863, 7.866328239440918, 34.325897216796875, -5.118041515350342, 0.0625, -0.124755859375, -0.84375
344, 963161380, -5.117295742034912, 1.0179520845413208, 8.251137733459473, 12.029130935668945, 45.596309661865234, -3.2139835357666016, 0.073486328125, -0.12890625, -0.844970703125
345, 963178047, -5.208435535430908, 1.1627644300460815, 8.314339637756348, 15.118480682373047, 56.6215705871582, -0.7766504883766174, 0.088134765625, -0.130859375, -0.842529296875
346, 963194714, -5.32722806930542, 1.326636791229248, 8.383319854736328, 17.35932731628418, 67.89386749267578, -1.5470082759857178, 0.103271484375, -0.135009765625, -0.83837890625
347, 963211381, -5.324504852294922, 1.4911096096038818, 8.388444900512695, 16.065431594848633, 82.0112533569336, -5.583783149719238, 0.121337890625, -0.1396484375, -0.830322265625
348, 963228048, -5.680178165435791, 1.3894133567810059, 7.993596076965332, 16.693099975585938, 96.49808502197266, -9.197678565979004, 0.144775390625, -0.144287109375, -0.830322265625
349, 963244715, -5.745887279510498, 1.4031989574432373, 7.849977016448975, 16.3862361907959, 111.97561645507812, -13.024781227111816, 0.173095703125, -0.14794921875, -0.822998046875
350, 963261382, -5.893315315246582, 1.3931233882904053, 7.735317230224609, 15.200610160827637, 131.0521697998047, -16.304523468017578, 0.20068359375, -0.149169921875, -0.8154296875
351, 963278049, -6.045803546905518, 1.4450695514678955, 7.658661842346191, 12.263233184814453, 155.72515869140625, -19.623140335083008, 0.23974609375, -0.1513671875, -0.802001953125
352, 963294716, -6.350701808929443, 1.5948398113250732, 7.361956596374512, 7.891358852386475, 184.06504821777344, -26.24846076965332, 0.2783203125, -0.152099609375, -0.7861328125
353, 963311383, -6.56989049911499, 1.5728310346603394, 7.2926249504089355, 0.6941051483154297, 221.36924743652344, -33.76802062988281, 0.328857421875, -0.150634765625, -0.765380859375
354, 963328050, -6.828204154968262, 1.7450673580169678, 7.4708757400512695, -7.201578140258789, 271.36334228515625, -40.40557098388672, 0.38671875, -0.1435546875, -0.736083984375
355, 963344717, -7.142587661743164, 1.915196418762207, 7.472814559936523, -15.073159217834473, 338.6982421875, -45.98344039916992, 0.4541015625, -0.134521484375, -0.695556640625
356, 963361384, -9.488969802856445, 2.125861406326294, 8.287765502929688, -10.35895824432373, 405.80377197265625, -51.576751708984375, 0.52978515625, -0.125244140625, -0.63671875
357, 963378051, -14.83664321899414, 1.0532299280166626, 9.999337196350098, 9.57453727722168, 419.6240539550781, -58.568572998046875, 0.60791015625, -0.117919921875, -0.55908203125
358, 963394718, -16.553443908691406, 2.0543699264526367, 9.772201538085938, 28.55208396911621, 405.718017578125, -55.499061584472656, 0.66943359375, -0.109619140625, -0.47607421875
359, 963411385, -15.110600471496582, 3.2923929691314697, 9.16125202178955, 15.443947792053223, 408.5242614746094, -75.45940399169922, 0.72216796875, -0.098388671875, -0.383544921875
360, 963428052, -12.23663330078125, 3.557347536087036, 9.678261756896973, 9.351899147033691, 403.55560302734375, -90.17948913574219, 0.759765625, -0.0810546875, -0.28662109375
361, 963444719, -7.788900852203369, 2.5103724002838135, 9.463310241699219, 34.07656478881836, 385.5374755859375, -77.28414916992188, 0.785400390625, -0.06298828125, -0.18408203125
362, 963461386, -9.270746231079102, 0.678361713886261, 15.088216781616211, 99.47099304199219, 276.12164306640625, -29.01667594909668, 0.79736328125, -0.05712890625, -0.101318359375
363, 963478053, -29.27781105041504, 8.963398933410645, 25.274646759033203, 132.19473266601562, 110.940185546875, -5.6269073486328125, 0.7939453125, -0.05712890625, -0.04443359375
364, 963494720, -12.330199241638184, 9.170378684997559, 22.576744079589844, 68.26348876953125, -156.21826171875, 17.972314834594727, 0.791015625, -0.062744140625, -0.053955078125
365, 963511387, -4.377774715423584, 3.9963884353637695, 11.050930976867676, -16.642822265625, -238.4092559814453, -6.486044406890869, 0.790771484375, -0.0634765625, -0.0859375
366, 963528054, -3.3358840942382812, 1.8461072444915771, 7.928834915161133, -65.78080749511719, -252.630126953125, -30.839704513549805, 0.790771484375, -0.0556640625, -0.135498046875
367, 963544721, -4.8813700675964355, 1.4265313148498535, 8.062016487121582, -88.19245910644531, -277.15863037109375, -56.984310150146484, 0.79345703125, -0.04150390625, -0.193115234375
368, 963561388, -6.465910911560059, 0.4247942566871643, 8.508086204528809, -73.04206085205078, -321.8487243652344, -70.76349639892578, 0.783935546875, -0.019775390625, -0.26416015625
369, 963578055, -7.0167155265808105, 0.3943260610103607, 7.551262378692627, -23.413232803344727, -365.33367919921875, -57.31029510498047, 0.768310546875, -7.32421875E-4, -0.349365234375
370, 963594722, -7.044783115386963, 2.1603941917419434, 5.859475612640381, 20.156593322753906, -389.2070617675781, -35.395687103271484, 0.736083984375, 0.00390625, -0.44775390625
371, 963611389, -7.225666522979736, 4.037025451660156, 5.395518779754639, 34.11611557006836, -392.35772705078125, -12.99038028717041, 0.6787109375, -0.001220703125, -0.547119140625
372, 963628056, -7.635066032409668, 4.955226421356201, 6.103982925415039, 24.394987106323242, -389.6941223144531, 17.60857582092285, 0.596923828125, -0.004150390625, -0.633056640625
373, 963644723, -8.579205513000488, 4.36334753036499, 6.442495346069336, 15.755290031433105, -388.296142578125, 44.018184661865234, 0.511474609375, -0.005615234375, -0.69677734375
374, 963661390, -9.190960884094238, 2.7390851974487305, 6.4444122314453125, 26.72834014892578, -377.45843505859375, 59.785377502441406, 0.4296875, -0.00927734375, -0.74462890625
375, 963678057, -10.952404975891113, 1.9231561422348022, 6.459598541259766, 45.850643157958984, -341.0462341308594, 61.291481018066406, 0.34814453125, -0.01806640625, -0.781005859375
376, 963694724, -12.49063777923584, 2.287658929824829, 7.679741859436035, 55.75812530517578, -282.2507629394531, 58.91288757324219, 0.27587890625, -0.0341796875, -0.7900390625
377, 963711391, -17.871234893798828, 1.7325388193130493, 13.354247093200684, 77.52666473388672, -261.5626220703125, 78.76325988769531, 0.2255859375, -0.05078125, -0.783935546875
378, 963728058, -18.680950164794922, 1.7288274765014648, 11.905308723449707, 95.05064392089844, -270.0450134277344, 101.15621948242188, 0.182861328125, -0.0771484375, -0.77880859375
379, 963744725, -18.240747451782227, 1.1759735345840454, 10.710000991821289, 87.77477264404297, -257.1756286621094, 102.59197998046875, 0.159423828125, -0.1005859375, -0.790771484375
380, 963761392, -18.443336486816406, 0.3480088710784912, 9.797776222229004, 88.55620574951172, -249.3268585205078, 111.46875762939453, 0.1318359375, -0.129150390625, -0.828125
381, 963778059, -18.575178146362305, -1.6261982917785645, 8.039142608642578, 81.80528259277344, -235.8544921875, 107.23719787597656, 0.0791015625, -0.163818359375, -0.87255859375
382, 963794726, -18.6742000579834, -4.104789733886719, 6.235012054443359, 75.19282531738281, -224.9853973388672, 88.99999237060547, 0.004638671875, -0.2021484375, -0.90576171875
383, 963811393, -16.515031814575195, -4.753208637237549, 2.226027727127075, 67.89635467529297, -198.90748596191406, 64.38058471679688, -0.07568359375, -0.236083984375, -0.914794921875
384, 963828060, -16.29520606994629, -4.413513660430908, -1.0839488506317139, 61.1823616027832, -152.3526611328125, 41.453460693359375, -0.146484375, -0.2646484375, -0.909423828125
385, 963844727, -16.421327590942383, -4.072780609130859, -3.663543701171875, 56.814632415771484, -100.07218170166016, 31.02385711669922, -0.19482421875, -0.289794921875, -0.896484375
386, 963861394, -16.049381256103516, -3.2155861854553223, -5.194248676300049, 31.617246627807617, -43.896446228027344, 32.98749542236328, -0.22705078125, -0.30224609375, -0.88818359375
387, 963878061, -16.373289108276367, -3.041996479034424, -4.787246227264404, -14.110968589782715, 11.318634033203125, 41.33750915527344, -0.242431640625, -0.3046875, -0.886962890625
388, 963894728, -17.7309627532959, -3.5393004417419434, -2.5161328315734863, -53.4780387878418, 50.1280632019043, 46.36039733886719, -0.24365234375, -0.29296875, -0.893310546875
389, 963911395, -10.762201309204102, -5.365541458129883, 4.40374231338501, -82.37435150146484, 59.573463439941406, 25.312759399414062, -0.23486328125, -0.276611328125, -0.906494140625
390, 963928062, 3.30046010017395, -3.1477606296539307, 14.731295585632324, -56.38869857788086, 61.394657135009766, -33.003631591796875, -0.229736328125, -0.2626953125, -0.921630859375
391, 963944729, 1.7318257093429565, 12.59559440612793, 11.305602073669434, 14.294286727905273, 160.98667907714844, -53.64333724975586, -0.197509765625, -0.27294921875, -0.93359375
392, 963961396, -6.224033832550049, -0.058251552283763885, 6.800504207611084, 8.983038902282715, 217.845703125, -59.77024841308594, -0.146484375, -0.280517578125, -0.946044921875
393, 963978063, -12.863021850585938, -4.499942302703857, 16.920068740844727, 17.36040687561035, 192.53492736816406, -29.714597702026367, -0.095458984375, -0.29296875, -0.954833984375
394, 963994730, -7.171710968017578, 2.634751081466675, 10.529542922973633, 36.484474182128906, 158.99539184570312, -14.526863098144531, -0.05615234375, -0.304931640625, -0.960693359375
395, 964011397, -6.603264331817627, 4.731095790863037, 9.529985427856445, 44.737037658691406, 148.84951782226562, -3.452629804611206, -0.02099609375, -0.3212890625, -0.9638671875
396, 964028064, -5.69266414642334, 4.043272495269775, 8.586779594421387, 34.652313232421875, 134.89474487304688, -11.227663040161133, 0.01220703125, -0.33544921875, -0.96240234375
397, 964044731, -10.865171432495117, 8.921717643737793, 11.301772117614746, -13.25680160522461, 113.26062774658203, -35.63268280029297, 0.04296875, -0.338134765625, -0.965087890625
398, 964061398, -8.149374008178711, 0.0032704249024391174, 10.411432266235352, -45.53978729248047, 68.80575561523438, -40.44313049316406, 0.067138671875, -0.327880859375, -0.969482421875
399, 964078065, -5.888050556182861, 2.028712034225464, 9.085599899291992, -50.63740539550781, 35.71968460083008, -29.556058883666992, 0.0810546875, -0.31640625, -0.9716796875
400, 964094732, -5.949194431304932, 1.1078929901123047, 9.441337585449219, -51.95343780517578, 21.97296905517578, -29.086849212646484, 0.089599609375, -0.302490234375, -0.977294921875
401, 964111399, -5.405317783355713, 1.1965837478637695, 9.018479347229004, -50.420040130615234, 4.263340950012207, -26.94915008544922, 0.09326171875, -0.28955078125, -0.98046875
402, 964128066, -5.587218284606934, 2.0055668354034424, 8.483244895935059, -55.89415740966797, -11.985541343688965, -31.819446563720703, 0.0908203125, -0.27294921875, -0.9853515625
403, 964144733, -5.432044506072998, 2.6964807510375977, 7.796324253082275, -55.010284423828125, -13.340458869934082, -32.583187103271484, 0.087646484375, -0.25537109375, -0.99072265625
404, 964161400, -5.393610954284668, 0.17873242497444153, 9.017370223999023, -29.471050262451172, -4.6791534423828125, -18.764406204223633, 0.087158203125, -0.246337890625, -0.991455078125
405, 964178067, -5.068913459777832, 0.9867815971374512, 8.669783592224121, -14.911216735839844, 3.686343193054199, -8.320344924926758, 0.089111328125, -0.242431640625, -0.993896484375
406, 964194734, -4.7528204917907715, 1.4305036067962646, 8.333367347717285, -8.614373207092285, 5.920525074005127, -4.115936279296875, 0.090576171875, -0.243408203125, -0.994873046875
407, 964211401, -5.01302433013916, 1.5831942558288574, 8.415473937988281, -8.27149486541748, 4.634562015533447, -4.150552272796631, 0.091064453125, -0.2392578125, -0.994873046875
408, 964228068, -5.218944549560547, 1.8463220596313477, 8.27938461303711, -12.952250480651855, -0.7358278632164001, -8.335723876953125, 0.09375, -0.23779296875, -0.996826171875
409, 964244735, -5.314779758453369, 1.48992919921875, 8.271401405334473, -14.56563949584961, -5.23561429977417, -11.617372512817383, 0.09130859375, -0.23291015625, -0.99658203125
410, 964261402, -5.118157386779785, 1.1223684549331665, 8.39464282989502, -10.214314460754395, -4.561804294586182, -9.17501449584961, 0.090576171875, -0.23193359375, -0.99609375
411, 964278069, -5.011866092681885, 1.0940486192703247, 8.412205696105957, -6.399680137634277, -1.8568315505981445, -6.237462520599365, 0.089599609375, -0.229248046875, -0.99755859375
412, 964294736, -5.02036190032959, 1.3200857639312744, 8.384862899780273, -3.753951072692871, 0.9100257158279419, -4.163331985473633, 0.091552734375, -0.228759765625, -0.99609375
413, 964311403, -5.05690860748291, 1.5831738710403442, 8.365413665771484, -4.484310150146484, 0.6858632564544678, -5.521432399749756, 0.092041015625, -0.227783203125, -0.99609375
414, 964328070, -5.23806619644165, 1.379481315612793, 8.34123420715332, -7.919617176055908, -0.7822378277778625, -8.489114761352539, 0.09130859375, -0.225830078125, -0.9990234375
415, 964344737, -5.24216890335083, 1.491459846496582, 8.283161163330078, -10.266511917114258, -1.825559377670288, -10.272685050964355, 0.090087890625, -0.224365234375, -0.99755859375
416, 964361404, -5.090620040893555, 1.2501862049102783, 8.304117202758789, -8.999412536621094, -0.7923421859741211, -10.564886093139648, 0.090576171875, -0.220703125, -0.997802734375
417, 964378071, -5.013374328613281, 1.1583683490753174, 8.296942710876465, -4.953677177429199, 3.1518166065216064, -9.182079315185547, 0.091552734375, -0.220947265625, -0.999755859375
418, 964394738, -4.938204765319824, 1.256123423576355, 8.37201976776123, -2.594081401824951, 8.179804801940918, -8.996453285217285, 0.0947265625, -0.2197265625, -0.9970703125
419, 964411405, -4.967655181884766, 1.412900686264038, 8.39577865600586, -4.927864074707031, 14.988819122314453, -10.796085357666016, 0.09912109375, -0.221435546875, -0.996826171875
420, 964428072, -5.073109149932861, 1.22859787940979, 8.32925033569336, -2.6979451179504395, 22.272077560424805, -10.899353981018066, 0.105712890625, -0.218994140625, -0.997802734375
421, 964444739, -4.989004135131836, 0.8228769898414612, 8.34203815460205, -0.5687963366508484, 32.834285736083984, -9.770785331726074, 0.11376953125, -0.220458984375, -0.994384765625
422, 964461406, -4.857707977294922, 1.0889941453933716, 8.435949325561523, 7.624391078948975, 50.56907653808594, -9.817095756530762, 0.125732421875, -0.220947265625, -0.99267578125
423, 964478073, -5.0605998039245605, 1.0089716911315918, 8.488724708557129, 11.148781776428223, 69.21147918701172, -9.895295143127441, 0.146484375, -0.22509765625, -0.98974609375
424, 964494740, -5.132856369018555, 1.0094770193099976, 8.38443374633789, 14.739067077636719, 88.97853088378906, -9.62537670135498, 0.1669921875, -0.228759765625, -0.985107421875
425, 964511407, -5.433586120605469, 0.98287433385849, 8.180951118469238, 20.90634536743164, 109.4949722290039, -8.435863494873047, 0.198974609375, -0.23193359375, -0.97802734375
426, 964528074, -5.433122634887695, 0.8761085867881775, 8.009135246276855, 27.2880916595459, 132.28994750976562, -6.741133213043213, 0.229736328125, -0.24169921875, -0.9658203125
427, 964544741, -5.541752338409424, 0.9544659852981567, 7.928009510040283, 30.383352279663086, 158.0753173828125, -6.099594593048096, 0.272216796875, -0.248291015625, -0.951171875
428, 964561408, -5.647698879241943, 1.1693394184112549, 7.953750133514404, 25.664493560791016, 191.3966827392578, -8.849520683288574, 0.3193359375, -0.254638671875, -0.93505859375
429, 964578075, -5.990603446960449, 1.7592480182647705, 7.801721096038818, 12.696702003479004, 235.4552764892578, -18.57402229309082, 0.37646484375, -0.255859375, -0.909423828125
430, 964594742, -6.722617149353027, 1.836877465248108, 7.252593994140625, -2.6656882762908936, 290.471435546875, -31.39305877685547, 0.44580078125, -0.250732421875, -0.873046875
431, 964611409, -7.063121795654297, 2.8291726112365723, 7.464667797088623, -21.30636978149414, 367.5178527832031, -50.44203186035156, 0.52685546875, -0.23681640625, -0.82470703125
432, 964628076, -8.817435264587402, 3.346062660217285, 9.26034164428711, -27.52407455444336, 450.6548767089844, -76.17162322998047, 0.623046875, -0.215576171875, -0.747802734375
433, 964644743, -15.023103713989258, 2.368504762649536, 10.726357460021973, -9.397928237915039, 485.24920654296875, -99.93126678466797, 0.71923828125, -0.1865234375, -0.650146484375
434, 964661410, -18.429481506347656, 1.5926733016967773, 10.686485290527344, 15.843001365661621, 465.2823181152344, -97.3505859375, 0.7958984375, -0.15869140625, -0.531982421875
435, 964678077, -17.279544830322266, 3.719914197921753, 10.626724243164062, 3.3567323684692383, 457.94049072265625, -106.38910675048828, 0.851806640625, -0.12646484375, -0.40380859375
436, 964694744, -14.035691261291504, 3.550645351409912, 12.76656723022461, -7.547896862030029, 431.9395446777344, -112.46442413330078, 0.887939453125, -0.087890625, -0.2744140625
437, 964711411, -9.749482154846191, 2.4566025733947754, 15.252442359924316, 15.845634460449219, 356.9171447753906, -76.06755828857422, 0.901123046875, -0.05615234375, -0.154296875
438, 964728078, -21.297191619873047, 2.104749917984009, 21.921079635620117, 36.77268981933594, 178.9520263671875, -59.348243713378906, 0.901611328125, -0.037109375, -0.078857421875
439, 964744745, -20.342832565307617, 4.607537746429443, 29.162546157836914, 59.13042449951172, -94.38581085205078, -53.38607406616211, 0.898681640625, -0.014892578125, -0.072021484375
440, 964761412, -3.8648321628570557, 3.8094160556793213, 13.075812339782715, 31.933990478515625, -228.08963012695312, -58.796661376953125, 0.904541015625, 2.44140625E-4, -0.12060546875
441, 964778079, -0.6943995356559753, 2.541301965713501, 6.307122707366943, 15.654977798461914, -230.60366821289062, -58.81568145751953, 0.90869140625, 0.009765625, -0.1884765625
442, 964794746, -1.3547728061676025, 3.574296712875366, 5.580893516540527, -7.518781661987305, -217.97813415527344, -49.55838394165039, 0.901123046875, 0.013916015625, -0.26904296875
443, 964811413, -3.8378820419311523, 4.634377956390381, 8.033256530761719, -35.96714401245117, -234.27786254882812, -44.467384338378906, 0.86865234375, 0.01806640625, -0.35009765625
444, 964828080, -7.104236602783203, 4.253829479217529, 9.812996864318848, -52.20801544189453, -286.1701965332031, -22.981473922729492, 0.814208984375, 0.02197265625, -0.428466796875
445, 964844747, -7.723789215087891, 3.4331932067871094, 9.087240219116211, -37.52640914916992, -346.52911376953125, 14.75093936920166, 0.74462890625, 0.01953125, -0.49951171875
446, 964861414, -8.073054313659668, 3.254153251647949, 7.44281005859375, -15.862606048583984, -385.5408630371094, 50.981178283691406, 0.666015625, 0.009765625, -0.56591796875
447, 964878081, -8.932645797729492, 3.1521356105804443, 6.8446478843688965, -2.132862091064453, -401.8435974121094, 76.3378677368164, 0.582763671875, -0.002685546875, -0.625
448, 964894748, -9.579085350036621, 2.3522777557373047, 7.197436332702637, 13.652703285217285, -412.8675231933594, 94.88353729248047, 0.4951171875, -0.021240234375, -0.668701171875
449, 964911415, -9.422776222229004, 1.2137107849121094, 7.105361461639404, 29.24395751953125, -429.28656005859375, 94.8849105834961, 0.41015625, -0.03857421875, -0.700927734375
450, 964928082, -9.259554862976074, -1.1548634767532349, 3.500659704208374, 61.01520919799805, -390.5927429199219, 76.82528686523438, 0.32958984375, -0.06005859375, -0.72802734375
451, 964944749, -14.118806838989258, -0.7792000770568848, 6.087392807006836, 95.12751007080078, -310.6790466308594, 62.5598258972168, 0.269775390625, -0.08642578125, -0.73583984375
452, 964961416, -15.38835620880127, 1.73615300655365, 8.90811538696289, 108.64547729492188, -266.0984191894531, 54.041080474853516, 0.227783203125, -0.1181640625, -0.74169921875
453, 964978083, -18.427913665771484, 1.841202974319458, 9.56693172454834, 95.8501205444336, -245.30709838867188, 45.499839782714844, 0.19384765625, -0.149169921875, -0.75341796875
454, 964994750, -19.204044342041016, 0.40310996770858765, 7.205135345458984, 119.03205871582031, -224.43251037597656, 63.68400955200195, 0.156005859375, -0.1826171875, -0.77197265625
455, 965011417, -22.100955963134766, 1.3865840435028076, 8.498455047607422, 117.91300964355469, -209.2696990966797, 74.48654174804688, 0.1005859375, -0.220458984375, -0.787109375
456, 965028084, -21.490169525146484, -0.2653101682662964, 5.761484622955322, 80.18901824951172, -219.03440856933594, 73.55630493164062, 0.034912109375, -0.251220703125, -0.796875
457, 965044751, -19.586933135986328, -3.9075348377227783, 0.8642607927322388, 66.8817138671875, -198.35223388671875, 71.83988189697266, -0.033447265625, -0.27392578125, -0.79345703125
458, 965061418, -20.68076515197754, -3.22684383392334, -0.3145405650138855, 50.677391052246094, -163.35877990722656, 65.78482055664062, -0.092529296875, -0.290283203125, -0.7763671875
459, 965078085, -20.624114990234375, -2.5412468910217285, -2.9228882789611816, 3.3263156414031982, -133.35806274414062, 54.84038543701172, -0.138916015625, -0.2958984375, -0.763671875
460, 965094752, -19.71137809753418, -4.064449310302734, -6.201830863952637, -20.12015151977539, -89.35392761230469, 51.97383499145508, -0.171142578125, -0.290771484375, -0.7509765625
461, 965111419, -20.460369110107422, -5.502024173736572, -5.511120319366455, -14.54928970336914, -43.73389434814453, 52.976722717285156, -0.188720703125, -0.285888671875, -0.74365234375
462, 965128086, -21.339031219482422, -7.37011194229126, -10.407114028930664, -63.10847091674805, 34.807369232177734, 18.76607894897461, -0.196044921875, -0.27197265625, -0.741455078125
463, 965144753, 0.6445742249488831, -12.97288990020752, 5.017120361328125, -33.55988693237305, 106.63947296142578, -35.28017044067383, -0.1767578125, -0.264404296875, -0.7470703125
464, 965161420, -5.425075531005859, 7.646530628204346, 20.578834533691406, -0.04705583676695824, 159.88580322265625, -80.36027526855469, -0.1455078125, -0.266845703125, -0.74951171875
465, 965178087, -8.609557151794434, 3.4364776611328125, 5.997342109680176, 24.687456130981445, 189.64059448242188, -32.6658935546875, -0.104248046875, -0.273681640625, -0.751708984375
466, 965194754, -12.545426368713379, -2.609548330307007, 15.444713592529297, 24.744672775268555, 150.95899963378906, -12.72141170501709, -0.071044921875, -0.2802734375, -0.752685546875
467, 965211421, -4.397233963012695, 5.269263744354248, 7.603762149810791, 39.56745529174805, 129.89443969726562, -1.7923780679702759, -0.04296875, -0.2890625, -0.748046875
468, 965228088, -9.023470878601074, 8.316407203674316, 10.577516555786133, 18.220123291015625, 127.03804779052734, -12.759356498718262, -0.018798828125, -0.2978515625, -0.745361328125
469, 965244755, -9.200675010681152, 1.4673740863800049, 10.494905471801758, -20.575958251953125, 83.28119659423828, -33.232540130615234, 0.003662109375, -0.2919921875, -0.74560546875
470, 965261422, -6.276049613952637, 1.0914896726608276, 9.721334457397461, -37.02353286743164, 49.21875, -21.24363136291504, 0.013427734375, -0.286865234375, -0.74853515625
471, 965278089, -6.030824661254883, 1.4718798398971558, 9.25097942352295, -34.22988510131836, 36.38179016113281, -15.825457572937012, 0.02490234375, -0.280029296875, -0.752685546875
472, 965294756, -5.860485076904297, 1.701434850692749, 8.882264137268066, -21.876136779785156, 14.991546630859375, -9.702848434448242, 0.02783203125, -0.2744140625, -0.752197265625
473, 965311423, -5.490520000457764, 1.9086629152297974, 8.550680160522461, -16.48760986328125, 7.277045726776123, -10.211771965026855, 0.029296875, -0.274658203125, -0.751220703125
474, 965328090, -5.488406181335449, 1.5753610134124756, 8.493551254272461, -8.068592071533203, 4.504398345947266, -6.988401412963867, 0.031494140625, -0.2724609375, -0.751708984375
475, 965344757, -5.157182216644287, 1.499237298965454, 8.403529167175293, -5.2124552726745605, 5.9226250648498535, -3.48286771774292, 0.035400390625, -0.26953125, -0.753173828125
476, 965361424, -5.311997413635254, 1.9031628370285034, 8.255270004272461, -5.284003257751465, 7.791980743408203, -1.1807584762573242, 0.033935546875, -0.26953125, -0.754150390625
477, 965378091, -5.285454750061035, 2.1164259910583496, 8.142864227294922, -4.397214889526367, 7.10336971282959, -1.8540650606155396, 0.036865234375, -0.27099609375, -0.754638671875
478, 965394758, -5.196721076965332, 2.146050453186035, 8.116360664367676, -5.789431571960449, 5.618268013000488, -4.317623138427734, 0.03955078125, -0.26904296875, -0.75244140625
479, 965411425, -5.245275020599365, 2.0863265991210938, 8.09982681274414, -8.238724708557129, 2.9558799266815186, -7.200923442840576, 0.0400390625, -0.26708984375, -0.75341796875
480, 965428092, -5.336926460266113, 1.9575308561325073, 8.096359252929688, -10.184514045715332, -0.12484920024871826, -8.839128494262695, 0.038330078125, -0.26806640625, -0.75341796875
481, 965444759, -5.336718559265137, 1.852070689201355, 8.16503620147705, -11.35274887084961, -1.6755456924438477, -9.171287536621094, 0.03955078125, -0.26416015625, -0.754150390625
482, 965461426, -5.326731204986572, 1.8251208066940308, 8.158172607421875, -10.578705787658691, -2.4572970867156982, -8.650567054748535, 0.03955078125, -0.26220703125, -0.755615234375
483, 965478093, -5.31263542175293, 1.8181836605072021, 8.194709777832031, -9.277399063110352, -2.853909730911255, -7.912932872772217, 0.04150390625, -0.260498046875, -0.755126953125
484, 965494760, -5.180650234222412, 1.8250638246536255, 8.176595687866211, -8.535346984863281, -3.0317764282226562, -7.979832172393799, 0.0419921875, -0.26171875, -0.758056640625
485, 965511427, -5.243613243103027, 1.7700326442718506, 8.183377265930176, -8.722050666809082, -3.0830020904541016, -8.807827949523926, 0.0419921875, -0.259033203125, -0.754150390625
486, 965528094, -5.2375617027282715, 1.8214689493179321, 8.146886825561523, -10.566539764404297, -2.1747758388519287, -10.493300437927246, 0.04296875, -0.257080078125, -0.755615234375
487, 965544761, -5.319611072540283, 1.7684824466705322, 8.136547088623047, -8.404544830322266, -1.3860193490982056, -10.610515594482422, 0.038330078125, -0.254150390625, -0.7568359375
488, 965561428, -5.212440013885498, 1.6620335578918457, 8.21838092803955, -3.820685863494873, 1.7771953344345093, -9.340699195861816, 0.04296875, -0.253662109375, -0.758056640625
489, 965578095, -5.1994547843933105, 1.6518213748931885, 8.243170738220215, -0.8024589419364929, 6.479471206665039, -8.584559440612793, 0.0439453125, -0.253173828125, -0.757080078125
490, 965594762, -5.067480087280273, 1.6802244186401367, 8.174205780029297, -2.148433208465576, 11.464066505432129, -9.354506492614746, 0.047607421875, -0.254638671875, -0.75634765625
491, 965611429, -4.81899356842041, 1.8252357244491577, 8.110397338867188, -8.71179485321045, 19.374082565307617, -12.302650451660156, 0.049560546875, -0.254638671875, -0.7568359375
492, 965628096, -5.249217987060547, 1.6466532945632935, 8.164755821228027, -3.5258965492248535, 29.819015502929688, -14.457258224487305, 0.05810546875, -0.252197265625, -0.756591796875
493, 965644763, -5.1939215660095215, 1.4558874368667603, 8.105025291442871, 1.8879178762435913, 40.15727615356445, -13.365548133850098, 0.070068359375, -0.251708984375, -0.75634765625
494, 965661430, -5.157074451446533, 1.6346004009246826, 8.157716751098633, 8.301589965820312, 55.36919021606445, -13.905911445617676, 0.07861328125, -0.25341796875, -0.7509765625
495, 965678097, -5.249899387359619, 1.514204502105713, 8.248274803161621, 11.552242279052734, 73.03264617919922, -13.781608581542969, 0.09375, -0.2568359375, -0.75048828125
496, 965694764, -5.409145832061768, 1.5933758020401, 8.085402488708496, 9.034271240234375, 92.54576873779297, -15.096443176269531, 0.115234375, -0.260009765625, -0.7451171875
497, 965711431, -5.7075581550598145, 1.4680529832839966, 7.828098773956299, 8.491471290588379, 113.19395446777344, -17.60409164428711, 0.139892578125, -0.26171875, -0.73974609375
498, 965728098, -5.791117191314697, 1.4181523323059082, 7.773517608642578, 11.202920913696289, 134.0043182373047, -19.566131591796875, 0.16650390625, -0.262939453125, -0.7294921875
499, 965744765, -5.936716079711914, 1.385677695274353, 7.624386310577393, 11.705257415771484, 157.08970642089844, -21.623512268066406, 0.199951171875, -0.265380859375, -0.71923828125
500, 965761432, -6.047976493835449, 1.4701329469680786, 7.658473491668701, 9.246955871582031, 187.76661682128906, -22.223886489868164, 0.239990234375, -0.26416015625, -0.707763671875
501, 965778099, -6.304080009460449, 1.899495005607605, 7.375328063964844, 2.8087143898010254, 230.1742706298828, -26.629186630249023, 0.28515625, -0.267333984375, -0.688232421875
502, 965794766, -6.911470413208008, 1.6495354175567627, 7.159911155700684, -8.648775100708008, 284.7741394042969, -30.971521377563477, 0.336669921875, -0.2626953125, -0.662353515625
503, 965811433, -7.4479498863220215, 2.2465507984161377, 7.241527080535889, -15.705342292785645, 362.15386962890625, -35.53493881225586, 0.402099609375, -0.2578125, -0.623046875
504, 965828100, -9.61034870147705, 2.9984068870544434, 9.778768539428711, -5.035739421844482, 431.8276062011719, -50.49497604370117, 0.478271484375, -0.24951171875, -0.565673828125
505, 965844767, -15.914973258972168, 1.9869710206985474, 10.011764526367188, 15.3847074508667, 447.5644226074219, -68.22065734863281, 0.552001953125, -0.242919921875, -0.494384765625
506, 965861434, -16.385766983032227, 2.3620100021362305, 9.778976440429688, 33.370513916015625, 442.3815002441406, -70.32215118408203, 0.61376953125, -0.234375, -0.41064453125
507, 965878101, -16.5665340423584, 4.62282133102417, 9.984321594238281, 14.412235260009766, 446.5560607910156, -94.43488311767578, 0.6650390625, -0.216064453125, -0.31494140625
508, 965894768, -13.54555892944336, 3.4999232292175293, 11.78071403503418, 20.483474731445312, 421.8971252441406, -98.77450561523438, 0.706298828125, -0.1962890625, -0.220458984375
509, 965911435, -9.27521800994873, 2.019355058670044, 13.250362396240234, 54.277488708496094, 359.50872802734375, -66.9594955444336, 0.725341796875, -0.177734375, -0.127685546875
510, 965928102, -21.47715187072754, 5.715200424194336, 21.055095672607422, 67.82923889160156, 201.40887451171875, -53.907405853271484, 0.724609375, -0.164306640625, -0.0625
511, 965944769, -23.04682159423828, 7.661774158477783, 29.992774963378906, 34.116050720214844, -66.74433898925781, -49.300106048583984, 0.720703125, -0.14404296875, -0.042724609375
512, 965961436, -4.632148265838623, 4.116403579711914, 14.562821388244629, -7.341130256652832, -233.4014434814453, -45.8079833984375, 0.709228515625, -0.120361328125, -0.05810546875
513, 965978103, -0.9656039476394653, 1.8991352319717407, 6.558431148529053, -24.636280059814453, -239.45941162109375, -65.55976104736328, 0.7001953125, -0.08935546875, -0.069091796875
514, 965994770, -2.1712236404418945, 2.612745523452759, 5.928701877593994, -38.26982116699219, -228.2021942138672, -82.88894653320312, 0.708984375, -0.046142578125, -0.0654296875
515, 966011437, -4.838395595550537, 3.5794477462768555, 8.36428451538086, -47.55345916748047, -253.89332580566406, -87.17857360839844, 0.74169921875, 0.0048828125, -0.0703125
516, 966028104, -7.0177388191223145, 3.9618608951568604, 9.06757640838623, -48.347801208496094, -311.9060363769531, -75.48139190673828, 0.806884765625, 0.058349609375, -0.115966796875
517, 966044771, -6.93305778503418, 4.291070461273193, 7.727169036865234, -29.633947372436523, -360.684326171875, -44.15257263183594, 0.872314453125, 0.10107421875, -0.23779296875
518, 966061438, -7.413966655731201, 5.630690574645996, 5.976771831512451, -14.24618911743164, -382.5120849609375, -1.101723074913025, 0.88525390625, 0.12060546875, -0.42333984375
519, 966078105, -7.553133964538574, 6.563904285430908, 5.6184563636779785, -14.500160217285156, -384.8005065917969, 43.19232940673828, 0.813720703125, 0.11572265625, -0.6064453125
520, 966094772, -8.780680656433105, 5.094017028808594, 6.82977294921875, -17.827619552612305, -386.0870056152344, 85.82598876953125, 0.68701171875, 0.101806640625, -0.729736328125
521, 966111439, -10.451436042785645, 3.615262508392334, 7.267004013061523, -2.7607901096343994, -392.9896240234375, 111.39723205566406, 0.553466796875, 0.09326171875, -0.799560546875
522, 966128106, -9.933405876159668, 1.7659621238708496, 5.719162940979004, 20.926729202270508, -378.3536071777344, 112.15711212158203, 0.439453125, 0.081787109375, -0.84228515625
523, 966144773, -11.875371932983398, -0.4732799828052521, 5.596571445465088, 54.56019973754883, -318.26837158203125, 98.65583801269531, 0.354248046875, 0.065185546875, -0.87646484375
524, 966161440, -16.462100982666016, -0.7241868376731873, 9.747275352478027, 94.32408905029297, -268.66448974609375, 77.46668243408203, 0.27783203125, 0.032470703125, -0.913330078125
525, 966178107, -19.581100463867188, 0.7757145166397095, 11.580767631530762, 118.65359497070312, -265.666259765625, 60.40211486816406, 0.185302734375, -0.005126953125, -0.9296875
526, 966194774, -18.757104873657227, 1.6780644655227661, 7.433775424957275, 144.9687042236328, -255.2819366455078, 66.98633575439453, 0.092041015625, -0.042236328125, -0.91748046875
527, 966211441, -21.340106964111328, 3.422006845474243, 6.552289009094238, 126.79469299316406, -226.08070373535156, 74.18932342529297, 0.024658203125, -0.081787109375, -0.90185546875
528, 966228108, -22.895790100097656, 0.4456736743450165, 6.373793125152588, 85.36677551269531, -221.48048400878906, 82.86214447021484, -0.031494140625, -0.1123046875, -0.892578125
529, 966244775, -19.930320739746094, -4.458391189575195, 1.5695276260375977, 80.65935516357422, -211.9386749267578, 90.21781921386719, -0.09326171875, -0.1416015625, -0.884765625
530, 966261442, -19.234596252441406, -5.574872970581055, -1.3730747699737549, 77.97003173828125, -164.74566650390625, 75.98323822021484, -0.143310546875, -0.1640625, -0.870849609375
531, 966278109, -21.73894500732422, -2.584118366241455, -2.025498867034912, 27.94049644470215, -132.424560546875, 56.35902786254883, -0.181396484375, -0.182373046875, -0.859619140625
532, 966294776, -19.81017303466797, -2.959988594055176, -7.365917205810547, -31.143644332885742, -98.0376205444336, 45.237342834472656, -0.21533203125, -0.177001953125, -0.84912109375
533, 966311443, -18.837854385375977, -4.818842887878418, -9.425047874450684, -29.24152946472168, -36.64680099487305, 47.241539001464844, -0.23193359375, -0.1669921875, -0.847900390625
534, 966328110, -19.55258560180664, -2.1291134357452393, -6.625211715698242, -39.431312561035156, 24.450223922729492, 51.09136962890625, -0.236328125, -0.15771484375, -0.849609375
535, 966344777, -6.201555252075195, -6.996665000915527, -3.8924899101257324, -70.60971069335938, 118.314453125, 11.290447235107422, -0.2138671875, -0.132568359375, -0.85888671875
536, 966361444, 2.3820862770080566, -1.318212866783142, 22.031402587890625, -12.918790817260742, 177.55435180664062, -48.663352966308594, -0.1826171875, -0.12060546875, -0.8662109375
537, 966378111, -13.15915584564209, -2.334594249725342, 10.523134231567383, 37.88333511352539, 190.76141357421875, -63.532501220703125, -0.13134765625, -0.128173828125, -0.873046875
538, 966394778, -9.673670768737793, 1.2415653467178345, 10.446887969970703, 2.3773815631866455, 190.75782775878906, -48.138702392578125, -0.081298828125, -0.12744140625, -0.880615234375
539, 966411445, -10.29892349243164, 4.875295162200928, 10.990314483642578, 8.926464080810547, 165.2464599609375, -23.983394622802734, -0.03955078125, -0.125244140625, -0.88037109375
540, 966428112, -11.956552505493164, 6.596978664398193, 12.73629379272461, -19.2327823638916, 143.0132293701172, -30.089927673339844, -0.0029296875, -0.12109375, -0.880859375
541, 966444779, -7.372011661529541, 0.5758731961250305, 10.7454195022583, -46.398223876953125, 64.28343200683594, -34.395111083984375, 0.02001953125, -0.107666015625, -0.88330078125
542, 966461446, -7.496586799621582, 0.20684944093227386, 10.562708854675293, -47.26791000366211, 29.13885498046875, -18.873842239379883, 0.03076171875, -0.09375, -0.884765625
543, 966478113, -6.67958927154541, 2.1144349575042725, 8.79177474975586, -28.236108779907227, 10.348240852355957, -10.704944610595703, 0.03564453125, -0.086181640625, -0.88525390625
544, 966494780, -5.4111552238464355, 1.7316724061965942, 8.46589469909668, -14.509927749633789, 2.188626289367676, -7.161061763763428, 0.0380859375, -0.081787109375, -0.8857421875
545, 966511447, -4.998297214508057, 1.7240900993347168, 8.323554039001465, -14.253518104553223, -1.1945390701293945, -8.884784698486328, 0.03857421875, -0.0791015625, -0.88525390625
546, 966528114, -5.161385536193848, 1.7601182460784912, 8.275084495544434, -13.029345512390137, -1.6082613468170166, -8.735782623291016, 0.0380859375, -0.0751953125, -0.88671875
547, 966544781, -5.364444255828857, 1.4725091457366943, 8.310490608215332, -9.458325386047363, -0.7135188579559326, -6.1271233558654785, 0.0361328125, -0.0732421875, -0.887939453125
548, 966561448, -5.345861911773682, 1.6051150560379028, 8.321125030517578, -7.798914909362793, 0.6887320876121521, -4.592229843139648, 0.03564453125, -0.070556640625, -0.886962890625
549, 966578115, -5.182352542877197, 1.5407142639160156, 8.310901641845703, -6.795165538787842, 3.253626585006714, -3.4113309383392334, 0.0380859375, -0.07080078125, -0.889404296875
550, 966594782, -5.22087287902832, 1.7824164628982544, 8.28878402709961, -2.883042812347412, 5.483468532562256, -1.802493929862976, 0.040283203125, -0.069580078125, -0.887451171875
551, 966611449, -5.363167762756348, 2.0654873847961426, 8.163209915161133, -2.773855447769165, 3.844998359680176, -3.144061803817749, 0.04052734375, -0.070556640625, -0.88623046875
552, 966628116, -5.3894476890563965, 1.806069016456604, 8.157547950744629, -4.775014877319336, -0.036971937865018845, -6.091943264007568, 0.041748046875, -0.07080078125, -0.88720703125
553, 966644783, -5.283448696136475, 1.690714955329895, 8.181816101074219, -6.724283218383789, -2.7835123538970947, -7.652719020843506, 0.0400390625, -0.066162109375, -0.886474609375
554, 966661450, -5.210094451904297, 1.5824072360992432, 8.184113502502441, -6.868406772613525, -3.165372371673584, -7.888829231262207, 0.041259765625, -0.065673828125, -0.886962890625
555, 966678117, -5.163195610046387, 1.5998600721359253, 8.170941352844238, -6.72537088394165, -2.7257425785064697, -7.643894672393799, 0.043212890625, -0.064697265625, -0.888427734375
556, 966694784, -5.169670104980469, 1.7281653881072998, 8.224105834960938, -6.307295799255371, -1.3977110385894775, -8.349180221557617, 0.042724609375, -0.064697265625, -0.88623046875
557, 966711451, -5.215497016906738, 1.7034341096878052, 8.213253021240234, -5.101846694946289, 0.25057554244995117, -9.208921432495117, 0.042236328125, -0.065185546875, -0.88671875
558, 966728118, -5.226109027862549, 1.5889289379119873, 8.174710273742676, -4.669581413269043, 1.4526184797286987, -9.82267951965332, 0.041259765625, -0.061767578125, -0.886474609375
559, 966744785, -5.25225305557251, 1.6117137670516968, 8.179459571838379, -4.677188873291016, 3.8487906455993652, -10.267175674438477, 0.044677734375, -0.063232421875, -0.88671875
560, 966761452, -5.201760768890381, 1.690738558769226, 8.224776268005371, -3.6329071521759033, 6.055773735046387, -10.74364948272705, 0.045166015625, -0.061279296875, -0.889404296875
561, 966778119, -5.250338554382324, 1.5125997066497803, 8.236615180969238, -3.5829126834869385, 10.815760612487793, -11.673869132995605, 0.048583984375, -0.060791015625, -0.88818359375
562, 966794786, -5.1819539070129395, 1.4238777160644531, 8.227291107177734, -1.0867993831634521, 15.508040428161621, -10.406490325927734, 0.05322265625, -0.061279296875, -0.8876953125
563, 966811453, -5.056210517883301, 1.1763522624969482, 8.18344783782959, 2.3305747509002686, 22.47344207763672, -8.729351043701172, 0.058349609375, -0.062744140625, -0.886474609375
564, 966828120, -5.235241889953613, 1.3917529582977295, 8.183686256408691, 7.545704364776611, 32.48176574707031, -6.842037200927734, 0.065673828125, -0.063232421875, -0.885009765625
565, 966844787, -5.227793216705322, 1.2770620584487915, 8.162761688232422, 11.765485763549805, 42.46144104003906, -5.1090521812438965, 0.076416015625, -0.06591796875, -0.88330078125
566, 966861454, -5.154695510864258, 1.520187497138977, 8.131389617919922, 15.787270545959473, 57.219478607177734, -4.564982891082764, 0.09130859375, -0.070068359375, -0.8818359375
567, 966878121, -5.299238681793213, 1.6797257661819458, 8.09203052520752, 19.592239379882812, 73.97943878173828, -5.314060211181641, 0.10888671875, -0.076171875, -0.879638671875
568, 966894788, -5.456885814666748, 1.7953665256500244, 8.065617561340332, 18.490814208984375, 93.05521392822266, -8.03520393371582, 0.130126953125, -0.079833984375, -0.874267578125
569, 966911455, -5.5968546867370605, 1.737572193145752, 7.838761806488037, 15.26449966430664, 114.03378295898438, -13.303902626037598, 0.16015625, -0.08544921875, -0.8701171875
570, 966928122, -5.657155513763428, 1.5322247743606567, 7.717337608337402, 16.765377044677734, 137.70693969726562, -17.77614402770996, 0.19287109375, -0.090087890625, -0.862548828125
571, 966944789, -5.7802510261535645, 1.3916409015655518, 7.590461730957031, 20.635269165039062, 164.12889099121094, -18.76212501525879, 0.2314453125, -0.08935546875, -0.851318359375
572, 966961456, -5.866832256317139, 1.2782866954803467, 7.602997303009033, 21.734243392944336, 200.16241455078125, -17.41755485534668, 0.278564453125, -0.0947265625, -0.833984375
573, 966978123, -5.970730781555176, 1.767171025276184, 7.55858850479126, 18.202392578125, 255.61024475097656, -15.975547790527344, 0.333984375, -0.097900390625, -0.8125
574, 966994790, -6.892785549163818, 1.8192466497421265, 7.336841583251953, 3.6204233169555664, 329.8714904785156, -18.819568634033203, 0.404541015625, -0.09814453125, -0.776123046875
575, 967011457, -7.743590831756592, 2.7321972846984863, 8.58547306060791, 2.3153464794158936, 430.3016357421875, -19.962560653686523, 0.490478515625, -0.096923828125, -0.7197265625
576, 967028124, -12.080779075622559, 2.793564796447754, 11.646973609924316, 26.136688232421875, 497.1377868652344, -42.22637939453125, 0.589599609375, -0.095703125, -0.640869140625
577, 967044791, -18.562562942504883, 2.162432909011841, 11.368600845336914, 44.68657302856445, 493.7243957519531, -59.076507568359375, 0.677001953125, -0.092529296875, -0.544677734375
578, 967061458, -19.135162353515625, 6.087996006011963, 11.012134552001953, 37.7371940612793, 494.5657958984375, -81.6102523803711, 0.744873046875, -0.08642578125, -0.4345703125
579, 967078125, -16.30274772644043, 5.731194019317627, 13.153528213500977, 13.212478637695312, 466.0978088378906, -116.06786346435547, 0.80078125, -0.072021484375, -0.31884765625
580, 967094792, -7.18662166595459, 3.7476284503936768, 12.806686401367188, 36.631439208984375, 408.97393798828125, -92.80998992919922, 0.833984375, -0.0576171875, -0.212890625
581, 967111459, -17.975332260131836, 4.601806640625, 20.240083694458008, 59.82012939453125, 273.482666015625, -67.26260375976562, 0.8466796875, -0.052978515625, -0.134765625
582, 967128126, -29.267353057861328, 8.66229248046875, 31.859792709350586, 27.51770782470703, 16.807411193847656, -73.09783172607422, 0.839111328125, -0.043701171875, -0.101806640625
583, 967144793, -7.349178314208984, 5.1391472816467285, 18.734968185424805, -4.29130744934082, -240.72824096679688, -37.92869567871094, 0.81689453125, -0.04345703125, -0.139892578125
584, 967161460, -0.24743852019309998, 2.090254306793213, 6.85367488861084, -39.96567153930664, -271.2645568847656, -68.07766723632812, 0.792724609375, -0.034912109375, -0.18994140625
585, 967178127, -0.06113824248313904, 1.3967941999435425, 3.6124792098999023, -54.111663818359375, -250.7987060546875, -95.38175201416016, 0.766357421875, -0.01806640625, -0.225830078125
586, 967194794, -2.553220272064209, 2.182932138442993, 5.753017425537109, -50.311378479003906, -255.24737548828125, -101.01132202148438, 0.7451171875, 0.001220703125, -0.255126953125
587, 967211461, -5.412534236907959, 3.385845899581909, 7.572524070739746, -45.257686614990234, -303.126708984375, -93.33600616455078, 0.724853515625, 0.021484375, -0.29443359375
588, 967228128, -6.124882221221924, 3.4716615676879883, 7.4028778076171875, -30.4081974029541, -351.9334716796875, -69.06190490722656, 0.703125, 0.032470703125, -0.341796875
589, 967244795, -7.764705181121826, 4.267673492431641, 7.6898956298828125, -10.501860618591309, -389.84735107421875, -29.673274993896484, 0.674560546875, 0.035888671875, -0.396240234375
590, 967261462, -9.551643371582031, 4.619466304779053, 8.316048622131348, -3.7080752849578857, -428.66253662109375, 13.025785446166992, 0.653564453125, 0.027099609375, -0.452392578125
591, 967278129, -9.299989700317383, 2.609130382537842, 6.691258907318115, 1.1764705181121826, -462.0390930175781, 42.114967346191406, 0.62890625, 0.009033203125, -0.539794921875
592, 967294796, -8.016371726989746, -0.05903166905045509, 4.352571964263916, 22.284088134765625, -445.4181823730469, 47.565406799316406, 0.578369140625, -0.0107421875, -0.647216796875
593, 967311463, -10.97899341583252, -2.6815857887268066, 4.140415668487549, 64.529541015625, -383.45025634765625, 31.994129180908203, 0.494384765625, -0.03173828125, -0.73779296875
594, 967328130, -14.839675903320312, -1.5177537202835083, 7.219128131866455, 90.39805603027344, -323.9841613769531, 10.203325271606445, 0.402587890625, -0.0595703125, -0.800048828125
595, 967344797, -15.748542785644531, 0.06139102205634117, 10.28487777709961, 83.36068725585938, -282.4128723144531, 2.0954837799072266, 0.31103515625, -0.081787109375, -0.831787109375
596, 967361464, -19.861112594604492, 1.0417654514312744, 12.406342506408691, 93.7065658569336, -280.1430969238281, 29.904634475708008, 0.22705078125, -0.108154296875, -0.8232421875
597, 967378131, -18.310224533081055, 5.216557025909424, 9.625330924987793, 75.30779266357422, -275.9254455566406, 78.69940948486328, 0.1611328125, -0.13623046875, -0.8046875
598, 967394798, -20.122875213623047, 5.737631797790527, 8.8500337600708, 27.586217880249023, -253.31448364257812, 144.33082580566406, 0.11376953125, -0.1513671875, -0.787353515625
599, 967411465, -22.06156349182129, 2.2091307640075684, 7.633390426635742, -6.733805179595947, -249.5127716064453, 198.80360412597656, 0.072509765625, -0.1640625, -0.788818359375
600, 967428132, -20.861570358276367, -0.6717217564582825, 3.5016379356384277, -38.6297721862793, -236.68772888183594, 211.6097412109375, 0.0263671875, -0.162353515625, -0.79296875
601, 967444799, -20.234651565551758, -1.5149835348129272, 0.3153254985809326, -70.6733169555664, -196.55674743652344, 205.63414001464844, -0.023681640625, -0.151123046875, -0.806640625
602, 967461466, -22.24237823486328, -1.8498178720474243, -3.6260786056518555, -58.511375427246094, -160.5549774169922, 211.31765747070312, -0.06640625, -0.13720703125, -0.81884765625
603, 967478133, -21.676532745361328, -3.595086097717285, -10.710556030273438, -16.799301147460938, -105.9056396484375, 231.3289794921875, -0.10546875, -0.12939453125, -0.82568359375
604, 967494800, -22.41974449157715, -10.610678672790527, -12.909372329711914, 55.14310836791992, -7.119075298309326, 239.1058349609375, -0.11962890625, -0.12890625, -0.829345703125
605, 967511467, -20.82840347290039, -6.048116683959961, -13.708503723144531, 190.54290771484375, 98.24601745605469, 198.67572021484375, -0.1103515625, -0.170166015625, -0.830810546875
606, 967528134, 0.6097031235694885, -4.560478210449219, 21.31529426574707, 105.66992950439453, 140.0897216796875, -27.716562271118164, -0.071533203125, -0.201171875, -0.833740234375
607, 967544801, -1.0482938289642334, 18.130359649658203, 4.607580184936523, 148.5650634765625, 192.21066284179688, -48.32061004638672, -0.021240234375, -0.241943359375, -0.8330078125
608, 967561468, -12.123427391052246, 9.289118766784668, 10.39538288116455, 62.061832427978516, 261.29296875, -2.2537224292755127, 0.0478515625, -0.2666015625, -0.83154296875
609, 967578135, -12.381686210632324, -5.823310375213623, 16.705320358276367, 54.471927642822266, 172.86465454101562, -14.72523021697998, 0.10400390625, -0.283935546875, -0.824951171875
610, 967594802, -7.042741775512695, 8.026739120483398, 9.609930038452148, 49.076255798339844, 126.03349304199219, -24.71555519104004, 0.143798828125, -0.3017578125, -0.81787109375
611, 967611469, -7.649046421051025, 7.202649116516113, 9.756482124328613, 16.09284782409668, 119.93641662597656, -21.33388900756836, 0.177978515625, -0.31103515625, -0.8095703125
612, 967628136, -7.289883613586426, 4.003565788269043, 9.427600860595703, -11.68641185760498, 89.48413848876953, -35.268165588378906, 0.20751953125, -0.310791015625, -0.808837890625
613, 967644803, -6.480370998382568, 3.8288843631744385, 9.260967254638672, -25.35232162475586, 75.36087799072266, -39.75410079956055, 0.231689453125, -0.303466796875, -0.802978515625
614, 967661470, -4.770509243011475, 1.9690299034118652, 8.276073455810547, -47.21226119995117, 57.46738052368164, -40.56471252441406, 0.250732421875, -0.29345703125, -0.8037109375
615, 967678137, -3.4097821712493896, 3.1671206951141357, 6.826557159423828, -81.2739028930664, 61.978851318359375, -52.0785026550293, 0.270263671875, -0.27392578125, -0.80126953125
616, 967694804, -8.707511901855469, 1.5216313600540161, 11.179098129272461, -93.57733154296875, 48.747745513916016, -56.07814025878906, 0.2939453125, -0.251220703125, -0.804443359375
617, 967711471, -6.83890438079834, 1.392530918121338, 9.286513328552246, -32.3900146484375, -1.1565617322921753, -27.484600067138672, 0.29638671875, -0.240234375, -0.80810546875
618, 967728138, -5.914269924163818, 1.3499614000320435, 8.731443405151367, -15.85541820526123, 1.6548715829849243, -17.266538619995117, 0.2978515625, -0.235595703125, -0.80712890625
619, 967744805, -5.610663890838623, 1.7475553750991821, 8.348953247070312, -11.73945140838623, 1.1135965585708618, -12.214081764221191, 0.29931640625, -0.229736328125, -0.810791015625
620, 967761472, -5.285849571228027, 2.0355308055877686, 8.18663215637207, -11.52454948425293, -0.33078837394714355, -12.71711540222168, 0.3017578125, -0.228271484375, -0.81103515625
621, 967778139, -5.419142246246338, 2.126150369644165, 8.081944465637207, -15.704618453979492, -2.0543980598449707, -14.78768253326416, 0.304443359375, -0.2255859375, -0.81103515625
622, 967794806, -5.526773929595947, 1.9382858276367188, 8.013473510742188, -21.862735748291016, -6.080871105194092, -17.847766876220703, 0.302734375, -0.218994140625, -0.809814453125
623, 967811473, -5.535743713378906, 1.555303692817688, 8.13666820526123, -21.041582107543945, -7.455800533294678, -16.349040985107422, 0.30322265625, -0.213134765625, -0.813232421875
624, 967828140, -5.31002950668335, 1.612147569656372, 8.284547805786133, -16.201187133789062, -6.50165319442749, -13.124455451965332, 0.302734375, -0.2080078125, -0.81494140625
625, 967844807, -5.118704795837402, 1.7384819984436035, 8.280508995056152, -14.15289306640625, -6.087276935577393, -12.621560096740723, 0.2998046875, -0.20751953125, -0.81396484375
626, 967861474, -5.279146671295166, 1.6776719093322754, 8.211255073547363, -14.935956001281738, -7.398266315460205, -14.410126686096191, 0.3017578125, -0.2021484375, -0.81494140625
627, 967878141, -5.286778450012207, 1.4662855863571167, 8.168736457824707, -16.306894302368164, -7.937672138214111, -14.925765037536621, 0.30029296875, -0.197021484375, -0.818603515625
628, 967894808, -5.253369331359863, 1.2918554544448853, 8.225247383117676, -13.161663055419922, -3.864563226699829, -12.18346118927002, 0.30078125, -0.193115234375, -0.8203125
629, 967911475, -5.098042964935303, 1.288045048713684, 8.348220825195312, -7.9454474449157715, 1.4487894773483276, -9.260403633117676, 0.302734375, -0.191650390625, -0.818115234375
630, 967928142, -5.155621528625488, 1.3499265909194946, 8.279255867004395, -2.969806671142578, 5.948474884033203, -7.503115653991699, 0.30322265625, -0.1904296875, -0.818115234375
631, 967944809, -5.2138776779174805, 1.3534084558486938, 8.265386581420898, -1.7253490686416626, 9.330832481384277, -6.6749796867370605, 0.303955078125, -0.189453125, -0.8193359375
632, 967961476, -5.24235200881958, 1.3780608177185059, 8.258663177490234, -3.717583656311035, 11.548011779785156, -6.750218868255615, 0.308349609375, -0.191162109375, -0.817626953125
633, 967978143, -5.284242153167725, 1.3983262777328491, 8.209946632385254, -8.652172088623047, 13.905719757080078, -7.49098014831543, 0.312744140625, -0.189208984375, -0.81689453125
634, 967994810, -5.255838871002197, 1.1390951871871948, 8.213484764099121, -9.348764419555664, 17.25493621826172, -6.744435787200928, 0.31640625, -0.18603515625, -0.813720703125
635, 968011477, -5.327883720397949, 1.1979833841323853, 8.20501708984375, -8.287208557128906, 19.597431182861328, -5.199591636657715, 0.32275390625, -0.18505859375, -0.813720703125
636, 968028144, -5.410416126251221, 1.2513198852539062, 8.263440132141113, -11.843609809875488, 22.385276794433594, -4.958117961883545, 0.327392578125, -0.181640625, -0.8125
637, 968044811, -5.4760541915893555, 1.5265716314315796, 8.24520206451416, -16.860706329345703, 25.159345626831055, -7.186371803283691, 0.33544921875, -0.1787109375, -0.810302734375
638, 968061478, -5.496057987213135, 1.536887764930725, 8.138703346252441, -19.146533966064453, 26.951335906982422, -10.087284088134766, 0.34033203125, -0.17431640625, -0.809326171875
639, 968078145, -5.568462371826172, 1.347510814666748, 7.957192897796631, -18.252704620361328, 30.924121856689453, -12.600579261779785, 0.347900390625, -0.171142578125, -0.80712890625
640, 968094812, -5.6122612953186035, 0.9442551732063293, 7.965942859649658, -15.195697784423828, 36.37220764160156, -13.289639472961426, 0.357421875, -0.165283203125, -0.8037109375
641, 968111479, -5.621206760406494, 0.867339551448822, 7.9273362159729, -11.573796272277832, 45.24061584472656, -12.141057014465332, 0.370849609375, -0.162353515625, -0.80078125
642, 968128146, -5.77958869934082, 1.0139803886413574, 7.919475078582764, -8.989956855773926, 55.217838287353516, -12.310885429382324, 0.3828125, -0.159423828125, -0.79443359375
643, 968144813, -5.882582664489746, 0.9960344433784485, 7.843102931976318, -7.900991439819336, 65.69134521484375, -14.171927452087402, 0.396484375, -0.156494140625, -0.7900390625
644, 968161480, -5.928084850311279, 1.3111954927444458, 7.915715217590332, -7.983092784881592, 79.63157653808594, -19.6895809173584, 0.415283203125, -0.153076171875, -0.7783203125
645, 968178147, -6.011904239654541, 1.1105097532272339, 7.947033405303955, -9.092399597167969, 100.3236312866211, -28.926414489746094, 0.4384765625, -0.14892578125, -0.769775390625
646, 968194814, -6.150391101837158, 1.041236162185669, 7.978423595428467, -7.380029678344727, 128.67578125, -37.028160095214844, 0.466796875, -0.1435546875, -0.751708984375
647, 968211481, -5.997399806976318, 0.9282235503196716, 8.159711837768555, -8.789240837097168, 165.84584045410156, -47.18632888793945, 0.502685546875, -0.1337890625, -0.73193359375
648, 968228148, -6.345364093780518, 1.3681755065917969, 8.330750465393066, -17.42313575744629, 209.44140625, -62.711280822753906, 0.547119140625, -0.122314453125, -0.705078125
649, 968244815, -7.320163726806641, 2.3422887325286865, 8.20772933959961, -39.574432373046875, 254.5338897705078, -91.6737289428711, 0.597900390625, -0.100341796875, -0.665771484375
650, 968261482, -9.081381797790527, 3.859142780303955, 8.784101486206055, -78.02922821044922, 292.11968994140625, -134.6326141357422, 0.6572265625, -0.06591796875, -0.614990234375
651, 968278149, -12.712784767150879, 5.329457759857178, 10.709339141845703, -129.74000549316406, 300.98590087890625, -185.66551208496094, 0.710205078125, -0.01123046875, -0.55810546875
652, 968294816, -16.619285583496094, 5.7309370040893555, 12.552544593811035, -178.87832641601562, 266.67022705078125, -220.23922729492188, 0.7470703125, 0.064697265625, -0.505126953125
653, 968311483, -16.947675704956055, 7.22449254989624, 12.12729263305664, -210.17091369628906, 187.21401977539062, -232.5172576904297, 0.767333984375, 0.149658203125, -0.458251953125
654, 968328150, -9.510198593139648, 9.508326530456543, 9.88341236114502, -276.3617248535156, 143.4300537109375, -250.51406860351562, 0.76416015625, 0.243408203125, -0.4208984375
655, 968344817, -4.052784442901611, 12.878029823303223, 11.251794815063477, -434.04766845703125, 152.04971313476562, -285.7275390625, 0.754150390625, 0.353271484375, -0.363037109375
656, 968361484, -20.528390884399414, 11.26583194732666, 15.200817108154297, -502.2538146972656, 115.49258422851562, -139.44403076171875, 0.736083984375, 0.455322265625, -0.2744140625
657, 968378151, -17.346654891967773, 6.869562149047852, 19.320951461791992, -357.5773620605469, -96.60345458984375, 62.59604263305664, 0.728515625, 0.487548828125, -0.24169921875
658, 968394818, -5.806382656097412, 3.6158061027526855, 9.166264533996582, -272.4159851074219, -175.31103515625, 115.18396759033203, 0.7265625, 0.49658203125, -0.243408203125
659, 968411485, -3.592386484146118, 2.659993886947632, 6.120285511016846, -251.50311279296875, -163.6537322998047, 90.5802001953125, 0.7255859375, 0.51025390625, -0.24658203125
660, 968428152, -4.780115604400635, 2.5146961212158203, 6.8837809562683105, -226.5401153564453, -156.64364624023438, 59.52777862548828, 0.722412109375, 0.5244140625, -0.24755859375
