sep=,
DeviceTag:,A,,,,,,,,,,,,,,,,,
FirmwareVersion:,2.2.1,,,,,,,,,,,,,,,,,
AppVersion:,2022.0.1,,,,,,,,,,,,,,,,,
SyncStatus:,Synced,,,,,,,,,,,,,,,,,
OutputRate:,60Hz,,,,,,,,,,,,,,,,,
FilterProfile:,General,,,,,,,,,,,,,,,,,
Measurement Mode:,Inertial Mode - Rate quantities (with mag),,,,,,,,,,,,,,,,,
StartTime:,2022-08-05 15:41:54.654 +0300,,,,,,,,,,,,,,,,,
© Xsens Technologies B. V. 2005-2022,,,,,,,,,,,,,,,,,,,

PacketCounter,SampleTimeFine,Acc_X,Acc_Y,Acc_Z,Gyr_X,Gyr_Y,Gyr_Z,Mag_X,Mag_Y,Mag_Z
1, 3856683981, -5.158350467681885, 1.470510721206665, 8.239157676696777, -3.267873525619507, -2.094555616378784, -2.766479015350342, 0.0517578125, -0.138671875, -0.831787109375
2, 3856700648, -5.157174110412598, 1.459143042564392, 8.21430492401123, -3.2590243816375732, -2.120424509048462, -2.7311079502105713, 0.052001953125, -0.13916015625, -0.830810546875
3, 3856717315, -5.156227111816406, 1.4445083141326904, 8.249861717224121, -2.85831356048584, -1.8974400758743286, -2.4326045513153076, 0.05029296875, -0.1357421875, -0.8330078125
4, 3856733982, -5.1430745124816895, 1.458518624305725, 8.237600326538086, -2.320843458175659, -1.525031328201294, -2.136636972427368, 0.051025390625, -0.138671875, -0.833984375
5, 3856750649, -5.16560697555542, 1.476483941078186, 8.260520935058594, -2.0664451122283936, -1.3464210033416748, -2.0528578758239746, 0.051513671875, -0.138671875, -0.83447265625
6, 3856767316, -5.166945457458496, 1.4540796279907227, 8.242945671081543, -2.135253667831421, -1.3981844186782837, -2.058722972869873, 0.05078125, -0.13671875, -0.83349609375
7, 3856783983, -5.1579694747924805, 1.4757782220840454, 8.234475135803223, -2.2853569984436035, -1.685289978981018, -2.1423871517181396, 0.052490234375, -0.1376953125, -0.830810546875
8, 3856800650, -5.148640155792236, 1.493217945098877, 8.244905471801758, -2.465632200241089, -1.7068816423416138, -2.1529269218444824, 0.05126953125, -0.14013671875, -0.831298828125
9, 3856817317, -5.157657146453857, 1.4713927507400513, 8.235456466674805, -2.702460289001465, -1.975443720817566, -2.2529959678649902, 0.05029296875, -0.13818359375, -0.833984375
10, 3856833984, -5.158679485321045, 1.4510890245437622, 8.221693992614746, -2.847184419631958, -2.0075361728668213, -2.3222649097442627, 0.051513671875, -0.138671875, -0.8330078125
11, 3856850651, -5.156930446624756, 1.4787583351135254, 8.251714706420898, -2.7371394634246826, -2.1148147583007812, -2.221888780593872, 0.053955078125, -0.1376953125, -0.832275390625
12, 3856867318, -5.150232791900635, 1.4666402339935303, 8.254258155822754, -2.711475133895874, -2.1339216232299805, -2.217304229736328, 0.0498046875, -0.13916015625, -0.83349609375
13, 3856883985, -5.1512603759765625, 1.4780362844467163, 8.260772705078125, -2.8091747760772705, -2.035735845565796, -2.258565902709961, 0.051513671875, -0.13818359375, -0.83349609375
14, 3856900652, -5.146152973175049, 1.5004409551620483, 8.231566429138184, -3.052227258682251, -2.045161485671997, -2.3935325145721436, 0.05126953125, -0.13818359375, -0.832275390625
15, 3856917319, -5.137606143951416, 1.463752031326294, 8.246847152709961, -2.998530149459839, -1.8692532777786255, -2.456014633178711, 0.05078125, -0.13818359375, -0.831787109375
16, 3856933986, -5.140505313873291, 1.4655812978744507, 8.257087707519531, -2.810558319091797, -1.8819314241409302, -2.47291898727417, 0.05078125, -0.138671875, -0.833984375
17, 3856950653, -5.1385416984558105, 1.466200828552246, 8.236712455749512, -2.9467921257019043, -1.7978960275650024, -2.502655029296875, 0.051025390625, -0.13720703125, -0.83447265625
18, 3856967320, -5.146000385284424, 1.4632518291473389, 8.2515287399292, -2.876293182373047, -1.8180149793624878, -2.537642240524292, 0.0498046875, -0.13671875, -0.83251953125
19, 3856983987, -5.160840034484863, 1.469529628753662, 8.253864288330078, -2.8952078819274902, -1.9619325399398804, -2.5439553260803223, 0.04931640625, -0.13623046875, -0.8310546875
20, 3857000654, -5.143401145935059, 1.4227168560028076, 8.25993824005127, -2.7784013748168945, -1.9269970655441284, -2.3882944583892822, 0.05029296875, -0.13818359375, -0.83251953125
21, 3857017321, -5.14963960647583, 1.4578016996383667, 8.251163482666016, -2.4729063510894775, -1.6793352365493774, -2.1113831996917725, 0.05078125, -0.138671875, -0.831787109375
22, 3857033988, -5.13715934753418, 1.4634404182434082, 8.247940063476562, -2.481384038925171, -1.610129714012146, -2.144166946411133, 0.05126953125, -0.1357421875, -0.8330078125
23, 3857050655, -5.147613525390625, 1.469766616821289, 8.2513427734375, -2.549565076828003, -1.7413053512573242, -2.2938992977142334, 0.05029296875, -0.1357421875, -0.833984375
24, 3857067322, -5.133203983306885, 1.4553163051605225, 8.27316951751709, -2.592172145843506, -1.7693512439727783, -2.330051898956299, 0.04931640625, -0.13671875, -0.83251953125
25, 3857083989, -5.133669853210449, 1.4719507694244385, 8.265348434448242, -2.64499831199646, -1.7188557386398315, -2.2749459743499756, 0.0478515625, -0.138671875, -0.8310546875
26, 3857100656, -5.1297454833984375, 1.4749295711517334, 8.250383377075195, -2.5433926582336426, -1.6936144828796387, -2.2927465438842773, 0.05126953125, -0.13671875, -0.831298828125
27, 3857117323, -5.14201545715332, 1.4591174125671387, 8.261006355285645, -2.553701877593994, -1.6390721797943115, -2.3332407474517822, 0.0498046875, -0.1376953125, -0.8330078125
28, 3857133990, -5.129859924316406, 1.4611284732818604, 8.259119033813477, -2.5564422607421875, -1.8245593309402466, -2.31006121635437, 0.05029296875, -0.1357421875, -0.83642578125
29, 3857150657, -5.138939380645752, 1.465287208557129, 8.256229400634766, -2.626262664794922, -1.6946262121200562, -2.348172664642334, 0.051025390625, -0.13671875, -0.83642578125
30, 3857167324, -5.13566255569458, 1.4721500873565674, 8.250946044921875, -2.587369918823242, -1.6824214458465576, -2.344573974609375, 0.05029296875, -0.1376953125, -0.833984375
31, 3857183991, -5.135128974914551, 1.4755723476409912, 8.259218215942383, -2.4487791061401367, -1.5187946557998657, -2.32702898979187, 0.0498046875, -0.138671875, -0.83203125
32, 3857200658, -5.140608787536621, 1.4735217094421387, 8.258408546447754, -2.5791733264923096, -1.4822965860366821, -2.365115165710449, 0.05029296875, -0.138671875, -0.831298828125
33, 3857217325, -5.118650436401367, 1.4670422077178955, 8.23306941986084, -2.6436281204223633, -1.559455156326294, -2.398040771484375, 0.048828125, -0.13720703125, -0.83056640625
34, 3857233992, -5.138099193572998, 1.4711353778839111, 8.243239402770996, -2.609384059906006, -1.659984827041626, -2.471741199493408, 0.048828125, -0.13720703125, -0.8330078125
35, 3857250659, -5.143163681030273, 1.4691351652145386, 8.266149520874023, -2.6968767642974854, -1.7811715602874756, -2.4715232849121094, 0.0478515625, -0.1376953125, -0.8330078125
36, 3857267326, -5.12228536605835, 1.4595059156417847, 8.265335083007812, -2.866509199142456, -1.8726468086242676, -2.4858787059783936, 0.0498046875, -0.13720703125, -0.8359375
37, 3857283993, -5.124237060546875, 1.4511491060256958, 8.258759498596191, -2.757963180541992, -1.7815300226211548, -2.413228750228882, 0.051025390625, -0.13818359375, -0.83349609375
38, 3857300660, -5.117307186126709, 1.4512224197387695, 8.272297859191895, -2.8005435466766357, -1.8858118057250977, -2.387641429901123, 0.05078125, -0.13818359375, -0.830810546875
39, 3857317327, -5.1344099044799805, 1.4593333005905151, 8.247859001159668, -2.6281321048736572, -1.6453344821929932, -2.337632894515991, 0.05029296875, -0.1376953125, -0.8330078125
40, 3857333994, -5.122998237609863, 1.4555776119232178, 8.275389671325684, -2.4559504985809326, -1.6190557479858398, -2.221235752105713, 0.04833984375, -0.13916015625, -0.8330078125
41, 3857350661, -5.128049373626709, 1.4668828248977661, 8.270651817321777, -2.3187174797058105, -1.5798935890197754, -2.199221611022949, 0.0478515625, -0.14013671875, -0.83447265625
42, 3857367328, -5.120400428771973, 1.4817895889282227, 8.258926391601562, -2.172725200653076, -1.412002444267273, -2.159560203552246, 0.0498046875, -0.13671875, -0.83203125
43, 3857383995, -5.122030258178711, 1.4811480045318604, 8.273218154907227, -2.121551036834717, -1.4406630992889404, -2.238934278488159, 0.048828125, -0.13671875, -0.83251953125
44, 3857400662, -5.146885395050049, 1.4772030115127563, 8.280402183532715, -2.368124485015869, -1.5647311210632324, -2.268657922744751, 0.048828125, -0.13623046875, -0.8310546875
45, 3857417329, -5.124990463256836, 1.4881528615951538, 8.249604225158691, -2.572654962539673, -1.7602843046188354, -2.3866941928863525, 0.04931640625, -0.13671875, -0.83251953125
46, 3857433996, -5.145448207855225, 1.4777885675430298, 8.267977714538574, -2.5319693088531494, -1.682652235031128, -2.3875138759613037, 0.048828125, -0.13720703125, -0.833984375
47, 3857450663, -5.126742839813232, 1.471083641052246, 8.262604713439941, -2.52351713180542, -1.700529932975769, -2.413856267929077, 0.04833984375, -0.1376953125, -0.833984375
48, 3857467330, -5.119745254516602, 1.4619938135147095, 8.253998756408691, -2.4604713916778564, -1.4584896564483643, -2.423383951187134, 0.048828125, -0.13720703125, -0.8330078125
49, 3857483997, -5.13069486618042, 1.4727481603622437, 8.269991874694824, -2.424370050430298, -1.3978259563446045, -2.3214070796966553, 0.048828125, -0.13720703125, -0.83203125
50, 3857500664, -5.119815826416016, 1.4754059314727783, 8.244930267333984, -2.5685956478118896, -1.3096543550491333, -2.3808670043945312, 0.04541015625, -0.1376953125, -0.8330078125
51, 3857517331, -5.134564399719238, 1.4650472402572632, 8.272472381591797, -2.501861572265625, -1.3840079307556152, -2.4221420288085938, 0.05078125, -0.13720703125, -0.83154296875
52, 3857533998, -5.129876613616943, 1.4736288785934448, 8.246316909790039, -2.416635036468506, -1.4871118068695068, -2.4084391593933105, 0.04833984375, -0.13720703125, -0.83349609375
53, 3857550665, -5.14196252822876, 1.4568884372711182, 8.246017456054688, -2.376269578933716, -1.4454271793365479, -2.4090795516967773, 0.04736328125, -0.13720703125, -0.83544921875
54, 3857567332, -5.125448703765869, 1.4712554216384888, 8.241203308105469, -2.3865532875061035, -1.488328456878662, -2.356419801712036, 0.048828125, -0.13916015625, -0.8349609375
55, 3857583999, -5.118053436279297, 1.4611037969589233, 8.261425971984863, -2.4487147331237793, -1.5423070192337036, -2.459305763244629, 0.0478515625, -0.14013671875, -0.83203125
56, 3857600666, -5.136556148529053, 1.4738850593566895, 8.259486198425293, -2.54764461517334, -1.4648418426513672, -2.4309017658233643, 0.04931640625, -0.1396484375, -0.831298828125
57, 3857617333, -5.135043144226074, 1.4649771451950073, 8.260354995727539, -2.317514181137085, -1.5855284929275513, -2.354985475540161, 0.04931640625, -0.13818359375, -0.8349609375
58, 3857634000, -5.121496200561523, 1.4686223268508911, 8.253825187683105, -2.2153961658477783, -1.6548749208450317, -2.3904333114624023, 0.04931640625, -0.1416015625, -0.8369140625
59, 3857650667, -5.133928298950195, 1.4698047637939453, 8.251254081726074, -2.245759963989258, -1.6040594577789307, -2.3331761360168457, 0.048828125, -0.13818359375, -0.833984375
60, 3857667334, -5.1254048347473145, 1.4536080360412598, 8.251472473144531, -2.275560140609741, -1.6269954442977905, -2.391995429992676, 0.048828125, -0.13623046875, -0.83447265625
61, 3857684001, -5.136887550354004, 1.462578296661377, 8.25766372680664, -2.1606743335723877, -1.6040079593658447, -2.3719022274017334, 0.04931640625, -0.1376953125, -0.83056640625
62, 3857700668, -5.142951488494873, 1.4622724056243896, 8.26809310913086, -1.8221642971038818, -1.5588271617889404, -2.219724416732788, 0.048828125, -0.13916015625, -0.83154296875
63, 3857717335, -5.124696731567383, 1.4935928583145142, 8.248164176940918, -1.7576713562011719, -1.5810333490371704, -2.1697797775268555, 0.04833984375, -0.13818359375, -0.83251953125
64, 3857734002, -5.126380920410156, 1.4608348608016968, 8.294568061828613, -1.9090938568115234, -1.662084937095642, -2.1964683532714844, 0.0478515625, -0.138671875, -0.83154296875
65, 3857750669, -5.131696701049805, 1.4880908727645874, 8.271866798400879, -1.6673228740692139, -1.4774047136306763, -2.0435221195220947, 0.04736328125, -0.13916015625, -0.83544921875
66, 3857767336, -5.125506401062012, 1.4736381769180298, 8.277359008789062, -1.6169296503067017, -1.563539981842041, -1.9911954402923584, 0.04833984375, -0.140625, -0.83349609375
67, 3857784003, -5.116149425506592, 1.4986335039138794, 8.283857345581055, -1.5268371105194092, -1.6199265718460083, -2.0673933029174805, 0.04931640625, -0.14013671875, -0.831298828125
68, 3857800670, -5.130897521972656, 1.4878783226013184, 8.2666597366333, -1.2285771369934082, -1.5420382022857666, -1.8512986898422241, 0.0478515625, -0.138671875, -0.83056640625
69, 3857817337, -5.129052639007568, 1.5026482343673706, 8.248750686645508, -1.3153018951416016, -1.5977331399917603, -1.9399058818817139, 0.04736328125, -0.14111328125, -0.83447265625
70, 3857834004, -5.109131336212158, 1.4708276987075806, 8.2683744430542, -1.754252552986145, -1.6026763916015625, -2.062603712081909, 0.0478515625, -0.140625, -0.83251953125
71, 3857850671, -5.126195907592773, 1.508975625038147, 8.25104808807373, -1.605263352394104, -1.6249721050262451, -2.018383264541626, 0.046875, -0.13916015625, -0.8349609375
72, 3857867338, -5.118526458740234, 1.5143569707870483, 8.273859977722168, -1.7228894233703613, -1.761359691619873, -1.9878273010253906, 0.0478515625, -0.14208984375, -0.83203125
73, 3857884005, -5.116022109985352, 1.5064219236373901, 8.250473976135254, -1.7408053874969482, -1.876936912536621, -2.154181718826294, 0.04443359375, -0.14306640625, -0.830078125
74, 3857900672, -5.1540207862854, 1.4977434873580933, 8.29201889038086, -1.1243846416473389, -1.8915361166000366, -1.8879886865615845, 0.0498046875, -0.1416015625, -0.831298828125
75, 3857917339, -5.1325297355651855, 1.5039125680923462, 8.2750883102417, -0.4744752049446106, -2.045225143432617, -1.5234688520431519, 0.04931640625, -0.14306640625, -0.831787109375
76, 3857934006, -5.116649627685547, 1.5242294073104858, 8.262933731079102, -0.3516239523887634, -1.9560675621032715, -1.4587329626083374, 0.0478515625, -0.1435546875, -0.833984375
77, 3857950673, -5.089390754699707, 1.5352821350097656, 8.26303768157959, -0.6712960004806519, -1.7892903089523315, -1.65250563621521, 0.04833984375, -0.14306640625, -0.83349609375
78, 3857967340, -5.108693599700928, 1.548250436782837, 8.218917846679688, -1.3763240575790405, -1.7469909191131592, -1.9429666996002197, 0.04541015625, -0.14208984375, -0.83349609375
79, 3857984007, -5.073006629943848, 1.5529265403747559, 8.232178688049316, -2.013401508331299, -1.8117783069610596, -2.2522780895233154, 0.04736328125, -0.14306640625, -0.83203125
80, 3858000674, -5.119637966156006, 1.5288389921188354, 8.275237083435059, -2.0178966522216797, -1.6988520622253418, -2.3115718364715576, 0.0478515625, -0.142578125, -0.83154296875
81, 3858017341, -5.183593273162842, 1.513547658920288, 8.317039489746094, 0.15792152285575867, -1.858214259147644, -1.4388319253921509, 0.04541015625, -0.144775390625, -0.83349609375
82, 3858034008, -5.132320880889893, 1.4887511730194092, 8.329794883728027, 1.191163182258606, -2.119783878326416, -0.9314826130867004, 0.0458984375, -0.144287109375, -0.83447265625
83, 3858050675, -5.048375606536865, 1.6043503284454346, 8.168078422546387, 0.13171972334384918, -2.0140163898468018, -1.1064814329147339, 0.04638671875, -0.145751953125, -0.831298828125
84, 3858067342, -5.0589704513549805, 1.5682088136672974, 8.24368667602539, -0.7221245169639587, -1.5002384185791016, -1.5201523303985596, 0.04736328125, -0.145263671875, -0.829833984375
85, 3858084009, -5.066722393035889, 1.594051480293274, 8.23807144165039, -1.8364818096160889, -1.1378315687179565, -2.026707410812378, 0.04638671875, -0.146240234375, -0.83251953125
86, 3858100676, -5.097109794616699, 1.5708774328231812, 8.242878913879395, -2.5154874324798584, -1.0568439960479736, -2.3193070888519287, 0.046875, -0.147216796875, -0.831787109375
87, 3858117343, -5.110300540924072, 1.5215117931365967, 8.28370189666748, -2.834993362426758, -0.9984471797943115, -2.410565137863159, 0.04638671875, -0.145751953125, -0.8330078125
88, 3858134010, -5.086988925933838, 1.602472186088562, 8.253066062927246, -3.1042211055755615, -0.9584914445877075, -2.430530309677124, 0.04833984375, -0.145751953125, -0.832763671875
89, 3858150677, -5.102856159210205, 1.5869115591049194, 8.253376007080078, -3.8328640460968018, -0.9822598695755005, -2.7589235305786133, 0.04638671875, -0.146240234375, -0.83251953125
90, 3858167344, -5.096438407897949, 1.564324140548706, 8.243471145629883, -4.344106674194336, -0.9704141020774841, -2.9892072677612305, 0.048828125, -0.146728515625, -0.831298828125
91, 3858184011, -5.080687999725342, 1.5690311193466187, 8.255133628845215, -4.566181182861328, -0.8484334945678711, -3.1448428630828857, 0.0458984375, -0.146240234375, -0.829345703125
92, 3858200678, -5.102802276611328, 1.5679796934127808, 8.248087882995605, -5.072544097900391, -0.8740078210830688, -3.4114582538604736, 0.04736328125, -0.145263671875, -0.829833984375
93, 3858217345, -5.110103130340576, 1.552459478378296, 8.260910987854004, -5.308847904205322, -1.0888087749481201, -3.488002300262451, 0.0478515625, -0.14404296875, -0.831787109375
94, 3858234012, -5.131380081176758, 1.5334885120391846, 8.258337020874023, -5.585182189941406, -1.1731384992599487, -3.671759843826294, 0.04833984375, -0.144775390625, -0.8330078125
95, 3858250679, -5.13136625289917, 1.5425058603286743, 8.255831718444824, -5.537363529205322, -1.4162286520004272, -3.667828321456909, 0.04833984375, -0.14111328125, -0.8359375
96, 3858267346, -5.141692638397217, 1.5136967897415161, 8.253593444824219, -5.272758960723877, -1.509996771812439, -3.574009418487549, 0.04736328125, -0.1416015625, -0.8310546875
97, 3858284013, -5.13325834274292, 1.5069500207901, 8.267525672912598, -4.711034297943115, -1.5088058710098267, -3.4267361164093018, 0.04736328125, -0.14111328125, -0.83203125
98, 3858300680, -5.125649452209473, 1.5010430812835693, 8.279237747192383, -4.278461456298828, -1.524724006652832, -3.167125940322876, 0.04638671875, -0.1416015625, -0.830078125
99, 3858317347, -5.119789123535156, 1.505103588104248, 8.263968467712402, -3.896998643875122, -1.4963964223861694, -3.0390751361846924, 0.04736328125, -0.14111328125, -0.8330078125
100, 3858334014, -5.120383262634277, 1.4877421855926514, 8.26993179321289, -3.559781312942505, -1.4220428466796875, -2.918375253677368, 0.04833984375, -0.140625, -0.83349609375
101, 3858350681, -5.110670566558838, 1.5001128911972046, 8.266740798950195, -3.2957658767700195, -1.4103763103485107, -2.785586357116699, 0.0478515625, -0.14013671875, -0.8330078125
102, 3858367348, -5.1197509765625, 1.4938843250274658, 8.25719165802002, -3.1416537761688232, -1.339083194732666, -2.751546621322632, 0.04736328125, -0.140625, -0.83251953125
103, 3858384015, -5.115692138671875, 1.4780151844024658, 8.240663528442383, -2.973416805267334, -1.347970962524414, -2.738804817199707, 0.0478515625, -0.1396484375, -0.83154296875
104, 3858400682, -5.126694202423096, 1.4928268194198608, 8.262081146240234, -2.9377124309539795, -1.4374359846115112, -2.784791946411133, 0.0458984375, -0.1396484375, -0.83251953125
105, 3858417349, -5.133950710296631, 1.4878318309783936, 8.249859809875488, -2.867892265319824, -1.5106496810913086, -2.649134397506714, 0.04931640625, -0.1376953125, -0.8330078125
106, 3858434016, -5.127371788024902, 1.4738335609436035, 8.273247718811035, -2.8349671363830566, -1.4872782230377197, -2.6962742805480957, 0.04736328125, -0.138671875, -0.83349609375
107, 3858450683, -5.134007930755615, 1.489579677581787, 8.270886421203613, -2.9996566772460938, -1.606057047843933, -2.7194924354553223, 0.048828125, -0.138671875, -0.8330078125
108, 3858467350, -5.132140159606934, 1.4834308624267578, 8.26796817779541, -3.143920660018921, -1.699095606803894, -2.7781074047088623, 0.048828125, -0.1396484375, -0.83203125
109, 3858484017, -5.130030632019043, 1.485245943069458, 8.264683723449707, -3.1548831462860107, -1.7900590896606445, -2.749011516571045, 0.05029296875, -0.138671875, -0.831787109375
110, 3858500684, -5.117945671081543, 1.4864718914031982, 8.275655746459961, -3.076674222946167, -1.7825926542282104, -2.760895013809204, 0.048828125, -0.13916015625, -0.8330078125
111, 3858517351, -5.114461421966553, 1.4899519681930542, 8.28227424621582, -3.081758975982666, -1.885901689529419, -2.769463062286377, 0.0478515625, -0.138671875, -0.8330078125
112, 3858534018, -5.117323875427246, 1.4791008234024048, 8.26518440246582, -2.8333792686462402, -1.7012724876403809, -2.723257303237915, 0.046875, -0.1376953125, -0.8349609375
113, 3858550685, -5.120843887329102, 1.4582226276397705, 8.286066055297852, -2.3178083896636963, -1.5867708921432495, -2.5147705078125, 0.0478515625, -0.13720703125, -0.8359375
114, 3858567352, -5.119151592254639, 1.4721673727035522, 8.268326759338379, -2.3202927112579346, -1.634756088256836, -2.458524465560913, 0.04638671875, -0.14013671875, -0.8330078125
115, 3858584019, -5.108672618865967, 1.482746958732605, 8.257000923156738, -2.5729498863220215, -1.7184715270996094, -2.532072067260742, 0.048828125, -0.138671875, -0.83154296875
116, 3858600686, -5.1134209632873535, 1.4680017232894897, 8.271615028381348, -2.722130537033081, -1.6605992317199707, -2.628042221069336, 0.04736328125, -0.14013671875, -0.83154296875
117, 3858617353, -5.111067295074463, 1.4613423347473145, 8.278816223144531, -2.917811155319214, -1.6887348890304565, -2.625032663345337, 0.04736328125, -0.13916015625, -0.833984375
118, 3858634020, -5.1048173904418945, 1.4726608991622925, 8.270036697387695, -2.898627281188965, -1.7096730470657349, -2.6730947494506836, 0.046875, -0.13720703125, -0.8349609375
119, 3858650687, -5.097772598266602, 1.4867433309555054, 8.256125450134277, -2.9833927154541016, -1.6112308502197266, -2.7175588607788086, 0.048828125, -0.13720703125, -0.833984375
120, 3858667354, -5.1071600914001465, 1.4697214365005493, 8.284729957580566, -2.8947856426239014, -1.484063744544983, -2.686067581176758, 0.0478515625, -0.13720703125, -0.833984375
121, 3858684021, -5.114522457122803, 1.4538980722427368, 8.269024848937988, -2.996788501739502, -1.5109827518463135, -2.682277202606201, 0.04833984375, -0.138671875, -0.83154296875
122, 3858700688, -5.112991809844971, 1.4635361433029175, 8.267385482788086, -2.939300537109375, -1.447079062461853, -2.631500005722046, 0.04833984375, -0.13671875, -0.8330078125
123, 3858717355, -5.089230060577393, 1.472471833229065, 8.279106140136719, -3.165614604949951, -1.4980741739273071, -2.7158684730529785, 0.046875, -0.13671875, -0.83447265625
124, 3858734022, -5.11706018447876, 1.4678579568862915, 8.2725830078125, -3.1377861499786377, -1.4597829580307007, -2.7470388412475586, 0.046875, -0.13671875, -0.83349609375
125, 3858750689, -5.112034797668457, 1.4707715511322021, 8.273063659667969, -3.199000835418701, -1.5072946548461914, -2.785355567932129, 0.0478515625, -0.13623046875, -0.833984375
126, 3858767356, -5.108260631561279, 1.4437202215194702, 8.295759201049805, -3.1353659629821777, -1.4944627285003662, -2.6723268032073975, 0.046875, -0.13916015625, -0.8310546875
127, 3858784023, -5.1253790855407715, 1.4433438777923584, 8.270302772521973, -3.087841510772705, -1.56485915184021, -2.7444136142730713, 0.04931640625, -0.1376953125, -0.83203125
128, 3858800690, -5.117763519287109, 1.4594887495040894, 8.25428295135498, -3.1504645347595215, -1.6885942220687866, -2.6534245014190674, 0.046875, -0.13671875, -0.830078125
129, 3858817357, -5.111677169799805, 1.4569858312606812, 8.263155937194824, -3.0459394454956055, -1.7199057340621948, -2.6386842727661133, 0.04638671875, -0.13623046875, -0.83349609375
130, 3858834024, -5.11792516708374, 1.4386290311813354, 8.272387504577637, -2.8023109436035156, -1.7180485725402832, -2.5957956314086914, 0.0478515625, -0.13525390625, -0.835693359375
131, 3858850691, -5.096737384796143, 1.4463473558425903, 8.269200325012207, -2.6951863765716553, -1.6503801345825195, -2.4532101154327393, 0.04833984375, -0.13671875, -0.83349609375
132, 3858867358, -5.1096110343933105, 1.4569765329360962, 8.276841163635254, -2.563101291656494, -1.7150905132293701, -2.413010835647583, 0.04541015625, -0.1376953125, -0.833984375
133, 3858884025, -5.111746788024902, 1.4538320302963257, 8.291158676147461, -2.3493635654449463, -1.5542939901351929, -2.272704601287842, 0.04736328125, -0.1396484375, -0.8330078125
134, 3858900692, -5.11259126663208, 1.4538224935531616, 8.283008575439453, -2.413151741027832, -1.7107620239257812, -2.2764954566955566, 0.0458984375, -0.138671875, -0.83056640625
135, 3858917359, -5.1080522537231445, 1.4440748691558838, 8.2940092086792, -2.3988218307495117, -1.638367772102356, -2.223118305206299, 0.046875, -0.13720703125, -0.83251953125
136, 3858934026, -5.098437309265137, 1.4581856727600098, 8.269082069396973, -2.0421133041381836, -1.4057273864746094, -2.168562889099121, 0.04638671875, -0.13671875, -0.83447265625
137, 3858950693, -5.119228363037109, 1.4411876201629639, 8.268756866455078, -1.6995049715042114, -1.1476538181304932, -2.000133991241455, 0.04638671875, -0.13671875, -0.83251953125
138, 3858967360, -5.112581253051758, 1.471399188041687, 8.284626007080078, -1.4254491329193115, -1.0549999475479126, -1.8364946842193604, 0.04736328125, -0.1357421875, -0.83349609375
139, 3858984027, -5.113940238952637, 1.465308427810669, 8.27351188659668, -1.5071535110473633, -1.2628085613250732, -1.9265486001968384, 0.0478515625, -0.140625, -0.83203125
140, 3859000694, -5.12391471862793, 1.4544755220413208, 8.282707214355469, -1.8797286748886108, -1.4232078790664673, -2.1052098274230957, 0.04541015625, -0.1396484375, -0.8310546875
141, 3859017361, -5.124730587005615, 1.4820921421051025, 8.275670051574707, -2.230404853820801, -1.5333425998687744, -2.201885223388672, 0.0458984375, -0.13671875, -0.8330078125
142, 3859034028, -5.110502243041992, 1.4696528911590576, 8.298514366149902, -2.3624258041381836, -1.6925512552261353, -2.3530261516571045, 0.04736328125, -0.13671875, -0.83544921875
143, 3859050695, -5.110157489776611, 1.4624758958816528, 8.262636184692383, -2.6043381690979004, -1.7583506107330322, -2.3901772499084473, 0.04541015625, -0.138671875, -0.83203125
144, 3859067362, -5.105792999267578, 1.486034870147705, 8.261921882629395, -2.774700403213501, -1.699172019958496, -2.5051779747009277, 0.04638671875, -0.1376953125, -0.83154296875
145, 3859084029, -5.102731227874756, 1.4737430810928345, 8.261427879333496, -2.7735989093780518, -1.64647376537323, -2.531405448913574, 0.04443359375, -0.1396484375, -0.8310546875
146, 3859100696, -5.089428901672363, 1.48046875, 8.278034210205078, -2.769270896911621, -1.4347083568572998, -2.4432852268218994, 0.0478515625, -0.138671875, -0.83203125
147, 3859117363, -5.120993137359619, 1.458283543586731, 8.286845207214355, -2.7702698707580566, -1.3033279180526733, -2.4618163108825684, 0.04931640625, -0.1376953125, -0.83203125
148, 3859134030, -5.123872756958008, 1.4477102756500244, 8.289191246032715, -2.6009953022003174, -1.3321806192398071, -2.406992197036743, 0.04541015625, -0.138671875, -0.8330078125
149, 3859150697, -5.105416774749756, 1.4582258462905884, 8.290541648864746, -2.358980894088745, -1.3649264574050903, -2.354114532470703, 0.048828125, -0.13671875, -0.83349609375
150, 3859167364, -5.100513458251953, 1.4843093156814575, 8.278446197509766, -2.5497827529907227, -1.4074434041976929, -2.4195291996002197, 0.044921875, -0.138671875, -0.83154296875
151, 3859184031, -5.111676216125488, 1.4855040311813354, 8.279318809509277, -2.6926252841949463, -1.4880725145339966, -2.491206645965576, 0.0478515625, -0.14013671875, -0.83154296875
152, 3859200698, -5.12232780456543, 1.4726847410202026, 8.249614715576172, -2.7028701305389404, -1.4250010251998901, -2.5767788887023926, 0.04638671875, -0.13818359375, -0.83154296875
153, 3859217365, -5.1147074699401855, 1.4656943082809448, 8.273358345031738, -2.7335798740386963, -1.4296754598617554, -2.508700370788574, 0.048828125, -0.13671875, -0.83251953125
154, 3859234032, -5.118175983428955, 1.477621078491211, 8.28586483001709, -2.626723527908325, -1.3095903396606445, -2.4325666427612305, 0.04345703125, -0.13720703125, -0.834228515625
155, 3859250699, -5.107219696044922, 1.4778268337249756, 8.285102844238281, -2.6479692459106445, -1.4143462181091309, -2.4097070693969727, 0.04638671875, -0.13818359375, -0.83349609375
156, 3859267366, -5.115842819213867, 1.4764653444290161, 8.278605461120605, -2.5318665504455566, -1.3519665002822876, -2.455310344696045, 0.0478515625, -0.13720703125, -0.8310546875
157, 3859284033, -5.121203422546387, 1.472733974456787, 8.270236015319824, -2.562781572341919, -1.4924395084381104, -2.4067490100860596, 0.04638671875, -0.1396484375, -0.82958984375
158, 3859300700, -5.108011722564697, 1.4751344919204712, 8.256339073181152, -2.643141269683838, -1.5081912279129028, -2.4481520652770996, 0.046875, -0.13818359375, -0.83203125
159, 3859317367, -5.118591785430908, 1.4688167572021484, 8.30141830444336, -2.6381211280822754, -1.45302152633667, -2.438547134399414, 0.0458984375, -0.138671875, -0.833984375
160, 3859334034, -5.094431400299072, 1.4584811925888062, 8.271458625793457, -2.640644073486328, -1.434810757637024, -2.5079574584960938, 0.04736328125, -0.13671875, -0.83349609375
161, 3859350701, -5.130306720733643, 1.4615658521652222, 8.27218246459961, -2.43660044670105, -1.4788389205932617, -2.4216551780700684, 0.04443359375, -0.13818359375, -0.83203125
162, 3859367368, -5.11038875579834, 1.4561131000518799, 8.270607948303223, -2.3717873096466064, -1.4604490995407104, -2.3532440662384033, 0.04638671875, -0.1376953125, -0.83251953125
163, 3859384035, -5.1050944328308105, 1.4661803245544434, 8.26266860961914, -2.48844051361084, -1.4543020725250244, -2.3611578941345215, 0.04541015625, -0.1396484375, -0.82861328125
164, 3859400702, -5.105370998382568, 1.4591238498687744, 8.283863067626953, -2.428814172744751, -1.4490258693695068, -2.3798937797546387, 0.0478515625, -0.13623046875, -0.83154296875
165, 3859417369, -5.122871398925781, 1.4636197090148926, 8.277544975280762, -2.3328945636749268, -1.4973441362380981, -2.345022439956665, 0.04638671875, -0.13525390625, -0.83349609375
166, 3859434036, -5.115178108215332, 1.4737459421157837, 8.265198707580566, -2.3306148052215576, -1.5643725395202637, -2.3331377506256104, 0.04736328125, -0.1376953125, -0.83349609375
167, 3859450703, -5.102242946624756, 1.468127965927124, 8.27721118927002, -2.4877233505249023, -1.603572964668274, -2.4948694705963135, 0.04638671875, -0.13720703125, -0.83203125
168, 3859467370, -5.113732814788818, 1.4672077894210815, 8.280852317810059, -2.500708818435669, -1.4754835367202759, -2.374706983566284, 0.0478515625, -0.13818359375, -0.8330078125
169, 3859484037, -5.113061904907227, 1.4649662971496582, 8.275821685791016, -2.369443416595459, -1.5188970565795898, -2.4259581565856934, 0.04736328125, -0.138671875, -0.83056640625
170, 3859500704, -5.113136291503906, 1.45534086227417, 8.284886360168457, -2.263535261154175, -1.513262391090393, -2.3021080493927, 0.04736328125, -0.138671875, -0.83154296875
171, 3859517371, -5.1033124923706055, 1.4583215713500977, 8.300344467163086, -2.3910226821899414, -1.473332166671753, -2.331242561340332, 0.04541015625, -0.13818359375, -0.83056640625
172, 3859534038, -5.135682106018066, 1.4695866107940674, 8.29712200164795, -2.448305368423462, -1.6164944171905518, -2.31680965423584, 0.04638671875, -0.13671875, -0.834716796875
173, 3859550705, -5.099229335784912, 1.4887654781341553, 8.265095710754395, -2.4499571323394775, -1.6757363080978394, -2.3029658794403076, 0.04833984375, -0.1376953125, -0.833984375
174, 3859567372, -5.115129470825195, 1.4658541679382324, 8.303879737854004, -2.524951457977295, -1.8614287376403809, -2.3451757431030273, 0.046875, -0.13916015625, -0.8349609375
175, 3859584039, -5.12327241897583, 1.4677531719207764, 8.306705474853516, -2.9805374145507812, -2.4832541942596436, -2.3929309844970703, 0.04833984375, -0.13720703125, -0.833984375
176, 3859600706, -5.0947699546813965, 1.4990676641464233, 8.261438369750977, -3.1799581050872803, -2.6475465297698975, -2.436126708984375, 0.04638671875, -0.138671875, -0.8310546875
177, 3859617373, -5.095853805541992, 1.4609977006912231, 8.265327453613281, -3.2204768657684326, -2.6733896732330322, -2.636507511138916, 0.04638671875, -0.1376953125, -0.835693359375
178, 3859634040, -5.094429016113281, 1.4738050699234009, 8.297394752502441, -3.060333728790283, -2.550807476043701, -2.573820114135742, 0.0458984375, -0.13818359375, -0.83251953125
179, 3859650707, -5.096475124359131, 1.4843190908432007, 8.276000022888184, -3.3816452026367188, -2.7930526733398438, -2.771179437637329, 0.04443359375, -0.13623046875, -0.833740234375
180, 3859667374, -5.071192264556885, 1.4750723838806152, 8.250970840454102, -3.5877890586853027, -2.6125597953796387, -2.958087921142578, 0.043701171875, -0.13818359375, -0.82958984375
181, 3859684041, -5.07892370223999, 1.4616925716400146, 8.273335456848145, -3.351818799972534, -2.488363742828369, -2.9580492973327637, 0.043212890625, -0.1376953125, -0.83203125
182, 3859700708, -5.075079917907715, 1.4729173183441162, 8.276820182800293, -3.123392343521118, -2.318666696548462, -2.8450334072113037, 0.046875, -0.13720703125, -0.83349609375
183, 3859717375, -5.089174747467041, 1.4378210306167603, 8.300619125366211, -3.414710760116577, -2.4278793334960938, -2.85485577583313, 0.042236328125, -0.13623046875, -0.833740234375
184, 3859734042, -5.063931465148926, 1.4635502099990845, 8.284110069274902, -3.6398215293884277, -2.3700459003448486, -3.021197557449341, 0.0439453125, -0.13720703125, -0.835693359375
185, 3859750709, -5.056625843048096, 1.4557913541793823, 8.28784465789795, -3.612940788269043, -2.2203779220581055, -2.9289536476135254, 0.042236328125, -0.13671875, -0.834228515625
186, 3859767376, -5.062560081481934, 1.4482706785202026, 8.303482055664062, -3.33545184135437, -1.975801944732666, -2.9571139812469482, 0.04443359375, -0.135009765625, -0.832275390625
187, 3859784043, -5.050282001495361, 1.4413667917251587, 8.305824279785156, -3.1094205379486084, -1.8409003019332886, -2.7399702072143555, 0.04345703125, -0.135498046875, -0.833740234375
188, 3859800710, -5.073221683502197, 1.4505102634429932, 8.285537719726562, -2.861476182937622, -1.5886149406433105, -2.6877713203430176, 0.0439453125, -0.13818359375, -0.834228515625
189, 3859817377, -5.067350387573242, 1.438858985900879, 8.297744750976562, -2.7811427116394043, -1.3281595706939697, -2.655076742172241, 0.0439453125, -0.13623046875, -0.834228515625
190, 3859834044, -5.070541858673096, 1.4266841411590576, 8.300042152404785, -2.6489810943603516, -1.2363892793655396, -2.578507900238037, 0.0439453125, -0.1376953125, -0.834228515625
191, 3859850711, -5.071353912353516, 1.4361275434494019, 8.297883033752441, -2.641284227371216, -1.1662102937698364, -2.5620129108428955, 0.04345703125, -0.13818359375, -0.833251953125
192, 3859867378, -5.083091735839844, 1.4379793405532837, 8.299731254577637, -2.56233286857605, -1.1037280559539795, -2.504256248474121, 0.044921875, -0.135009765625, -0.834228515625
193, 3859884045, -5.0775909423828125, 1.4377528429031372, 8.298742294311523, -2.346635580062866, -1.1646862030029297, -2.5487966537475586, 0.0439453125, -0.135986328125, -0.832763671875
194, 3859900712, -5.075636386871338, 1.4435588121414185, 8.296893119812012, -2.3319597244262695, -1.1952037811279297, -2.5172929763793945, 0.043212890625, -0.136474609375, -0.831787109375
195, 3859917379, -5.077744960784912, 1.4425525665283203, 8.285552978515625, -2.3562021255493164, -1.2635003328323364, -2.4957656860351562, 0.04638671875, -0.135009765625, -0.8330078125
196, 3859934046, -5.077746391296387, 1.4462844133377075, 8.291133880615234, -2.4909632205963135, -1.2436246871948242, -2.478797197341919, 0.04345703125, -0.1357421875, -0.836181640625
197, 3859950713, -5.077120304107666, 1.4464019536972046, 8.264182090759277, -2.6521310806274414, -1.258019208908081, -2.513028860092163, 0.04248046875, -0.13623046875, -0.834228515625
198, 3859967380, -5.08809757232666, 1.4524368047714233, 8.300021171569824, -2.661262035369873, -1.2994219064712524, -2.4537863731384277, 0.04541015625, -0.13623046875, -0.8330078125
199, 3859984047, -5.084818363189697, 1.4510995149612427, 8.293725967407227, -2.703113555908203, -1.2577887773513794, -2.549373149871826, 0.04296875, -0.13818359375, -0.832763671875
200, 3860000714, -5.079329967498779, 1.424781084060669, 8.309093475341797, -2.8352878093719482, -1.2442010641098022, -2.632179021835327, 0.0458984375, -0.1357421875, -0.83349609375
201, 3860017381, -5.089483737945557, 1.4388171434402466, 8.284075736999512, -3.078787088394165, -1.469887137413025, -2.673696994781494, 0.04443359375, -0.1357421875, -0.832763671875
202, 3860034048, -5.083733081817627, 1.4360846281051636, 8.287786483764648, -3.2985575199127197, -1.4738317728042603, -2.825824022293091, 0.04296875, -0.13623046875, -0.835205078125
203, 3860050715, -5.0802531242370605, 1.443078875541687, 8.298116683959961, -3.4633371829986572, -1.5547935962677002, -2.9386863708496094, 0.04345703125, -0.135009765625, -0.835205078125
204, 3860067382, -5.088297367095947, 1.427980661392212, 8.29128646850586, -3.6538562774658203, -1.5942625999450684, -2.9747228622436523, 0.04541015625, -0.1357421875, -0.8330078125
205, 3860084049, -5.067201614379883, 1.4423260688781738, 8.289922714233398, -3.421792984008789, -1.7729495763778687, -2.9741597175598145, 0.0458984375, -0.1357421875, -0.8330078125
206, 3860100716, -5.079661846160889, 1.4244917631149292, 8.266693115234375, -3.681940793991089, -1.4425199031829834, -2.9976847171783447, 0.04638671875, -0.133056640625, -0.834228515625
207, 3860117383, -5.080974102020264, 1.3823747634887695, 8.2888822555542, -3.4856326580047607, -1.1003857851028442, -2.8180630207061768, 0.0458984375, -0.133056640625, -0.834228515625
208, 3860134050, -5.0808329582214355, 1.3974028825759888, 8.295740127563477, -3.0812082290649414, -0.9062286615371704, -2.507458209991455, 0.04443359375, -0.1357421875, -0.836181640625
209, 3860150717, -5.090856552124023, 1.4025803804397583, 8.313276290893555, -2.8410887718200684, -0.9206997752189636, -2.327784538269043, 0.04443359375, -0.132568359375, -0.834716796875
210, 3860167384, -5.079000473022461, 1.4317361116409302, 8.261482238769531, -2.755542516708374, -1.038543939590454, -2.388794183731079, 0.04541015625, -0.133544921875, -0.832763671875
211, 3860184051, -5.068212985992432, 1.3818800449371338, 8.27038288116455, -1.8229583501815796, -0.48783227801322937, -2.0879218578338623, 0.04638671875, -0.135009765625, -0.8330078125
212, 3860200718, -5.062754154205322, 1.4072710275650024, 8.29030990600586, -1.3890407085418701, -0.060420360416173935, -1.9444648027420044, 0.04345703125, -0.135498046875, -0.833740234375
213, 3860217385, -5.0765380859375, 1.439081072807312, 8.299039840698242, -1.128969430923462, 0.5158718228340149, -1.9993400573730469, 0.0439453125, -0.134521484375, -0.835693359375
214, 3860234052, -5.0856218338012695, 1.4493290185928345, 8.298104286193848, -0.5307974815368652, 0.2929132282733917, -1.737424612045288, 0.04638671875, -0.13720703125, -0.837158203125
215, 3860250719, -5.051812171936035, 1.4166572093963623, 8.288484573364258, -0.02430645190179348, 0.5853078365325928, -1.7097886800765991, 0.0458984375, -0.1376953125, -0.834716796875
216, 3860267386, -5.043390274047852, 1.4438198804855347, 8.262537002563477, 0.0037714692298322916, 0.805692195892334, -1.740907907485962, 0.04931640625, -0.1357421875, -0.83154296875
217, 3860284053, -5.116851329803467, 1.4287092685699463, 8.282569885253906, -0.07504520565271378, 0.6307575106620789, -1.8850946426391602, 0.04736328125, -0.13623046875, -0.83154296875
218, 3860300720, -5.053986549377441, 1.3781068325042725, 8.275181770324707, 0.5189197063446045, 0.7194159626960754, -1.481528401374817, 0.046875, -0.140625, -0.83154296875
219, 3860317387, -5.088581085205078, 1.3708312511444092, 8.231781959533691, 1.8630613088607788, 1.66291081905365, -0.5677054524421692, 0.04833984375, -0.138671875, -0.83154296875
220, 3860334054, -5.093670845031738, 1.436030387878418, 8.225813865661621, 3.2624363899230957, 2.5534257888793945, 0.4920903742313385, 0.0478515625, -0.138671875, -0.83251953125
221, 3860350721, -5.065471172332764, 1.4920580387115479, 8.259856224060059, 2.8805387020111084, 2.158414125442505, 0.5332244038581848, 0.05029296875, -0.1416015625, -0.83349609375
222, 3860367388, -5.159420013427734, 1.5898360013961792, 8.227564811706543, 1.7261229753494263, 1.1605050563812256, 0.2036401629447937, 0.05126953125, -0.1435546875, -0.830810546875
223, 3860384055, -5.207071304321289, 1.5280578136444092, 8.230149269104004, 1.6222506761550903, -0.11310569196939468, 0.19298529624938965, 0.05029296875, -0.14306640625, -0.829345703125
224, 3860400722, -5.288961410522461, 1.6537503004074097, 8.197758674621582, 0.7252300977706909, -1.3714704513549805, -0.13424897193908691, 0.051513671875, -0.144775390625, -0.832275390625
225, 3860417389, -5.203059196472168, 1.6128827333450317, 8.245805740356445, -0.7748737931251526, -2.6154277324676514, -1.0990279912948608, 0.04931640625, -0.146728515625, -0.833740234375
226, 3860434056, -5.1565375328063965, 1.5939586162567139, 8.292817115783691, -1.633718729019165, -2.604696035385132, -1.7321484088897705, 0.0498046875, -0.145751953125, -0.833740234375
227, 3860450723, -5.087812423706055, 1.5768169164657593, 8.293876647949219, -1.5249035358428955, -1.5086907148361206, -2.174825668334961, 0.05029296875, -0.145751953125, -0.830322265625
228, 3860467390, -5.16328763961792, 1.606433629989624, 8.25859546661377, -2.0459423065185547, -0.758353590965271, -2.857391119003296, 0.048828125, -0.145263671875, -0.831298828125
229, 3860484057, -5.172080039978027, 1.6208784580230713, 8.243278503417969, -3.1257998943328857, -0.8762362003326416, -3.5335543155670166, 0.052001953125, -0.145751953125, -0.8291015625
230, 3860500724, -5.185213088989258, 1.5363513231277466, 8.247537612915039, -4.07381534576416, -0.8152651786804199, -3.950131893157959, 0.05078125, -0.1435546875, -0.830322265625
231, 3860517391, -5.192785263061523, 1.547621488571167, 8.265006065368652, -5.288600444793701, -1.0514400005340576, -4.283186912536621, 0.0498046875, -0.146240234375, -0.831787109375
232, 3860534058, -5.178486347198486, 1.521594524383545, 8.264881134033203, -7.0861897468566895, -1.8014566898345947, -5.116547584533691, 0.0498046875, -0.143310546875, -0.83349609375
233, 3860550725, -5.182745933532715, 1.661406397819519, 8.230653762817383, -10.426630973815918, -4.221833229064941, -7.0633721351623535, 0.04931640625, -0.14111328125, -0.8330078125
234, 3860567392, -5.193767547607422, 1.6110105514526367, 8.278583526611328, -13.554102897644043, -7.958296775817871, -8.8623628616333, 0.048828125, -0.13818359375, -0.83056640625
235, 3860584059, -5.1718668937683105, 1.5976890325546265, 8.298151969909668, -16.879928588867188, -11.579639434814453, -10.749300003051758, 0.04833984375, -0.1357421875, -0.83251953125
236, 3860600726, -5.142623424530029, 1.4863240718841553, 8.277902603149414, -18.033763885498047, -14.055066108703613, -11.918769836425781, 0.0458984375, -0.133056640625, -0.83203125
237, 3860617393, -5.075915813446045, 1.318801760673523, 8.305054664611816, -16.87333869934082, -14.465788841247559, -11.472823143005371, 0.04248046875, -0.128173828125, -0.83740234375
238, 3860634060, -5.009039402008057, 1.2711985111236572, 8.299301147460938, -15.06648063659668, -13.93394947052002, -10.79552936553955, 0.040283203125, -0.126953125, -0.83642578125
239, 3860650727, -4.95849609375, 1.237716794013977, 8.354212760925293, -13.942831993103027, -13.205775260925293, -10.331027030944824, 0.037353515625, -0.1220703125, -0.836669921875
240, 3860667394, -4.998848915100098, 1.2475159168243408, 8.390649795532227, -12.963028907775879, -12.633687973022461, -10.126252174377441, 0.033203125, -0.1201171875, -0.835205078125
241, 3860684061, -4.900770664215088, 1.144541621208191, 8.385594367980957, -11.120689392089844, -11.218605995178223, -9.372798919677734, 0.03125, -0.117431640625, -0.8349609375
242, 3860700728, -4.8722076416015625, 1.0489118099212646, 8.386362075805664, -8.8612060546875, -8.69613265991211, -8.193713188171387, 0.03125, -0.114990234375, -0.8359375
243, 3860717395, -4.900899887084961, 1.0739309787750244, 8.39647388458252, -7.0340189933776855, -6.4230146408081055, -7.062756061553955, 0.02880859375, -0.115966796875, -0.83740234375
244, 3860734062, -4.879755020141602, 1.0298364162445068, 8.379241943359375, -5.168426990509033, -4.513765811920166, -5.884557723999023, 0.029296875, -0.113525390625, -0.83837890625
245, 3860750729, -4.7995686531066895, 0.9990874528884888, 8.36069107055664, -3.056952953338623, -1.7425345182418823, -4.78488826751709, 0.029296875, -0.115478515625, -0.837890625
246, 3860767396, -4.785564422607422, 1.055554747581482, 8.403992652893066, -1.240410327911377, 1.249201774597168, -4.121800422668457, 0.0283203125, -0.114990234375, -0.83740234375
247, 3860784063, -4.858930587768555, 0.9913908839225769, 8.391335487365723, 0.2366037368774414, 4.083414077758789, -3.404209613800049, 0.02880859375, -0.116455078125, -0.833984375
248, 3860800730, -4.900615215301514, 1.0444459915161133, 8.395305633544922, 2.14243221282959, 6.9762282371521, -2.2646496295928955, 0.03271484375, -0.115966796875, -0.83642578125
249, 3860817397, -4.9459147453308105, 1.0942960977554321, 8.377312660217285, 3.7219297885894775, 9.336593627929688, -1.7942981719970703, 0.0341796875, -0.117431640625, -0.835693359375
250, 3860834064, -4.90495491027832, 1.1538422107696533, 8.366893768310547, 4.732954025268555, 12.17009162902832, -1.4636898040771484, 0.036865234375, -0.11865234375, -0.838134765625
251, 3860850731, -4.975263595581055, 1.2016856670379639, 8.34248161315918, 6.008572101593018, 15.716998100280762, -1.4257322549819946, 0.042236328125, -0.119140625, -0.8369140625
252, 3860867398, -4.989717960357666, 1.428552269935608, 8.436413764953613, 4.255472660064697, 18.52510643005371, -2.2696213722229004, 0.04541015625, -0.12255859375, -0.832275390625
253, 3860884065, -5.120534896850586, 1.4106475114822388, 8.374208450317383, 1.9456018209457397, 21.293725967407227, -4.764367580413818, 0.05078125, -0.1240234375, -0.83056640625
254, 3860900732, -5.0619282722473145, 1.0910948514938354, 8.310872077941895, 1.5616291761398315, 25.300920486450195, -4.939792156219482, 0.058837890625, -0.125244140625, -0.830322265625
255, 3860917399, -4.76033353805542, 1.0084367990493774, 8.2778902053833, 6.267501354217529, 35.310428619384766, -4.636125087738037, 0.064453125, -0.125732421875, -0.83056640625
256, 3860934066, -5.247047424316406, 1.2866483926773071, 8.328639030456543, 9.529458045959473, 48.11995315551758, -5.560423851013184, 0.076416015625, -0.12939453125, -0.832763671875
257, 3860950733, -5.2293500900268555, 1.186139464378357, 8.346726417541504, 9.64700984954834, 58.58372116088867, -5.847926616668701, 0.090576171875, -0.12939453125, -0.831787109375
258, 3860967400, -5.251136302947998, 1.1047029495239258, 8.288101196289062, 11.893503189086914, 72.47602844238281, -6.098052501678467, 0.107177734375, -0.134521484375, -0.82373046875
259, 3860984067, -5.485553741455078, 1.1372815370559692, 8.150537490844727, 15.407137870788574, 85.91878509521484, -5.771465301513672, 0.128173828125, -0.1376953125, -0.81884765625
260, 3861000734, -5.697706699371338, 1.2016849517822266, 7.987889766693115, 19.62614631652832, 99.58392333984375, -5.352506637573242, 0.1513671875, -0.144287109375, -0.8154296875
261, 3861017401, -5.770473003387451, 1.3095945119857788, 7.891873359680176, 20.938623428344727, 115.98553466796875, -6.392449855804443, 0.177490234375, -0.14501953125, -0.80908203125
262, 3861034068, -6.047743797302246, 1.3502637147903442, 7.712092876434326, 19.030105590820312, 134.08351135253906, -9.210795402526855, 0.20751953125, -0.150146484375, -0.801025390625
263, 3861050735, -6.242475986480713, 1.5369375944137573, 7.487646579742432, 14.2815580368042, 152.3816375732422, -14.260930061340332, 0.24462890625, -0.15234375, -0.791259765625
264, 3861067402, -6.475676536560059, 1.6146918535232544, 7.250936985015869, 9.196124076843262, 173.53883361816406, -20.103271484375, 0.280517578125, -0.153564453125, -0.77197265625
265, 3861084069, -6.713202476501465, 1.5717061758041382, 6.762858867645264, 6.34028959274292, 202.7867889404297, -26.400854110717773, 0.32666015625, -0.154052734375, -0.7529296875
266, 3861100736, -7.040338039398193, 1.6501612663269043, 6.8231096267700195, 6.046236991882324, 242.7042999267578, -29.855566024780273, 0.377197265625, -0.14990234375, -0.7275390625
267, 3861117403, -7.13995361328125, 1.6809414625167847, 6.860261917114258, -0.5996811985969543, 298.35089111328125, -31.792762756347656, 0.43896484375, -0.14599609375, -0.69091796875
268, 3861134070, -8.391161918640137, 1.8140345811843872, 7.299261093139648, 1.7101800441741943, 358.9176330566406, -30.408815383911133, 0.5068359375, -0.1416015625, -0.641845703125
269, 3861150737, -12.345027923583984, 1.7969911098480225, 8.942978858947754, 11.43213939666748, 388.6258544921875, -35.908512115478516, 0.573974609375, -0.13818359375, -0.5771484375
270, 3861167404, -15.249361038208008, 1.7391575574874878, 9.01404094696045, 20.395116806030273, 378.8772888183594, -44.014469146728516, 0.635498046875, -0.131591796875, -0.50146484375
271, 3861184071, -15.537665367126465, 3.2674195766448975, 8.332694053649902, 21.438323974609375, 381.6589660644531, -50.38761520385742, 0.6904296875, -0.1240234375, -0.419677734375
272, 3861200738, -14.128926277160645, 3.575092077255249, 8.065913200378418, 5.472513675689697, 387.3392028808594, -71.0469741821289, 0.730712890625, -0.1123046875, -0.32763671875
273, 3861217405, -11.296510696411133, 2.8534717559814453, 9.374985694885254, -7.577276229858398, 375.0885314941406, -83.73713684082031, 0.769287109375, -0.0947265625, -0.2392578125
274, 3861234072, -8.878044128417969, 2.2842824459075928, 10.231827735900879, 25.72697639465332, 342.9277648925781, -49.675498962402344, 0.786376953125, -0.081298828125, -0.144775390625
275, 3861250739, -15.326784133911133, 2.1667392253875732, 17.948976516723633, 64.37660217285156, 213.1402130126953, -23.265357971191406, 0.788330078125, -0.081787109375, -0.075927734375
276, 3861267406, -24.364845275878906, 5.519218921661377, 25.535280227661133, 70.47283172607422, 9.037883758544922, -37.19382858276367, 0.789306640625, -0.0732421875, -0.040771484375
277, 3861284073, -8.770678520202637, 5.632846355438232, 17.445594787597656, 33.885501861572266, -198.13365173339844, -18.412269592285156, 0.78955078125, -0.072265625, -0.06201171875
278, 3861300740, -3.232964038848877, 3.1083970069885254, 8.411556243896484, -21.653560638427734, -240.78335571289062, -50.696746826171875, 0.794921875, -0.06298828125, -0.101318359375
279, 3861317407, -3.0784895420074463, 2.30914306640625, 6.371334075927734, -57.493385314941406, -242.78948974609375, -68.93668365478516, 0.802001953125, -0.04931640625, -0.14990234375
280, 3861334074, -5.274750709533691, 3.374255418777466, 7.616785049438477, -82.30220794677734, -262.0645751953125, -74.29267120361328, 0.799560546875, -0.03173828125, -0.208984375
281, 3861350741, -7.297027587890625, 3.440537214279175, 8.52525806427002, -93.3154525756836, -312.6238098144531, -74.47965240478516, 0.794189453125, -0.010498046875, -0.281005859375
282, 3861367408, -7.473858833312988, 3.2159459590911865, 6.809486389160156, -81.03791046142578, -355.5389404296875, -61.74725341796875, 0.77490234375, 0.01025390625, -0.36328125
283, 3861384075, -7.265035629272461, 3.6063685417175293, 4.756808280944824, -55.009666442871094, -366.81597900390625, -43.723873138427734, 0.74462890625, 0.021484375, -0.462646484375
284, 3861400742, -7.441181659698486, 4.769278049468994, 4.8896989822387695, -26.370553970336914, -358.7583923339844, -15.277658462524414, 0.6865234375, 0.029541015625, -0.566162109375
285, 3861417409, -8.854178428649902, 5.752274513244629, 5.927252292633057, -7.102594375610352, -355.98028564453125, 25.120033264160156, 0.603271484375, 0.034423828125, -0.64208984375
286, 3861434076, -9.900625228881836, 6.6075849533081055, 6.848486423492432, -5.762730121612549, -359.6443786621094, 60.56127166748047, 0.515869140625, 0.04150390625, -0.698486328125
287, 3861450743, -11.686956405639648, 6.6847639083862305, 8.120832443237305, -11.5433931350708, -363.69024658203125, 88.35106658935547, 0.431396484375, 0.04638671875, -0.737548828125
288, 3861467410, -12.565773963928223, 6.5455451011657715, 8.109848022460938, -11.53748893737793, -371.333251953125, 113.6237564086914, 0.350830078125, 0.04541015625, -0.768798828125
289, 3861484077, -11.469879150390625, 5.179465293884277, 5.6318888664245605, -10.575965881347656, -334.357177734375, 128.16310119628906, 0.27294921875, 0.033203125, -0.78564453125
290, 3861500744, -11.710204124450684, 1.2172375917434692, 5.784684181213379, 11.758052825927734, -257.970703125, 135.23350524902344, 0.21923828125, 0.024169921875, -0.78466796875
291, 3861517411, -16.837554931640625, -1.8852423429489136, 11.041492462158203, 68.88894653320312, -222.58229064941406, 136.30628967285156, 0.195068359375, -0.00341796875, -0.779052734375
292, 3861534078, -17.797359466552734, -1.902480959892273, 10.575315475463867, 109.82410430908203, -217.4232940673828, 116.20113372802734, 0.181396484375, -0.04296875, -0.788330078125
293, 3861550745, -18.02277374267578, -1.323717474937439, 8.577143669128418, 105.91754150390625, -202.74761962890625, 87.50310516357422, 0.167236328125, -0.08056640625, -0.816650390625
294, 3861567412, -18.501386642456055, -0.37797245383262634, 6.77625846862793, 91.82215118408203, -187.19178771972656, 73.74409484863281, 0.137451171875, -0.117431640625, -0.85791015625
295, 3861584079, -17.79360008239746, -0.4548322558403015, 3.804840326309204, 81.68041229248047, -167.38623046875, 66.30460357666016, 0.0908203125, -0.14892578125, -0.899658203125
296, 3861600746, -18.6317195892334, -1.1579172611236572, 2.3730628490448, 77.22071075439453, -149.0813446044922, 56.4033088684082, 0.033935546875, -0.177734375, -0.929931640625
297, 3861617413, -17.97576141357422, -2.977863073348999, 0.33507052063941956, 74.21795654296875, -134.64498901367188, 36.02698516845703, -0.029052734375, -0.211181640625, -0.9423828125
298, 3861634080, -16.706573486328125, -3.479579210281372, -2.540517568588257, 70.33172607421875, -111.92121887207031, 13.01278305053711, -0.081298828125, -0.23828125, -0.944580078125
299, 3861650747, -15.661457061767578, -2.3616862297058105, -4.449430465698242, 49.97664260864258, -74.82752990722656, -1.1027991771697998, -0.1201171875, -0.260009765625, -0.93896484375
300, 3861667414, -15.947367668151855, -0.9346429109573364, -3.602769136428833, 10.880620956420898, -32.45936584472656, -1.0780173540115356, -0.146728515625, -0.27197265625, -0.9345703125
301, 3861684081, -17.43182945251465, -0.774766743183136, -0.2951739430427551, -32.75095748901367, -12.397432327270508, 1.0080753564834595, -0.15771484375, -0.268798828125, -0.9384765625
302, 3861700748, -14.172172546386719, -3.146115779876709, -0.6015174984931946, -75.59208679199219, 21.320331573486328, -32.64806365966797, -0.165771484375, -0.255859375, -0.948486328125
303, 3861717415, 4.843964099884033, -3.2580950260162354, 8.131327629089355, -33.16933059692383, 57.87535095214844, -67.4482192993164, -0.1474609375, -0.24755859375, -0.96533203125
304, 3861734082, 0.25860628485679626, 13.201545715332031, 11.210386276245117, 28.290950775146484, 136.45492553710938, -53.31068420410156, -0.1220703125, -0.2607421875, -0.978515625
305, 3861750749, -7.883111000061035, -1.2763632535934448, 8.565485954284668, 30.392515182495117, 193.03419494628906, -54.54291915893555, -0.07421875, -0.27490234375, -0.991943359375
306, 3861767416, -11.81832504272461, -0.49761879444122314, 14.023233413696289, 17.3851318359375, 181.10638427734375, -29.56955909729004, -0.024658203125, -0.290771484375, -1.0048828125
307, 3861784083, -7.029845714569092, 3.0861780643463135, 9.851852416992188, 47.2691650390625, 162.47352600097656, -5.616844177246094, 0.019775390625, -0.3056640625, -1.009765625
308, 3861800750, -8.17695426940918, 6.047732353210449, 12.244708061218262, 56.313682556152344, 151.60482788085938, 3.1385045051574707, 0.05859375, -0.33056640625, -1.0107421875
309, 3861817417, -12.636353492736816, 7.307708740234375, 10.458048820495605, -26.51594352722168, 93.26213836669922, -33.755706787109375, 0.09033203125, -0.330322265625, -1.016845703125
310, 3861834084, -6.451095104217529, 0.4083872139453888, 9.732146263122559, -39.37216567993164, 53.71269989013672, -25.998319625854492, 0.11083984375, -0.320556640625, -1.021240234375
311, 3861850751, -5.7815351486206055, 2.15024995803833, 8.710433006286621, -27.81174659729004, 31.891921997070312, -13.750479698181152, 0.119384765625, -0.3134765625, -1.023681640625
312, 3861867418, -5.927104949951172, 1.982741117477417, 8.873598098754883, -17.83916473388672, 19.261768341064453, -8.32928466796875, 0.1259765625, -0.30859375, -1.023681640625
313, 3861884085, -5.3803558349609375, 2.6479828357696533, 8.250755310058594, -12.233662605285645, 8.89982795715332, -7.746556282043457, 0.132568359375, -0.3046875, -1.02587890625
314, 3861900752, -5.261606216430664, 2.2000904083251953, 8.326898574829102, -11.616087913513184, 7.780447006225586, -8.038399696350098, 0.132080078125, -0.302978515625, -1.026611328125
315, 3861917419, -5.428767681121826, 1.8352651596069336, 8.652698516845703, -6.607436656951904, 3.786844253540039, -3.614631414413452, 0.135498046875, -0.302734375, -1.02783203125
316, 3861934086, -5.349679946899414, 2.1638436317443848, 8.423788070678711, -2.3528339862823486, 2.262824296951294, -0.5000495314598083, 0.136962890625, -0.3017578125, -1.0283203125
317, 3861950753, -5.0262675285339355, 2.479114294052124, 8.092825889587402, -1.5855413675308228, 3.1563618183135986, 0.5911347270011902, 0.137939453125, -0.3017578125, -1.029296875
318, 3861967420, -4.852822303771973, 2.560645580291748, 8.018061637878418, -1.6586401462554932, 4.845135688781738, 0.6378011107444763, 0.137451171875, -0.30419921875, -1.02685546875
319, 3861984087, -5.316336631774902, 2.5818464756011963, 7.980576515197754, -1.5886279344558716, 4.5009002685546875, -0.38123229146003723, 0.139404296875, -0.30419921875, -1.0263671875
320, 3862000754, -5.139474391937256, 2.553154468536377, 7.8808979988098145, -2.1163904666900635, 3.65855073928833, -1.8073861598968506, 0.1396484375, -0.302734375, -1.02734375
321, 3862017421, -5.1732401847839355, 2.5615451335906982, 7.864518165588379, -3.1199471950531006, 3.582211494445801, -3.2219624519348145, 0.14404296875, -0.30419921875, -1.028564453125
322, 3862034088, -5.0774030685424805, 2.5499179363250732, 7.851711273193359, -4.012907981872559, 3.197739362716675, -4.472221374511719, 0.140625, -0.302734375, -1.02783203125
323, 3862050755, -4.933021545410156, 2.6757028102874756, 7.661549091339111, -6.876833438873291, 4.197981357574463, -7.123855113983154, 0.14404296875, -0.30126953125, -1.029296875
324, 3862067422, -4.9385833740234375, 2.6277854442596436, 7.592269420623779, -13.3993501663208, 7.4115495681762695, -11.071640968322754, 0.14697265625, -0.298583984375, -1.0302734375
325, 3862084089, -5.1595377922058105, 2.428579807281494, 7.866912841796875, -20.8591251373291, 9.56707763671875, -14.263721466064453, 0.150634765625, -0.294677734375, -1.031005859375
326, 3862100756, -5.353494167327881, 2.319277286529541, 8.068299293518066, -21.861906051635742, 2.644742250442505, -16.979665756225586, 0.152587890625, -0.290283203125, -1.03466796875
327, 3862117423, -5.094199180603027, 2.532909631729126, 7.731337070465088, -26.994966506958008, -11.168073654174805, -22.7425594329834, 0.154541015625, -0.28369140625, -1.0361328125
328, 3862134090, -5.095680236816406, 2.6078100204467773, 7.627397060394287, -37.81658172607422, -24.582733154296875, -29.922475814819336, 0.148193359375, -0.271728515625, -1.041748046875
329, 3862150757, -5.356778621673584, 2.1014111042022705, 8.176721572875977, -36.883235931396484, -19.54493522644043, -28.79478645324707, 0.14208984375, -0.260009765625, -1.046630859375
330, 3862167424, -5.379717826843262, 1.424588680267334, 8.747313499450684, -30.992143630981445, -9.079761505126953, -20.958749771118164, 0.14208984375, -0.252685546875, -1.046630859375
331, 3862184091, -5.388303756713867, 1.4591796398162842, 8.534162521362305, -21.533645629882812, -2.6088387966156006, -13.913082122802734, 0.138427734375, -0.244140625, -1.050048828125
332, 3862200758, -5.1569905281066895, 1.7874780893325806, 8.414341926574707, -17.42083740234375, 0.8591473698616028, -12.265235900878906, 0.13916015625, -0.241943359375, -1.051513671875
333, 3862217425, -5.062844753265381, 2.026451587677002, 8.312309265136719, -15.712099075317383, 3.2908594608306885, -14.893845558166504, 0.140625, -0.234130859375, -1.0556640625
334, 3862234092, -5.379294395446777, 2.0724036693573, 8.116445541381836, -21.787681579589844, 3.1951375007629395, -21.807634353637695, 0.14404296875, -0.230712890625, -1.05712890625
335, 3862250759, -5.298408031463623, 1.3490201234817505, 8.286358833312988, -14.816546440124512, 10.747171401977539, -18.82354736328125, 0.147705078125, -0.224609375, -1.054931640625
336, 3862267426, -5.10175895690918, 1.1652644872665405, 8.362591743469238, -6.928983211517334, 22.15480613708496, -13.345608711242676, 0.153076171875, -0.22216796875, -1.052978515625
337, 3862284093, -4.883931636810303, 0.8149361610412598, 8.28624439239502, 1.2595683336257935, 36.99540328979492, -7.436633110046387, 0.16015625, -0.22314453125, -1.052001953125
338, 3862300760, -5.376923084259033, 1.1178299188613892, 8.148898124694824, 8.767328262329102, 50.895938873291016, -2.1598496437072754, 0.1748046875, -0.224853515625, -1.051025390625
339, 3862317427, -5.413586616516113, 1.4632750749588013, 8.049603462219238, 14.14736557006836, 61.36262512207031, 1.4150766134262085, 0.193359375, -0.23046875, -1.04638671875
340, 3862334094, -5.533473491668701, 1.7078107595443726, 8.042556762695312, 16.605236053466797, 72.77159881591797, 0.47723156213760376, 0.21240234375, -0.235595703125, -1.043701171875
341, 3862350761, -5.496757507324219, 1.7877333164215088, 8.056160926818848, 15.940529823303223, 87.84091186523438, -3.037841320037842, 0.23681640625, -0.240234375, -1.034423828125
342, 3862367428, -5.470334529876709, 1.441725730895996, 7.910698890686035, 18.173921585083008, 108.08650970458984, -4.431299686431885, 0.265625, -0.246337890625, -1.025146484375
343, 3862384095, -5.741896152496338, 1.3132318258285522, 7.721832275390625, 21.326753616333008, 128.01278686523438, -2.9858756065368652, 0.300048828125, -0.25341796875, -1.014404296875
344, 3862400762, -5.659484386444092, 1.3332750797271729, 7.6528496742248535, 23.54132652282715, 151.69847106933594, -0.7507065534591675, 0.341796875, -0.26025390625, -0.998291015625
345, 3862417429, -5.736757278442383, 1.7628471851348877, 7.581341743469238, 23.11481475830078, 187.4691619873047, 0.5956534147262573, 0.387939453125, -0.2666015625, -0.984619140625
346, 3862434096, -6.04570198059082, 2.0944364070892334, 7.429978847503662, 19.556901931762695, 234.43223571777344, -0.4825349450111389, 0.4423828125, -0.273193359375, -0.953125
347, 3862450763, -6.543629169464111, 2.3106236457824707, 7.399429798126221, 7.939486980438232, 301.9583435058594, -1.8945019245147705, 0.51171875, -0.2744140625, -0.91259765625
348, 3862467430, -7.362593173980713, 2.9997479915618896, 9.20828914642334, 11.425565719604492, 384.8230895996094, -19.434823989868164, 0.5986328125, -0.273681640625, -0.850830078125
349, 3862484097, -11.126886367797852, 2.448709487915039, 9.924571990966797, 35.06261444091797, 438.2020263671875, -42.860748291015625, 0.694580078125, -0.268310546875, -0.766357421875
350, 3862500764, -16.829744338989258, 2.955845355987549, 10.275552749633789, 55.037837982177734, 437.48162841796875, -52.240318298339844, 0.77490234375, -0.26416015625, -0.661865234375
351, 3862517431, -15.752049446105957, 3.6593730449676514, 9.289342880249023, 56.235233306884766, 439.3754577636719, -64.79532623291016, 0.838623046875, -0.249755859375, -0.54296875
352, 3862534098, -15.018143653869629, 4.369041442871094, 9.809508323669434, 45.33620071411133, 432.1806335449219, -80.04546356201172, 0.88232421875, -0.2236328125, -0.415771484375
353, 3862550765, -10.602340698242188, 3.346017360687256, 10.069900512695312, 71.84513092041016, 391.8786926269531, -70.20628356933594, 0.905517578125, -0.201416015625, -0.289306640625
354, 3862567432, -6.437872409820557, 1.5719265937805176, 13.461546897888184, 116.39913940429688, 325.2485656738281, -40.042938232421875, 0.909423828125, -0.184326171875, -0.177490234375
355, 3862584099, -25.826416015625, 6.611917018890381, 20.080055236816406, 112.58610534667969, 188.45999145507812, -79.42366790771484, 0.900390625, -0.166748046875, -0.096435546875
356, 3862600766, -17.01482391357422, 7.373756408691406, 25.61772346496582, 70.1059341430664, -71.82945251464844, -63.88310241699219, 0.89306640625, -0.138916015625, -0.078369140625
357, 3862617433, -4.7628607749938965, 5.596961498260498, 13.172417640686035, 8.45309066772461, -202.75067138671875, -65.43334197998047, 0.88916015625, -0.120849609375, -0.106689453125
358, 3862634100, -2.682743787765503, 3.825214385986328, 7.42750358581543, -41.39198684692383, -225.99569702148438, -90.90242767333984, 0.895263671875, -0.095703125, -0.16357421875
359, 3862650767, -3.3535871505737305, 3.376979112625122, 6.708257675170898, -77.05625915527344, -244.2364959716797, -98.22039031982422, 0.8984375, -0.07421875, -0.239501953125
360, 3862667434, -5.438398361206055, 3.6937291622161865, 8.099845886230469, -93.41309356689453, -284.98919677734375, -94.68721008300781, 0.8798828125, -0.049560546875, -0.333984375
361, 3862684101, -6.767927646636963, 2.7404704093933105, 7.74860143661499, -83.86151123046875, -333.16705322265625, -82.87936401367188, 0.8271484375, -0.026611328125, -0.43603515625
362, 3862700768, -6.433667182922363, 2.688478469848633, 6.0262041091918945, -43.11116409301758, -366.0736389160156, -56.21419143676758, 0.751953125, -0.009765625, -0.526611328125
363, 3862717435, -6.392368793487549, 3.4927361011505127, 4.713176250457764, -5.4679789543151855, -372.4309387207031, -28.801189422607422, 0.667236328125, -0.005615234375, -0.593017578125
364, 3862734102, -7.46915864944458, 4.491189002990723, 5.694125175476074, 12.864307403564453, -371.1334228515625, 0.6824811100959778, 0.58349609375, -0.0078125, -0.6494140625
365, 3862750769, -9.103766441345215, 4.724142551422119, 7.252119541168213, 14.31400203704834, -380.4447326660156, 29.19361114501953, 0.495849609375, -0.014404296875, -0.68994140625
366, 3862767436, -10.067058563232422, 4.199212551116943, 7.644932270050049, 11.889347076416016, -391.3632507324219, 47.70530319213867, 0.408203125, -0.02197265625, -0.719482421875
367, 3862784103, -9.25711441040039, 2.9366204738616943, 5.488669395446777, 21.587202072143555, -381.75390625, 56.11993408203125, 0.3271484375, -0.031494140625, -0.737548828125
368, 3862800770, -9.57279109954834, 1.9875571727752686, 4.286221981048584, 39.57707977294922, -316.6850891113281, 57.085716247558594, 0.26025390625, -0.044189453125, -0.74853515625
369, 3862817437, -12.199535369873047, 2.4482359886169434, 8.803766250610352, 58.242164611816406, -246.80728149414062, 60.98504638671875, 0.21728515625, -0.06494140625, -0.753173828125
370, 3862834104, -17.345237731933594, 1.9689768552780151, 13.579432487487793, 82.68708038330078, -252.0449981689453, 77.66255950927734, 0.1826171875, -0.08935546875, -0.7578125
371, 3862850771, -16.12725830078125, 0.19495607912540436, 11.335176467895508, 94.38343811035156, -253.93165588378906, 74.18669128417969, 0.142578125, -0.120849609375, -0.769775390625
372, 3862867438, -17.334718704223633, -1.3335167169570923, 10.78603458404541, 110.06050872802734, -243.56878662109375, 53.62681579589844, 0.10009765625, -0.1533203125, -0.78515625
373, 3862884105, -19.045148849487305, -1.587524652481079, 10.298969268798828, 116.8343505859375, -243.0037078857422, 34.073265075683594, 0.041748046875, -0.192138671875, -0.800048828125
374, 3862900772, -18.517946243286133, -3.048830986022949, 6.573112487792969, 112.44691467285156, -234.97903442382812, 25.714357376098633, -0.025634765625, -0.225341796875, -0.8017578125
375, 3862917439, -18.268299102783203, -4.120429039001465, 3.0469374656677246, 99.01671600341797, -203.8021240234375, 20.723670959472656, -0.09130859375, -0.25537109375, -0.793701171875
376, 3862934106, -19.61720085144043, -3.9346184730529785, 0.9295181035995483, 68.53889465332031, -165.70408630371094, 20.37082862854004, -0.142822265625, -0.278076171875, -0.77880859375
377, 3862950773, -21.014020919799805, -4.125549793243408, -2.893678903579712, 28.51091194152832, -136.21592712402344, 23.5667781829834, -0.18603515625, -0.28955078125, -0.7607421875
378, 3862967440, -20.21002769470215, -4.586421489715576, -8.875638961791992, -1.6341619491577148, -86.00688934326172, 24.49345588684082, -0.21240234375, -0.288818359375, -0.747802734375
379, 3862984107, -20.982004165649414, -5.0942182540893555, -9.839170455932617, -9.437771797180176, -10.843128204345703, 47.392967224121094, -0.228515625, -0.2880859375, -0.740234375
380, 3863000774, -16.587146759033203, -5.649801731109619, -11.775894165039062, -69.00728607177734, 94.20716857910156, 55.703712463378906, -0.224609375, -0.270263671875, -0.74755859375
381, 3863017441, 3.2483720779418945, -10.951969146728516, 15.68259334564209, -41.45233154296875, 142.82781982421875, -2.139749050140381, -0.204833984375, -0.25634765625, -0.756591796875
382, 3863034108, -8.510515213012695, -2.2980399131774902, 18.28601837158203, 30.454137802124023, 178.2516632080078, -80.45281982421875, -0.16552734375, -0.26513671875, -0.761474609375
383, 3863050775, -8.157031059265137, 2.103956460952759, 7.775763988494873, 39.88124465942383, 206.3153533935547, -36.66737747192383, -0.120849609375, -0.275634765625, -0.762451171875
384, 3863067442, -12.815951347351074, 3.927025318145752, 14.07846450805664, 32.059539794921875, 169.5791473388672, -15.724634170532227, -0.08349609375, -0.285400390625, -0.76220703125
385, 3863084109, -5.51163387298584, 4.88279390335083, 8.106416702270508, 37.856895446777344, 156.58460998535156, -3.6011297702789307, -0.052978515625, -0.295166015625, -0.760986328125
386, 3863100776, -6.657658576965332, 5.168208599090576, 10.383747100830078, 21.589067459106445, 143.26190185546875, -15.691142082214355, -0.020751953125, -0.30126953125, -0.75634765625
387, 3863117443, -12.44754695892334, 5.264444828033447, 11.75545883178711, -37.97517395019531, 92.17049407958984, -43.311058044433594, 0.006103515625, -0.297119140625, -0.7626953125
388, 3863134110, -6.883713722229004, -1.7878673076629639, 10.970474243164062, -49.4140510559082, 46.71665954589844, -26.030546188354492, 0.0166015625, -0.2861328125, -0.76953125
389, 3863150777, -6.055428981781006, 2.4265127182006836, 8.72950267791748, -35.18840408325195, 26.060565948486328, -13.461094856262207, 0.025634765625, -0.277587890625, -0.766845703125
390, 3863167444, -5.885228633880615, 1.4910787343978882, 8.834360122680664, -20.781723022460938, 8.376655578613281, -6.919565677642822, 0.030517578125, -0.272705078125, -0.767333984375
391, 3863184111, -5.358012676239014, 1.9377336502075195, 8.43017292022705, -13.125225067138672, 3.0510447025299072, -5.5228447914123535, 0.028076171875, -0.273193359375, -0.767333984375
392, 3863200778, -4.90507698059082, 2.067969560623169, 8.177244186401367, -7.226266860961914, 1.0759193897247314, -4.6274094581604, 0.030029296875, -0.26904296875, -0.76953125
393, 3863217445, -5.0091376304626465, 1.7021489143371582, 8.276267051696777, -7.737137794494629, 0.4228978157043457, -5.102704048156738, 0.030029296875, -0.2685546875, -0.7705078125
394, 3863234112, -5.062160968780518, 1.8035786151885986, 8.304512023925781, -8.465191841125488, 1.105437994003296, -4.153061866760254, 0.031494140625, -0.26611328125, -0.77099609375
395, 3863250779, -5.170788764953613, 1.9066628217697144, 8.284529685974121, -10.520561218261719, 2.312885284423828, -4.2118821144104, 0.032958984375, -0.2646484375, -0.76953125
396, 3863267446, -5.099432945251465, 1.9383236169815063, 8.210342407226562, -9.588719367980957, 2.0357940196990967, -5.271851062774658, 0.032958984375, -0.26416015625, -0.77001953125
397, 3863284113, -5.239045143127441, 2.0421159267425537, 8.184995651245117, -10.671369552612305, 0.48961901664733887, -7.0193562507629395, 0.03466796875, -0.26220703125, -0.771484375
398, 3863300780, -5.125678539276123, 1.859929084777832, 8.206347465515137, -13.03687572479248, -2.750537633895874, -9.4169921875, 0.03271484375, -0.26025390625, -0.7724609375
399, 3863317447, -5.096906661987305, 1.971226692199707, 8.235379219055176, -15.547672271728516, -5.905323505401611, -11.56847858428955, 0.033203125, -0.257568359375, -0.7734375
400, 3863334114, -5.2045979499816895, 1.7133558988571167, 8.238380432128906, -11.822922706604004, -4.049077033996582, -10.212677001953125, 0.032470703125, -0.255126953125, -0.772705078125
401, 3863350781, -5.1065287590026855, 1.7143166065216064, 8.26599407196045, -8.481508255004883, -2.013927459716797, -9.011218070983887, 0.032470703125, -0.251220703125, -0.773681640625
402, 3863367448, -5.219946384429932, 1.6358044147491455, 8.227002143859863, -6.750971794128418, -0.43053677678108215, -8.130562782287598, 0.03271484375, -0.251220703125, -0.775634765625
403, 3863384115, -5.242397308349609, 1.7106475830078125, 8.24444580078125, -5.553013324737549, 0.3830956220626831, -7.758203506469727, 0.033447265625, -0.251708984375, -0.772705078125
404, 3863400782, -5.049543380737305, 1.807066798210144, 8.25412368774414, -5.330619812011719, 0.4546576738357544, -8.493597030639648, 0.03369140625, -0.24853515625, -0.774169921875
405, 3863417449, -5.090874195098877, 1.8417223691940308, 8.305161476135254, -5.566219329833984, -0.14615894854068756, -11.05096435546875, 0.0341796875, -0.250244140625, -0.777587890625
406, 3863434116, -5.295768737792969, 1.6778919696807861, 8.242634773254395, -4.900917053222656, 1.0120289325714111, -12.281682968139648, 0.0341796875, -0.24853515625, -0.773681640625
407, 3863450783, -5.111468315124512, 1.5948123931884766, 8.282292366027832, -2.3399648666381836, 4.70433235168457, -11.317964553833008, 0.03759765625, -0.249755859375, -0.775146484375
408, 3863467450, -5.110034942626953, 1.5223361253738403, 8.34451675415039, 0.2354128509759903, 10.606500625610352, -9.57691478729248, 0.04052734375, -0.250732421875, -0.7724609375
409, 3863484117, -4.974006175994873, 1.5762771368026733, 8.34214973449707, 1.673491358757019, 18.63587188720703, -9.059379577636719, 0.043212890625, -0.251708984375, -0.772216796875
410, 3863500784, -4.465246677398682, 1.481778621673584, 8.196281433105469, 1.1506999731063843, 32.30717849731445, -10.769914627075195, 0.049072265625, -0.251220703125, -0.771728515625
411, 3863517451, -5.1568989753723145, 1.7053632736206055, 8.110359191894531, 2.1165716648101807, 51.59612274169922, -15.288195610046387, 0.062744140625, -0.251220703125, -0.772705078125
412, 3863534118, -5.180145740509033, 1.5357906818389893, 8.272651672363281, 7.918951988220215, 68.2136459350586, -16.601469039916992, 0.076904296875, -0.2529296875, -0.771240234375
413, 3863550785, -5.363968372344971, 1.7118030786514282, 8.267704010009766, 6.115795612335205, 82.76626586914062, -17.550357818603516, 0.09521484375, -0.25390625, -0.76513671875
414, 3863567452, -5.5761189460754395, 1.4357492923736572, 7.932902812957764, 6.8654866218566895, 97.61141204833984, -18.6856689453125, 0.116455078125, -0.255615234375, -0.760986328125
415, 3863584119, -5.6563544273376465, 1.4101572036743164, 7.827464580535889, 9.845683097839355, 113.39409637451172, -19.150720596313477, 0.1455078125, -0.25927734375, -0.75390625
416, 3863600786, -5.6589508056640625, 1.339249849319458, 7.771080493927002, 14.316866874694824, 133.23487854003906, -18.71782875061035, 0.172119140625, -0.260009765625, -0.745849609375
417, 3863617453, -5.705485820770264, 1.1722544431686401, 7.698794364929199, 17.957752227783203, 157.8834991455078, -17.679107666015625, 0.205078125, -0.2626953125, -0.73681640625
418, 3863634120, -5.657770156860352, 0.8394494652748108, 7.690530776977539, 20.33698844909668, 195.00051879882812, -12.60399341583252, 0.245849609375, -0.267333984375, -0.721923828125
419, 3863650787, -5.905976295471191, 1.2777117490768433, 7.4106926918029785, 19.515779495239258, 248.0821990966797, -5.634564399719238, 0.292236328125, -0.27099609375, -0.699462890625
420, 3863667454, -6.918350696563721, 1.897230625152588, 7.724674701690674, 0.6828110218048096, 323.39068603515625, -5.373450756072998, 0.348876953125, -0.274169921875, -0.66552734375
421, 3863684121, -7.645954608917236, 3.031599998474121, 8.685652732849121, -9.817482948303223, 414.5242614746094, -17.992345809936523, 0.423583984375, -0.2724609375, -0.619140625
422, 3863700788, -11.351438522338867, 2.969381332397461, 10.64775276184082, 9.146804809570312, 475.67633056640625, -46.81730651855469, 0.505859375, -0.26904296875, -0.553466796875
423, 3863717455, -17.873363494873047, 2.37660551071167, 10.9186372756958, 28.12141990661621, 472.29010009765625, -66.85095977783203, 0.58154296875, -0.260009765625, -0.472900390625
424, 3863734122, -17.567602157592773, 4.918949604034424, 10.562936782836914, 23.426284790039062, 471.7213439941406, -84.75350189208984, 0.642822265625, -0.2490234375, -0.378662109375
425, 3863750789, -17.362977981567383, 5.325263977050781, 12.484760284423828, -7.730785369873047, 457.2093200683594, -115.1843490600586, 0.69482421875, -0.22705078125, -0.27880859375
426, 3863767456, -10.114654541015625, 3.5267951488494873, 13.26763916015625, 9.586145401000977, 406.0377502441406, -94.40482330322266, 0.724365234375, -0.201171875, -0.181396484375
427, 3863784123, -7.7038068771362305, 0.8715893626213074, 15.630359649658203, 63.84558868408203, 293.80291748046875, -40.50211715698242, 0.736083984375, -0.192626953125, -0.0986328125
428, 3863800790, -30.92217254638672, 5.524011611938477, 27.680932998657227, 78.35289001464844, 113.99449920654297, -79.40985870361328, 0.73388671875, -0.170654296875, -0.045166015625
429, 3863817457, -12.931134223937988, 8.205949783325195, 23.35918426513672, 50.61003494262695, -159.28927612304688, -30.551464080810547, 0.722412109375, -0.150390625, -0.045654296875
430, 3863834124, -3.1857359409332275, 5.659745693206787, 11.262167930603027, -34.1390266418457, -252.4486846923828, -52.519588470458984, 0.708740234375, -0.12353515625, -0.066162109375
431, 3863850791, -1.7267301082611084, 3.2455286979675293, 6.28482723236084, -80.70409393310547, -258.7471008300781, -78.14563751220703, 0.706298828125, -0.0859375, -0.07861328125
432, 3863867458, -2.770489454269409, 2.9363672733306885, 6.290794372558594, -89.148193359375, -263.6744384765625, -75.55393981933594, 0.722900390625, -0.039794921875, -0.082275390625
433, 3863884125, -5.142399787902832, 4.141611576080322, 7.455850124359131, -76.9117202758789, -300.43450927734375, -68.28569030761719, 0.77001953125, 0.0087890625, -0.102294921875
434, 3863900792, -6.63538932800293, 4.253945350646973, 7.535547733306885, -57.16936111450195, -344.86083984375, -51.04707717895508, 0.839599609375, 0.054931640625, -0.188720703125
435, 3863917459, -7.6260175704956055, 4.654344081878662, 6.40438985824585, -29.11276626586914, -383.5469665527344, -23.609670639038086, 0.883544921875, 0.0849609375, -0.348388671875
436, 3863934126, -7.738855361938477, 5.310831546783447, 5.338530540466309, -9.741610527038574, -403.0754089355469, 2.962096691131592, 0.847412109375, 0.093017578125, -0.540771484375
437, 3863950793, -7.612429141998291, 5.403266429901123, 5.436986923217773, -2.2784459590911865, -406.70111083984375, 30.053871154785156, 0.7314453125, 0.09033203125, -0.697021484375
438, 3863967460, -7.937615871429443, 3.9071550369262695, 5.260338306427002, 15.371047019958496, -401.71417236328125, 54.054691314697266, 0.588134765625, 0.083251953125, -0.78564453125
439, 3863984127, -8.734024047851562, 2.943418264389038, 5.094184398651123, 50.156639099121094, -377.8912353515625, 70.16615295410156, 0.46142578125, 0.07421875, -0.8359375
440, 3864000794, -13.60031795501709, 1.9964091777801514, 8.279300689697266, 92.00348663330078, -352.13861083984375, 86.48699951171875, 0.365234375, 0.0556640625, -0.869140625
441, 3864017461, -14.053757667541504, 1.8161463737487793, 8.221929550170898, 126.67390441894531, -327.264892578125, 107.69817352294922, 0.27783203125, 0.015869140625, -0.906982421875
442, 3864034128, -14.39964485168457, 1.295005440711975, 7.927211284637451, 118.26797485351562, -269.992919921875, 105.39558410644531, 0.186767578125, -0.0263671875, -0.932861328125
443, 3864050795, -19.742177963256836, -0.5206429958343506, 10.94130802154541, 112.84725952148438, -235.956787109375, 93.39720153808594, 0.097900390625, -0.062744140625, -0.924560546875
444, 3864067462, -19.31955337524414, -1.7680658102035522, 7.5605082511901855, 121.55233001708984, -206.29624938964844, 83.70376586914062, 0.0263671875, -0.09814453125, -0.8994140625
445, 3864084129, -21.665334701538086, -0.5718610286712646, 7.250699043273926, 110.87555694580078, -172.232666015625, 68.0251693725586, -0.01904296875, -0.134033203125, -0.882568359375
446, 3864100796, -23.120088577270508, -0.4646083414554596, 6.012845993041992, 79.9345703125, -183.14251708984375, 61.176326751708984, -0.066162109375, -0.164306640625, -0.87451171875
447, 3864117463, -20.47010040283203, -1.7669435739517212, 1.0187221765518188, 50.153873443603516, -175.183349609375, 54.9233512878418, -0.114990234375, -0.184814453125, -0.86474609375
448, 3864134130, -20.070964813232422, -1.6432764530181885, -1.1203372478485107, 23.573017120361328, -149.6715087890625, 48.671287536621094, -0.162841796875, -0.198486328125, -0.855712890625
449, 3864150797, -19.340595245361328, -2.3667829036712646, -3.042468786239624, -12.247111320495605, -120.71733856201172, 41.0472526550293, -0.195556640625, -0.1982421875, -0.8427734375
450, 3864167464, -17.41621208190918, -4.193415641784668, -4.915881633758545, -36.43701934814453, -76.5068588256836, 37.06574630737305, -0.221435546875, -0.19091796875, -0.837646484375
451, 3864184131, -18.016239166259766, -5.390250205993652, -2.8840484619140625, -64.37752532958984, -34.388614654541016, 22.537673950195312, -0.234619140625, -0.17431640625, -0.833740234375
452, 3864200798, -17.315229415893555, -7.181416988372803, -0.5466338396072388, -96.24137115478516, -16.293903350830078, -8.98529052734375, -0.2421875, -0.15380859375, -0.836181640625
453, 3864217465, -5.858695030212402, -14.446410179138184, -5.653637886047363, -35.074363708496094, 66.37983703613281, -51.570594787597656, -0.232666015625, -0.1376953125, -0.839599609375
454, 3864234132, 2.5499606132507324, 6.8505706787109375, 13.41527271270752, 31.16859245300293, 128.916015625, -33.4798583984375, -0.20849609375, -0.143310546875, -0.842529296875
455, 3864250799, -6.64112663269043, 11.351407051086426, 10.53188419342041, 52.298980712890625, 216.0531463623047, -36.85219955444336, -0.16064453125, -0.15283203125, -0.84521484375
456, 3864267466, -11.225279808044434, -2.8169760704040527, 11.155604362487793, 56.276649475097656, 214.45364379882812, -6.968837261199951, -0.108154296875, -0.163330078125, -0.84765625
457, 3864284133, -10.529052734375, 2.154284715652466, 12.630385398864746, 63.03361892700195, 154.3137969970703, -6.660006999969482, -0.070068359375, -0.174560546875, -0.849365234375
458, 3864300800, -10.459678649902344, 11.208398818969727, 11.328635215759277, 37.657203674316406, 127.54306030273438, -11.872692108154297, -0.037353515625, -0.188232421875, -0.844970703125
459, 3864317467, -9.057109832763672, 2.6845481395721436, 9.511629104614258, -30.807960510253906, 77.79064178466797, -39.79645919799805, -0.01416015625, -0.178955078125, -0.848876953125
460, 3864334134, -5.597684860229492, 1.4104734659194946, 8.925777435302734, -43.282012939453125, 53.39801025390625, -32.00107955932617, 0.0029296875, -0.16845703125, -0.85107421875
461, 3864350801, -6.6332550048828125, 1.2564936876296997, 9.506070137023926, -43.371063232421875, 41.20147705078125, -25.672325134277344, 0.014892578125, -0.155029296875, -0.85400390625
462, 3864367468, -5.993278980255127, 1.7977101802825928, 9.018623352050781, -40.573551177978516, 22.653953552246094, -20.180673599243164, 0.02001953125, -0.14501953125, -0.85498046875
463, 3864384135, -5.993408679962158, 1.9063575267791748, 8.7916898727417, -32.04850769042969, 10.205679893493652, -16.36208724975586, 0.02490234375, -0.13818359375, -0.85595703125
464, 3864400802, -5.166484355926514, 2.2260518074035645, 8.257330894470215, -24.277217864990234, 3.221055269241333, -13.708466529846191, 0.027587890625, -0.131103515625, -0.85693359375
465, 3864417469, -5.187056064605713, 1.9341436624526978, 8.3833646774292, -17.374801635742188, 2.47587513923645, -12.897477149963379, 0.028564453125, -0.124755859375, -0.859619140625
466, 3864434136, -5.316432476043701, 1.9107471704483032, 8.179641723632812, -16.056419372558594, -0.11121050268411636, -12.562470436096191, 0.027099609375, -0.1220703125, -0.858642578125
467, 3864450803, -5.284644603729248, 1.774600625038147, 8.273090362548828, -18.0766658782959, 0.13566429913043976, -12.331408500671387, 0.029052734375, -0.11767578125, -0.859130859375
468, 3864467470, -5.356473445892334, 1.8749462366104126, 8.268324851989746, -20.26021385192871, -2.4328019618988037, -12.979774475097656, 0.030029296875, -0.114013671875, -0.86083984375
469, 3864484137, -5.345570087432861, 1.9410253763198853, 8.20656967163086, -16.16303253173828, -2.927574396133423, -11.106143951416016, 0.030517578125, -0.110107421875, -0.858154296875
470, 3864500804, -5.186524868011475, 1.7964413166046143, 8.230607032775879, -10.903385162353516, -2.2610652446746826, -8.64098834991455, 0.030029296875, -0.107666015625, -0.8583984375
471, 3864517471, -5.358182907104492, 1.7024773359298706, 8.166291236877441, -9.895767211914062, -2.7212228775024414, -8.257347106933594, 0.02880859375, -0.10498046875, -0.85888671875
472, 3864534138, -5.296224117279053, 1.6963013410568237, 8.210448265075684, -9.866708755493164, -3.037642240524292, -7.966001987457275, 0.029052734375, -0.10107421875, -0.86083984375
473, 3864550805, -5.229556560516357, 1.7435498237609863, 8.191844940185547, -8.877392768859863, -2.9649789333343506, -7.369277477264404, 0.0283203125, -0.1005859375, -0.8583984375
474, 3864567472, -5.166112899780273, 1.8324910402297974, 8.149922370910645, -8.204328536987305, -2.6423611640930176, -7.671173572540283, 0.02783203125, -0.097900390625, -0.860107421875
475, 3864584139, -5.1481499671936035, 1.8304567337036133, 8.145074844360352, -6.154350280761719, -1.1426854133605957, -7.86548376083374, 0.02734375, -0.0986328125, -0.860595703125
476, 3864600806, -5.251216411590576, 1.6693978309631348, 8.179821968078613, -5.773129940032959, -0.2284141182899475, -8.404386520385742, 0.0283203125, -0.096923828125, -0.860107421875
477, 3864617473, -5.3131890296936035, 1.6487990617752075, 8.196853637695312, -7.828667163848877, 0.6843780875205994, -9.22033405303955, 0.029541015625, -0.094970703125, -0.860595703125
478, 3864634140, -5.336314678192139, 1.6713552474975586, 8.160637855529785, -8.973824501037598, 1.079249382019043, -9.570613861083984, 0.0283203125, -0.095947265625, -0.863037109375
479, 3864650807, -5.310205459594727, 1.6411491632461548, 8.163734436035156, -8.616653442382812, 0.8745908737182617, -9.394089698791504, 0.030029296875, -0.091552734375, -0.861572265625
480, 3864667474, -5.263504505157471, 1.6749218702316284, 8.126141548156738, -7.539113521575928, 0.6608911752700806, -9.502379417419434, 0.031005859375, -0.089599609375, -0.860107421875
481, 3864684141, -5.263975143432617, 1.6817435026168823, 8.179267883300781, -7.21522855758667, 0.3275417387485504, -10.238245010375977, 0.031005859375, -0.090576171875, -0.859619140625
482, 3864700808, -5.183498859405518, 1.6544091701507568, 8.200911521911621, -6.780120372772217, 1.8787884712219238, -10.675070762634277, 0.032470703125, -0.088134765625, -0.860595703125
483, 3864717475, -5.189852714538574, 1.552032709121704, 8.210783004760742, -6.802264213562012, 4.908966064453125, -11.483551979064941, 0.033935546875, -0.08447265625, -0.864013671875
484, 3864734142, -5.136122226715088, 1.5669293403625488, 8.20865535736084, -5.937682151794434, 9.835535049438477, -11.812612533569336, 0.035888671875, -0.0830078125, -0.85888671875
485, 3864750809, -4.940221786499023, 1.3306587934494019, 8.206125259399414, -3.005347967147827, 18.59159278869629, -11.490273475646973, 0.0419921875, -0.085205078125, -0.86181640625
486, 3864767476, -5.023542881011963, 1.538786768913269, 8.199502944946289, 4.042747974395752, 34.9233283996582, -13.317030906677246, 0.049072265625, -0.086181640625, -0.85791015625
487, 3864784143, -5.172890663146973, 1.3017534017562866, 8.36202621459961, 8.358833312988281, 51.225711822509766, -14.125533103942871, 0.0625, -0.086181640625, -0.858154296875
488, 3864800810, -5.135690212249756, 1.2612311840057373, 8.328596115112305, 8.942401885986328, 69.04130554199219, -12.879650115966797, 0.0791015625, -0.09033203125, -0.85498046875
489, 3864817477, -5.326298236846924, 1.371636986732483, 8.131636619567871, 8.714723587036133, 89.25650024414062, -13.752318382263184, 0.09716796875, -0.092529296875, -0.85693359375
490, 3864834144, -5.574790000915527, 1.5542017221450806, 7.964170932769775, 10.575414657592773, 109.37317657470703, -16.791561126708984, 0.125732421875, -0.09521484375, -0.85205078125
491, 3864850811, -5.66560173034668, 1.4511336088180542, 7.937078475952148, 13.308212280273438, 129.98402404785156, -21.0942440032959, 0.157958984375, -0.095458984375, -0.844482421875
492, 3864867478, -5.630762577056885, 1.2424626350402832, 7.946079730987549, 14.66160774230957, 157.2159423828125, -22.13164710998535, 0.192138671875, -0.0986328125, -0.834228515625
493, 3864884145, -5.757800102233887, 1.5278483629226685, 7.81439733505249, 12.158658027648926, 194.0929718017578, -24.917783737182617, 0.237548828125, -0.100341796875, -0.821533203125
494, 3864900812, -6.12648868560791, 1.3744083642959595, 7.483363151550293, 4.3599700927734375, 241.58837890625, -32.469181060791016, 0.291748046875, -0.10205078125, -0.80078125
495, 3864917479, -6.809754848480225, 1.9267542362213135, 7.556937217712402, -13.626350402832031, 306.6559143066406, -37.755672454833984, 0.35791015625, -0.09375, -0.7724609375
496, 3864934146, -7.397158622741699, 2.685896158218384, 8.476296424865723, -27.02265167236328, 388.4476013183594, -54.62405014038086, 0.436279296875, -0.08203125, -0.730224609375
497, 3864950813, -10.886926651000977, 2.874643325805664, 10.058082580566406, -21.2286319732666, 453.34454345703125, -74.26581573486328, 0.527587890625, -0.068603515625, -0.6650390625
498, 3864967480, -17.02704620361328, 1.5836939811706543, 11.017148971557617, 11.378188133239746, 449.5437927246094, -86.57239532470703, 0.614013671875, -0.056640625, -0.582763671875
499, 3864984147, -16.90355110168457, 2.6700801849365234, 10.71004581451416, 18.70216941833496, 436.0879821777344, -90.55634307861328, 0.6875, -0.046630859375, -0.498046875
500, 3865000814, -14.987918853759766, 4.411114692687988, 11.42451000213623, 8.086627006530762, 429.1165771484375, -105.8959732055664, 0.747802734375, -0.030517578125, -0.403076171875
501, 3865017481, -12.100845336914062, 3.614096164703369, 13.783867835998535, 6.711060523986816, 396.524169921875, -108.21431732177734, 0.79052734375, -0.010498046875, -0.305419921875
502, 3865034148, -6.76863956451416, 1.8088593482971191, 16.526582717895508, 56.31540298461914, 267.79443359375, -56.97208023071289, 0.814208984375, -0.005126953125, -0.22705078125
503, 3865050815, -26.777437210083008, 4.468492031097412, 27.54448890686035, 102.22264099121094, 76.06358337402344, -60.944679260253906, 0.81591796875, 4.8828125E-4, -0.188720703125
504, 3865067482, -9.645554542541504, 9.337875366210938, 20.357757568359375, 86.65597534179688, -152.80648803710938, -12.012323379516602, 0.801513671875, -0.007080078125, -0.20458984375
505, 3865084149, 0.1590484380722046, 5.885534763336182, 8.97258472442627, -3.8588054180145264, -202.5655975341797, -32.5390625, 0.78125, -0.010498046875, -0.234130859375
506, 3865100816, -1.9877749681472778, 3.4874634742736816, 7.76983642578125, -64.50466918945312, -198.98953247070312, -37.607452392578125, 0.76123046875, -0.002197265625, -0.261962890625
507, 3865117483, -4.280383110046387, 2.9203038215637207, 9.730809211730957, -82.67606353759766, -234.69241333007812, -30.86837387084961, 0.739013671875, 0.009033203125, -0.2880859375
508, 3865134150, -5.6940813064575195, 1.5748169422149658, 10.104310035705566, -66.70613861083984, -303.8104553222656, -19.613327026367188, 0.718017578125, 0.018798828125, -0.32421875
509, 3865150817, -5.645089149475098, 1.1752595901489258, 8.581443786621094, -28.946622848510742, -363.342529296875, 0.9693247675895691, 0.695068359375, 0.021728515625, -0.375732421875
510, 3865167484, -6.613888740539551, 2.3285086154937744, 7.8403849601745605, -6.404621601104736, -399.9754943847656, 22.030004501342773, 0.6650390625, 0.017578125, -0.431640625
511, 3865184151, -7.746060371398926, 3.473064661026001, 7.799291610717773, -12.619071006774902, -431.8775939941406, 40.28891372680664, 0.63134765625, 0.010498046875, -0.487548828125
512, 3865200818, -8.555157661437988, 2.8665127754211426, 6.948405742645264, -23.49039077758789, -448.5643005371094, 54.91228103637695, 0.610595703125, 0.0, -0.561279296875
513, 3865217485, -7.730649471282959, -0.13948500156402588, 3.8528733253479004, -3.4713613986968994, -430.2369384765625, 63.09466552734375, 0.576171875, -0.020751953125, -0.662109375
514, 3865234152, -11.437507629394531, -1.8565118312835693, 4.597149848937988, 42.346126556396484, -356.3566589355469, 56.24549102783203, 0.503662109375, -0.048095703125, -0.758544921875
515, 3865250819, -14.343606948852539, 0.8162567019462585, 7.868302822113037, 71.03717803955078, -306.51959228515625, 42.03119659423828, 0.412109375, -0.073974609375, -0.821044921875
516, 3865267486, -15.295313835144043, 2.8879282474517822, 7.600027084350586, 53.9954719543457, -264.7183532714844, 33.7834587097168, 0.3154296875, -0.08740234375, -0.853759765625
517, 3865284153, -17.05439567565918, 3.3114516735076904, 8.043445587158203, 53.571044921875, -232.321533203125, 43.34038162231445, 0.2314453125, -0.10205078125, -0.857666015625
518, 3865300820, -16.023662567138672, 5.680364608764648, 6.4838361740112305, 75.56058502197266, -203.5781707763672, 80.35830688476562, 0.16650390625, -0.122314453125, -0.8330078125
519, 3865317487, -17.202375411987305, 8.536153793334961, 6.7203264236450195, 56.40938949584961, -168.68148803710938, 124.47946166992188, 0.12646484375, -0.147705078125, -0.80810546875
520, 3865334154, -18.596942901611328, 5.476888656616211, 8.201553344726562, 8.562174797058105, -160.99575805664062, 146.29400634765625, 0.104248046875, -0.160888671875, -0.7939453125
521, 3865350821, -17.135007858276367, 0.8610790967941284, 7.222558498382568, -3.972482442855835, -161.01473999023438, 154.1042938232422, 0.081787109375, -0.1748046875, -0.7900390625
522, 3865367488, -16.053354263305664, -0.5046068429946899, 6.516922473907471, 0.7038987874984741, -155.47723388671875, 154.8857879638672, 0.05615234375, -0.18603515625, -0.792724609375
523, 3865384155, -15.410648345947266, 0.5906585454940796, 4.31981086730957, -11.427692413330078, -142.58053588867188, 155.88885498046875, 0.024658203125, -0.194580078125, -0.801513671875
524, 3865400822, -14.746055603027344, 2.049971580505371, 0.18296095728874207, -30.478620529174805, -107.89026641845703, 166.04824829101562, -0.005859375, -0.193359375, -0.816650390625
525, 3865417489, -14.867501258850098, 2.1366894245147705, -3.0717368125915527, -13.572358131408691, -51.4571418762207, 199.83465576171875, -0.030029296875, -0.19384765625, -0.826904296875
526, 3865434156, -16.726362228393555, 1.560212254524231, -3.3758342266082764, 44.22455978393555, 1.1211574077606201, 247.43267822265625, -0.04541015625, -0.204833984375, -0.8349609375
527, 3865450823, -18.621248245239258, 3.559438943862915, -2.9475278854370117, 39.361549377441406, 32.66241455078125, 250.05467224121094, -0.055419921875, -0.2177734375, -0.838623046875
528, 3865467490, -17.524606704711914, 1.2907418012619019, -3.314354658126831, -35.5221061706543, 58.30421829223633, 214.80743408203125, -0.054931640625, -0.21337890625, -0.8427734375
529, 3865484157, -16.216156005859375, -5.898804187774658, -6.556596279144287, -52.64059066772461, 104.34394073486328, 150.87625122070312, -0.047119140625, -0.203857421875, -0.85107421875
530, 3865500824, -0.2226029485464096, -3.2233164310455322, 5.689534664154053, 17.56621551513672, 161.12918090820312, 60.422523498535156, -0.0078125, -0.208251953125, -0.85791015625
531, 3865517491, -5.191294193267822, -2.6598281860351562, 21.750646591186523, 58.00958251953125, 182.8214874267578, -23.253395080566406, 0.04345703125, -0.2236328125, -0.85498046875
532, 3865534158, -10.270387649536133, 2.0285022258758545, 7.895768642425537, 86.64710998535156, 174.5152587890625, -25.647733688354492, 0.09228515625, -0.25146484375, -0.85107421875
533, 3865550825, -12.145500183105469, 2.273453712463379, 13.840608596801758, 52.930747985839844, 168.53359985351562, -19.619861602783203, 0.14794921875, -0.27099609375, -0.842529296875
534, 3865567492, -8.411478996276855, 2.653090000152588, 11.918903350830078, 36.985713958740234, 112.73251342773438, -25.54228401184082, 0.1845703125, -0.2861328125, -0.83349609375
535, 3865584159, -8.40086841583252, 9.698968887329102, 9.219391822814941, -11.598560333251953, 82.53559112548828, -30.668964385986328, 0.208740234375, -0.288330078125, -0.832275390625
536, 3865600826, -6.127686023712158, 2.6251108646392822, 9.403464317321777, -32.61982727050781, 62.122867584228516, -30.176681518554688, 0.23046875, -0.280029296875, -0.829833984375
537, 3865617493, -6.437333583831787, 3.439086675643921, 8.830557823181152, -34.47443389892578, 40.65961456298828, -29.89680290222168, 0.244384765625, -0.27197265625, -0.827392578125
538, 3865634160, -5.341684341430664, 2.7432873249053955, 8.496071815490723, -33.28290939331055, 28.970773696899414, -26.431718826293945, 0.255859375, -0.2646484375, -0.833251953125
539, 3865650827, -4.913210868835449, 2.81048321723938, 8.218092918395996, -37.17862319946289, 18.304622650146484, -26.44676971435547, 0.262939453125, -0.256103515625, -0.830078125
540, 3865667494, -5.083232879638672, 2.591789722442627, 8.18537712097168, -39.029518127441406, 11.588200569152832, -28.273359298706055, 0.271484375, -0.2451171875, -0.83154296875
541, 3865684161, -5.0185370445251465, 1.8897632360458374, 8.447381973266602, -38.07794952392578, 6.822848796844482, -28.510326385498047, 0.2734375, -0.236083984375, -0.83203125
542, 3865700828, -5.0515360832214355, 2.3638410568237305, 8.108160018920898, -41.56998825073242, 5.159207344055176, -29.69887924194336, 0.281005859375, -0.2236328125, -0.835205078125
543, 3865717495, -5.702455997467041, 1.8408228158950806, 8.562047004699707, -43.57452392578125, 1.2155964374542236, -27.723268508911133, 0.282470703125, -0.212646484375, -0.836669921875
544, 3865734162, -5.372007846832275, 2.064873218536377, 8.40954875946045, -39.46505355834961, -3.421140193939209, -24.706979751586914, 0.282958984375, -0.20361328125, -0.8369140625
545, 3865750829, -5.345846652984619, 1.8961753845214844, 8.484195709228516, -33.62372589111328, -4.232356071472168, -21.699790954589844, 0.284423828125, -0.192138671875, -0.842041015625
546, 3865767496, -5.330796718597412, 1.7770140171051025, 8.524452209472656, -35.175331115722656, -3.538607597351074, -20.896026611328125, 0.286376953125, -0.18359375, -0.839599609375
547, 3865784163, -5.418300628662109, 1.5318363904953003, 8.517790794372559, -34.02340316772461, -6.0065178871154785, -19.286378860473633, 0.286376953125, -0.175537109375, -0.84228515625
548, 3865800830, -5.198062896728516, 1.3416796922683716, 8.487187385559082, -28.766111373901367, -7.427405834197998, -16.490367889404297, 0.284912109375, -0.1669921875, -0.843994140625
549, 3865817497, -5.071128845214844, 1.4029868841171265, 8.392253875732422, -22.13412857055664, -7.235746383666992, -13.883001327514648, 0.283447265625, -0.160888671875, -0.84765625
550, 3865834164, -5.158234596252441, 1.272373914718628, 8.381888389587402, -17.80311393737793, -7.852189540863037, -12.589665412902832, 0.283935546875, -0.155029296875, -0.849609375
551, 3865850831, -5.175222873687744, 1.1876277923583984, 8.400422096252441, -14.769455909729004, -7.589591026306152, -11.073114395141602, 0.284423828125, -0.152587890625, -0.8505859375
552, 3865867498, -5.101492404937744, 1.1855744123458862, 8.405284881591797, -12.29193115234375, -6.912848949432373, -8.91384220123291, 0.28076171875, -0.150390625, -0.849853515625
553, 3865884165, -5.023183822631836, 1.223445177078247, 8.364533424377441, -10.878400802612305, -6.584799289703369, -7.746258735656738, 0.281005859375, -0.146484375, -0.851806640625
554, 3865900832, -4.887151718139648, 1.2333691120147705, 8.349377632141113, -9.48428726196289, -5.268331050872803, -7.161905288696289, 0.2783203125, -0.14404296875, -0.85205078125
555, 3865917499, -4.9298295974731445, 1.2680190801620483, 8.40512466430664, -8.41855239868164, -3.5081214904785156, -7.165450572967529, 0.27978515625, -0.143310546875, -0.85302734375
556, 3865934166, -4.952150344848633, 1.1522682905197144, 8.318682670593262, -7.789746284484863, -2.2593352794647217, -6.702973365783691, 0.27880859375, -0.141845703125, -0.8525390625
557, 3865950833, -4.729272842407227, 1.1304126977920532, 8.363581657409668, -5.400515079498291, 1.3484256267547607, -5.646115779876709, 0.279296875, -0.138916015625, -0.853515625
558, 3865967500, -4.94716739654541, 1.1821414232254028, 8.389089584350586, -3.3911094665527344, 5.597918510437012, -5.320744514465332, 0.27978515625, -0.141845703125, -0.85009765625
559, 3865984167, -5.026437282562256, 1.132833480834961, 8.41382884979248, -2.7499592304229736, 6.7791643142700195, -4.88188362121582, 0.284423828125, -0.139892578125, -0.849365234375
560, 3866000834, -4.934211730957031, 1.2869219779968262, 8.421036720275879, -2.121859550476074, 8.744967460632324, -5.26569128036499, 0.285888671875, -0.140869140625, -0.850341796875
561, 3866017501, -5.126925945281982, 1.1734821796417236, 8.42747974395752, -2.4467310905456543, 10.80233383178711, -5.919776439666748, 0.287841796875, -0.137939453125, -0.851318359375
562, 3866034168, -5.151761054992676, 1.0587363243103027, 8.451766014099121, -3.4747490882873535, 12.388299942016602, -5.0762481689453125, 0.29443359375, -0.138427734375, -0.85205078125
563, 3866050835, -5.052227020263672, 1.2151631116867065, 8.475995063781738, -7.762601375579834, 14.139381408691406, -3.7912206649780273, 0.2958984375, -0.137939453125, -0.846923828125
564, 3866067502, -5.083996295928955, 1.2010724544525146, 8.400866508483887, -11.150494575500488, 18.81415367126465, -5.093029499053955, 0.301025390625, -0.136474609375, -0.848388671875
565, 3866084169, -5.012127876281738, 1.0648810863494873, 8.340189933776855, -6.03444766998291, 27.89967155456543, -5.932047367095947, 0.308349609375, -0.134033203125, -0.84619140625
566, 3866100836, -5.230096817016602, 1.1518051624298096, 8.393654823303223, -5.440228462219238, 36.951480865478516, -7.018043518066406, 0.31689453125, -0.132080078125, -0.843017578125
567, 3866117503, -5.22567892074585, 1.0365395545959473, 8.282949447631836, -2.989384412765503, 47.37555694580078, -7.931113243103027, 0.328369140625, -0.131103515625, -0.839599609375
568, 3866134170, -5.349711894989014, 1.137742042541504, 8.187400817871094, -2.4969992637634277, 57.542205810546875, -9.863224029541016, 0.341552734375, -0.132080078125, -0.83154296875
569, 3866150837, -5.493311882019043, 1.1140905618667603, 8.172152519226074, -1.1700586080551147, 67.09537506103516, -12.251152038574219, 0.361083984375, -0.1298828125, -0.828857421875
570, 3866167504, -5.539351463317871, 1.1144007444381714, 8.085776329040527, 1.0249875783920288, 81.42943572998047, -16.039113998413086, 0.380615234375, -0.12939453125, -0.8193359375
571, 3866184171, -5.626750469207764, 1.0232447385787964, 8.225069046020508, 2.0146381855010986, 102.46920776367188, -22.16348648071289, 0.403076171875, -0.13037109375, -0.810546875
572, 3866200838, -5.657921314239502, 1.2201955318450928, 8.281673431396484, 0.38496488332748413, 132.69192504882812, -30.97759246826172, 0.4326171875, -0.1259765625, -0.794921875
573, 3866217505, -5.763258934020996, 1.3935291767120361, 8.350408554077148, -6.08042049407959, 170.56936645507812, -46.294498443603516, 0.471923828125, -0.11767578125, -0.774169921875
574, 3866234172, -6.178534507751465, 1.6074906587600708, 8.48003101348877, -21.075313568115234, 207.9689483642578, -66.85286712646484, 0.515380859375, -0.105712890625, -0.748779296875
575, 3866250839, -6.924540996551514, 2.304001808166504, 8.585615158081055, -42.417728424072266, 246.97328186035156, -94.80162811279297, 0.5712890625, -0.08544921875, -0.70947265625
576, 3866267506, -8.424359321594238, 3.391789436340332, 8.590205192565918, -72.9646987915039, 282.5474853515625, -132.2230682373047, 0.629638671875, -0.04931640625, -0.668212890625
577, 3866284173, -11.511370658874512, 4.8517608642578125, 10.239511489868164, -118.5626449584961, 294.12530517578125, -176.33290100097656, 0.68359375, 0.0048828125, -0.61376953125
578, 3866300840, -15.733732223510742, 6.720266342163086, 11.923713684082031, -181.4473419189453, 258.9364013671875, -216.99777221679688, 0.72900390625, 0.07861328125, -0.557861328125
579, 3866317507, -16.245969772338867, 7.069762706756592, 10.622859001159668, -205.1616668701172, 186.0452117919922, -249.0194854736328, 0.7431640625, 0.167236328125, -0.513916015625
580, 3866334174, -11.67704963684082, 8.766884803771973, 8.572356224060059, -204.26219177246094, 147.947509765625, -271.4366760253906, 0.741455078125, 0.25927734375, -0.47119140625
581, 3866350841, -5.507275104522705, 10.60055923461914, 7.184455871582031, -277.14471435546875, 153.81478881835938, -311.216552734375, 0.724365234375, 0.361572265625, -0.418212890625
582, 3866367508, -8.84420108795166, 16.69620132446289, 4.2762532234191895, -441.3863220214844, 190.5361328125, -312.0094299316406, 0.700927734375, 0.477783203125, -0.331787109375
583, 3866384175, -24.7910099029541, 13.880187034606934, 19.28792381286621, -403.9496154785156, 105.11029815673828, -72.51148223876953, 0.68310546875, 0.5478515625, -0.2333984375
584, 3866400842, -17.24858856201172, 8.153619766235352, 14.969681739807129, -254.43418884277344, -84.61514282226562, 142.01861572265625, 0.693115234375, 0.553466796875, -0.1962890625
585, 3866417509, -7.7680535316467285, 6.429234027862549, 8.633204460144043, -215.49807739257812, -168.01626586914062, 194.78076171875, 0.709716796875, 0.535888671875, -0.1943359375
586, 3866434176, -4.91501522064209, 3.185154676437378, 5.044521331787109, -236.30381774902344, -164.43902587890625, 168.1285858154297, 0.73095703125, 0.52001953125, -0.18994140625
587, 3866450843, -5.481736660003662, 2.2185683250427246, 5.73907470703125, -248.91775512695312, -155.9684295654297, 119.61737823486328, 0.752685546875, 0.513427734375, -0.185302734375
588, 3866467510, -8.107760429382324, 1.2714787721633911, 8.674477577209473, -223.7974395751953, -188.22116088867188, 89.99856567382812, 0.770751953125, 0.51220703125, -0.19482421875
589, 3866484177, -8.944936752319336, 2.1321909427642822, 9.434404373168945, -152.43482971191406, -251.08163452148438, 89.46691131591797, 0.774169921875, 0.50390625, -0.2353515625
590, 3866500844, -7.9786295890808105, 5.041347503662109, 7.653321743011475, -103.37713623046875, -297.9395751953125, 95.182861328125, 0.759765625, 0.4951171875, -0.292724609375
591, 3866517511, -8.031180381774902, 6.036048412322998, 6.495136260986328, -91.4121322631836, -321.7695617675781, 98.62651062011719, 0.73583984375, 0.48583984375, -0.346923828125
592, 3866534178, -8.315081596374512, 5.041053295135498, 6.218213081359863, -71.20610046386719, -341.7486267089844, 106.1566162109375, 0.710693359375, 0.477783203125, -0.400146484375
593, 3866550845, -8.762200355529785, 4.024966716766357, 5.676062107086182, -30.542926788330078, -353.56719970703125, 118.50846862792969, 0.685302734375, 0.469482421875, -0.461669921875
594, 3866567512, -9.401165962219238, 4.905581951141357, 5.283647537231445, 12.535527229309082, -352.77728271484375, 131.8898468017578, 0.659423828125, 0.44970703125, -0.52685546875
595, 3866584179, -10.68164348602295, 5.7664103507995605, 5.745950222015381, 34.74943542480469, -344.36505126953125, 145.1381072998047, 0.6376953125, 0.430908203125, -0.598388671875
596, 3866600846, -12.170974731445312, 5.595030307769775, 5.845037460327148, 44.83121109008789, -329.5005187988281, 152.48191833496094, 0.61181640625, 0.403564453125, -0.672119140625
597, 3866617513, -12.973793029785156, 3.9932444095611572, 5.445146560668945, 59.96128845214844, -294.6265869140625, 156.92086791992188, 0.58447265625, 0.37109375, -0.7431640625
598, 3866634180, -15.997478485107422, 1.5758817195892334, 8.73503303527832, 90.78274536132812, -245.089599609375, 156.82676696777344, 0.56640625, 0.32958984375, -0.81640625
599, 3866650847, -20.682729721069336, -0.3723570704460144, 13.521979331970215, 123.43863677978516, -251.4850311279297, 151.17027282714844, 0.520263671875, 0.2626953125, -0.902099609375
600, 3866667514, -19.59889030456543, -2.3306729793548584, 11.359699249267578, 133.4285125732422, -261.53790283203125, 131.7668914794922, 0.435546875, 0.196044921875, -0.955322265625
601, 3866684181, -19.736495971679688, -3.4980616569519043, 9.940478324890137, 134.5328369140625, -248.58984375, 123.23531341552734, 0.3525390625, 0.138427734375, -0.978759765625
602, 3866700848, -19.6160888671875, -3.5849852561950684, 8.002128601074219, 120.85018920898438, -234.8621826171875, 127.22537231445312, 0.281494140625, 0.087158203125, -0.994384765625
603, 3866717515, -19.452207565307617, -3.591712474822998, 5.034643173217773, 88.40677642822266, -210.01744079589844, 124.42436981201172, 0.2109375, 0.05029296875, -1.004638671875
604, 3866734182, -19.91097068786621, -2.8257884979248047, 3.145179271697998, 53.51838684082031, -183.923095703125, 117.45414733886719, 0.146240234375, 0.023681640625, -1.002197265625
605, 3866750849, -19.73955726623535, -2.8128297328948975, 1.4602807760238647, 31.377992630004883, -160.39544677734375, 122.27603912353516, 0.08935546875, 0.009521484375, -0.99462890625
606, 3866767516, -17.037866592407227, -4.175005912780762, -1.9630272388458252, 1.6918565034866333, -120.78487396240234, 126.7655258178711, 0.044921875, 0.005859375, -0.98681640625
607, 3866784183, -17.956775665283203, -9.612005233764648, -3.7961699962615967, -9.078210830688477, -73.92894744873047, 105.36329650878906, 0.018798828125, 0.00927734375, -0.979736328125
608, 3866800850, -17.680715560913086, -9.457707405090332, -5.378520965576172, 2.9384195804595947, -27.98432159423828, 61.560489654541016, 0.007080078125, 0.0087890625, -0.97802734375
609, 3866817517, -17.385601043701172, -7.373094081878662, -2.056885242462158, -25.93848419189453, 24.620800018310547, 14.048260688781738, 0.005126953125, 0.00927734375, -0.97705078125
610, 3866834184, -4.17832088470459, -9.804980278015137, 2.1656508445739746, -54.45582580566406, 68.73709869384766, -50.50701904296875, 0.025146484375, 0.019775390625, -0.97900390625
611, 3866850851, 7.436672687530518, 13.922611236572266, 15.46823501586914, 17.669151306152344, 119.05305480957031, -40.825050354003906, 0.0478515625, 0.011962890625, -0.980224609375
612, 3866867518, -3.2310266494750977, 4.365590572357178, 5.987462997436523, 4.502274513244629, 220.70623779296875, -48.31733703613281, 0.102783203125, 0.009033203125, -0.97900390625
613, 3866884185, -14.084736824035645, -6.797755718231201, 17.22821044921875, 5.912013530731201, 198.11134338378906, -31.216564178466797, 0.163330078125, 7.32421875E-4, -0.968994140625
614, 3866900852, -8.106483459472656, 3.775120496749878, 11.927545547485352, 3.2461113929748535, 153.0251922607422, -37.91923522949219, 0.209716796875, -0.001220703125, -0.965576171875
615, 3866917519, -6.734803676605225, 4.966410160064697, 9.753030776977539, 8.870253562927246, 143.97044372558594, -14.630789756774902, 0.250244140625, -0.0078125, -0.95849609375
616, 3866934186, -5.658693313598633, 1.8585532903671265, 9.43786334991455, 8.81140422821045, 125.47785949707031, -18.323213577270508, 0.2880859375, -0.0126953125, -0.947265625
617, 3866950853, -5.772209167480469, 3.211578130722046, 8.674155235290527, 16.9740047454834, 123.39448547363281, -13.530296325683594, 0.320556640625, -0.018310546875, -0.9375
618, 3866967520, -7.7888617515563965, 4.041707992553711, 10.50143814086914, 5.715054035186768, 113.28266906738281, -17.792638778686523, 0.35302734375, -0.02294921875, -0.92724609375
619, 3866984187, -8.767827987670898, 4.269454479217529, 10.111717224121094, -22.514816284179688, 81.57249450683594, -29.52250862121582, 0.378662109375, -0.02099609375, -0.91650390625
620, 3867000854, -6.3619303703308105, 1.155133843421936, 9.81453800201416, -37.523414611816406, 45.2888069152832, -24.781566619873047, 0.394775390625, -0.008544921875, -0.91162109375
621, 3867017521, -5.456538200378418, 1.7865909337997437, 8.70964527130127, -48.15474319458008, 32.228416442871094, -23.899080276489258, 0.404541015625, 0.0029296875, -0.909423828125
622, 3867034188, -5.443662643432617, 1.1158804893493652, 9.26257038116455, -60.89033126831055, 23.793004989624023, -26.270214080810547, 0.40966796875, 0.0205078125, -0.904541015625
623, 3867050855, -5.092992305755615, 2.3809311389923096, 8.428018569946289, -48.12678527832031, 12.0679349899292, -20.128965377807617, 0.41455078125, 0.033935546875, -0.903564453125
624, 3867067522, -5.290752410888672, 1.6103856563568115, 8.495777130126953, -32.15835189819336, 5.688344478607178, -15.967669486999512, 0.41455078125, 0.046630859375, -0.90283203125
625, 3867084189, -5.255035400390625, 2.228271484375, 8.513653755187988, -23.854150772094727, -0.09672664850950241, -15.834367752075195, 0.416015625, 0.052490234375, -0.90185546875
626, 3867100856, -5.352519512176514, 2.3150672912597656, 8.429585456848145, -27.33945083618164, -12.56417465209961, -19.485267639160156, 0.4169921875, 0.0615234375, -0.9033203125
627, 3867117523, -5.762249946594238, 1.8079209327697754, 8.120869636535645, -25.12882423400879, -18.141944885253906, -19.08290672302246, 0.413330078125, 0.069091796875, -0.90576171875
628, 3867134190, -5.347161293029785, 1.0335582494735718, 8.329663276672363, -18.116748809814453, -11.326423645019531, -14.517492294311523, 0.406982421875, 0.07421875, -0.905029296875
629, 3867150857, -5.111306667327881, 1.1486568450927734, 8.407973289489746, -10.41687297821045, -4.9743876457214355, -9.06572437286377, 0.40380859375, 0.078125, -0.905029296875
630, 3867167524, -5.114113807678223, 1.6342616081237793, 8.418479919433594, -9.721534729003906, -2.0445218086242676, -7.659071922302246, 0.4052734375, 0.080078125, -0.907470703125
631, 3867184191, -5.151186466217041, 1.7112233638763428, 8.309342384338379, -10.705232620239258, -2.4036128520965576, -9.596765518188477, 0.4052734375, 0.082275390625, -0.906005859375
632, 3867200858, -5.162139892578125, 1.533746361732483, 8.274751663208008, -11.572213172912598, -2.202937602996826, -11.318915367126465, 0.408203125, 0.089111328125, -0.906005859375
633, 3867217525, -5.093099594116211, 1.3784698247909546, 8.284125328063965, -10.296287536621094, 0.23700086772441864, -11.233763694763184, 0.40576171875, 0.0908203125, -0.90576171875
634, 3867234192, -5.029284954071045, 1.1673715114593506, 8.318053245544434, -6.494141101837158, 5.260383605957031, -8.755475044250488, 0.4052734375, 0.09228515625, -0.904296875
635, 3867250859, -5.002298831939697, 1.3305091857910156, 8.326266288757324, -1.742779016494751, 11.295368194580078, -6.696764945983887, 0.40625, 0.09228515625, -0.90478515625
636, 3867267526, -5.032312393188477, 1.400934100151062, 8.329320907592773, 0.252086877822876, 16.531024932861328, -6.25800895690918, 0.410400390625, 0.08935546875, -0.902099609375
637, 3867284193, -5.221831798553467, 1.502136468887329, 8.314093589782715, -0.6408692002296448, 20.35970115661621, -6.94912052154541, 0.417724609375, 0.0908203125, -0.899169921875
638, 3867300860, -5.355147361755371, 1.5811067819595337, 8.238434791564941, -4.680640697479248, 21.791501998901367, -9.122570991516113, 0.42333984375, 0.09326171875, -0.89453125
639, 3867317527, -5.126885414123535, 1.2386173009872437, 8.196555137634277, -1.0005241632461548, 24.325653076171875, -11.103964805603027, 0.4306640625, 0.09375, -0.892822265625
640, 3867334194, -5.251284122467041, 1.2313700914382935, 8.204967498779297, 3.9852800369262695, 30.48809051513672, -10.724345207214355, 0.436767578125, 0.09423828125, -0.88916015625
641, 3867350861, -5.174906253814697, 1.3104723691940308, 8.268109321594238, 7.326266765594482, 38.513519287109375, -9.382534980773926, 0.44921875, 0.092041015625, -0.884765625
642, 3867367528, -5.10928201675415, 1.2373690605163574, 8.336877822875977, 9.682877540588379, 50.58686065673828, -8.52680492401123, 0.457275390625, 0.090576171875, -0.87841796875
643, 3867384195, -5.259410858154297, 1.2271713018417358, 8.167601585388184, 11.27804946899414, 66.39973449707031, -8.106588363647461, 0.473876953125, 0.08740234375, -0.8720703125
644, 3867400862, -5.503726005554199, 1.2692610025405884, 8.013833045959473, 11.534496307373047, 82.38951873779297, -8.120706558227539, 0.495849609375, 0.08349609375, -0.8603515625
645, 3867417529, -5.745855808258057, 1.3968452215194702, 7.855318546295166, 12.745892524719238, 96.62992858886719, -8.778716087341309, 0.517333984375, 0.082275390625, -0.846435546875
646, 3867434196, -5.9265594482421875, 1.3826137781143188, 7.709903240203857, 13.509571075439453, 110.26754760742188, -10.67401123046875, 0.542236328125, 0.079345703125, -0.83056640625
647, 3867450863, -5.894953727722168, 1.2884126901626587, 7.61052942276001, 15.475662231445312, 125.89287567138672, -11.707222938537598, 0.57275390625, 0.0751953125, -0.810302734375
648, 3867467530, -5.93644905090332, 1.1139159202575684, 7.664186477661133, 19.563539505004883, 149.67555236816406, -10.596470832824707, 0.605224609375, 0.072998046875, -0.785400390625
649, 3867484197, -5.904989719390869, 1.3974658250808716, 7.609411239624023, 18.468154907226562, 187.38914489746094, -12.363019943237305, 0.64404296875, 0.071044921875, -0.757080078125
650, 3867500864, -6.360166549682617, 1.675782561302185, 7.439094543457031, 12.02058219909668, 237.13958740234375, -20.095983505249023, 0.69482421875, 0.07080078125, -0.71142578125
651, 3867517531, -7.037169933319092, 2.3456180095672607, 7.103479385375977, -4.492954254150391, 304.4856262207031, -32.937618255615234, 0.7509765625, 0.076416015625, -0.651123046875
652, 3867534198, -7.410118579864502, 2.9341959953308105, 8.610334396362305, -18.84109115600586, 384.425048828125, -51.8754997253418, 0.81201171875, 0.089111328125, -0.568603515625
653, 3867550865, -11.680459022521973, 3.0884408950805664, 10.07715892791748, -9.930354118347168, 441.56524658203125, -71.79832458496094, 0.875732421875, 0.109375, -0.46337890625
654, 3867567532, -17.11146354675293, 1.7436527013778687, 10.488341331481934, 24.61540985107422, 441.54656982421875, -85.66268920898438, 0.921630859375, 0.129638671875, -0.348388671875
655, 3867584199, -17.0281925201416, 3.4776203632354736, 10.218005180358887, 32.88326644897461, 432.1421203613281, -92.81066131591797, 0.952392578125, 0.156494140625, -0.231689453125
656, 3867600866, -14.272093772888184, 4.111826419830322, 10.589250564575195, 26.714141845703125, 424.3138427734375, -106.80083465576172, 0.965087890625, 0.189208984375, -0.114501953125
657, 3867617533, -11.017630577087402, 2.911076068878174, 12.175189018249512, 31.56475257873535, 393.92535400390625, -102.51399230957031, 0.955810546875, 0.2265625, -0.0087890625
658, 3867634200, -8.614568710327148, 2.6918411254882812, 15.938326835632324, 69.38374328613281, 265.22003173828125, -60.54189682006836, 0.93798828125, 0.250244140625, 0.064697265625
