sep=,
DeviceTag:,A,,,,,,,,,,,,,,,,,
FirmwareVersion:,2.2.1,,,,,,,,,,,,,,,,,
AppVersion:,2022.0.1,,,,,,,,,,,,,,,,,
SyncStatus:,Synced,,,,,,,,,,,,,,,,,
OutputRate:,60Hz,,,,,,,,,,,,,,,,,
FilterProfile:,General,,,,,,,,,,,,,,,,,
Measurement Mode:,Inertial Mode - Rate quantities (with mag),,,,,,,,,,,,,,,,,
StartTime:,2022-08-05 15:44:40.260 +0300,,,,,,,,,,,,,,,,,
© Xsens Technologies B. V. 2005-2022,,,,,,,,,,,,,,,,,,,

PacketCounter,SampleTimeFine,Acc_X,Acc_Y,Acc_Z,Gyr_X,Gyr_Y,Gyr_Z,Mag_X,Mag_Y,Mag_Z
1, 4022287293, -5.040734767913818, 1.3632683753967285, 8.327347755432129, -3.0036141872406006, -1.3284410238265991, -2.649441719055176, 0.041259765625, -0.149658203125, -0.83203125
2, 4022303960, -5.036871433258057, 1.3674101829528809, 8.301366806030273, -3.0147042274475098, -1.26528000831604, -2.5972297191619873, 0.041015625, -0.149658203125, -0.835693359375
3, 4022320627, -5.053501129150391, 1.373562216758728, 8.302855491638184, -3.1915342807769775, -1.2735273838043213, -2.7247557640075684, 0.041259765625, -0.151123046875, -0.8330078125
4, 4022337294, -5.0526275634765625, 1.3554258346557617, 8.322562217712402, -3.197195053100586, -1.2530758380889893, -2.6602632999420166, 0.0419921875, -0.151123046875, -0.83203125
5, 4022353961, -5.0596232414245605, 1.3513855934143066, 8.314568519592285, -3.201676845550537, -1.1806941032409668, -2.6875274181365967, 0.042236328125, -0.150634765625, -0.828369140625
6, 4022370628, -5.05273962020874, 1.3483973741531372, 8.326034545898438, -3.1257097721099854, -1.1868027448654175, -2.6146721839904785, 0.044921875, -0.149169921875, -0.830810546875
7, 4022387295, -5.05033016204834, 1.351694107055664, 8.32111644744873, -3.2103726863861084, -1.213132619857788, -2.703625440597534, 0.04443359375, -0.151123046875, -0.8388671875
8, 4022403962, -5.053644180297852, 1.3647798299789429, 8.328794479370117, -3.3647406101226807, -1.3648881912231445, -2.7390992641448975, 0.04150390625, -0.150634765625, -0.83544921875
9, 4022420629, -5.05111026763916, 1.3411890268325806, 8.319491386413574, -3.36069393157959, -1.3536314964294434, -2.7361667156219482, 0.04248046875, -0.150146484375, -0.8349609375
10, 4022437296, -5.0522990226745605, 1.3481606245040894, 8.32033920288086, -3.3434438705444336, -1.244866967201233, -2.784817934036255, 0.0419921875, -0.149169921875, -0.83251953125
11, 4022453963, -5.056884765625, 1.3580999374389648, 8.291519165039062, -3.284931182861328, -1.2266945838928223, -2.6903579235076904, 0.04248046875, -0.149169921875, -0.83203125
12, 4022470630, -5.049781799316406, 1.3400871753692627, 8.336515426635742, -3.1827874183654785, -1.2012484073638916, -2.7196972370147705, 0.040771484375, -0.148681640625, -0.83251953125
13, 4022487297, -5.06492805480957, 1.345941424369812, 8.329910278320312, -3.17413067817688, -1.290560007095337, -2.602557897567749, 0.04296875, -0.148193359375, -0.8330078125
14, 4022503964, -5.058300495147705, 1.3455452919006348, 8.306306838989258, -3.238328695297241, -1.4359246492385864, -2.629373788833618, 0.04345703125, -0.148681640625, -0.8369140625
15, 4022520631, -5.063235759735107, 1.3516782522201538, 8.336381912231445, -3.215924024581909, -1.4134559631347656, -2.656722068786621, 0.040283203125, -0.147705078125, -0.83251953125
16, 4022537298, -5.059384822845459, 1.3447102308273315, 8.325004577636719, -3.118870973587036, -1.4819508790969849, -2.630974769592285, 0.04296875, -0.148193359375, -0.8310546875
17, 4022553965, -5.050244331359863, 1.344527006149292, 8.325013160705566, -2.9089620113372803, -1.4041136503219604, -2.65181040763855, 0.0419921875, -0.150634765625, -0.83251953125
18, 4022570632, -5.062273979187012, 1.3303828239440918, 8.315834045410156, -2.8285257816314697, -1.2385022640228271, -2.538654327392578, 0.04296875, -0.150634765625, -0.83349609375
19, 4022587299, -5.05045747756958, 1.3271455764770508, 8.32345199584961, -2.8243255615234375, -1.2123645544052124, -2.527205228805542, 0.0419921875, -0.148681640625, -0.8330078125
20, 4022603966, -5.055393695831299, 1.325047492980957, 8.313788414001465, -2.8244667053222656, -1.2079846858978271, -2.541010856628418, 0.04443359375, -0.146728515625, -0.833984375
21, 4022620633, -5.052121162414551, 1.3351629972457886, 8.325776100158691, -2.826528310775757, -1.2367349863052368, -2.6313724517822266, 0.0439453125, -0.148681640625, -0.8349609375
22, 4022637300, -5.05790901184082, 1.3247989416122437, 8.343144416809082, -2.871349811553955, -1.1816034317016602, -2.641206979751587, 0.04248046875, -0.147705078125, -0.83154296875
23, 4022653967, -5.058382987976074, 1.3202155828475952, 8.310922622680664, -2.7906064987182617, -1.1219005584716797, -2.630962610244751, 0.04150390625, -0.149169921875, -0.83251953125
24, 4022670634, -5.0673604011535645, 1.3255956172943115, 8.319890022277832, -2.6530916690826416, -1.0624276399612427, -2.5158331394195557, 0.044921875, -0.146240234375, -0.83349609375
25, 4022687301, -5.084486484527588, 1.3260726928710938, 8.315640449523926, -2.628554582595825, -1.0828152894973755, -2.4827158451080322, 0.04248046875, -0.150634765625, -0.83447265625
26, 4022703968, -5.069193363189697, 1.3281580209732056, 8.325045585632324, -2.6274149417877197, -1.1326576471328735, -2.453658103942871, 0.04443359375, -0.148193359375, -0.83544921875
27, 4022720635, -5.05086088180542, 1.3338955640792847, 8.315165519714355, -2.5822596549987793, -1.1496388912200928, -2.5814528465270996, 0.0439453125, -0.146728515625, -0.833984375
28, 4022737302, -5.048203945159912, 1.3233954906463623, 8.322576522827148, -2.6675755977630615, -1.1901326179504395, -2.594681978225708, 0.04443359375, -0.147705078125, -0.83544921875
29, 4022753969, -5.061272621154785, 1.3160042762756348, 8.317057609558105, -2.6552560329437256, -1.2345579862594604, -2.576035976409912, 0.04443359375, -0.148681640625, -0.830322265625
30, 4022770636, -5.058128356933594, 1.3164921998977661, 8.317111015319824, -2.551396369934082, -1.118801236152649, -2.50703501701355, 0.04296875, -0.148193359375, -0.83154296875
31, 4022787303, -5.073907852172852, 1.3330624103546143, 8.324573516845703, -2.5583372116088867, -1.091267466545105, -2.492410182952881, 0.04541015625, -0.147216796875, -0.833984375
32, 4022803970, -5.077126502990723, 1.3238396644592285, 8.342761993408203, -2.643615245819092, -1.1799644231796265, -2.5318541526794434, 0.04345703125, -0.150146484375, -0.8359375
33, 4022820637, -5.077847003936768, 1.3243290185928345, 8.314102172851562, -2.608013391494751, -1.3622117042541504, -2.5696072578430176, 0.04345703125, -0.147705078125, -0.833984375
34, 4022837304, -5.06730842590332, 1.3279697895050049, 8.31900405883789, -2.663541555404663, -1.3559107780456543, -2.527435779571533, 0.04541015625, -0.148681640625, -0.83251953125
35, 4022853971, -5.068153381347656, 1.3246243000030518, 8.313838005065918, -2.6530275344848633, -1.3746976852416992, -2.519355058670044, 0.04443359375, -0.149658203125, -0.83203125
36, 4022870638, -5.068668365478516, 1.3254735469818115, 8.31512451171875, -2.600163221359253, -1.3711631298065186, -2.532968282699585, 0.04248046875, -0.149658203125, -0.83056640625
37, 4022887305, -5.070826530456543, 1.3327052593231201, 8.304247856140137, -2.5271542072296143, -1.330221176147461, -2.453005313873291, 0.04443359375, -0.148681640625, -0.8349609375
38, 4022903972, -5.0835676193237305, 1.3270083665847778, 8.321606636047363, -2.5554556846618652, -1.3807165622711182, -2.4097323417663574, 0.0419921875, -0.147705078125, -0.8349609375
39, 4022920639, -5.072930335998535, 1.3262674808502197, 8.305244445800781, -2.5729682445526123, -1.3284858465194702, -2.45986270904541, 0.04248046875, -0.147216796875, -0.83203125
40, 4022937306, -5.068875789642334, 1.3299959897994995, 8.328315734863281, -2.704176187515259, -1.3798844814300537, -2.512862205505371, 0.04345703125, -0.148681640625, -0.83349609375
41, 4022953973, -5.0764546394348145, 1.323660135269165, 8.304258346557617, -2.7224509716033936, -1.4043573141098022, -2.5578765869140625, 0.044921875, -0.148681640625, -0.831298828125
42, 4022970640, -5.0778937339782715, 1.3255776166915894, 8.304676055908203, -2.7161502838134766, -1.4676846265792847, -2.5143990516662598, 0.0439453125, -0.147705078125, -0.83251953125
43, 4022987307, -5.078746795654297, 1.3285303115844727, 8.307130813598633, -2.671443462371826, -1.4726536273956299, -2.491655111312866, 0.044921875, -0.147705078125, -0.8330078125
44, 4023003974, -5.073602676391602, 1.3179067373275757, 8.31628704071045, -2.7370505332946777, -1.4499865770339966, -2.4906816482543945, 0.04541015625, -0.147216796875, -0.83447265625
45, 4023020641, -5.068298816680908, 1.3266544342041016, 8.327404975891113, -2.5101723670959473, -1.4026154279708862, -2.4290571212768555, 0.04248046875, -0.147705078125, -0.83544921875
46, 4023037308, -5.067431449890137, 1.3232512474060059, 8.311347007751465, -2.606271982192993, -1.4205701351165771, -2.434359312057495, 0.04345703125, -0.148193359375, -0.83544921875
47, 4023053975, -5.059049606323242, 1.322125792503357, 8.294243812561035, -2.611138343811035, -1.4609358310699463, -2.4598183631896973, 0.04443359375, -0.147705078125, -0.83203125
48, 4023070642, -5.078938007354736, 1.325249195098877, 8.325549125671387, -2.643051862716675, -1.3919223546981812, -2.400883436203003, 0.04248046875, -0.146728515625, -0.83203125
49, 4023087309, -5.078326225280762, 1.3338011503219604, 8.312780380249023, -2.5110819339752197, -1.39507257938385, -2.4124090671539307, 0.04541015625, -0.146240234375, -0.8330078125
50, 4023103976, -5.074779510498047, 1.3320931196212769, 8.32112979888916, -2.5614750385284424, -1.4170994758605957, -2.334303379058838, 0.04345703125, -0.146728515625, -0.83544921875
51, 4023120643, -5.079369068145752, 1.3135563135147095, 8.311904907226562, -2.519956588745117, -1.5044772624969482, -2.387948989868164, 0.04443359375, -0.149169921875, -0.83447265625
52, 4023137310, -5.077569007873535, 1.3180865049362183, 8.324799537658691, -2.584622859954834, -1.4498263597488403, -2.4120826721191406, 0.0419921875, -0.148681640625, -0.83349609375
53, 4023153977, -5.067859649658203, 1.3342976570129395, 8.309259414672852, -2.5699656009674072, -1.4736652374267578, -2.379624605178833, 0.0458984375, -0.147216796875, -0.8330078125
54, 4023170644, -5.070850372314453, 1.3355284929275513, 8.290281295776367, -2.6218953132629395, -1.4739853143692017, -2.402099847793579, 0.04541015625, -0.146728515625, -0.83203125
55, 4023187311, -5.073249816894531, 1.3257356882095337, 8.31145191192627, -2.7090044021606445, -1.497101068496704, -2.4513661861419678, 0.04443359375, -0.147216796875, -0.83349609375
56, 4023203978, -5.061290740966797, 1.3302115201950073, 8.305347442626953, -2.698554277420044, -1.6177879571914673, -2.459946632385254, 0.04248046875, -0.149169921875, -0.83544921875
57, 4023220645, -5.071988582611084, 1.3259209394454956, 8.310462951660156, -2.8224167823791504, -1.6337698698043823, -2.4699478149414062, 0.0439453125, -0.147216796875, -0.83544921875
58, 4023237312, -5.059210300445557, 1.3155282735824585, 8.30301284790039, -2.883183002471924, -1.6358829736709595, -2.5218262672424316, 0.0439453125, -0.148681640625, -0.83349609375
59, 4023253979, -5.065267086029053, 1.3223849534988403, 8.307223320007324, -2.7915408611297607, -1.5817761421203613, -2.5621917247772217, 0.04443359375, -0.148681640625, -0.83203125
60, 4023270646, -5.069484710693359, 1.332089900970459, 8.3001127243042, -2.7722294330596924, -1.5517072677612305, -2.536234140396118, 0.04345703125, -0.146728515625, -0.83203125
61, 4023287313, -5.0754804611206055, 1.320288062095642, 8.302774429321289, -2.7244873046875, -1.5606974363327026, -2.574345827102661, 0.04443359375, -0.147216796875, -0.83447265625
62, 4023303980, -5.071072578430176, 1.299363374710083, 8.31893539428711, -2.7050986289978027, -1.432403326034546, -2.508495330810547, 0.044921875, -0.144287109375, -0.83544921875
63, 4023320647, -5.069504261016846, 1.320008635520935, 8.3353271484375, -2.6104211807250977, -1.4426482915878296, -2.5241193771362305, 0.04345703125, -0.146728515625, -0.836669921875
64, 4023337314, -5.064262866973877, 1.3051416873931885, 8.303611755371094, -2.4662723541259766, -1.3379433155059814, -2.462238311767578, 0.04443359375, -0.148193359375, -0.83154296875
65, 4023353981, -5.0714335441589355, 1.3127270936965942, 8.318327903747559, -2.455322742462158, -1.3757349252700806, -2.3755009174346924, 0.04345703125, -0.148193359375, -0.83056640625
66, 4023370648, -5.070932865142822, 1.3095134496688843, 8.321069717407227, -2.4879539012908936, -1.2982566356658936, -2.4259839057922363, 0.04296875, -0.146240234375, -0.83251953125
67, 4023387315, -5.067666530609131, 1.3108000755310059, 8.328136444091797, -2.4103214740753174, -1.210622787475586, -2.4437973499298096, 0.04443359375, -0.148681640625, -0.83447265625
68, 4023403982, -5.069924354553223, 1.311793327331543, 8.322502136230469, -2.3632071018218994, -1.2307031154632568, -2.3373382091522217, 0.04345703125, -0.147705078125, -0.8349609375
69, 4023420649, -5.069393157958984, 1.3227629661560059, 8.302913665771484, -2.370339870452881, -1.1353468894958496, -2.337120294570923, 0.04443359375, -0.145751953125, -0.83544921875
70, 4023437316, -5.072940349578857, 1.3261693716049194, 8.334036827087402, -2.5283448696136475, -1.2993707656860352, -2.4016385078430176, 0.04248046875, -0.147705078125, -0.83154296875
71, 4023453983, -5.07701301574707, 1.3240034580230713, 8.321256637573242, -2.5392556190490723, -1.3526322841644287, -2.4322714805603027, 0.04443359375, -0.147705078125, -0.830322265625
72, 4023470650, -5.071627140045166, 1.3290880918502808, 8.306005477905273, -2.627978563308716, -1.5113288164138794, -2.507317066192627, 0.0439453125, -0.148681640625, -0.83349609375
73, 4023487317, -5.069801330566406, 1.3335200548171997, 8.319293022155762, -2.6216397285461426, -1.585925817489624, -2.514373540878296, 0.0458984375, -0.145751953125, -0.83544921875
74, 4023503984, -5.065164566040039, 1.311806321144104, 8.3212251663208, -2.6651811599731445, -1.5839664936065674, -2.3940577507019043, 0.04541015625, -0.147216796875, -0.833984375
75, 4023520651, -5.070291042327881, 1.3190878629684448, 8.340514183044434, -2.649416208267212, -1.595812201499939, -2.3963630199432373, 0.04345703125, -0.147216796875, -0.833984375
76, 4023537318, -5.07703161239624, 1.318748950958252, 8.306182861328125, -2.5113892555236816, -1.48904550075531, -2.3698537349700928, 0.044921875, -0.147705078125, -0.833984375
77, 4023553985, -5.059684753417969, 1.33089017868042, 8.311630249023438, -2.5898542404174805, -1.4291503429412842, -2.46307110786438, 0.04736328125, -0.149169921875, -0.832763671875
78, 4023570652, -5.069560527801514, 1.3165340423583984, 8.322287559509277, -2.6371994018554688, -1.4659943580627441, -2.3900623321533203, 0.041748046875, -0.146240234375, -0.83251953125
79, 4023587319, -5.067180156707764, 1.3238818645477295, 8.309900283813477, -2.5626020431518555, -1.4527909755706787, -2.430248498916626, 0.04345703125, -0.147705078125, -0.833984375
80, 4023603986, -5.0694966316223145, 1.3224966526031494, 8.320564270019531, -2.6305527687072754, -1.478045105934143, -2.459869623184204, 0.044921875, -0.147216796875, -0.833984375
81, 4023620653, -5.074672698974609, 1.3159838914871216, 8.327127456665039, -2.5555200576782227, -1.4493587017059326, -2.4008193016052246, 0.0439453125, -0.147216796875, -0.8359375
82, 4023637320, -5.065047264099121, 1.3191986083984375, 8.296875, -2.576817274093628, -1.525774359703064, -2.4115898609161377, 0.04345703125, -0.146240234375, -0.83203125
83, 4023653987, -5.067176818847656, 1.2979962825775146, 8.309428215026855, -2.626326322555542, -1.411439061164856, -2.406121253967285, 0.04248046875, -0.148193359375, -0.8330078125
84, 4023670654, -5.066129684448242, 1.3219901323318481, 8.322782516479492, -2.574345827102661, -1.4754583835601807, -2.4455907344818115, 0.044921875, -0.148193359375, -0.83203125
85, 4023687321, -5.0712361335754395, 1.3077536821365356, 8.331903457641602, -2.594041585922241, -1.495410442352295, -2.4053144454956055, 0.04296875, -0.146240234375, -0.83447265625
86, 4023703988, -5.078120708465576, 1.3130096197128296, 8.318221092224121, -2.533557415008545, -1.4949750900268555, -2.4233713150024414, 0.0439453125, -0.147705078125, -0.8349609375
87, 4023720655, -5.0607757568359375, 1.3113431930541992, 8.336894989013672, -2.5040385723114014, -1.5373127460479736, -2.4122681617736816, 0.04638671875, -0.147216796875, -0.83447265625
88, 4023737322, -5.065948486328125, 1.3166300058364868, 8.329541206359863, -2.520392417907715, -1.51242995262146, -2.3951847553253174, 0.04443359375, -0.147705078125, -0.83447265625
89, 4023753989, -5.0735368728637695, 1.310787320137024, 8.322532653808594, -2.425445556640625, -1.375491738319397, -2.2099533081054688, 0.04443359375, -0.146728515625, -0.83154296875
90, 4023770656, -5.075804233551025, 1.3151274919509888, 8.31456184387207, -2.401562213897705, -1.3833932876586914, -2.298112392425537, 0.04638671875, -0.147216796875, -0.83251953125
91, 4023787323, -5.055253028869629, 1.3113551139831543, 8.316646575927734, -2.5298049449920654, -1.3829834461212158, -2.3304998874664307, 0.04345703125, -0.146240234375, -0.83349609375
92, 4023803990, -5.060100555419922, 1.3371608257293701, 8.321013450622559, -2.489516019821167, -1.4599496126174927, -2.3717875480651855, 0.04541015625, -0.146728515625, -0.83642578125
93, 4023820657, -5.083479404449463, 1.3291960954666138, 8.290327072143555, -2.584334373474121, -1.4762648344039917, -2.3678555488586426, 0.04443359375, -0.148193359375, -0.8359375
94, 4023837324, -5.0553460121154785, 1.3219537734985352, 8.319116592407227, -2.5095067024230957, -1.5560483932495117, -2.290851354598999, 0.04443359375, -0.145751953125, -0.833984375
95, 4023853991, -5.078505516052246, 1.3160871267318726, 8.317745208740234, -2.5586705207824707, -1.4290478229522705, -2.4384572505950928, 0.044921875, -0.149658203125, -0.833984375
96, 4023870658, -5.048233985900879, 1.3305617570877075, 8.321958541870117, -2.5579473972320557, -1.5398293733596802, -2.416001319885254, 0.04345703125, -0.147705078125, -0.83154296875
97, 4023887325, -5.071150779724121, 1.3264888525009155, 8.305319786071777, -2.7226178646087646, -1.4380381107330322, -2.481384515762329, 0.04345703125, -0.147705078125, -0.8349609375
98, 4023903992, -5.066460132598877, 1.332205891609192, 8.300745964050293, -2.672595977783203, -1.4678767919540405, -2.5156030654907227, 0.04150390625, -0.146728515625, -0.835693359375
99, 4023920659, -5.066477298736572, 1.319873332977295, 8.324525833129883, -2.7178409099578857, -1.4330180883407593, -2.4766972064971924, 0.04296875, -0.148681640625, -0.8349609375
100, 4023937326, -5.057541847229004, 1.3407618999481201, 8.331807136535645, -2.6337029933929443, -1.4121692180633545, -2.4376380443573, 0.04541015625, -0.147705078125, -0.8330078125
101, 4023953993, -5.061280250549316, 1.3042265176773071, 8.325757026672363, -2.629899501800537, -1.4135777950286865, -2.4705758094787598, 0.04345703125, -0.147216796875, -0.83203125
102, 4023970660, -5.080195903778076, 1.3286153078079224, 8.322084426879883, -2.571361541748047, -1.3050823211669922, -2.455925226211548, 0.04443359375, -0.146728515625, -0.8310546875
103, 4023987327, -5.058887481689453, 1.3141981363296509, 8.335854530334473, -2.622587203979492, -1.3712526559829712, -2.5364644527435303, 0.0439453125, -0.148193359375, -0.8330078125
104, 4024003994, -5.06015157699585, 1.3254010677337646, 8.30676555633545, -2.657715082168579, -1.4182393550872803, -2.4866604804992676, 0.04296875, -0.146728515625, -0.8330078125
105, 4024020661, -5.069150924682617, 1.309930443763733, 8.340995788574219, -2.6011359691619873, -1.2206628322601318, -2.4658751487731934, 0.04443359375, -0.147705078125, -0.83544921875
106, 4024037328, -5.073060035705566, 1.3191556930541992, 8.327775001525879, -2.6418094635009766, -1.3018169403076172, -2.516883611679077, 0.04345703125, -0.147216796875, -0.83447265625
107, 4024053995, -5.08197021484375, 1.317251205444336, 8.30761432647705, -2.6372182369232178, -1.3706830739974976, -2.4876787662506104, 0.04248046875, -0.148193359375, -0.830078125
108, 4024070662, -5.081778049468994, 1.3314945697784424, 8.3027982711792, -2.6504921913146973, -1.388106107711792, -2.535388946533203, 0.04833984375, -0.147705078125, -0.830810546875
109, 4024087329, -5.0761518478393555, 1.3139170408248901, 8.327552795410156, -2.673659086227417, -1.5795353651046753, -2.484278678894043, 0.044921875, -0.148193359375, -0.8349609375
110, 4024103996, -5.070287704467773, 1.3153373003005981, 8.321558952331543, -2.6186814308166504, -1.5070003271102905, -2.507201910018921, 0.04296875, -0.149658203125, -0.8359375
111, 4024120663, -5.072148323059082, 1.3109720945358276, 8.344391822814941, -2.595668315887451, -1.5351101160049438, -2.4406986236572266, 0.04248046875, -0.146728515625, -0.836669921875
112, 4024137330, -5.065725803375244, 1.3212746381759644, 8.334994316101074, -2.5932605266571045, -1.4292399883270264, -2.401869773864746, 0.0439453125, -0.149169921875, -0.83203125
113, 4024153997, -5.081488132476807, 1.3198400735855103, 8.321229934692383, -2.5942976474761963, -1.4804013967514038, -2.4760053157806396, 0.04345703125, -0.146728515625, -0.83203125
114, 4024170664, -5.057779788970947, 1.3118951320648193, 8.317675590515137, -2.5038211345672607, -1.5004944801330566, -2.4798476696014404, 0.04443359375, -0.147216796875, -0.83349609375
115, 4024187331, -5.056130886077881, 1.3113244771957397, 8.308717727661133, -2.6372885704040527, -1.4339015483856201, -2.4887988567352295, 0.04150390625, -0.147216796875, -0.83349609375
116, 4024203998, -5.075878620147705, 1.3121942281723022, 8.32178783416748, -2.5979859828948975, -1.5192174911499023, -2.428481340408325, 0.04443359375, -0.146240234375, -0.8349609375
117, 4024220665, -5.060207843780518, 1.3281108140945435, 8.334512710571289, -2.6324737071990967, -1.5027997493743896, -2.4288270473480225, 0.04345703125, -0.146728515625, -0.833984375
118, 4024237332, -5.062602996826172, 1.3125996589660645, 8.314794540405273, -2.64837908744812, -1.4957562685012817, -2.4745328426361084, 0.04736328125, -0.148193359375, -0.8349609375
119, 4024253999, -5.079202651977539, 1.323431372642517, 8.335114479064941, -2.6170804500579834, -1.4911844730377197, -2.5002224445343018, 0.04541015625, -0.146728515625, -0.83251953125
120, 4024270666, -5.057741641998291, 1.321475625038147, 8.299921035766602, -2.624213457107544, -1.4255775213241577, -2.477081298828125, 0.0458984375, -0.149169921875, -0.8330078125
121, 4024287333, -5.060735702514648, 1.3108572959899902, 8.322547912597656, -2.6227920055389404, -1.4622676372528076, -2.495842933654785, 0.04443359375, -0.147216796875, -0.833984375
122, 4024304000, -5.059250831604004, 1.3272709846496582, 8.311474800109863, -2.5592851638793945, -1.4692726135253906, -2.401869297027588, 0.04541015625, -0.146240234375, -0.83544921875
123, 4024320667, -5.066152095794678, 1.3242803812026978, 8.314875602722168, -2.505063056945801, -1.3843152523040771, -2.3755524158477783, 0.04150390625, -0.145751953125, -0.833984375
124, 4024337334, -5.0638837814331055, 1.317042589187622, 8.298945426940918, -2.5871264934539795, -1.4232724905014038, -2.477900981903076, 0.04443359375, -0.146728515625, -0.83251953125
125, 4024354001, -5.055642127990723, 1.3096954822540283, 8.328597068786621, -2.496828556060791, -1.391538143157959, -2.4232561588287354, 0.04443359375, -0.149169921875, -0.8310546875
126, 4024370668, -5.065720081329346, 1.310665249824524, 8.321006774902344, -2.5384364128112793, -1.3961354494094849, -2.392725706100464, 0.04345703125, -0.149169921875, -0.83154296875
127, 4024387335, -5.057334899902344, 1.324062466621399, 8.313023567199707, -2.554239511489868, -1.4010531902313232, -2.464556932449341, 0.0439453125, -0.147216796875, -0.8359375
128, 4024404002, -5.080498218536377, 1.3230148553848267, 8.319427490234375, -2.5828099250793457, -1.352094292640686, -2.441645860671997, 0.0439453125, -0.148681640625, -0.8369140625
129, 4024420669, -5.073412895202637, 1.3084532022476196, 8.305805206298828, -2.5628392696380615, -1.4418351650238037, -2.546536684036255, 0.04345703125, -0.148193359375, -0.83544921875
130, 4024437336, -5.074240207672119, 1.3157495260238647, 8.303170204162598, -2.6015334129333496, -1.3958666324615479, -2.4308505058288574, 0.04345703125, -0.148193359375, -0.83251953125
131, 4024454003, -5.064504146575928, 1.3206226825714111, 8.325057983398438, -2.5288443565368652, -1.345973014831543, -2.4823572635650635, 0.044921875, -0.148193359375, -0.83447265625
132, 4024470670, -5.064837455749512, 1.3135344982147217, 8.325611114501953, -2.5210325717926025, -1.3377513885498047, -2.4299793243408203, 0.04638671875, -0.147216796875, -0.83251953125
133, 4024487337, -5.070859909057617, 1.3100569248199463, 8.315336227416992, -2.55234432220459, -1.3195664882659912, -2.514437675476074, 0.04443359375, -0.148193359375, -0.8330078125
134, 4024504004, -5.070461750030518, 1.2974028587341309, 8.319708824157715, -2.538743734359741, -1.3720979690551758, -2.456014633178711, 0.0439453125, -0.147216796875, -0.83544921875
135, 4024520671, -5.058178424835205, 1.3178095817565918, 8.313079833984375, -2.587677001953125, -1.401245355606079, -2.4943315982818604, 0.04345703125, -0.147216796875, -0.8349609375
136, 4024537338, -5.072936534881592, 1.3204025030136108, 8.318489074707031, -2.552382469177246, -1.3519792556762695, -2.4542856216430664, 0.0439453125, -0.147705078125, -0.833984375
137, 4024554005, -5.068029403686523, 1.3117287158966064, 8.315812110900879, -2.514488458633423, -1.403678297996521, -2.4419147968292236, 0.04345703125, -0.147216796875, -0.83447265625
138, 4024570672, -5.076395511627197, 1.3140885829925537, 8.311487197875977, -2.5627684593200684, -1.4938223361968994, -2.3564581871032715, 0.04541015625, -0.147216796875, -0.83251953125
139, 4024587339, -5.063882827758789, 1.3139501810073853, 8.299653053283691, -2.6110999584198, -1.4490643739700317, -2.4573214054107666, 0.04345703125, -0.147705078125, -0.83349609375
140, 4024604006, -5.080651760101318, 1.3054256439208984, 8.337455749511719, -2.474775791168213, -1.4495636224746704, -2.484816312789917, 0.044921875, -0.147216796875, -0.8359375
141, 4024620673, -5.061124324798584, 1.3050036430358887, 8.325611114501953, -2.5515120029449463, -1.4031792879104614, -2.4650304317474365, 0.044921875, -0.146728515625, -0.833984375
142, 4024637340, -5.068432331085205, 1.3103691339492798, 8.31059455871582, -2.455028772354126, -1.335932970046997, -2.3699817657470703, 0.04443359375, -0.146728515625, -0.8349609375
143, 4024654007, -5.074036598205566, 1.31925630569458, 8.31128978729248, -2.471676826477051, -1.3846867084503174, -2.365525245666504, 0.0439453125, -0.148193359375, -0.8330078125
144, 4024670674, -5.068465232849121, 1.3205589056015015, 8.338004112243652, -2.5397679805755615, -1.2913408279418945, -2.3582763671875, 0.044921875, -0.148193359375, -0.8330078125
145, 4024687341, -5.086051940917969, 1.3246086835861206, 8.317316055297852, -2.5605146884918213, -1.4209543466567993, -2.4440407752990723, 0.04541015625, -0.146728515625, -0.833984375
146, 4024704008, -5.0730743408203125, 1.3109266757965088, 8.33116340637207, -2.4970462322235107, -1.3860442638397217, -2.4411981105804443, 0.04296875, -0.147216796875, -0.833984375
147, 4024720675, -5.070239067077637, 1.320307970046997, 8.318192481994629, -2.5001578330993652, -1.430341124534607, -2.419362783432007, 0.04443359375, -0.145751953125, -0.8349609375
148, 4024737342, -5.072088241577148, 1.313576102256775, 8.31419849395752, -2.496764659881592, -1.4827960729599, -2.4050326347351074, 0.04296875, -0.147216796875, -0.83544921875
149, 4024754009, -5.059683799743652, 1.3136497735977173, 8.321878433227539, -2.522274971008301, -1.4366676807403564, -2.3903822898864746, 0.04296875, -0.147216796875, -0.8349609375
150, 4024770676, -5.063510417938232, 1.3248802423477173, 8.343283653259277, -2.418607234954834, -1.4180983304977417, -2.319549798965454, 0.04443359375, -0.147216796875, -0.83154296875
151, 4024787343, -5.062925815582275, 1.3031045198440552, 8.30876636505127, -2.4436821937561035, -1.363171935081482, -2.399961233139038, 0.04296875, -0.147216796875, -0.8330078125
152, 4024804010, -5.071073055267334, 1.321921944618225, 8.321563720703125, -2.440634250640869, -1.3534648418426514, -2.3928792476654053, 0.04296875, -0.147705078125, -0.8349609375
153, 4024820677, -5.059564590454102, 1.31325364112854, 8.299152374267578, -2.441978931427002, -1.345422387123108, -2.387885093688965, 0.04248046875, -0.146728515625, -0.835693359375
154, 4024837344, -5.075546741485596, 1.3123271465301514, 8.309054374694824, -2.4390463829040527, -1.278099536895752, -2.3317291736602783, 0.04541015625, -0.147705078125, -0.833984375
155, 4024854011, -5.06765604019165, 1.3127529621124268, 8.317516326904297, -2.4780800342559814, -1.4009507894515991, -2.319345235824585, 0.0439453125, -0.148681640625, -0.83349609375
156, 4024870678, -5.063725471496582, 1.3173030614852905, 8.32416820526123, -2.432054042816162, -1.396366000175476, -2.367522954940796, 0.04296875, -0.150146484375, -0.8330078125
157, 4024887345, -5.070340633392334, 1.319048285484314, 8.309718132019043, -2.448330879211426, -1.3793847560882568, -2.34365177154541, 0.04248046875, -0.147705078125, -0.8330078125
158, 4024904012, -5.0586748123168945, 1.3171626329421997, 8.301688194274902, -2.3968236446380615, -1.278073787689209, -2.3584303855895996, 0.044921875, -0.146728515625, -0.8359375
159, 4024920679, -5.06477165222168, 1.3171555995941162, 8.319684028625488, -2.2857797145843506, -1.1905550956726074, -2.3101885318756104, 0.04443359375, -0.148193359375, -0.8369140625
160, 4024937346, -5.059435844421387, 1.3208786249160767, 8.309528350830078, -1.9709742069244385, -1.0154283046722412, -2.195636034011841, 0.04248046875, -0.148681640625, -0.83447265625
161, 4024954013, -5.06909704208374, 1.3116313219070435, 8.32700252532959, -1.9330545663833618, -0.9673532843589783, -2.1962506771087646, 0.04541015625, -0.148193359375, -0.831298828125
162, 4024970680, -5.07819128036499, 1.3177175521850586, 8.313693046569824, -2.0039634704589844, -1.01777184009552, -2.1808319091796875, 0.04638671875, -0.148681640625, -0.83349609375
163, 4024987347, -5.073626518249512, 1.3194122314453125, 8.30488109588623, -2.1904492378234863, -1.192488670349121, -2.222836494445801, 0.044921875, -0.148681640625, -0.83251953125
164, 4025004014, -5.07473087310791, 1.3223470449447632, 8.318939208984375, -2.252432107925415, -1.3557697534561157, -2.298304557800293, 0.04443359375, -0.147705078125, -0.83447265625
165, 4025020681, -5.0811238288879395, 1.318634271621704, 8.303363800048828, -2.397348642349243, -1.4414058923721313, -2.271615982055664, 0.0419921875, -0.149658203125, -0.83544921875
166, 4025037348, -5.075932025909424, 1.3342130184173584, 8.305408477783203, -2.508815050125122, -1.5172450542449951, -2.4092459678649902, 0.04296875, -0.148193359375, -0.8330078125
167, 4025054015, -5.070054054260254, 1.3384395837783813, 8.325276374816895, -2.3990776538848877, -1.4505369663238525, -2.3374152183532715, 0.04443359375, -0.148681640625, -0.833984375
168, 4025070682, -5.095924377441406, 1.335035800933838, 8.330078125, -2.449381113052368, -1.501711130142212, -2.3585329055786133, 0.0458984375, -0.148681640625, -0.83251953125
169, 4025087349, -5.059680938720703, 1.322346568107605, 8.297816276550293, -2.395875930786133, -1.436039924621582, -2.344778537750244, 0.04150390625, -0.150146484375, -0.83349609375
170, 4025104016, -5.079489231109619, 1.3549638986587524, 8.305585861206055, -2.3696610927581787, -1.3973008394241333, -2.3841323852539062, 0.044921875, -0.148193359375, -0.83447265625
171, 4025120683, -5.077457904815674, 1.3453229665756226, 8.298486709594727, -2.3805339336395264, -1.472589373588562, -2.3254921436309814, 0.04345703125, -0.149169921875, -0.83349609375
172, 4025137350, -5.074826240539551, 1.3354442119598389, 8.328807830810547, -2.6834299564361572, -1.6553235054016113, -2.417083501815796, 0.044921875, -0.148681640625, -0.8349609375
173, 4025154017, -5.081897258758545, 1.3378173112869263, 8.3287992477417, -2.643448829650879, -1.6602026224136353, -2.373286008834839, 0.04638671875, -0.147705078125, -0.831298828125
174, 4025170684, -5.089795112609863, 1.3285270929336548, 8.322744369506836, -2.808316946029663, -1.7638185024261475, -2.464646100997925, 0.04541015625, -0.146728515625, -0.830810546875
175, 4025187351, -5.054978847503662, 1.3364652395248413, 8.319724082946777, -2.990436315536499, -1.9010642766952515, -2.5679166316986084, 0.04443359375, -0.148681640625, -0.83349609375
176, 4025204018, -5.05380392074585, 1.324515700340271, 8.317852020263672, -2.9660274982452393, -1.8025703430175781, -2.638671636581421, 0.0439453125, -0.149658203125, -0.833984375
177, 4025220685, -5.065762519836426, 1.3253669738769531, 8.311634063720703, -2.8784446716308594, -1.641300082206726, -2.562678575515747, 0.0439453125, -0.148193359375, -0.8349609375
178, 4025237352, -5.066611289978027, 1.3245437145233154, 8.321415901184082, -2.6502742767333984, -1.4429043531417847, -2.4358959197998047, 0.04345703125, -0.147216796875, -0.8330078125
179, 4025254019, -5.0583343505859375, 1.3294450044631958, 8.29586124420166, -2.6459712982177734, -1.3709070682525635, -2.3802523612976074, 0.0439453125, -0.149169921875, -0.833984375
180, 4025270686, -5.0717082023620605, 1.349112868309021, 8.300158500671387, -2.7034592628479004, -1.4814773797988892, -2.4245498180389404, 0.044921875, -0.148681640625, -0.83349609375
181, 4025287353, -5.064846992492676, 1.3328213691711426, 8.332390785217285, -2.8318426609039307, -1.5590578317642212, -2.5549051761627197, 0.04443359375, -0.146240234375, -0.8359375
182, 4025304020, -5.079075813293457, 1.3157844543457031, 8.337108612060547, -2.829857349395752, -1.542230248451233, -2.5462734699249268, 0.04541015625, -0.147705078125, -0.83642578125
183, 4025320687, -5.058037281036377, 1.3231037855148315, 8.32178020477295, -2.785163164138794, -1.627315640449524, -2.5625760555267334, 0.044921875, -0.147216796875, -0.8359375
184, 4025337354, -5.06607723236084, 1.3228716850280762, 8.328590393066406, -2.7827179431915283, -1.5836975574493408, -2.510185718536377, 0.0419921875, -0.147705078125, -0.83349609375
185, 4025354021, -5.066891193389893, 1.3170312643051147, 8.29703140258789, -2.6939570903778076, -1.6129217147827148, -2.5180745124816895, 0.0439453125, -0.149658203125, -0.833984375
186, 4025370688, -5.063456058502197, 1.3157823085784912, 8.307149887084961, -2.624444007873535, -1.525172472000122, -2.4400582313537598, 0.044921875, -0.147705078125, -0.8310546875
187, 4025387355, -5.070467948913574, 1.3174645900726318, 8.315425872802734, -2.619795322418213, -1.481643557548523, -2.428699016571045, 0.044921875, -0.145751953125, -0.83349609375
188, 4025404022, -5.070456027984619, 1.3411048650741577, 8.319463729858398, -2.543079137802124, -1.539150595664978, -2.4531784057617188, 0.04345703125, -0.148681640625, -0.83251953125
189, 4025420689, -5.065451622009277, 1.3332442045211792, 8.321913719177246, -2.5859737396240234, -1.4716675281524658, -2.4210917949676514, 0.04296875, -0.146240234375, -0.83544921875
190, 4025437356, -5.066431045532227, 1.3172168731689453, 8.308788299560547, -2.554764747619629, -1.3755429983139038, -2.5224032402038574, 0.04248046875, -0.147705078125, -0.83349609375
191, 4025454023, -5.066014289855957, 1.3328016996383667, 8.325601577758789, -2.5720269680023193, -1.3591378927230835, -2.4247283935546875, 0.044921875, -0.146728515625, -0.83251953125
192, 4025470690, -5.074920654296875, 1.3195469379425049, 8.315291404724121, -2.5760488510131836, -1.3858776092529297, -2.3760390281677246, 0.04345703125, -0.148193359375, -0.83056640625
193, 4025487357, -5.052412986755371, 1.3214123249053955, 8.31581974029541, -2.544814109802246, -1.3608795404434204, -2.4618544578552246, 0.0439453125, -0.146728515625, -0.83349609375
194, 4025504024, -5.07652473449707, 1.3312987089157104, 8.295101165771484, -2.4954452514648438, -1.3782193660736084, -2.4048659801483154, 0.04296875, -0.147216796875, -0.836669921875
195, 4025520691, -5.058070182800293, 1.330782413482666, 8.32808780670166, -2.4758262634277344, -1.3611998558044434, -2.4295825958251953, 0.044921875, -0.145751953125, -0.83544921875
196, 4025537358, -5.056861877441406, 1.3308453559875488, 8.323819160461426, -2.467578887939453, -1.344346523284912, -2.3839664459228516, 0.04443359375, -0.146728515625, -0.83349609375
197, 4025554025, -5.075016498565674, 1.3181371688842773, 8.321392059326172, -2.4600870609283447, -1.3222428560256958, -2.395235776901245, 0.041748046875, -0.147216796875, -0.83203125
198, 4025570692, -5.079352855682373, 1.322225570678711, 8.313993453979492, -2.5943872928619385, -1.3987735509872437, -2.4707164764404297, 0.0439453125, -0.147216796875, -0.83203125
199, 4025587359, -5.065196514129639, 1.321164608001709, 8.327360153198242, -2.4174673557281494, -1.3881953954696655, -2.414393663406372, 0.0439453125, -0.147705078125, -0.8330078125
200, 4025604026, -5.062629699707031, 1.3270325660705566, 8.30833625793457, -2.429966688156128, -1.3807551860809326, -2.3698153495788574, 0.04443359375, -0.146240234375, -0.8349609375
201, 4025620693, -5.070941925048828, 1.3283973932266235, 8.311910629272461, -2.416686534881592, -1.3464597463607788, -2.376948356628418, 0.04296875, -0.147216796875, -0.83447265625
202, 4025637360, -5.05801248550415, 1.3205323219299316, 8.322285652160645, -2.3564326763153076, -1.428727626800537, -2.395761013031006, 0.0439453125, -0.149169921875, -0.8359375
203, 4025654027, -5.064364910125732, 1.324783444404602, 8.312577247619629, -2.2707066535949707, -1.3212822675704956, -2.3135054111480713, 0.0439453125, -0.146728515625, -0.83251953125
204, 4025670694, -5.063241004943848, 1.3292531967163086, 8.310351371765137, -2.164426803588867, -1.2628469467163086, -2.3284120559692383, 0.0439453125, -0.149658203125, -0.83203125
205, 4025687361, -5.06589937210083, 1.3216173648834229, 8.323359489440918, -2.1558847427368164, -1.2955543994903564, -2.388742685317993, 0.0439453125, -0.149658203125, -0.8330078125
206, 4025704028, -5.062569618225098, 1.3425989151000977, 8.310518264770508, -2.1875932216644287, -1.308027744293213, -2.316284418106079, 0.04443359375, -0.146728515625, -0.8349609375
207, 4025720695, -5.058687210083008, 1.3248032331466675, 8.30317211151123, -2.3310115337371826, -1.341247320175171, -2.324352264404297, 0.04345703125, -0.147705078125, -0.8369140625
208, 4025737362, -5.058962821960449, 1.3272632360458374, 8.29345417022705, -2.350054979324341, -1.292698621749878, -2.4764537811279297, 0.0439453125, -0.148681640625, -0.83447265625
209, 4025754029, -5.065249919891357, 1.3244622945785522, 8.316315650939941, -2.339707136154175, -1.2391424179077148, -2.394556760787964, 0.04638671875, -0.148193359375, -0.831787109375
210, 4025770696, -5.081658840179443, 1.343294620513916, 8.32760238647461, -2.4520959854125977, -1.251001238822937, -2.4347305297851562, 0.041748046875, -0.148193359375, -0.83251953125
211, 4025787363, -5.083024024963379, 1.3375506401062012, 8.306981086730957, -2.5437002182006836, -1.388695240020752, -2.5450448989868164, 0.04443359375, -0.148193359375, -0.8330078125
212, 4025804030, -5.0854339599609375, 1.328027367591858, 8.32335376739502, -2.6326143741607666, -1.4482190608978271, -2.4577438831329346, 0.04345703125, -0.149658203125, -0.83349609375
213, 4025820697, -5.084544658660889, 1.3260202407836914, 8.317251205444336, -2.5392050743103027, -1.4303927421569824, -2.4889655113220215, 0.04345703125, -0.148681640625, -0.8359375
214, 4025837364, -5.074953556060791, 1.3232325315475464, 8.310355186462402, -2.4815380573272705, -1.2459938526153564, -2.311546564102173, 0.04541015625, -0.148193359375, -0.83251953125
215, 4025854031, -5.075793743133545, 1.3288322687149048, 8.329385757446289, -2.3464818000793457, -1.2301781177520752, -2.345560073852539, 0.041748046875, -0.147216796875, -0.8330078125
216, 4025870698, -5.063022613525391, 1.3255881071090698, 8.315550804138184, -2.3399248123168945, -1.1967661380767822, -2.2912099361419678, 0.04296875, -0.150634765625, -0.83251953125
217, 4025887365, -5.067013263702393, 1.3438019752502441, 8.336559295654297, -2.4267523288726807, -1.2583776712417603, -2.4037392139434814, 0.04541015625, -0.148681640625, -0.8330078125
218, 4025904032, -5.075808525085449, 1.3192527294158936, 8.302821159362793, -2.5394222736358643, -1.343258261680603, -2.37784481048584, 0.0439453125, -0.147705078125, -0.8359375
219, 4025920699, -5.062630653381348, 1.3414043188095093, 8.31354808807373, -2.4411463737487793, -1.3682430982589722, -2.477938652038574, 0.044921875, -0.149169921875, -0.8359375
220, 4025937366, -5.083545684814453, 1.3242967128753662, 8.300378799438477, -2.477126121520996, -1.3879075050354004, -2.3830761909484863, 0.044921875, -0.147705078125, -0.83349609375
221, 4025954033, -5.076512813568115, 1.340058445930481, 8.313114166259766, -2.4661574363708496, -1.436501145362854, -2.4925003051757812, 0.04443359375, -0.149169921875, -0.83349609375
222, 4025970700, -5.07135009765625, 1.3255943059921265, 8.311860084533691, -2.551704168319702, -1.4681329727172852, -2.42549729347229, 0.0439453125, -0.149658203125, -0.8330078125
223, 4025987367, -5.077094078063965, 1.3298759460449219, 8.30567741394043, -2.4638009071350098, -1.5008403062820435, -2.3917267322540283, 0.04541015625, -0.148681640625, -0.83251953125
224, 4026004034, -5.076537609100342, 1.3388276100158691, 8.311448097229004, -2.5330963134765625, -1.4612430334091187, -2.430478811264038, 0.04296875, -0.149658203125, -0.83349609375
225, 4026020701, -5.064767360687256, 1.3424139022827148, 8.312731742858887, -2.4752626419067383, -1.4741134643554688, -2.3975794315338135, 0.04345703125, -0.149658203125, -0.8330078125
226, 4026037368, -5.060613632202148, 1.3357397317886353, 8.32766056060791, -2.608884334564209, -1.4975745677947998, -2.372875928878784, 0.0419921875, -0.148193359375, -0.83349609375
227, 4026054035, -5.071685791015625, 1.3477519750595093, 8.304869651794434, -2.512272834777832, -1.43948495388031, -2.3337013721466064, 0.046875, -0.150634765625, -0.832275390625
228, 4026070702, -5.074584007263184, 1.3118048906326294, 8.329221725463867, -2.3791511058807373, -1.3973393440246582, -2.3403351306915283, 0.04248046875, -0.150634765625, -0.8310546875
229, 4026087369, -5.089150428771973, 1.3370954990386963, 8.319405555725098, -2.3993594646453857, -1.4043956995010376, -2.3966188430786133, 0.0439453125, -0.150146484375, -0.83251953125
230, 4026104036, -5.06326150894165, 1.343791127204895, 8.306716918945312, -2.4378297328948975, -1.4667112827301025, -2.3241989612579346, 0.04248046875, -0.147216796875, -0.83447265625
231, 4026120703, -5.089831352233887, 1.3516044616699219, 8.315398216247559, -2.417006731033325, -1.42433500289917, -2.336723566055298, 0.044921875, -0.150634765625, -0.83642578125
232, 4026137370, -5.083042621612549, 1.3361915349960327, 8.300661087036133, -2.505178213119507, -1.3931132555007935, -2.338196277618408, 0.04296875, -0.147216796875, -0.8330078125
233, 4026154037, -5.059818744659424, 1.340705156326294, 8.29809284210205, -2.4718306064605713, -1.4735755920410156, -2.384939670562744, 0.04345703125, -0.150146484375, -0.8330078125
234, 4026170704, -5.087864398956299, 1.3316761255264282, 8.317940711975098, -2.4943182468414307, -1.423195242881775, -2.3295774459838867, 0.04443359375, -0.150634765625, -0.83349609375
235, 4026187371, -5.0743231773376465, 1.3293434381484985, 8.314791679382324, -2.489285469055176, -1.4986504316329956, -2.350797653198242, 0.04248046875, -0.149658203125, -0.83203125
236, 4026204038, -5.089794158935547, 1.332315444946289, 8.329146385192871, -2.4280195236206055, -1.4320060014724731, -2.3536276817321777, 0.04296875, -0.148193359375, -0.83349609375
237, 4026220705, -5.078970909118652, 1.3291866779327393, 8.328022003173828, -2.477900981903076, -1.4440953731536865, -2.339592218399048, 0.0439453125, -0.147705078125, -0.83447265625
238, 4026237372, -5.05710506439209, 1.3397040367126465, 8.311042785644531, -2.5276660919189453, -1.414551019668579, -2.3116486072540283, 0.04248046875, -0.149169921875, -0.83447265625
239, 4026254039, -5.07863187789917, 1.3389383554458618, 8.307812690734863, -2.413715124130249, -1.3905903100967407, -2.3069231510162354, 0.04345703125, -0.150634765625, -0.8310546875
240, 4026270706, -5.075809001922607, 1.335451364517212, 8.305008888244629, -2.5124266147613525, -1.3950213193893433, -2.310995578765869, 0.041748046875, -0.146240234375, -0.83203125
241, 4026287373, -5.066558361053467, 1.362202763557434, 8.296676635742188, -2.5905966758728027, -1.4830266237258911, -2.388794183731079, 0.04541015625, -0.148681640625, -0.83349609375
242, 4026304040, -5.0679521560668945, 1.3383357524871826, 8.302250862121582, -2.68080472946167, -1.5176678895950317, -2.4739692211151123, 0.04150390625, -0.148193359375, -0.83544921875
243, 4026320707, -5.0549163818359375, 1.3367642164230347, 8.31371021270752, -2.895758867263794, -1.6512762308120728, -2.624584436416626, 0.04345703125, -0.148681640625, -0.8330078125
244, 4026337374, -5.063369274139404, 1.341817021369934, 8.300675392150879, -3.099713087081909, -1.6775805950164795, -2.669893503189087, 0.04541015625, -0.147705078125, -0.833984375
245, 4026354041, -5.054191589355469, 1.3216969966888428, 8.285195350646973, -3.1113028526306152, -1.5799577236175537, -2.6798694133758545, 0.0439453125, -0.148681640625, -0.83349609375
246, 4026370708, -5.078696250915527, 1.3234312534332275, 8.312482833862305, -2.9134061336517334, -1.5484282970428467, -2.572885036468506, 0.0439453125, -0.149169921875, -0.833984375
247, 4026387375, -5.08457612991333, 1.3300527334213257, 8.325240135192871, -2.8571348190307617, -1.4855108261108398, -2.532608985900879, 0.04443359375, -0.147705078125, -0.83447265625
248, 4026404042, -5.072449207305908, 1.3361507654190063, 8.300678253173828, -2.8800456523895264, -1.5469685792922974, -2.506253719329834, 0.04150390625, -0.148193359375, -0.83544921875
249, 4026420709, -5.05785608291626, 1.3407727479934692, 8.315503120422363, -2.7531092166900635, -1.4738829135894775, -2.522531032562256, 0.04248046875, -0.147705078125, -0.8349609375
250, 4026437376, -5.078742980957031, 1.330499529838562, 8.31234359741211, -2.7170982360839844, -1.4829883575439453, -2.4734444618225098, 0.0439453125, -0.146240234375, -0.83349609375
251, 4026454043, -5.07056999206543, 1.3280413150787354, 8.313859939575195, -2.6650147438049316, -1.5353535413742065, -2.4549264907836914, 0.04345703125, -0.146728515625, -0.83203125
252, 4026470710, -5.071628570556641, 1.321561336517334, 8.307785987854004, -2.734027862548828, -1.4378458261489868, -2.443349599838257, 0.0419921875, -0.148681640625, -0.83251953125
253, 4026487377, -5.068717002868652, 1.3262203931808472, 8.322979927062988, -2.546248435974121, -1.4213128089904785, -2.429889678955078, 0.04150390625, -0.147705078125, -0.8349609375
254, 4026504044, -5.0681939125061035, 1.3250083923339844, 8.31477165222168, -2.46221923828125, -1.3206355571746826, -2.3627777099609375, 0.04443359375, -0.148193359375, -0.8359375
255, 4026520711, -5.07887601852417, 1.3435307741165161, 8.318979263305664, -2.349081516265869, -1.3889000415802002, -2.2679407596588135, 0.0439453125, -0.147216796875, -0.83349609375
256, 4026537378, -5.077023506164551, 1.332376480102539, 8.32129192352295, -2.456693649291992, -1.5039010047912598, -2.3384780883789062, 0.04443359375, -0.146728515625, -0.8349609375
257, 4026554045, -5.066615581512451, 1.335850715637207, 8.31611442565918, -2.557915210723877, -1.4743568897247314, -2.4564120769500732, 0.0458984375, -0.148193359375, -0.83251953125
258, 4026570712, -5.061468601226807, 1.327824354171753, 8.318946838378906, -2.66912579536438, -1.5495941638946533, -2.485776901245117, 0.04443359375, -0.148681640625, -0.829833984375
259, 4026587379, -5.073013782501221, 1.3364291191101074, 8.335728645324707, -2.7301220893859863, -1.5562664270401, -2.4400455951690674, 0.0439453125, -0.148193359375, -0.83349609375
260, 4026604046, -5.069246292114258, 1.3266358375549316, 8.318004608154297, -2.7084665298461914, -1.6195424795150757, -2.4530181884765625, 0.04296875, -0.147216796875, -0.836181640625
261, 4026620713, -5.064465045928955, 1.3415882587432861, 8.301886558532715, -2.6825978755950928, -1.610693335533142, -2.474801778793335, 0.04541015625, -0.147705078125, -0.833984375
262, 4026637380, -5.08876371383667, 1.3153696060180664, 8.321022987365723, -2.6036722660064697, -1.52288019657135, -2.3892295360565186, 0.04345703125, -0.149169921875, -0.833984375
263, 4026654047, -5.052028656005859, 1.3441736698150635, 8.30938720703125, -2.533339500427246, -1.5448555946350098, -2.346968412399292, 0.04345703125, -0.149169921875, -0.830322265625
264, 4026670714, -5.052497863769531, 1.3360881805419922, 8.30670166015625, -2.5783026218414307, -1.5722230672836304, -2.4472172260284424, 0.04296875, -0.148681640625, -0.833984375
265, 4026687381, -5.046894073486328, 1.3279693126678467, 8.318979263305664, -2.5769388675689697, -1.6278858184814453, -2.4270408153533936, 0.04443359375, -0.148681640625, -0.8330078125
266, 4026704048, -5.063257694244385, 1.3363683223724365, 8.303647994995117, -2.4661190509796143, -1.477442979812622, -2.348402738571167, 0.04443359375, -0.149658203125, -0.8330078125
267, 4026720715, -5.070406913757324, 1.3304734230041504, 8.319643020629883, -2.2992775440216064, -1.3811134099960327, -2.328962564468384, 0.0439453125, -0.148193359375, -0.83349609375
268, 4026737382, -5.06576681137085, 1.3283171653747559, 8.314525604248047, -2.2856452465057373, -1.443550944328308, -2.2822513580322266, 0.04345703125, -0.148193359375, -0.8330078125
269, 4026754049, -5.0722222328186035, 1.344112753868103, 8.323881149291992, -2.245029926300049, -1.4998283386230469, -2.234605550765991, 0.04248046875, -0.150146484375, -0.83154296875
270, 4026770716, -5.07759428024292, 1.346632719039917, 8.326106071472168, -2.179166793823242, -1.6166095733642578, -2.2990341186523438, 0.0439453125, -0.147705078125, -0.8349609375
271, 4026787383, -5.072958946228027, 1.3365780115127563, 8.30363655090332, -1.948434829711914, -1.7548284530639648, -2.1920883655548096, 0.04296875, -0.148681640625, -0.83251953125
272, 4026804050, -5.054333209991455, 1.295066237449646, 8.303338050842285, -1.4011939764022827, -1.5150809288024902, -1.7733209133148193, 0.04345703125, -0.148193359375, -0.8349609375
273, 4026820717, -5.066793441772461, 1.3319123983383179, 8.318595886230469, 0.15820324420928955, -0.49295487999916077, -1.0389792919158936, 0.04443359375, -0.149658203125, -0.8349609375
274, 4026837384, -5.087007999420166, 1.3392714262008667, 8.279467582702637, 0.40667203068733215, -0.24618926644325256, -0.9331345558166504, 0.04248046875, -0.148193359375, -0.83349609375
275, 4026854051, -5.0424299240112305, 1.3619918823242188, 8.289386749267578, 0.34863364696502686, -0.4365556240081787, -0.7522193789482117, 0.04345703125, -0.150146484375, -0.83203125
276, 4026870718, -5.085697174072266, 1.3426978588104248, 8.320246696472168, 1.7707533836364746, 0.0989866852760315, 0.012351724319159985, 0.04248046875, -0.151123046875, -0.83251953125
277, 4026887385, -5.050398826599121, 1.3756965398788452, 8.303770065307617, 1.8401250839233398, 0.028462111949920654, 0.1057228222489357, 0.044921875, -0.152587890625, -0.832275390625
278, 4026904052, -5.056142330169678, 1.272453784942627, 8.297211647033691, 1.060410737991333, -0.5986200571060181, -0.22585277259349823, 0.0439453125, -0.15380859375, -0.8330078125
279, 4026920719, -5.0812668800354, 1.3772087097167969, 8.263080596923828, 1.1679071187973022, -0.8051352500915527, 0.22936813533306122, 0.0439453125, -0.15673828125, -0.833740234375
280, 4026937386, -5.0542073249816895, 1.459188461303711, 8.261641502380371, 3.0113043785095215, 0.19983668625354767, 1.1704171895980835, 0.04443359375, -0.15625, -0.830810546875
281, 4026954053, -5.092886924743652, 1.5003305673599243, 8.313241004943848, 3.9864890575408936, 0.9059467911720276, 1.4763545989990234, 0.0458984375, -0.1591796875, -0.831298828125
282, 4026970720, -5.049681663513184, 1.4726598262786865, 8.287457466125488, 4.527690887451172, 1.2329248189926147, 1.643995761871338, 0.044921875, -0.15966796875, -0.829345703125
283, 4026987387, -5.07726526260376, 1.5871604681015015, 8.258310317993164, 4.039833068847656, 0.9380715489387512, 1.378814935684204, 0.044921875, -0.16064453125, -0.831787109375
284, 4027004054, -5.081086158752441, 1.4908607006072998, 8.314454078674316, 4.853324890136719, 0.9836429953575134, 1.4763801097869873, 0.048583984375, -0.162841796875, -0.83251953125
285, 4027020721, -5.118098258972168, 1.5861278772354126, 8.271903991699219, 5.4164276123046875, 1.5210040807724, 1.684976577758789, 0.046875, -0.165283203125, -0.833251953125
286, 4027037388, -5.105373859405518, 1.59511399269104, 8.287349700927734, 4.649851322174072, 1.4848130941390991, 1.304512619972229, 0.049560546875, -0.166259765625, -0.83203125
287, 4027054055, -5.1271233558654785, 1.642122507095337, 8.257010459899902, 3.2723746299743652, 1.243605375289917, 0.5847571492195129, 0.04833984375, -0.171142578125, -0.829345703125
288, 4027070722, -5.111375331878662, 1.6740708351135254, 8.248480796813965, 2.0782339572906494, 1.0093259811401367, -0.168390691280365, 0.048583984375, -0.171142578125, -0.829833984375
289, 4027087389, -5.0979323387146, 1.601661205291748, 8.274271965026855, 1.7214230298995972, 1.3485535383224487, -0.33300352096557617, 0.04833984375, -0.171142578125, -0.829345703125
290, 4027104056, -5.115405082702637, 1.5885874032974243, 8.26941967010498, 2.051724672317505, 2.072061061859131, -0.23621313273906708, 0.052001953125, -0.17138671875, -0.83642578125
291, 4027120723, -5.109090805053711, 1.5963932275772095, 8.238798141479492, 2.475153923034668, 2.9065487384796143, 0.21105508506298065, 0.049072265625, -0.171875, -0.830322265625
292, 4027137390, -5.14961576461792, 1.66392982006073, 8.194467544555664, 2.5626275539398193, 3.051356554031372, 0.15856826305389404, 0.050048828125, -0.17431640625, -0.829345703125
293, 4027154057, -5.142046928405762, 1.6678208112716675, 8.197237014770508, 2.073085308074951, 2.449694871902466, -0.1344410628080368, 0.052978515625, -0.17724609375, -0.829345703125
294, 4027170724, -5.150944709777832, 1.7202904224395752, 8.167396545410156, 0.8647167086601257, 1.7322059869766235, -0.6949365139007568, 0.053466796875, -0.17724609375, -0.8271484375
295, 4027187391, -5.164834022521973, 1.70517098903656, 8.15822982788086, -0.1428484320640564, 1.2708508968353271, -1.2150344848632812, 0.054443359375, -0.17578125, -0.82763671875
296, 4027204058, -5.149554252624512, 1.7302327156066895, 8.163555145263672, -0.8204900622367859, 0.9481629133224487, -1.684150218963623, 0.053466796875, -0.177734375, -0.828125
297, 4027220725, -5.182934761047363, 1.6992896795272827, 8.138083457946777, -1.9861878156661987, 0.355754017829895, -2.1927671432495117, 0.055419921875, -0.17822265625, -0.82958984375
298, 4027237392, -5.156564712524414, 1.7412989139556885, 8.159276008605957, -3.289234161376953, -0.194925457239151, -2.8504116535186768, 0.055419921875, -0.1767578125, -0.82861328125
299, 4027254059, -5.140175819396973, 1.7476683855056763, 8.173840522766113, -3.870284080505371, -0.6745489835739136, -3.2922825813293457, 0.054931640625, -0.17626953125, -0.82568359375
300, 4027270726, -5.190206527709961, 1.7139533758163452, 8.183670997619629, -4.566295623779297, -1.139112114906311, -3.8325817584991455, 0.055419921875, -0.1767578125, -0.8271484375
301, 4027287393, -5.207701206207275, 1.6698118448257446, 8.184478759765625, -5.159614562988281, -1.5238916873931885, -3.9826085567474365, 0.056396484375, -0.17529296875, -0.8251953125
302, 4027304060, -5.213869571685791, 1.6516211032867432, 8.192756652832031, -4.938257217407227, -1.836161732673645, -3.7379302978515625, 0.054443359375, -0.17626953125, -0.829833984375
303, 4027320727, -5.156563758850098, 1.6399893760681152, 8.193380355834961, -3.775132656097412, -1.1007057428359985, -3.0113747119903564, 0.056640625, -0.17529296875, -0.8291015625
304, 4027337394, -5.114090919494629, 1.6979329586029053, 8.183097839355469, -3.12066388130188, -0.21743901073932648, -2.856686592102051, 0.054931640625, -0.1748046875, -0.82861328125
305, 4027354061, -5.1348724365234375, 1.7024905681610107, 8.181863784790039, -3.2258169651031494, 0.33076876401901245, -3.1181411743164062, 0.056396484375, -0.17431640625, -0.8251953125
306, 4027370728, -5.166884899139404, 1.6703118085861206, 8.16435432434082, -3.611928701400757, 0.24419789016246796, -3.4791653156280518, 0.056884765625, -0.17724609375, -0.8271484375
307, 4027387395, -5.201611042022705, 1.6881775856018066, 8.15555477142334, -4.061470031738281, 0.053332049399614334, -3.7990806102752686, 0.05859375, -0.17333984375, -0.8271484375
308, 4027404062, -5.1772379875183105, 1.6818201541900635, 8.170167922973633, -3.6515774726867676, 0.3505290448665619, -3.873037815093994, 0.0595703125, -0.1728515625, -0.8291015625
309, 4027420729, -5.170346736907959, 1.6741321086883545, 8.193251609802246, -3.438223361968994, 1.1755141019821167, -4.09535551071167, 0.056884765625, -0.17138671875, -0.82958984375
310, 4027437396, -5.17772912979126, 1.6660703420639038, 8.155121803283691, -4.647515296936035, 1.859091877937317, -4.9127607345581055, 0.0576171875, -0.17236328125, -0.828125
311, 4027454063, -5.200074195861816, 1.693497657775879, 8.17598819732666, -6.184162616729736, 2.5116143226623535, -6.1217827796936035, 0.0595703125, -0.173828125, -0.8271484375
312, 4027470730, -5.243189334869385, 1.647834300994873, 8.162616729736328, -5.647435188293457, 3.800137519836426, -6.715715408325195, 0.05908203125, -0.169921875, -0.82958984375
313, 4027487397, -5.2614312171936035, 1.6250741481781006, 8.176370620727539, -3.7558212280273438, 5.670146942138672, -6.428980827331543, 0.06494140625, -0.16943359375, -0.82958984375
314, 4027504064, -5.293412685394287, 1.606176495552063, 8.116822242736816, -0.7460981607437134, 7.748536586761475, -6.4118852615356445, 0.06591796875, -0.169921875, -0.828857421875
315, 4027520731, -5.226711273193359, 1.5680279731750488, 8.180855751037598, 2.326575756072998, 10.696900367736816, -5.630404472351074, 0.068115234375, -0.17236328125, -0.82421875
316, 4027537398, -5.077125072479248, 1.4936776161193848, 8.241104125976562, 5.789147853851318, 15.864349365234375, -5.008670806884766, 0.072021484375, -0.1748046875, -0.8271484375
317, 4027554065, -4.925344944000244, 1.66500985622406, 8.286498069763184, 6.827152729034424, 24.9135799407959, -5.272719860076904, 0.07763671875, -0.174072265625, -0.824951171875
318, 4027570732, -5.227755069732666, 1.4490450620651245, 8.063446998596191, 5.925583839416504, 36.40422058105469, -5.913040637969971, 0.087158203125, -0.177490234375, -0.822509765625
319, 4027587399, -5.40944242477417, 1.4960463047027588, 8.013209342956543, 9.087845802307129, 43.427001953125, -4.8245439529418945, 0.09716796875, -0.1806640625, -0.8193359375
320, 4027604066, -5.470708847045898, 1.7169528007507324, 7.901459217071533, 11.095765113830566, 51.322265625, -4.917878150939941, 0.109619140625, -0.1826171875, -0.82080078125
321, 4027620733, -5.627542018890381, 1.8973979949951172, 7.823419570922852, 10.667442321777344, 58.8446159362793, -7.635961055755615, 0.122802734375, -0.185302734375, -0.81787109375
322, 4027637400, -5.7663397789001465, 1.8658642768859863, 7.803370475769043, 11.64676570892334, 66.57755279541016, -10.91702938079834, 0.140869140625, -0.18798828125, -0.812744140625
323, 4027654067, -5.7446160316467285, 1.79622220993042, 7.812026023864746, 11.269316673278809, 76.88634490966797, -14.668127059936523, 0.158447265625, -0.18994140625, -0.8056640625
324, 4027670734, -5.905519008636475, 1.9234890937805176, 7.687047481536865, 7.02833366394043, 90.76000213623047, -20.214570999145508, 0.179443359375, -0.192138671875, -0.8017578125
325, 4027687401, -6.058428764343262, 1.7124472856521606, 7.536069869995117, 6.081450939178467, 107.18766021728516, -24.80811309814453, 0.201904296875, -0.193603515625, -0.79345703125
326, 4027704068, -6.171221733093262, 1.602546215057373, 7.443946361541748, 7.326274394989014, 126.66771697998047, -27.099098205566406, 0.234130859375, -0.19189453125, -0.7880859375
327, 4027720735, -6.381779193878174, 1.6018946170806885, 7.385879993438721, 6.598541259765625, 149.0673370361328, -29.021026611328125, 0.269775390625, -0.192626953125, -0.775634765625
328, 4027737402, -6.545989513397217, 1.5967555046081543, 7.3053669929504395, 0.3917205035686493, 177.43360900878906, -30.20709991455078, 0.30859375, -0.187744140625, -0.759033203125
329, 4027754069, -6.907626628875732, 1.5487196445465088, 7.092785358428955, -7.8947577476501465, 214.19369506835938, -32.13279342651367, 0.3505859375, -0.184326171875, -0.735595703125
330, 4027770736, -7.143881797790527, 1.704946756362915, 6.85546875, -14.158947944641113, 259.4430847167969, -34.863582611083984, 0.40869140625, -0.178466796875, -0.70654296875
331, 4027787403, -7.949097156524658, 2.161872386932373, 6.800037860870361, -17.087684631347656, 310.968994140625, -41.19227600097656, 0.468505859375, -0.167236328125, -0.66796875
332, 4027804070, -10.119771003723145, 2.0793182849884033, 7.128769397735596, -10.984983444213867, 350.3046569824219, -47.668296813964844, 0.536376953125, -0.158935546875, -0.615966796875
333, 4027820737, -13.670498847961426, 1.5909630060195923, 8.231671333312988, 5.282517910003662, 354.50653076171875, -54.09016418457031, 0.60009765625, -0.1513671875, -0.55224609375
334, 4027837404, -14.082932472229004, 1.938310146331787, 7.820333003997803, 19.54216957092285, 351.561279296875, -53.98487091064453, 0.651611328125, -0.142822265625, -0.482666015625
335, 4027854071, -13.469229698181152, 2.3275561332702637, 7.455955505371094, 11.450502395629883, 359.6864013671875, -63.88723373413086, 0.699951171875, -0.132568359375, -0.402587890625
336, 4027870738, -12.504321098327637, 2.3410611152648926, 7.4335784912109375, 10.161894798278809, 371.1438293457031, -65.129638671875, 0.74072265625, -0.1201171875, -0.317626953125
337, 4027887405, -11.764822959899902, 1.798172116279602, 8.465052604675293, 13.952402114868164, 349.32879638671875, -60.759620666503906, 0.769287109375, -0.103759765625, -0.226806640625
338, 4027904072, -11.562753677368164, 1.2936636209487915, 11.616774559020996, 39.20391082763672, 293.5225524902344, -30.14275550842285, 0.78564453125, -0.095458984375, -0.148193359375
339, 4027920739, -16.368568420410156, 3.105498790740967, 18.408143997192383, 57.009132385253906, 136.15171813964844, -22.543018341064453, 0.7919921875, -0.093505859375, -0.093017578125
340, 4027937406, -21.253698348999023, 4.233861446380615, 25.230785369873047, 37.04108428955078, -108.79737091064453, -35.82584762573242, 0.785400390625, -0.08447265625, -0.0908203125
341, 4027954073, -4.367391586303711, 2.729065179824829, 12.105396270751953, -3.0551111698150635, -218.28871154785156, -70.3606185913086, 0.78466796875, -0.072021484375, -0.120849609375
342, 4027970740, -2.7095985412597656, 1.5031139850616455, 6.669885158538818, -24.940746307373047, -232.44186401367188, -94.02542114257812, 0.786376953125, -0.05029296875, -0.159423828125
343, 4027987407, -3.7056655883789062, 2.6472859382629395, 6.159336090087891, -29.55200958251953, -232.70654296875, -95.50308227539062, 0.785888671875, -0.027587890625, -0.208251953125
344, 4028004074, -4.770092010498047, 3.774709463119507, 7.115503787994385, -27.925668716430664, -256.522216796875, -83.7776107788086, 0.782958984375, -0.004150390625, -0.262451171875
345, 4028020741, -6.230323314666748, 4.580428600311279, 7.4882121086120605, -22.002504348754883, -294.6785583496094, -53.72970962524414, 0.7705078125, 0.010498046875, -0.3271484375
346, 4028037408, -7.2422356605529785, 5.406397819519043, 7.238351345062256, -20.480140686035156, -328.69769287109375, -14.030963897705078, 0.74853515625, 0.01611328125, -0.400146484375
347, 4028054075, -7.915668964385986, 5.706301689147949, 6.524677753448486, -29.927064895629883, -353.5544738769531, 20.288330078125, 0.7158203125, 0.013427734375, -0.488037109375
348, 4028070742, -7.393396854400635, 4.60687780380249, 5.778914451599121, -34.733280181884766, -363.44110107421875, 47.64957809448242, 0.658935546875, 0.008056640625, -0.581298828125
349, 4028087409, -8.106544494628906, 3.287693977355957, 6.569496154785156, -20.902481079101562, -365.9306640625, 71.99443817138672, 0.58056640625, -2.44140625E-4, -0.662353515625
350, 4028104076, -9.259780883789062, 2.658141613006592, 7.342039108276367, -0.0867437869310379, -373.4465026855469, 83.68914031982422, 0.489501953125, -9.765625E-4, -0.720703125
351, 4028120743, -8.811240196228027, 1.0958030223846436, 5.504952907562256, 24.606595993041992, -355.7503662109375, 76.97686004638672, 0.402587890625, -0.003173828125, -0.765380859375
352, 4028137410, -10.429001808166504, -0.06546816229820251, 4.771720886230469, 51.55308151245117, -291.7187805175781, 62.079891204833984, 0.32861328125, -0.010986328125, -0.792236328125
353, 4028154077, -13.063834190368652, 1.4107069969177246, 8.421104431152344, 67.60202026367188, -230.8186492919922, 50.71619415283203, 0.2705078125, -0.028564453125, -0.802490234375
354, 4028170744, -15.965134620666504, 2.2240657806396484, 11.617588996887207, 69.86653137207031, -223.20396423339844, 50.30637741088867, 0.217529296875, -0.043212890625, -0.8017578125
355, 4028187411, -14.769880294799805, 1.8866815567016602, 8.607243537902832, 73.44615936279297, -212.66085815429688, 51.95249938964844, 0.177490234375, -0.06396484375, -0.792724609375
356, 4028204078, -15.899065971374512, 2.428579807281494, 8.617319107055664, 73.36366271972656, -184.05564880371094, 55.85982131958008, 0.15771484375, -0.082275390625, -0.783935546875
357, 4028220745, -17.73587417602539, 2.3800039291381836, 10.725801467895508, 54.69072723388672, -188.12591552734375, 52.9164924621582, 0.144775390625, -0.10205078125, -0.79150390625
358, 4028237412, -16.54376792907715, -0.9860477447509766, 9.148218154907227, 62.09184265136719, -203.97991943359375, 52.315773010253906, 0.12451171875, -0.119873046875, -0.812255859375
359, 4028254079, -13.987549781799316, -2.1069231033325195, 6.351811408996582, 97.39704895019531, -199.2658233642578, 51.86614227294922, 0.09033203125, -0.150634765625, -0.84375
360, 4028270746, -12.802966117858887, -2.2206599712371826, 5.8535542488098145, 111.27899169921875, -179.27975463867188, 40.78978729248047, 0.044921875, -0.190185546875, -0.872314453125
361, 4028287413, -11.874094009399414, -2.567570209503174, 5.28570032119751, 115.95474243164062, -160.8996124267578, 33.405521392822266, -0.006591796875, -0.2314453125, -0.890869140625
362, 4028304080, -12.288922309875488, -1.8538135290145874, 4.57162618637085, 112.32274627685547, -143.2273406982422, 32.21416091918945, -0.0615234375, -0.2744140625, -0.896484375
363, 4028320747, -12.890244483947754, -0.7379924058914185, 3.0833139419555664, 87.05413818359375, -128.991455078125, 34.29027557373047, -0.11572265625, -0.30712890625, -0.8935546875
364, 4028337414, -13.398250579833984, -0.09169075638055801, 1.3604906797409058, 34.12827682495117, -108.54830169677734, 33.68278884887695, -0.16259765625, -0.3271484375, -0.88427734375
365, 4028354081, -13.258843421936035, -1.0484744310379028, -0.20035696029663086, -27.777618408203125, -84.59858703613281, 29.691402435302734, -0.1982421875, -0.329345703125, -0.879150390625
366, 4028370748, -13.123159408569336, -3.1106083393096924, -0.9805949926376343, -68.2222900390625, -55.71022415161133, 27.258800506591797, -0.224609375, -0.314697265625, -0.880859375
367, 4028387415, -13.241122245788574, -4.468554496765137, -0.6334511637687683, -73.69947052001953, -20.775100708007812, 35.963924407958984, -0.244140625, -0.298095703125, -0.88623046875
368, 4028404082, -13.374490737915039, -4.151739120483398, 0.018216047435998917, -64.58295440673828, 5.851865291595459, 53.04094696044922, -0.254150390625, -0.282470703125, -0.897705078125
369, 4028420749, 3.4847733974456787, -7.888980865478516, 4.202236652374268, -56.12055206298828, 14.736248016357422, 9.842164993286133, -0.258056640625, -0.265380859375, -0.909912109375
370, 4028437416, 6.758534908294678, 10.124773025512695, 18.6435604095459, 22.182056427001953, 87.44495391845703, -16.578824996948242, -0.244384765625, -0.271728515625, -0.92236328125
371, 4028454083, 0.3952156901359558, 10.16891098022461, 3.6361677646636963, 51.25377655029297, 152.914306640625, -25.247859954833984, -0.21240234375, -0.294921875, -0.931640625
372, 4028470750, -6.815334320068359, -4.573624134063721, 10.584157943725586, 15.256442070007324, 206.10482788085938, -29.213699340820312, -0.166015625, -0.305908203125, -0.94921875
373, 4028487417, -9.14963436126709, -0.6638288497924805, 14.100075721740723, 24.176908493041992, 174.46356201171875, -37.40707778930664, -0.11962890625, -0.318603515625, -0.9638671875
374, 4028504084, -6.630087852478027, 3.740967035293579, 10.956192970275879, 43.204986572265625, 167.86907958984375, -13.100332260131836, -0.07666015625, -0.337890625, -0.971435546875
375, 4028520751, -7.692623615264893, 3.141684055328369, 10.979235649108887, 44.217369079589844, 141.5417022705078, -9.527114868164062, -0.041748046875, -0.352783203125, -0.9775390625
376, 4028537418, -5.363881587982178, 3.9577486515045166, 8.684441566467285, 38.16315460205078, 124.76399230957031, -11.880434036254883, -0.006103515625, -0.3681640625, -0.980224609375
377, 4028554085, -5.983656883239746, 4.397892475128174, 9.532108306884766, 27.855112075805664, 119.17169189453125, -16.662717819213867, 0.021728515625, -0.38232421875, -0.983642578125
378, 4028570752, -8.892985343933105, 7.971695899963379, 9.656524658203125, -22.295528411865234, 96.41040802001953, -37.388916015625, 0.05029296875, -0.385498046875, -0.98779296875
379, 4028587419, -7.077639102935791, 1.9968383312225342, 9.597563743591309, -49.11825942993164, 70.33328247070312, -42.91121292114258, 0.07421875, -0.374267578125, -0.995849609375
380, 4028604086, -5.712154388427734, 2.594350814819336, 8.566580772399902, -43.885494232177734, 49.93946075439453, -33.38822937011719, 0.089599609375, -0.36328125, -1.000244140625
381, 4028620753, -6.420166969299316, 1.6764671802520752, 9.357522010803223, -38.9310417175293, 35.465171813964844, -28.562143325805664, 0.105224609375, -0.35302734375, -1.0048828125
382, 4028637420, -5.904809474945068, 1.9313769340515137, 9.101526260375977, -31.141599655151367, 21.8323917388916, -21.025196075439453, 0.11328125, -0.345458984375, -1.0107421875
383, 4028654087, -5.869835376739502, 1.6714272499084473, 9.125785827636719, -21.11947250366211, 14.340226173400879, -13.310420036315918, 0.118408203125, -0.339599609375, -1.0107421875
384, 4028670754, -5.437455654144287, 2.2267305850982666, 8.436112403869629, -14.151496887207031, 9.755851745605469, -7.7150421142578125, 0.120361328125, -0.3349609375, -1.01318359375
385, 4028687421, -5.164877891540527, 2.3713314533233643, 8.188977241516113, -11.962944984436035, 7.610876560211182, -5.75164270401001, 0.125, -0.3330078125, -1.0146484375
386, 4028704088, -4.999983310699463, 2.480907440185547, 7.982654094696045, -13.347917556762695, 7.550022125244141, -6.3450398445129395, 0.125, -0.32958984375, -1.0166015625
387, 4028720755, -5.10069465637207, 2.299170970916748, 8.01635456085205, -16.652795791625977, 7.16262674331665, -7.760658264160156, 0.12890625, -0.32421875, -1.018798828125
388, 4028737422, -5.174236297607422, 2.213735580444336, 8.054525375366211, -18.2897891998291, 5.670486927032471, -8.269213676452637, 0.133056640625, -0.321533203125, -1.01953125
389, 4028754089, -5.014785289764404, 2.344733953475952, 7.970414638519287, -21.65034294128418, 2.834812879562378, -10.036407470703125, 0.132568359375, -0.317626953125, -1.021240234375
390, 4028770756, -5.0947957038879395, 2.4424705505371094, 7.814932823181152, -24.32345199584961, -2.1687870025634766, -13.414983749389648, 0.132568359375, -0.3095703125, -1.02490234375
391, 4028787423, -5.219805717468262, 2.396514654159546, 7.937015533447266, -29.62481117248535, -6.318833351135254, -17.22382164001465, 0.133544921875, -0.30322265625, -1.02685546875
392, 4028804090, -5.252176761627197, 1.974696159362793, 8.197897911071777, -22.781871795654297, -6.759587287902832, -14.747659683227539, 0.131591796875, -0.297607421875, -1.030517578125
393, 4028820757, -5.193214416503906, 1.745650291442871, 8.278148651123047, -20.452497482299805, -3.623615264892578, -12.156363487243652, 0.131591796875, -0.2900390625, -1.033203125
394, 4028837424, -5.060328483581543, 1.8581088781356812, 8.285237312316895, -19.574321746826172, -1.0369960069656372, -10.526633262634277, 0.131103515625, -0.28515625, -1.035400390625
395, 4028854091, -4.818765163421631, 2.035780429840088, 8.276215553283691, -28.783411026000977, -2.3099024295806885, -14.122214317321777, 0.13037109375, -0.279052734375, -1.03662109375
396, 4028870758, -5.361419677734375, 2.056849479675293, 8.307497024536133, -30.348543167114258, -7.756701946258545, -19.10908317565918, 0.13037109375, -0.26904296875, -1.03857421875
397, 4028887425, -5.324139595031738, 1.9515844583511353, 8.34777545928955, -31.890499114990234, -18.892963409423828, -23.49248695373535, 0.12890625, -0.260009765625, -1.0419921875
398, 4028904092, -5.44421911239624, 1.8261560201644897, 8.147566795349121, -30.448583602905273, -21.93578338623047, -25.37386131286621, 0.120361328125, -0.25, -1.044921875
399, 4028920759, -5.146672248840332, 1.1303008794784546, 8.210332870483398, -19.625885009765625, -11.302728652954102, -19.967060089111328, 0.115966796875, -0.242919921875, -1.046630859375
400, 4028937426, -4.985648155212402, 1.2203361988067627, 8.332990646362305, -11.391326904296875, 0.46067705750465393, -14.781003952026367, 0.118896484375, -0.240478515625, -1.048583984375
401, 4028954093, -5.03617525100708, 1.1827281713485718, 8.319846153259277, -4.76027774810791, 9.905879020690918, -11.35817813873291, 0.120849609375, -0.23876953125, -1.046630859375
402, 4028970760, -4.986553192138672, 1.3373517990112305, 8.417266845703125, 0.05667458847165108, 19.316200256347656, -8.492877006530762, 0.1279296875, -0.239990234375, -1.04638671875
403, 4028987427, -4.900703430175781, 1.5010175704956055, 8.468270301818848, 1.0549458265304565, 29.853477478027344, -7.954678535461426, 0.132568359375, -0.242919921875, -1.04296875
404, 4029004094, -4.651560306549072, 1.091408371925354, 8.411855697631836, 8.289051055908203, 47.64757537841797, -9.421929359436035, 0.1474609375, -0.2431640625, -1.046142578125
405, 4029020761, -4.980950832366943, 1.090393304824829, 8.542646408081055, 18.824033737182617, 70.89290618896484, -10.690114974975586, 0.1650390625, -0.247314453125, -1.04150390625
406, 4029037428, -4.789144515991211, 1.1183885335922241, 8.574169158935547, 22.747095108032227, 97.41270446777344, -8.39875316619873, 0.191650390625, -0.255859375, -1.033447265625
407, 4029054095, -5.104926586151123, 1.1970164775848389, 8.255349159240723, 22.152921676635742, 127.40878295898438, -8.9390287399292, 0.225830078125, -0.2626953125, -1.023193359375
408, 4029070762, -5.392025947570801, 1.2023805379867554, 7.9637064933776855, 25.69017791748047, 154.24366760253906, -9.944952011108398, 0.267578125, -0.270263671875, -1.01318359375
409, 4029087429, -5.371411323547363, 1.2426426410675049, 7.927863597869873, 27.550310134887695, 184.73861694335938, -11.471698760986328, 0.316162109375, -0.275146484375, -0.994873046875
410, 4029104096, -5.582851409912109, 1.7579472064971924, 7.918400764465332, 22.14357566833496, 224.57456970214844, -16.606943130493164, 0.3720703125, -0.282470703125, -0.971923828125
411, 4029120763, -6.183056354522705, 1.9589461088180542, 7.560174465179443, 8.133944511413574, 278.9023132324219, -26.611480712890625, 0.441162109375, -0.2822265625, -0.93896484375
412, 4029137430, -7.068741798400879, 2.7435357570648193, 7.457683563232422, -16.982072830200195, 355.4458923339844, -40.562862396240234, 0.525146484375, -0.27099609375, -0.889892578125
413, 4029154097, -7.6807050704956055, 3.278975248336792, 9.547919273376465, -29.984329223632812, 446.1751403808594, -64.02898406982422, 0.6279296875, -0.255615234375, -0.8203125
414, 4029170764, -13.445432662963867, 2.732555627822876, 11.424942016601562, -9.435824394226074, 492.0003967285156, -90.9796142578125, 0.726806640625, -0.233154296875, -0.720458984375
415, 4029187431, -19.125146865844727, 1.896949291229248, 11.321584701538086, 26.555156707763672, 471.6611328125, -91.56816101074219, 0.810791015625, -0.206298828125, -0.59912109375
416, 4029204098, -17.403656005859375, 3.460408926010132, 10.614078521728516, 15.75136947631836, 454.2123718261719, -100.0645751953125, 0.869140625, -0.17724609375, -0.47021484375
417, 4029220765, -12.652385711669922, 4.018460750579834, 11.334614753723145, -0.7127262949943542, 433.10992431640625, -109.06703186035156, 0.90185546875, -0.13916015625, -0.340087890625
418, 4029237432, -6.070305824279785, 2.5286855697631836, 11.022279739379883, 17.939908981323242, 394.3219909667969, -80.43710327148438, 0.91357421875, -0.106689453125, -0.216796875
419, 4029254099, -16.917930603027344, 3.412200927734375, 18.526134490966797, 58.76861572265625, 262.70880126953125, -40.4537239074707, 0.911376953125, -0.091064453125, -0.1181640625
420, 4029270766, -26.10865592956543, 7.808990955352783, 28.869338989257812, 46.004737854003906, 18.928279876708984, -25.028606414794922, 0.900390625, -0.0751953125, -0.0751953125
421, 4029287433, -7.0630784034729, 6.781271934509277, 17.214405059814453, -12.374943733215332, -203.871337890625, 1.6768985986709595, 0.89453125, -0.0712890625, -0.101318359375
422, 4029304100, -1.17529296875, 2.614640712738037, 7.18352746963501, -60.554996490478516, -237.01275634765625, -13.296507835388184, 0.899169921875, -0.065185546875, -0.160400390625
423, 4029320767, -0.9387871026992798, 1.7443221807479858, 4.709267616271973, -83.99796295166016, -227.3585968017578, -31.57389259338379, 0.900390625, -0.06103515625, -0.23095703125
424, 4029337434, -2.736264944076538, 1.681269645690918, 6.005786895751953, -91.493408203125, -232.66510009765625, -46.166595458984375, 0.8876953125, -0.049560546875, -0.3154296875
425, 4029354101, -6.330747604370117, 1.6536401510238647, 8.190072059631348, -79.2437973022461, -273.9714050292969, -49.208221435546875, 0.845458984375, -0.037109375, -0.404541015625
426, 4029370768, -7.840445518493652, 2.127911329269409, 8.623641014099121, -50.72534942626953, -334.99615478515625, -37.65235900878906, 0.77783203125, -0.025634765625, -0.489013671875
427, 4029387435, -8.350878715515137, 2.98354434967041, 7.59263801574707, -25.828954696655273, -380.3115234375, -22.05859375, 0.695068359375, -0.017578125, -0.5634765625
428, 4029404102, -8.608390808105469, 3.997396945953369, 6.261703968048096, -11.519843101501465, -406.1165466308594, -1.2261916399002075, 0.6103515625, -0.017333984375, -0.62744140625
429, 4029420769, -8.864541053771973, 4.572625160217285, 6.068108081817627, -8.357728958129883, -413.1442565917969, 19.57320785522461, 0.515869140625, -0.0205078125, -0.67822265625
430, 4029437436, -9.828432083129883, 4.457860469818115, 6.175022602081299, -5.3057332038879395, -414.8111267089844, 41.840179443359375, 0.423828125, -0.022216796875, -0.71337890625
431, 4029454103, -9.590381622314453, 3.5979371070861816, 4.9986891746521, 7.235719680786133, -395.6568298339844, 59.00823974609375, 0.3359375, -0.028564453125, -0.734130859375
432, 4029470770, -10.721592903137207, 1.5616536140441895, 4.509391784667969, 34.53779602050781, -334.9574279785156, 68.06764221191406, 0.270751953125, -0.042724609375, -0.74755859375
433, 4029487437, -13.405121803283691, 1.2160507440567017, 7.738187789916992, 67.07884979248047, -267.6925354003906, 67.31859588623047, 0.21875, -0.065185546875, -0.751953125
434, 4029504104, -18.357805252075195, 1.1687110662460327, 12.693868637084961, 90.33834075927734, -256.090087890625, 58.446388244628906, 0.18115234375, -0.091552734375, -0.75830078125
435, 4029520771, -17.866975784301758, 0.8100987076759338, 9.86972427368164, 105.27644348144531, -254.02230834960938, 44.55782699584961, 0.14453125, -0.121337890625, -0.76611328125
436, 4029537438, -18.450401306152344, 1.0067367553710938, 9.146621704101562, 115.88214874267578, -232.52076721191406, 37.49134826660156, 0.102294921875, -0.15966796875, -0.779052734375
437, 4029554105, -18.601877212524414, 2.320251226425171, 8.236993789672852, 102.48885345458984, -221.87777709960938, 36.01771926879883, 0.0537109375, -0.19677734375, -0.79248046875
438, 4029570772, -17.78789520263672, -0.10726788640022278, 5.834948539733887, 80.43455505371094, -205.38079833984375, 38.824928283691406, -0.00439453125, -0.222412109375, -0.799560546875
439, 4029587439, -17.547483444213867, -3.05354380607605, 4.57521915435791, 81.78787994384766, -184.2615203857422, 46.926212310791016, -0.063232421875, -0.24853515625, -0.79736328125
440, 4029604106, -17.132492065429688, -3.92765474319458, 3.0094728469848633, 79.85675811767578, -164.4640350341797, 54.97394943237305, -0.116943359375, -0.268310546875, -0.78564453125
441, 4029620773, -18.036035537719727, -3.7452707290649414, 0.4607691764831543, 48.743080139160156, -144.72525024414062, 53.24607467651367, -0.1640625, -0.28173828125, -0.768798828125
442, 4029637440, -17.167776107788086, -3.7951242923736572, -4.0794358253479, -1.7369487285614014, -112.76612854003906, 39.3232421875, -0.201171875, -0.283935546875, -0.756591796875
443, 4029654107, -16.69151496887207, -5.058021068572998, -6.49498176574707, -25.288909912109375, -55.685279846191406, 36.96745300292969, -0.221923828125, -0.27880859375, -0.748779296875
444, 4029670774, -17.626989364624023, -4.480713844299316, -4.906857013702393, -16.396953582763672, -2.6730685234069824, 48.71944808959961, -0.231201171875, -0.271728515625, -0.7451171875
445, 4029687441, -17.577478408813477, -3.6344430446624756, -1.19247305393219, -31.90184783935547, 32.844451904296875, 50.24363327026367, -0.234130859375, -0.263671875, -0.743896484375
446, 4029704108, -1.2837636470794678, -7.876037120819092, 7.098999977111816, -34.292015075683594, 44.80467987060547, 9.599642753601074, -0.23046875, -0.253173828125, -0.7529296875
447, 4029720775, 4.8078932762146, 6.94875955581665, 17.76899528503418, 7.560753345489502, 110.84264373779297, -56.93868637084961, -0.2138671875, -0.25634765625, -0.7529296875
448, 4029737442, -2.4876348972320557, 5.038583755493164, 3.3795952796936035, -5.054666042327881, 191.49847412109375, -65.33790588378906, -0.174560546875, -0.259521484375, -0.76025390625
449, 4029754109, -12.882346153259277, -1.0321197509765625, 15.2695894241333, 24.642297744750977, 197.34231567382812, -13.823625564575195, -0.12939453125, -0.262939453125, -0.76171875
450, 4029770776, -7.48106050491333, -0.34164193272590637, 11.989145278930664, 23.829526901245117, 138.1894073486328, -18.89812660217285, -0.09912109375, -0.271240234375, -0.763671875
451, 4029787443, -6.23092794418335, 7.00985860824585, 8.626863479614258, 21.854698181152344, 128.4736328125, -10.536815643310547, -0.073486328125, -0.2763671875, -0.766357421875
452, 4029804110, -5.68852424621582, 2.21330189704895, 9.295169830322266, 13.437223434448242, 118.42903137207031, -12.496811866760254, -0.0478515625, -0.279541015625, -0.76318359375
453, 4029820777, -7.0260910987854, 2.7770397663116455, 10.650667190551758, 1.4414005279541016, 98.94534301757812, -22.08797836303711, -0.025146484375, -0.28125, -0.7685546875
454, 4029837444, -10.476692199707031, 5.113417148590088, 10.370651245117188, -33.2684440612793, 67.10374450683594, -35.12910079956055, -0.006103515625, -0.2763671875, -0.764404296875
455, 4029854111, -6.56838321685791, -0.13539302349090576, 10.561503410339355, -38.214962005615234, 37.47372817993164, -27.17803955078125, 0.00390625, -0.26904296875, -0.767578125
456, 4029870778, -5.36319637298584, 1.5909720659255981, 9.130913734436035, -36.88950729370117, 14.093132019042969, -19.946680068969727, 0.010986328125, -0.261962890625, -0.770751953125
457, 4029887445, -5.14663553237915, 1.5276391506195068, 8.706523895263672, -35.7254638671875, 3.7668182849884033, -19.25754165649414, 0.011474609375, -0.25341796875, -0.773681640625
458, 4029904112, -4.965249061584473, 1.999837040901184, 8.274714469909668, -33.49720764160156, 2.425330400466919, -19.31023406982422, 0.012939453125, -0.2470703125, -0.77392578125
459, 4029920779, -5.227839469909668, 2.0209696292877197, 8.243295669555664, -25.611799240112305, 6.6413373947143555, -15.445624351501465, 0.015869140625, -0.241455078125, -0.77685546875
460, 4029937446, -4.990091800689697, 1.0754261016845703, 8.658392906188965, -14.655348777770996, 9.949822425842285, -7.978353500366211, 0.0185546875, -0.236083984375, -0.7763671875
461, 4029954113, -5.010519504547119, 1.8416084051132202, 8.453348159790039, -5.945645332336426, 11.177342414855957, -3.216060161590576, 0.0205078125, -0.237548828125, -0.7763671875
462, 4029970780, -4.901113033294678, 2.079803705215454, 8.295832633972168, -7.261870861053467, 9.170345306396484, -4.371513843536377, 0.02197265625, -0.236083984375, -0.774169921875
463, 4029987447, -4.895548343658447, 2.1170077323913574, 8.353560447692871, -11.142929077148438, 4.313342094421387, -7.996483325958252, 0.02587890625, -0.23388671875, -0.776123046875
464, 4030004114, -5.345103740692139, 1.865441083908081, 8.33922290802002, -15.646474838256836, -2.9875972270965576, -12.71879768371582, 0.025634765625, -0.22998046875, -0.7783203125
465, 4030020781, -5.378824234008789, 1.3855613470077515, 8.40040397644043, -18.331594467163086, -6.577084064483643, -13.547170639038086, 0.02392578125, -0.224853515625, -0.77978515625
466, 4030037448, -5.139925956726074, 1.3866143226623535, 8.431522369384766, -16.5202693939209, -6.4771928787231445, -11.830819129943848, 0.02392578125, -0.224365234375, -0.781982421875
467, 4030054115, -5.023695468902588, 1.4753739833831787, 8.410977363586426, -14.261832237243652, -5.467663764953613, -10.184850692749023, 0.0244140625, -0.219482421875, -0.778564453125
468, 4030070782, -4.994716644287109, 1.6049681901931763, 8.35049057006836, -12.699315071105957, -5.689303874969482, -10.05574893951416, 0.02197265625, -0.219482421875, -0.781005859375
469, 4030087449, -5.014053821563721, 1.5033200979232788, 8.367560386657715, -11.036520957946777, -5.553452491760254, -10.336974143981934, 0.02392578125, -0.218017578125, -0.781005859375
470, 4030104116, -5.045315742492676, 1.3988019227981567, 8.375499725341797, -9.535051345825195, -4.847361087799072, -9.663115501403809, 0.02294921875, -0.215576171875, -0.782470703125
471, 4030120783, -5.010320663452148, 1.425855040550232, 8.376581192016602, -8.884693145751953, -3.5268964767456055, -9.141191482543945, 0.0224609375, -0.21484375, -0.78564453125
472, 4030137450, -5.0115227699279785, 1.4193038940429688, 8.351158142089844, -8.808531761169434, -1.9947822093963623, -9.508591651916504, 0.0205078125, -0.212890625, -0.78271484375
473, 4030154117, -4.9734721183776855, 1.3856030702590942, 8.3596830368042, -7.042329788208008, -0.06266149878501892, -9.241232872009277, 0.02197265625, -0.21044921875, -0.783203125
474, 4030170784, -4.946685314178467, 1.2423806190490723, 8.367849349975586, -3.8680057525634766, 3.307426691055298, -8.291180610656738, 0.0224609375, -0.2119140625, -0.78271484375
475, 4030187451, -4.92927360534668, 1.3365525007247925, 8.406094551086426, -1.5462136268615723, 6.840693950653076, -7.928952217102051, 0.02490234375, -0.21044921875, -0.7841796875
476, 4030204118, -4.828274250030518, 1.4738774299621582, 8.428034782409668, -2.200209617614746, 11.751941680908203, -8.725753784179688, 0.028564453125, -0.2109375, -0.782470703125
477, 4030220785, -4.923451900482178, 1.4405081272125244, 8.415404319763184, -1.5750935077667236, 17.89824104309082, -10.018959999084473, 0.032470703125, -0.21044921875, -0.783447265625
478, 4030237452, -4.897571563720703, 1.2603956460952759, 8.445504188537598, -1.0170704126358032, 26.706777572631836, -10.562374114990234, 0.0380859375, -0.2119140625, -0.7802734375
479, 4030254119, -4.6467461585998535, 1.0691689252853394, 8.398926734924316, 7.032868385314941, 42.98371124267578, -11.170943260192871, 0.047607421875, -0.212158203125, -0.781982421875
480, 4030270786, -5.039024353027344, 1.2385350465774536, 8.589284896850586, 12.199546813964844, 60.92619705200195, -12.14673900604248, 0.062744140625, -0.214599609375, -0.77734375
481, 4030287453, -4.963906764984131, 1.0150953531265259, 8.483250617980957, 13.974891662597656, 79.64728546142578, -11.02206802368164, 0.078125, -0.21826171875, -0.77587890625
482, 4030304120, -5.271189212799072, 1.0321189165115356, 8.188949584960938, 18.585031509399414, 99.79463195800781, -9.521409034729004, 0.097900390625, -0.222412109375, -0.77294921875
483, 4030320787, -5.464791774749756, 1.2598631381988525, 8.094019889831543, 20.351160049438477, 120.18047332763672, -9.069382667541504, 0.1259765625, -0.22705078125, -0.763916015625
484, 4030337454, -5.512848377227783, 1.3133373260498047, 7.976502895355225, 19.245569229125977, 142.95294189453125, -12.514098167419434, 0.155517578125, -0.2333984375, -0.757080078125
485, 4030354121, -5.649605751037598, 1.2347712516784668, 7.966805934906006, 19.04775047302246, 170.3046875, -15.829595565795898, 0.192138671875, -0.23388671875, -0.7451171875
486, 4030370788, -5.702977180480957, 1.4703580141067505, 7.909688949584961, 16.892322540283203, 207.35952758789062, -19.35128402709961, 0.2373046875, -0.2412109375, -0.732177734375
487, 4030387455, -6.133732318878174, 1.4906315803527832, 7.75511360168457, 8.781123161315918, 253.38204956054688, -27.263498306274414, 0.289306640625, -0.239013671875, -0.711669921875
488, 4030404122, -6.608960151672363, 1.8688325881958008, 7.30126428604126, -8.360580444335938, 315.0650939941406, -35.164283752441406, 0.348876953125, -0.2373046875, -0.68017578125
489, 4030420789, -7.597749710083008, 2.5823538303375244, 8.32201099395752, -21.6076717376709, 390.12384033203125, -49.019309997558594, 0.419677734375, -0.226806640625, -0.63916015625
490, 4030437456, -11.354507446289062, 2.908926010131836, 9.73089599609375, -17.384056091308594, 447.80633544921875, -66.38675689697266, 0.5, -0.217529296875, -0.57861328125
491, 4030454123, -17.24161148071289, 1.843217134475708, 10.5864896774292, 6.83238410949707, 439.83062744140625, -81.15364837646484, 0.576416015625, -0.20361328125, -0.503173828125
492, 4030470790, -16.431428909301758, 2.985241413116455, 9.83322525024414, 17.021991729736328, 428.4223327636719, -84.96037292480469, 0.637451171875, -0.19091796875, -0.419189453125
493, 4030487457, -13.280996322631836, 3.744577646255493, 9.91655158996582, 10.863770484924316, 428.9465026855469, -95.44159698486328, 0.687744140625, -0.173583984375, -0.327880859375
494, 4030504124, -9.942877769470215, 2.4795732498168945, 10.0000638961792, 15.952864646911621, 411.5737609863281, -92.63809204101562, 0.725830078125, -0.15185546875, -0.234619140625
495, 4030520791, -7.264495849609375, 1.4671845436096191, 12.430486679077148, 60.81209945678711, 356.502197265625, -53.877349853515625, 0.741943359375, -0.141845703125, -0.142333984375
496, 4030537458, -24.907989501953125, 6.652370452880859, 21.366525650024414, 86.94009399414062, 216.53567504882812, -41.20254898071289, 0.74560546875, -0.130859375, -0.071044921875
497, 4030554125, -21.37803840637207, 9.223650932312012, 28.064672470092773, 53.48095703125, -68.39649963378906, 8.124469757080078, 0.732421875, -0.12255859375, -0.055419921875
498, 4030570792, -5.241510391235352, 5.651615142822266, 13.728048324584961, -34.20669174194336, -223.03981018066406, 12.108065605163574, 0.7158203125, -0.113037109375, -0.0712890625
499, 4030587459, -2.3967337608337402, 1.778213620185852, 7.144068717956543, -75.68650817871094, -240.65863037109375, -13.472700119018555, 0.700927734375, -0.09130859375, -0.083251953125
500, 4030604126, -2.7955493927001953, 1.0799623727798462, 6.3060688972473145, -98.1995620727539, -238.95761108398438, -44.776084899902344, 0.706787109375, -0.059814453125, -0.08544921875
501, 4030620793, -5.438507556915283, 0.6846505403518677, 8.219673156738281, -96.80525207519531, -269.7715759277344, -69.16356658935547, 0.73681640625, -0.017333984375, -0.08935546875
502, 4030637460, -7.146958351135254, 0.14737707376480103, 8.62290096282959, -66.85519409179688, -325.5666809082031, -77.07469177246094, 0.796875, 0.033203125, -0.132080078125
503, 4030654127, -6.774897575378418, 0.6039610505104065, 6.755041122436523, -13.43029499053955, -366.358154296875, -63.09297180175781, 0.864013671875, 0.07470703125, -0.248291015625
504, 4030670794, -6.940512657165527, 2.4431533813476562, 5.766079902648926, 31.716140747070312, -382.36474609375, -36.12568283081055, 0.8828125, 0.1015625, -0.426513671875
505, 4030687461, -6.985246658325195, 4.692543029785156, 5.620607376098633, 40.29710006713867, -389.7201232910156, -7.425465106964111, 0.814453125, 0.106689453125, -0.6171875
506, 4030704128, -7.67908239364624, 5.33361291885376, 5.926077365875244, 18.33416175842285, -383.3016662597656, 17.041671752929688, 0.68310546875, 0.099365234375, -0.748046875
507, 4030720795, -9.20352554321289, 4.729015350341797, 6.898935317993164, 16.841604232788086, -369.220947265625, 51.76350021362305, 0.547119140625, 0.096435546875, -0.817626953125
508, 4030737462, -10.534261703491211, 3.9678914546966553, 7.963712692260742, 43.61143493652344, -362.0741882324219, 96.75106811523438, 0.430908203125, 0.0859375, -0.854736328125
509, 4030754129, -11.885688781738281, 1.9514062404632568, 7.15653133392334, 63.71159362792969, -336.78277587890625, 112.95195770263672, 0.33984375, 0.065673828125, -0.88671875
510, 4030770796, -13.373961448669434, -1.221144437789917, 7.640627384185791, 81.45275115966797, -279.81646728515625, 83.34953308105469, 0.26171875, 0.03857421875, -0.91845703125
511, 4030787463, -17.875164031982422, -3.012202262878418, 11.537545204162598, 123.73188018798828, -258.9118347167969, 38.235389709472656, 0.173828125, 7.32421875E-4, -0.94189453125
512, 4030804130, -19.666810989379883, -3.900839328765869, 10.744146347045898, 199.4853515625, -263.0662536621094, 17.55703353881836, 0.079345703125, -0.049072265625, -0.933837890625
513, 4030820797, -21.108949661254883, -1.0586693286895752, 9.758909225463867, 219.4783172607422, -254.58981323242188, 8.134422302246094, 0.003173828125, -0.108642578125, -0.906005859375
514, 4030837464, -21.377704620361328, 0.6634129285812378, 8.450789451599121, 158.13380432128906, -245.4573516845703, 13.773605346679688, -0.05859375, -0.163330078125, -0.884521484375
515, 4030854131, -20.195491790771484, -1.351836919784546, 4.269028663635254, 94.4535140991211, -225.01486206054688, 42.13283920288086, -0.117431640625, -0.196533203125, -0.87158203125
516, 4030870798, -19.896778106689453, -1.6543779373168945, 0.2889956533908844, 54.50278091430664, -187.8404998779297, 66.36994171142578, -0.169921875, -0.22216796875, -0.852783203125
517, 4030887465, -20.170312881469727, -1.1016581058502197, -3.0068674087524414, 12.381098747253418, -143.71377563476562, 70.31854248046875, -0.21728515625, -0.227294921875, -0.84033203125
518, 4030904132, -19.818714141845703, -2.111696720123291, -6.267326831817627, -8.685998916625977, -93.40180969238281, 71.26807403564453, -0.25, -0.224853515625, -0.833251953125
519, 4030920799, -18.656705856323242, -2.9843432903289795, -6.73814058303833, -13.906072616577148, -38.477378845214844, 95.45368194580078, -0.26708984375, -0.2177734375, -0.828369140625
520, 4030937466, -17.721845626831055, -3.0373759269714355, -5.721954345703125, -52.62630081176758, 16.645709991455078, 117.18080139160156, -0.27734375, -0.197998046875, -0.82861328125
521, 4030954133, -10.925192832946777, -8.531386375427246, -6.624640464782715, -96.7057876586914, 115.66947174072266, 71.74638366699219, -0.26318359375, -0.16357421875, -0.8447265625
522, 4030970800, 0.24474495649337769, -6.3477935791015625, 17.208953857421875, -45.184608459472656, 125.93516540527344, 8.675616264343262, -0.239990234375, -0.143798828125, -0.85595703125
523, 4030987467, -3.048637866973877, -1.4477903842926025, 14.945713996887207, 6.4227986335754395, 168.60914611816406, -60.815670013427734, -0.20068359375, -0.14306640625, -0.864013671875
524, 4031004134, -9.151482582092285, -1.152478575706482, 9.222687721252441, 35.667808532714844, 191.09771728515625, -40.538570404052734, -0.15283203125, -0.1474609375, -0.871826171875
525, 4031020801, -10.819902420043945, 1.1689586639404297, 13.661945343017578, 17.358797073364258, 154.4677276611328, -30.669811248779297, -0.112548828125, -0.150390625, -0.873779296875
526, 4031037468, -6.025915622711182, 6.903499603271484, 8.343481063842773, 10.663952827453613, 136.73876953125, -23.627010345458984, -0.078369140625, -0.152099609375, -0.876220703125
527, 4031054135, -6.006099700927734, 2.8038697242736816, 8.705767631530762, 1.1615952253341675, 130.1456298828125, -25.542388916015625, -0.043212890625, -0.1533203125, -0.876953125
528, 4031070802, -10.578536033630371, 6.378199577331543, 11.290667533874512, -29.60972785949707, 109.4552230834961, -42.07366180419922, -0.013427734375, -0.14453125, -0.877685546875
529, 4031087469, -8.207977294921875, 0.37610888481140137, 10.294124603271484, -49.561805725097656, 67.26995086669922, -42.23680877685547, 0.006103515625, -0.128662109375, -0.883544921875
530, 4031104136, -6.457736968994141, 1.1841827630996704, 10.090344429016113, -50.45713424682617, 33.44873809814453, -27.38375473022461, 0.018310546875, -0.11474609375, -0.88671875
531, 4031120803, -6.618372917175293, 1.441228985786438, 9.209425926208496, -36.317176818847656, 14.707670211791992, -19.246673583984375, 0.026611328125, -0.106201171875, -0.88671875
532, 4031137470, -5.699876308441162, 1.8696128129959106, 8.553105354309082, -22.730215072631836, 6.402390956878662, -12.804884910583496, 0.027587890625, -0.0986328125, -0.88623046875
533, 4031154137, -5.520272731781006, 1.7854961156845093, 8.479558944702148, -12.6051607131958, 0.8178974986076355, -10.368388175964355, 0.028076171875, -0.0966796875, -0.88623046875
534, 4031170804, -5.39294958114624, 1.493336796760559, 8.452630043029785, -11.229242324829102, 0.15163367986679077, -7.855829238891602, 0.027587890625, -0.09326171875, -0.887939453125
535, 4031187471, -4.992781639099121, 1.211843729019165, 8.512527465820312, -3.6814544200897217, 4.330179691314697, -1.5560485124588013, 0.029052734375, -0.09228515625, -0.88671875
536, 4031204138, -5.0384697914123535, 1.5171055793762207, 8.392375946044922, 1.6195361614227295, 8.847146987915039, 3.30361008644104, 0.0302734375, -0.09130859375, -0.889404296875
537, 4031220805, -5.392203330993652, 2.127169609069824, 8.21715259552002, 4.5965657234191895, 9.359018325805664, 4.628133296966553, 0.03271484375, -0.095703125, -0.88623046875
538, 4031237472, -5.170373439788818, 2.1683969497680664, 8.047109603881836, 3.6885178089141846, 7.9436469078063965, 2.2295026779174805, 0.037353515625, -0.09716796875, -0.885498046875
539, 4031254139, -5.131331443786621, 2.0584490299224854, 8.073775291442871, 0.7745665907859802, 6.166924476623535, -1.3845139741897583, 0.037109375, -0.0986328125, -0.885498046875
540, 4031270806, -5.287777900695801, 1.9098682403564453, 8.103299140930176, -0.99568110704422, 4.5112104415893555, -3.033069133758545, 0.040283203125, -0.09765625, -0.886962890625
541, 4031287473, -5.313684940338135, 1.8122007846832275, 8.077414512634277, -2.6220877170562744, 3.432607889175415, -3.6302549839019775, 0.041259765625, -0.09716796875, -0.885498046875
542, 4031304140, -5.328641414642334, 1.7122315168380737, 8.123373031616211, -2.9896812438964844, 3.6646718978881836, -2.7276759147644043, 0.040771484375, -0.095703125, -0.885498046875
543, 4031320807, -5.237581253051758, 1.9452061653137207, 8.085273742675781, -4.2197957038879395, 3.9434664249420166, -2.6226513385772705, 0.041259765625, -0.09521484375, -0.886962890625
544, 4031337474, -5.154877185821533, 2.1316230297088623, 8.0546236038208, -7.735511302947998, 1.6468778848648071, -5.728308200836182, 0.04638671875, -0.096435546875, -0.88671875
545, 4031354141, -5.341360569000244, 2.0604262351989746, 8.149477005004883, -9.718477249145508, -2.603686571121216, -10.293482780456543, 0.044189453125, -0.09375, -0.884765625
546, 4031370808, -5.427887916564941, 1.8832035064697266, 8.093544960021973, -12.2039794921875, -5.055582046508789, -12.858717918395996, 0.045166015625, -0.091796875, -0.887451171875
547, 4031387475, -5.38334321975708, 1.8895612955093384, 8.074579238891602, -17.8581485748291, -7.246809482574463, -15.548890113830566, 0.043212890625, -0.086669921875, -0.886474609375
548, 4031404142, -5.41259765625, 1.7596248388290405, 8.08623218536377, -16.51801109313965, -9.232527732849121, -15.539066314697266, 0.041748046875, -0.082275390625, -0.88720703125
549, 4031420809, -5.210975170135498, 1.6465288400650024, 8.143705368041992, -14.187689781188965, -7.214914798736572, -13.930769920349121, 0.040283203125, -0.07861328125, -0.888671875
550, 4031437476, -5.112048625946045, 1.8742629289627075, 8.161900520324707, -14.555374145507812, -5.588686943054199, -15.942919731140137, 0.038818359375, -0.07666015625, -0.888671875
551, 4031454143, -5.1832990646362305, 1.7484248876571655, 8.177762985229492, -13.515460968017578, -3.089280843734741, -17.815866470336914, 0.0380859375, -0.072265625, -0.886962890625
552, 4031470810, -5.136467456817627, 1.4623388051986694, 8.252201080322266, -10.087307929992676, 4.088785171508789, -16.674171447753906, 0.039794921875, -0.0712890625, -0.888427734375
553, 4031487477, -5.053290843963623, 1.3385661840438843, 8.3129243850708, -5.110381126403809, 13.515220642089844, -14.312538146972656, 0.043212890625, -0.0712890625, -0.8876953125
554, 4031504144, -4.867924213409424, 1.1169743537902832, 8.263334274291992, 0.5289868712425232, 24.76410675048828, -11.566788673400879, 0.04833984375, -0.068115234375, -0.88916015625
555, 4031520811, -5.1660027503967285, 1.3209177255630493, 8.19859504699707, 9.76092529296875, 39.51062774658203, -8.765295028686523, 0.058837890625, -0.07080078125, -0.88916015625
556, 4031537478, -5.128051280975342, 1.2890337705612183, 8.252721786499023, 15.315160751342773, 53.5589714050293, -6.6758317947387695, 0.0712890625, -0.075439453125, -0.8876953125
557, 4031554145, -5.2179646492004395, 1.5389070510864258, 8.24838638305664, 16.566526412963867, 71.3509292602539, -6.895352363586426, 0.08837890625, -0.080078125, -0.883544921875
558, 4031570812, -5.312668323516846, 1.5741937160491943, 8.207562446594238, 12.424982070922852, 92.0333023071289, -10.646821975708008, 0.111083984375, -0.082763671875, -0.880859375
559, 4031587479, -5.668654918670654, 1.5222036838531494, 7.919227123260498, 13.825358390808105, 112.06705474853516, -13.076659202575684, 0.1376953125, -0.084228515625, -0.87548828125
560, 4031604146, -5.702349662780762, 1.3435138463974, 7.790035247802734, 16.265188217163086, 131.2418975830078, -15.140779495239258, 0.169189453125, -0.089111328125, -0.869384765625
561, 4031620813, -5.768736362457275, 1.2423380613327026, 7.73253059387207, 18.8814697265625, 153.11669921875, -14.647451400756836, 0.2080078125, -0.0947265625, -0.859130859375
562, 4031637480, -5.84536075592041, 1.5847644805908203, 7.764288425445557, 17.21868896484375, 186.73046875, -14.555052757263184, 0.25341796875, -0.0986328125, -0.847900390625
563, 4031654147, -6.002607822418213, 1.9129247665405273, 7.574004650115967, 12.999492645263672, 230.99331665039062, -22.416290283203125, 0.3056640625, -0.098876953125, -0.82568359375
564, 4031670814, -6.8637237548828125, 2.1450459957122803, 7.150272369384766, -1.1354689598083496, 289.5931701660156, -32.367557525634766, 0.36865234375, -0.095947265625, -0.79541015625
565, 4031687481, -7.196613788604736, 2.872722864151001, 7.983191967010498, -14.756627082824707, 370.20758056640625, -48.44136428833008, 0.449462890625, -0.08740234375, -0.753662109375
566, 4031704148, -10.081778526306152, 3.3027596473693848, 9.98017692565918, -9.018003463745117, 442.3187255859375, -67.56071472167969, 0.539306640625, -0.075927734375, -0.69091796875
567, 4031720815, -17.20399284362793, 1.8489809036254883, 11.132195472717285, 19.14510726928711, 448.574951171875, -85.07425689697266, 0.62744140625, -0.065673828125, -0.609375
568, 4031737482, -16.83875846862793, 3.322370767593384, 10.445592880249023, 39.47562026977539, 436.56549072265625, -86.8731918334961, 0.701904296875, -0.06005859375, -0.521728515625
569, 4031754149, -14.790635108947754, 4.190205097198486, 11.03653621673584, 23.411333084106445, 437.9561462402344, -106.77227020263672, 0.76171875, -0.04736328125, -0.422119140625
570, 4031770816, -12.112675666809082, 3.4540045261383057, 13.027688026428223, 26.02674102783203, 408.08331298828125, -108.05803680419922, 0.80712890625, -0.03076171875, -0.31884765625
571, 4031787483, -7.2055816650390625, 1.7811371088027954, 16.171363830566406, 60.0330810546875, 304.5038757324219, -70.59394073486328, 0.8359375, -0.0224609375, -0.232177734375
572, 4031804150, -27.16184425354004, 7.430694103240967, 24.784008026123047, 77.4561767578125, 144.44163513183594, -60.192222595214844, 0.8427734375, -0.019775390625, -0.177978515625
573, 4031820817, -13.176982879638672, 6.5747833251953125, 23.915241241455078, 46.17361068725586, -120.92650604248047, -31.71725082397461, 0.827392578125, -0.021728515625, -0.1875
574, 4031837484, -1.771048903465271, 3.0806097984313965, 10.965377807617188, 3.7449305057525635, -199.90701293945312, -43.18740463256836, 0.8037109375, -0.020263671875, -0.219970703125
575, 4031854151, -3.2856457233428955, 2.092081308364868, 8.302959442138672, -19.497665405273438, -216.30650329589844, -53.901493072509766, 0.77734375, -0.01513671875, -0.254150390625
576, 4031870818, -5.783411026000977, 2.535775899887085, 10.178054809570312, -43.97669982910156, -263.6556091308594, -62.79921340942383, 0.75048828125, -0.002197265625, -0.28564453125
577, 4031887485, -5.806487083435059, 1.9411746263504028, 9.067726135253906, -59.97797393798828, -336.2545166015625, -73.3450698852539, 0.72216796875, 0.013916015625, -0.329833984375
578, 4031904152, -5.012382507324219, 0.47442612051963806, 6.770420074462891, -38.06045150756836, -376.48004150390625, -65.32632446289062, 0.691650390625, 0.033203125, -0.382568359375
579, 4031920819, -3.8927342891693115, 1.21981942653656, 4.814570903778076, 10.07034969329834, -391.6629943847656, -32.877559661865234, 0.657470703125, 0.039794921875, -0.440185546875
580, 4031937486, -4.9047160148620605, 3.467547655105591, 4.546279430389404, 28.922447204589844, -387.744384765625, -0.4163898527622223, 0.622314453125, 0.03369140625, -0.49169921875
581, 4031954153, -7.288192272186279, 4.905850410461426, 6.250467300415039, 15.47805404663086, -376.44525146484375, 31.544143676757812, 0.5986328125, 0.025390625, -0.537353515625
582, 4031970820, -8.88231372833252, 3.8793773651123047, 7.337156772613525, 4.5050811767578125, -373.2608947753906, 67.75635528564453, 0.583984375, 0.008544921875, -0.606689453125
583, 4031987487, -9.373817443847656, 1.674080729484558, 6.2967352867126465, 19.273988723754883, -363.8936767578125, 93.73372650146484, 0.541748046875, -0.019775390625, -0.69873046875
584, 4032004154, -11.226091384887695, 0.12184379994869232, 5.679089546203613, 44.7426872253418, -315.8567199707031, 100.63809967041016, 0.462890625, -0.052490234375, -0.77734375
585, 4032020821, -13.956430435180664, 0.43337005376815796, 7.854844093322754, 62.92676544189453, -265.3646545410156, 101.27490997314453, 0.376953125, -0.07666015625, -0.82421875
586, 4032037488, -16.82792091369629, 1.2536455392837524, 10.411826133728027, 48.971031188964844, -244.0361328125, 83.00941467285156, 0.293212890625, -0.101806640625, -0.84765625
587, 4032054155, -17.507015228271484, 0.8637588620185852, 9.58963394165039, 61.765586853027344, -242.25172424316406, 68.85197448730469, 0.209716796875, -0.121826171875, -0.84228515625
588, 4032070822, -17.160587310791016, 4.576600551605225, 7.7645263671875, 77.28514862060547, -225.70240783691406, 78.85688781738281, 0.14990234375, -0.144775390625, -0.818115234375
589, 4032087489, -18.275959014892578, 7.9748969078063965, 8.184377670288086, 41.26667785644531, -208.3462371826172, 100.6776123046875, 0.10986328125, -0.161376953125, -0.800537109375
590, 4032104156, -19.29649543762207, 6.47050666809082, 7.82613468170166, -3.01842999458313, -207.35081481933594, 139.6112518310547, 0.080322265625, -0.1728515625, -0.7939453125
591, 4032120823, -17.034780502319336, 3.3469772338867188, 4.70894718170166, -30.139238357543945, -191.80938720703125, 175.0933837890625, 0.04150390625, -0.178466796875, -0.794677734375
592, 4032137490, -17.63322639465332, 1.5715115070343018, 4.263905048370361, -47.77866744995117, -162.7024383544922, 192.33033752441406, 0.007080078125, -0.17822265625, -0.804931640625
593, 4032154157, -18.922542572021484, 1.4432199001312256, 2.938890218734741, -62.13889694213867, -149.7617950439453, 198.8677978515625, -0.029541015625, -0.169189453125, -0.815185546875
594, 4032170824, -16.43126678466797, 1.0684285163879395, -2.4549143314361572, -76.74349212646484, -117.31358337402344, 195.90232849121094, -0.06787109375, -0.15380859375, -0.828369140625
595, 4032187491, -16.715660095214844, -1.0358442068099976, -4.119023323059082, -45.6588134765625, -57.75961685180664, 208.2698211669922, -0.09375, -0.138671875, -0.8359375
596, 4032204158, -17.212364196777344, -0.19970524311065674, -3.7563416957855225, 12.088959693908691, -10.372178077697754, 232.03546142578125, -0.10986328125, -0.135009765625, -0.842529296875
597, 4032220825, -15.943875312805176, 2.3272953033447266, -4.040343284606934, 10.115926742553711, 40.19554901123047, 234.0832061767578, -0.1123046875, -0.135498046875, -0.84716796875
598, 4032237492, -14.991171836853027, 0.03436412662267685, -3.7216098308563232, -3.7247774600982666, 86.7882080078125, 229.89990234375, -0.100341796875, -0.128173828125, -0.85546875
599, 4032254159, -6.89324426651001, 0.8515969514846802, 0.7197605967521667, 130.40687561035156, 150.27442932128906, 246.1551513671875, -0.074951171875, -0.157958984375, -0.854736328125
600, 4032270826, -0.5179104804992676, -2.0683939456939697, 15.858049392700195, 48.992706298828125, 170.49671936035156, 88.72025299072266, -0.03515625, -0.17724609375, -0.853759765625
601, 4032287493, -3.191391706466675, -8.091063499450684, 15.990609169006348, 73.66152954101562, 202.63954162597656, -18.190488815307617, 0.017578125, -0.1982421875, -0.855224609375
602, 4032304160, -10.660700798034668, 1.97503662109375, 8.993539810180664, 57.87178421020508, 206.97396850585938, -34.79204177856445, 0.078125, -0.221923828125, -0.8505859375
603, 4032320827, -10.335285186767578, 3.1081931591033936, 13.211447715759277, 43.252113342285156, 171.43423461914062, -20.438669204711914, 0.13134765625, -0.235107421875, -0.843017578125
604, 4032337494, -6.549952983856201, 1.9379528760910034, 10.049116134643555, 41.95064926147461, 139.60855102539062, -25.750383377075195, 0.172119140625, -0.2490234375, -0.837646484375
605, 4032354161, -8.830949783325195, 9.28096866607666, 10.250192642211914, 9.685654640197754, 122.41421508789062, -30.764142990112305, 0.210693359375, -0.25927734375, -0.830078125
606, 4032370828, -8.533344268798828, 5.391657829284668, 9.165328025817871, -37.07652282714844, 94.52688598632812, -40.098533630371094, 0.2392578125, -0.2509765625, -0.825927734375
607, 4032387495, -8.037466049194336, 1.7313117980957031, 10.491964340209961, -60.05650329589844, 51.89435958862305, -43.285858154296875, 0.262939453125, -0.238525390625, -0.82421875
608, 4032404162, -5.739006996154785, 3.138723611831665, 8.472280502319336, -55.451332092285156, 22.86235237121582, -35.010128021240234, 0.270751953125, -0.221923828125, -0.827392578125
609, 4032420829, -5.4455885887146, 1.8521289825439453, 8.580230712890625, -47.5908203125, 11.948726654052734, -30.64713478088379, 0.27685546875, -0.208984375, -0.827392578125
610, 4032437496, -6.053709506988525, 2.426116704940796, 8.508105278015137, -46.6096305847168, 4.427914619445801, -30.489452362060547, 0.28076171875, -0.197998046875, -0.829345703125
611, 4032454163, -5.565176010131836, 1.6918357610702515, 8.62842082977295, -41.25773239135742, -7.558297634124756, -26.825748443603516, 0.28173828125, -0.18701171875, -0.82958984375
612, 4032470830, -5.410645484924316, 1.7936797142028809, 8.419706344604492, -33.310054779052734, -8.881115913391113, -22.563743591308594, 0.2822265625, -0.179443359375, -0.83154296875
613, 4032487497, -5.3051886558532715, 1.7533005475997925, 8.507283210754395, -34.681854248046875, -8.133323669433594, -20.946537017822266, 0.28125, -0.1689453125, -0.83447265625
614, 4032504164, -5.251998424530029, 1.481528878211975, 8.52824878692627, -31.761472702026367, -6.270146369934082, -17.919099807739258, 0.28173828125, -0.157470703125, -0.836669921875
615, 4032520831, -5.203793525695801, 1.513249158859253, 8.45054817199707, -25.928539276123047, -5.2796783447265625, -15.180083274841309, 0.27978515625, -0.1513671875, -0.835693359375
616, 4032537498, -5.162883281707764, 1.3183436393737793, 8.355254173278809, -19.97542381286621, -6.022980213165283, -12.791727066040039, 0.28076171875, -0.146240234375, -0.83837890625
617, 4032554165, -5.227996826171875, 1.2212311029434204, 8.354482650756836, -14.628031730651855, -5.546679973602295, -9.971650123596191, 0.2783203125, -0.142822265625, -0.84033203125
618, 4032570832, -5.102304458618164, 1.2564319372177124, 8.37398624420166, -11.371162414550781, -5.007619380950928, -7.9426069259643555, 0.27880859375, -0.140380859375, -0.842041015625
619, 4032587499, -5.000724792480469, 1.2928439378738403, 8.360894203186035, -9.803265571594238, -4.499090671539307, -6.976097106933594, 0.279296875, -0.138916015625, -0.842041015625
620, 4032604166, -5.025088310241699, 1.2971633672714233, 8.401056289672852, -7.499490737915039, -2.636533737182617, -5.74902868270874, 0.27783203125, -0.1337890625, -0.840576171875
621, 4032620833, -5.0871710777282715, 1.2731571197509766, 8.343831062316895, -6.512517929077148, -2.0053086280822754, -5.217642307281494, 0.2783203125, -0.13525390625, -0.840576171875
622, 4032637500, -4.915266513824463, 1.1849398612976074, 8.314303398132324, -5.506872177124023, -1.2484272718429565, -4.3555426597595215, 0.279296875, -0.1337890625, -0.842529296875
623, 4032654167, -4.919839859008789, 1.2217031717300415, 8.309130668640137, -3.071321487426758, 1.7218971252441406, -2.9937150478363037, 0.28076171875, -0.13623046875, -0.842041015625
624, 4032670834, -5.058380603790283, 1.4142087697982788, 8.347208976745605, -1.6454108953475952, 3.187782049179077, -2.4979422092437744, 0.2802734375, -0.13427734375, -0.843505859375
625, 4032687501, -5.073986530303955, 1.3469362258911133, 8.302927017211914, -2.6013283729553223, 2.0424909591674805, -3.580962657928467, 0.28076171875, -0.13525390625, -0.840576171875
626, 4032704168, -4.980729579925537, 1.377769947052002, 8.340799331665039, -2.7506508827209473, 2.916121244430542, -4.503827095031738, 0.28466796875, -0.13134765625, -0.84130859375
627, 4032720835, -5.1105170249938965, 1.380173921585083, 8.344433784484863, -2.794269323348999, 4.34653377532959, -5.311242580413818, 0.28466796875, -0.1328125, -0.8388671875
628, 4032737502, -5.115140438079834, 1.2936551570892334, 8.315404891967773, -2.8562774658203125, 4.557300567626953, -5.46995210647583, 0.28662109375, -0.13330078125, -0.8388671875
629, 4032754169, -5.067977428436279, 1.3795830011367798, 8.324047088623047, -2.805833101272583, 4.962518692016602, -5.687390327453613, 0.286865234375, -0.1337890625, -0.83935546875
630, 4032770836, -5.135143756866455, 1.3875428438186646, 8.320353507995605, -4.05869197845459, 5.199910640716553, -6.932654857635498, 0.293212890625, -0.134033203125, -0.840087890625
631, 4032787503, -5.14906120300293, 1.387043833732605, 8.324252128601074, -6.1314520835876465, 4.883953094482422, -7.776338577270508, 0.292236328125, -0.13330078125, -0.838134765625
632, 4032804170, -5.204856872558594, 1.3110551834106445, 8.317440032958984, -8.011157035827637, 4.657537460327148, -8.4866304397583, 0.294189453125, -0.13037109375, -0.840087890625
633, 4032820837, -5.101463794708252, 1.1146351099014282, 8.361617088317871, -9.480072975158691, 7.2043256759643555, -7.365089416503906, 0.295654296875, -0.12841796875, -0.836181640625
634, 4032837504, -5.105360507965088, 1.1245237588882446, 8.327908515930176, -8.818177223205566, 12.796671867370605, -5.8681817054748535, 0.29833984375, -0.1259765625, -0.837646484375
635, 4032854171, -5.067479133605957, 1.0641809701919556, 8.264335632324219, -4.165424346923828, 19.28063201904297, -4.860503196716309, 0.302734375, -0.12548828125, -0.83544921875
636, 4032870838, -5.2230706214904785, 1.0581780672073364, 8.257793426513672, -1.015789270401001, 25.780683517456055, -4.0698933601379395, 0.311767578125, -0.12451171875, -0.83203125
637, 4032887505, -5.296085357666016, 1.0600744485855103, 8.270988464355469, -0.10576802492141724, 32.131404876708984, -3.0300955772399902, 0.31787109375, -0.12451171875, -0.831298828125
638, 4032904172, -5.302105903625488, 1.2094154357910156, 8.25921630859375, 1.0554983615875244, 37.93852615356445, -3.1881442070007324, 0.329345703125, -0.1259765625, -0.827392578125
639, 4032920839, -5.44039249420166, 1.22356379032135, 8.127673149108887, 2.32716703414917, 45.03089904785156, -4.142576217651367, 0.337890625, -0.12548828125, -0.82470703125
640, 4032937506, -5.482844352722168, 1.3197332620620728, 8.130976676940918, 3.3941330909729004, 53.284080505371094, -5.716441631317139, 0.352294921875, -0.128173828125, -0.819091796875
641, 4032954173, -5.666921138763428, 1.2963093519210815, 8.025288581848145, 2.4133713245391846, 62.668968200683594, -8.731005668640137, 0.366455078125, -0.126708984375, -0.8115234375
642, 4032970840, -5.7522292137146, 1.2468370199203491, 7.946111679077148, 1.2898353338241577, 72.43678283691406, -11.481457710266113, 0.384521484375, -0.12841796875, -0.805908203125
643, 4032987507, -5.942832946777344, 1.2189931869506836, 7.829145431518555, 0.18072138726711273, 83.41934204101562, -14.937833786010742, 0.404052734375, -0.12744140625, -0.79736328125
644, 4033004174, -6.054408550262451, 1.2053279876708984, 7.633663177490234, -1.1949357986450195, 94.9310531616211, -18.76970672607422, 0.42236328125, -0.12646484375, -0.78515625
645, 4033020841, -6.163720607757568, 1.0366548299789429, 7.536941051483154, 0.6328213810920715, 109.2197494506836, -22.07729148864746, 0.451904296875, -0.12353515625, -0.772705078125
646, 4033037508, -6.155019283294678, 1.0480587482452393, 7.594326972961426, 1.6346079111099243, 130.26019287109375, -25.71211051940918, 0.47998046875, -0.12060546875, -0.756103515625
647, 4033054175, -6.257636547088623, 1.3198604583740234, 7.66523551940918, -2.0992352962493896, 159.67738342285156, -34.74641418457031, 0.513916015625, -0.11572265625, -0.734375
648, 4033070842, -6.624216556549072, 1.5527207851409912, 7.70904541015625, -10.610968589782715, 193.61891174316406, -49.22716522216797, 0.55615234375, -0.1083984375, -0.70654296875
649, 4033087509, -7.2482404708862305, 2.0212955474853516, 7.722447872161865, -25.639175415039062, 231.5548553466797, -70.83955383300781, 0.6015625, -0.09228515625, -0.671875
650, 4033104176, -8.390223503112793, 3.0028035640716553, 7.666806221008301, -50.10432815551758, 268.32623291015625, -104.97465515136719, 0.654296875, -0.06494140625, -0.626220703125
651, 4033120843, -10.817023277282715, 4.245968818664551, 8.831809997558594, -82.97175598144531, 297.8912048339844, -147.89012145996094, 0.707275390625, -0.022705078125, -0.57080078125
652, 4033137510, -16.15424346923828, 6.206493854522705, 10.915383338928223, -138.8565673828125, 281.9854431152344, -194.0284881591797, 0.754638671875, 0.0361328125, -0.509521484375
653, 4033154177, -17.4939022064209, 6.1009697914123535, 10.334066390991211, -163.95423889160156, 225.1352996826172, -230.49435424804688, 0.781494140625, 0.115478515625, -0.457275390625
654, 4033170844, -13.702169418334961, 7.0873613357543945, 10.358360290527344, -167.90052795410156, 169.4166717529297, -249.64480590820312, 0.788818359375, 0.199462890625, -0.414306640625
655, 4033187511, -6.735261917114258, 8.858169555664062, 7.67112922668457, -225.36810302734375, 152.3924560546875, -265.9990539550781, 0.780029296875, 0.290283203125, -0.369873046875
656, 4033204178, -2.4652698040008545, 11.650436401367188, 7.630424499511719, -355.9197692871094, 190.503173828125, -297.74114990234375, 0.76220703125, 0.395263671875, -0.30078125
