sep=,
DeviceTag:,A,,,,,,,,,,,,,,,,,
FirmwareVersion:,2.2.1,,,,,,,,,,,,,,,,,
AppVersion:,2022.0.1,,,,,,,,,,,,,,,,,
SyncStatus:,Synced,,,,,,,,,,,,,,,,,
OutputRate:,60Hz,,,,,,,,,,,,,,,,,
FilterProfile:,General,,,,,,,,,,,,,,,,,
Measurement Mode:,Inertial Mode - Rate quantities (with mag),,,,,,,,,,,,,,,,,
StartTime:,2022-08-05 16:01:37.805 +0300,,,,,,,,,,,,,,,,,
© Xsens Technologies B. V. 2005-2022,,,,,,,,,,,,,,,,,,,

PacketCounter,SampleTimeFine,Acc_X,Acc_Y,Acc_Z,Gyr_X,Gyr_Y,Gyr_Z,Mag_X,Mag_Y,Mag_Z
1, 744857014, -5.096340656280518, 1.3507543802261353, 8.325130462646484, -2.536912441253662, -1.428510069847107, -2.3840558528900146, 0.05078125, -0.09912109375, -0.83642578125
2, 744873681, -5.109195709228516, 1.34428870677948, 8.313356399536133, -2.5957069396972656, -1.4441338777542114, -2.4228591918945312, 0.04833984375, -0.097900390625, -0.834716796875
3, 744890348, -5.08954381942749, 1.3282115459442139, 8.3102445602417, -2.578930139541626, -1.4397538900375366, -2.4468584060668945, 0.04931640625, -0.09814453125, -0.8349609375
4, 744907015, -5.105514049530029, 1.3424293994903564, 8.287579536437988, -2.5990490913391113, -1.4467334747314453, -2.388704538345337, 0.04931640625, -0.097412109375, -0.836669921875
5, 744923682, -5.088803291320801, 1.3444974422454834, 8.340250015258789, -2.5210325717926025, -1.470143437385559, -2.3554465770721436, 0.0498046875, -0.09912109375, -0.83544921875
6, 744940349, -5.102827072143555, 1.3445420265197754, 8.301485061645508, -2.494126319885254, -1.3889766931533813, -2.3650639057159424, 0.05078125, -0.09814453125, -0.83642578125
7, 744957016, -5.095411777496338, 1.3405907154083252, 8.31125545501709, -2.545518159866333, -1.4407782554626465, -2.3875646591186523, 0.04931640625, -0.09814453125, -0.836181640625
8, 744973683, -5.099961280822754, 1.3529291152954102, 8.31805419921875, -2.5261294841766357, -1.4119385480880737, -2.3190505504608154, 0.04833984375, -0.096923828125, -0.834716796875
9, 744990350, -5.089189529418945, 1.3556791543960571, 8.301210403442383, -2.575894594192505, -1.3576139211654663, -2.443272113800049, 0.04931640625, -0.097412109375, -0.836669921875
10, 745007017, -5.10598087310791, 1.350949764251709, 8.292899131774902, -2.671776533126831, -1.4680304527282715, -2.4450783729553223, 0.04931640625, -0.09814453125, -0.835205078125
11, 745023684, -5.104518413543701, 1.3458062410354614, 8.307782173156738, -2.6724040508270264, -1.538516640663147, -2.485123634338379, 0.04931640625, -0.0986328125, -0.838623046875
12, 745040351, -5.093569278717041, 1.346538782119751, 8.307326316833496, -2.6900765895843506, -1.4926316738128662, -2.392495632171631, 0.0517578125, -0.096435546875, -0.838134765625
13, 745057018, -5.107833385467529, 1.3390717506408691, 8.307772636413574, -2.627927541732788, -1.5016087293624878, -2.3844146728515625, 0.05078125, -0.1005859375, -0.8359375
14, 745073685, -5.098288536071777, 1.3442447185516357, 8.30838680267334, -2.5441739559173584, -1.605250597000122, -2.4361140727996826, 0.0478515625, -0.10009765625, -0.833984375
15, 745090352, -5.0991668701171875, 1.3419402837753296, 8.3021821975708, -2.6458051204681396, -1.6394435167312622, -2.4774911403656006, 0.05029296875, -0.0986328125, -0.838134765625
16, 745107019, -5.104261875152588, 1.3316560983657837, 8.311843872070312, -2.6507740020751953, -1.6904641389846802, -2.466362237930298, 0.0498046875, -0.0986328125, -0.836669921875
17, 745123686, -5.0986480712890625, 1.3456860780715942, 8.297560691833496, -2.7462453842163086, -1.6446171998977661, -2.4262402057647705, 0.0498046875, -0.099609375, -0.836669921875
18, 745140353, -5.081052303314209, 1.3295527696609497, 8.330340385437012, -2.7868406772613525, -1.8112276792526245, -2.5142319202423096, 0.04833984375, -0.0986328125, -0.839111328125
19, 745157020, -5.09071159362793, 1.344330906867981, 8.306270599365234, -2.7930264472961426, -1.731738567352295, -2.4882094860076904, 0.0517578125, -0.09765625, -0.8359375
20, 745173687, -5.084838390350342, 1.3520703315734863, 8.323654174804688, -2.738740921020508, -1.7033473253250122, -2.4208099842071533, 0.04931640625, -0.097900390625, -0.8349609375
21, 745190354, -5.089513778686523, 1.323197841644287, 8.289021492004395, -2.72403883934021, -1.6574876308441162, -2.442542791366577, 0.048828125, -0.097412109375, -0.835205078125
22, 745207021, -5.094871997833252, 1.3337785005569458, 8.31008529663086, -2.7134995460510254, -1.6530054807662964, -2.4243321418762207, 0.05078125, -0.097900390625, -0.83447265625
23, 745223688, -5.099783897399902, 1.333828091621399, 8.296612739562988, -2.5873823165893555, -1.5567656755447388, -2.2490768432617188, 0.0498046875, -0.09912109375, -0.837158203125
24, 745240355, -5.090138912200928, 1.3323750495910645, 8.301956176757812, -2.4936399459838867, -1.6091692447662354, -2.316028356552124, 0.04931640625, -0.097412109375, -0.836181640625
25, 745257022, -5.085240840911865, 1.3436602354049683, 8.319461822509766, -2.560706853866577, -1.5807392597198486, -2.3503496646881104, 0.0478515625, -0.097412109375, -0.838134765625
26, 745273689, -5.083279132843018, 1.3265266418457031, 8.302691459655762, -2.589226722717285, -1.676313042640686, -2.3892555236816406, 0.05029296875, -0.09912109375, -0.83447265625
27, 745290356, -5.081137180328369, 1.344673991203308, 8.305967330932617, -2.579455614089966, -1.592777132987976, -2.461355209350586, 0.048828125, -0.0986328125, -0.835693359375
28, 745307023, -5.0841383934021, 1.34658682346344, 8.299607276916504, -2.715266704559326, -1.6233330965042114, -2.38586163520813, 0.048828125, -0.097900390625, -0.835205078125
29, 745323690, -5.093738079071045, 1.3497503995895386, 8.305643081665039, -2.7181992530822754, -1.4934511184692383, -2.506113290786743, 0.046875, -0.097412109375, -0.837158203125
30, 745340357, -5.108400821685791, 1.3241933584213257, 8.299615859985352, -2.611496925354004, -1.5279130935668945, -2.511991500854492, 0.05078125, -0.0986328125, -0.8359375
31, 745357024, -5.087984085083008, 1.344866394996643, 8.310441970825195, -2.6493265628814697, -1.550682783126831, -2.429992437362671, 0.048828125, -0.0986328125, -0.837158203125
32, 745373691, -5.091605186462402, 1.3271373510360718, 8.31655502319336, -2.667729377746582, -1.5390416383743286, -2.447216749191284, 0.048828125, -0.09912109375, -0.836669921875
33, 745390358, -5.085476398468018, 1.337942123413086, 8.288212776184082, -2.7123470306396484, -1.5351229906082153, -2.4557716846466064, 0.04931640625, -0.09814453125, -0.836669921875
34, 745407025, -5.09335470199585, 1.346993088722229, 8.311613082885742, -2.7385997772216797, -1.5821094512939453, -2.5065999031066895, 0.04931640625, -0.09814453125, -0.838623046875
35, 745423692, -5.079068183898926, 1.3521716594696045, 8.311060905456543, -2.750650644302368, -1.6017287969589233, -2.5022459030151367, 0.048828125, -0.09765625, -0.837646484375
36, 745440359, -5.0892863273620605, 1.3243792057037354, 8.311716079711914, -2.731018304824829, -1.646832823753357, -2.511876344680786, 0.046875, -0.097412109375, -0.835205078125
37, 745457026, -5.080427169799805, 1.3350733518600464, 8.288372039794922, -2.7003729343414307, -1.546648621559143, -2.4855079650878906, 0.048828125, -0.097412109375, -0.836669921875
38, 745473693, -5.09186315536499, 1.3236969709396362, 8.318349838256836, -2.571835517883301, -1.4586563110351562, -2.3994874954223633, 0.05029296875, -0.097412109375, -0.83251953125
39, 745490360, -5.092066764831543, 1.3364527225494385, 8.30433464050293, -2.530803918838501, -1.5428708791732788, -2.391125202178955, 0.05029296875, -0.09814453125, -0.836181640625
40, 745507027, -5.082465171813965, 1.3361903429031372, 8.29085636138916, -2.5748324394226074, -1.4604235887527466, -2.473021984100342, 0.0498046875, -0.09912109375, -0.837158203125
41, 745523694, -5.0876288414001465, 1.3090369701385498, 8.319808959960938, -2.517920970916748, -1.487496256828308, -2.4741616249084473, 0.04833984375, -0.096435546875, -0.837646484375
42, 745540361, -5.087375640869141, 1.339267611503601, 8.32650089263916, -2.560117244720459, -1.4583232402801514, -2.3917651176452637, 0.0478515625, -0.097900390625, -0.834716796875
43, 745557028, -5.092753887176514, 1.3495700359344482, 8.307284355163574, -2.615889549255371, -1.4324160814285278, -2.4175703525543213, 0.048828125, -0.0986328125, -0.836669921875
44, 745573695, -5.073771953582764, 1.3267393112182617, 8.300057411193848, -2.5341591835021973, -1.4447741508483887, -2.4165713787078857, 0.04736328125, -0.095458984375, -0.836669921875
45, 745590362, -5.089237689971924, 1.3252354860305786, 8.3070650100708, -2.5773932933807373, -1.4242967367172241, -2.470165729522705, 0.04736328125, -0.096435546875, -0.835693359375
46, 745607029, -5.080600261688232, 1.3272340297698975, 8.328949928283691, -2.5680315494537354, -1.3667576313018799, -2.4425806999206543, 0.048828125, -0.097900390625, -0.83349609375
47, 745623696, -5.0863728523254395, 1.332342505455017, 8.299867630004883, -2.587344169616699, -1.33566415309906, -2.50954532623291, 0.0498046875, -0.09814453125, -0.835693359375
48, 745640363, -5.0890045166015625, 1.3223754167556763, 8.315380096435547, -2.599792003631592, -1.3501479625701904, -2.4596774578094482, 0.04833984375, -0.09814453125, -0.838134765625
49, 745657030, -5.08977746963501, 1.3352199792861938, 8.292020797729492, -2.659597635269165, -1.4682097434997559, -2.5278074741363525, 0.05029296875, -0.09765625, -0.837158203125
50, 745673697, -5.0903167724609375, 1.3383738994598389, 8.3037691116333, -2.6865293979644775, -1.542230486869812, -2.577265501022339, 0.0478515625, -0.098388671875, -0.835693359375
51, 745690364, -5.092252731323242, 1.3215008974075317, 8.302461624145508, -2.7192366123199463, -1.5912659168243408, -2.479463577270508, 0.046142578125, -0.098876953125, -0.835205078125
52, 745707031, -5.074878215789795, 1.3298386335372925, 8.298051834106445, -2.7868149280548096, -1.556675672531128, -2.5739352703094482, 0.0478515625, -0.094970703125, -0.835205078125
53, 745723698, -5.076972961425781, 1.3238165378570557, 8.308969497680664, -2.666179895401001, -1.5256590843200684, -2.5919668674468994, 0.047119140625, -0.097412109375, -0.832763671875
54, 745740365, -5.076894760131836, 1.3246999979019165, 8.299543380737305, -2.5852949619293213, -1.3713680505752563, -2.558760404586792, 0.04833984375, -0.097900390625, -0.835693359375
55, 745757032, -5.082982063293457, 1.3384277820587158, 8.307241439819336, -2.550717830657959, -1.3298115730285645, -2.496623992919922, 0.04736328125, -0.096435546875, -0.835693359375
56, 745773699, -5.081652641296387, 1.3341947793960571, 8.314929008483887, -2.6448187828063965, -1.346843957901001, -2.530996084213257, 0.048828125, -0.094970703125, -0.835693359375
57, 745790366, -5.0975189208984375, 1.3379223346710205, 8.301422119140625, -2.6163759231567383, -1.391794204711914, -2.5580685138702393, 0.048828125, -0.096923828125, -0.834716796875
58, 745807033, -5.09042501449585, 1.3113114833831787, 8.319494247436523, -2.625699043273926, -1.4485266208648682, -2.4688470363616943, 0.048828125, -0.098388671875, -0.83251953125
59, 745823700, -5.0801262855529785, 1.336982250213623, 8.303174018859863, -2.6710333824157715, -1.3689093589782715, -2.478989362716675, 0.046875, -0.096435546875, -0.836669921875
60, 745840367, -5.096721649169922, 1.322533130645752, 8.303437232971191, -2.608910083770752, -1.4898526668548584, -2.50323224067688, 0.048828125, -0.095947265625, -0.838623046875
61, 745857034, -5.088705539703369, 1.3401455879211426, 8.317601203918457, -2.67132830619812, -1.4030382633209229, -2.571502447128296, 0.04833984375, -0.096923828125, -0.836181640625
62, 745873701, -5.084096908569336, 1.326697826385498, 8.313492774963379, -2.590827465057373, -1.3871840238571167, -2.5072789192199707, 0.05078125, -0.097412109375, -0.833984375
63, 745890368, -5.0976881980896, 1.323933482170105, 8.320518493652344, -2.685863494873047, -1.421722650527954, -2.595181465148926, 0.04833984375, -0.096923828125, -0.837158203125
64, 745907035, -5.096465587615967, 1.3221067190170288, 8.297090530395508, -2.654231548309326, -1.3578574657440186, -2.5314316749572754, 0.04736328125, -0.096435546875, -0.834716796875
65, 745923702, -5.079043388366699, 1.3384957313537598, 8.321014404296875, -2.677603006362915, -1.419033408164978, -2.56014347076416, 0.04931640625, -0.097412109375, -0.838623046875
66, 745940369, -5.095041275024414, 1.3361248970031738, 8.323270797729492, -2.715202808380127, -1.383098840713501, -2.615799903869629, 0.04931640625, -0.097900390625, -0.836181640625
67, 745957036, -5.097664833068848, 1.3377737998962402, 8.309277534484863, -2.8336095809936523, -1.4514333009719849, -2.6219849586486816, 0.048828125, -0.095947265625, -0.835693359375
68, 745973703, -5.088630199432373, 1.3217220306396484, 8.304543495178223, -2.724768877029419, -1.4247193336486816, -2.600752353668213, 0.046630859375, -0.097412109375, -0.832763671875
69, 745990370, -5.079524993896484, 1.3104430437088013, 8.28698444366455, -2.7659926414489746, -1.399567723274231, -2.619462251663208, 0.0478515625, -0.095947265625, -0.837158203125
70, 746007037, -5.0793657302856445, 1.3258088827133179, 8.308298110961914, -2.7920401096343994, -1.4538663625717163, -2.626837968826294, 0.0498046875, -0.097412109375, -0.835693359375
71, 746023704, -5.079072952270508, 1.3062838315963745, 8.30550765991211, -2.7791061401367188, -1.4433013200759888, -2.6448440551757812, 0.0478515625, -0.09814453125, -0.837158203125
72, 746040371, -5.0794501304626465, 1.3145021200180054, 8.283145904541016, -2.7439401149749756, -1.4449790716171265, -2.512017011642456, 0.0478515625, -0.096923828125, -0.835693359375
73, 746057038, -5.093865394592285, 1.3153741359710693, 8.297046661376953, -2.7243592739105225, -1.3986457586288452, -2.570324182510376, 0.04833984375, -0.095458984375, -0.836181640625
74, 746073705, -5.096432685852051, 1.3203861713409424, 8.308223724365234, -2.68750262260437, -1.3866205215454102, -2.514322519302368, 0.05029296875, -0.096923828125, -0.836181640625
75, 746090372, -5.075445175170898, 1.3126217126846313, 8.319979667663574, -2.687758684158325, -1.4364886283874512, -2.5423426628112793, 0.05029296875, -0.096435546875, -0.835205078125
76, 746107039, -5.080090522766113, 1.3221603631973267, 8.30811882019043, -2.701141357421875, -1.4544686079025269, -2.48498272895813, 0.04833984375, -0.096923828125, -0.834228515625
77, 746123706, -5.099228382110596, 1.3278734683990479, 8.304405212402344, -2.7794394493103027, -1.4793899059295654, -2.5812737941741943, 0.046875, -0.095458984375, -0.836669921875
78, 746140373, -5.089348793029785, 1.3308511972427368, 8.296060562133789, -2.7729074954986572, -1.4820531606674194, -2.600726366043091, 0.0498046875, -0.097412109375, -0.83447265625
79, 746157040, -5.093708038330078, 1.3176990747451782, 8.302796363830566, -2.6488144397735596, -1.5301413536071777, -2.545070171356201, 0.04931640625, -0.095458984375, -0.837646484375
80, 746173707, -5.090883731842041, 1.3191438913345337, 8.315208435058594, -2.717289686203003, -1.4779167175292969, -2.684556484222412, 0.05029296875, -0.096923828125, -0.833984375
81, 746190374, -5.078705310821533, 1.3218261003494263, 8.2965087890625, -2.7735354900360107, -1.4598857164382935, -2.4821529388427734, 0.04931640625, -0.095947265625, -0.835693359375
82, 746207041, -5.06960391998291, 1.3230650424957275, 8.31537914276123, -2.6386332511901855, -1.3747745752334595, -2.4874799251556396, 0.04833984375, -0.095458984375, -0.835693359375
83, 746223708, -5.094532012939453, 1.3128188848495483, 8.315141677856445, -2.487748622894287, -1.3036222457885742, -2.4541573524475098, 0.04833984375, -0.097412109375, -0.837158203125
84, 746240375, -5.075321674346924, 1.3242765665054321, 8.303627014160156, -2.5587987899780273, -1.2738990783691406, -2.516063928604126, 0.046630859375, -0.095947265625, -0.835693359375
85, 746257042, -5.0991058349609375, 1.3203165531158447, 8.323783874511719, -2.566136598587036, -1.4217995405197144, -2.5647406578063965, 0.048828125, -0.096923828125, -0.835205078125
86, 746273709, -5.089042663574219, 1.313672661781311, 8.301228523254395, -2.5825798511505127, -1.4054714441299438, -2.6117658615112305, 0.04931640625, -0.095947265625, -0.837158203125
87, 746290376, -5.080415725708008, 1.3051271438598633, 8.310401916503906, -2.6884243488311768, -1.3987609148025513, -2.629054546356201, 0.0498046875, -0.095947265625, -0.836181640625
88, 746307043, -5.08799934387207, 1.3057085275650024, 8.304388999938965, -2.7385871410369873, -1.3740191459655762, -2.6305654048919678, 0.048828125, -0.095947265625, -0.837158203125
89, 746323710, -5.089385986328125, 1.3149762153625488, 8.28989315032959, -2.6615052223205566, -1.37190580368042, -2.5387179851531982, 0.05029296875, -0.095458984375, -0.838134765625
90, 746340377, -5.090107440948486, 1.309227466583252, 8.308090209960938, -2.6675374507904053, -1.371073603630066, -2.553253412246704, 0.05029296875, -0.096923828125, -0.837646484375
91, 746357044, -5.097555637359619, 1.306567668914795, 8.304113388061523, -2.623534917831421, -1.271068811416626, -2.5271799564361572, 0.05029296875, -0.095458984375, -0.833984375
92, 746373711, -5.088879108428955, 1.3184291124343872, 8.310887336730957, -2.613635540008545, -1.393535852432251, -2.525425434112549, 0.0498046875, -0.094482421875, -0.835693359375
93, 746390378, -5.082330703735352, 1.30522882938385, 8.32151985168457, -2.6214728355407715, -1.2761657238006592, -2.5021047592163086, 0.05078125, -0.096435546875, -0.838134765625
94, 746407045, -5.095981597900391, 1.3109184503555298, 8.298575401306152, -2.4878385066986084, -1.3692806959152222, -2.454132080078125, 0.05078125, -0.094970703125, -0.83447265625
95, 746423712, -5.100925922393799, 1.303859829902649, 8.323509216308594, -2.5821189880371094, -1.4302133321762085, -2.508469820022583, 0.04833984375, -0.097412109375, -0.835693359375
96, 746440379, -5.086784362792969, 1.320860743522644, 8.30690860748291, -2.4437077045440674, -1.2710943222045898, -2.383056879043579, 0.0498046875, -0.095458984375, -0.836669921875
97, 746457046, -5.107669353485107, 1.3081560134887695, 8.31057071685791, -2.4030730724334717, -1.2833114862442017, -2.3962345123291016, 0.05029296875, -0.095458984375, -0.836669921875
98, 746473713, -5.097910404205322, 1.3083007335662842, 8.320883750915527, -2.475083351135254, -1.4059709310531616, -2.4097838401794434, 0.0498046875, -0.093994140625, -0.833740234375
99, 746490380, -5.099080562591553, 1.3095767498016357, 8.334444046020508, -2.526641845703125, -1.447527527809143, -2.4534921646118164, 0.047607421875, -0.098388671875, -0.83349609375
100, 746507047, -5.096087455749512, 1.322016954421997, 8.302541732788086, -2.533416509628296, -1.4444156885147095, -2.4536585807800293, 0.0498046875, -0.095947265625, -0.836181640625
101, 746523714, -5.090670108795166, 1.2865022420883179, 8.32019329071045, -2.5379626750946045, -1.4069057703018188, -2.40431547164917, 0.04833984375, -0.094482421875, -0.835205078125
102, 746540381, -5.092691898345947, 1.3049075603485107, 8.300374031066895, -2.391777992248535, -1.3370085954666138, -2.3661012649536133, 0.048828125, -0.096435546875, -0.837158203125
103, 746557048, -5.0783281326293945, 1.3247389793395996, 8.321257591247559, -2.4916932582855225, -1.3974417448043823, -2.377511739730835, 0.04833984375, -0.097900390625, -0.835205078125
104, 746573715, -5.1013689041137695, 1.3154984712600708, 8.29852294921875, -2.490950107574463, -1.452252745628357, -2.413318157196045, 0.05078125, -0.096435546875, -0.836181640625
105, 746590382, -5.094643592834473, 1.3147079944610596, 8.29977798461914, -2.804680347442627, -1.6838043928146362, -2.562371253967285, 0.04931640625, -0.096923828125, -0.835693359375
106, 746607049, -5.093118190765381, 1.3145642280578613, 8.33182144165039, -3.0455806255340576, -1.8909473419189453, -2.6029162406921387, 0.048828125, -0.099609375, -0.836181640625
107, 746623716, -5.089155197143555, 1.3178242444992065, 8.321778297424316, -3.0518813133239746, -1.92252779006958, -2.691331386566162, 0.048828125, -0.094970703125, -0.836181640625
108, 746640383, -5.087340831756592, 1.2987247705459595, 8.274073600769043, -3.0856130123138428, -1.830001711845398, -2.66902232170105, 0.04833984375, -0.097900390625, -0.837646484375
109, 746657050, -5.0988545417785645, 1.2964494228363037, 8.310505867004395, -3.159736394882202, -1.822241187095642, -2.7004239559173584, 0.05029296875, -0.094482421875, -0.836669921875
110, 746673717, -5.105707168579102, 1.2951600551605225, 8.301087379455566, -3.0686960220336914, -1.8824822902679443, -2.6870412826538086, 0.0498046875, -0.094970703125, -0.836669921875
111, 746690384, -5.086557865142822, 1.3060921430587769, 8.309555053710938, -2.9815359115600586, -1.9828327894210815, -2.704944372177124, 0.0478515625, -0.095947265625, -0.836181640625
112, 746707051, -5.083288192749023, 1.3041858673095703, 8.309707641601562, -3.076815605163574, -1.9601147174835205, -2.6787171363830566, 0.04736328125, -0.096923828125, -0.84130859375
113, 746723718, -5.076165199279785, 1.3023748397827148, 8.305662155151367, -2.9658994674682617, -1.8432180881500244, -2.643089771270752, 0.04931640625, -0.094482421875, -0.836669921875
114, 746740385, -5.080565452575684, 1.2859331369400024, 8.28370189666748, -2.8510138988494873, -1.7780464887619019, -2.5728471279144287, 0.04833984375, -0.096435546875, -0.835693359375
115, 746757052, -5.083090305328369, 1.2987582683563232, 8.313870429992676, -2.6895129680633545, -1.641915202140808, -2.5105574131011963, 0.04931640625, -0.093017578125, -0.837646484375
116, 746773719, -5.079443454742432, 1.2902038097381592, 8.313492774963379, -2.6460609436035156, -1.7074322700500488, -2.403700828552246, 0.0478515625, -0.095458984375, -0.836669921875
117, 746790386, -5.07653284072876, 1.292850375175476, 8.303828239440918, -2.8444950580596924, -1.689311146736145, -2.483099937438965, 0.0478515625, -0.094482421875, -0.835693359375
118, 746807053, -5.0693888664245605, 1.2942489385604858, 8.32105541229248, -2.7609593868255615, -1.7055623531341553, -2.530380964279175, 0.04833984375, -0.095458984375, -0.836669921875
119, 746823720, -5.070183277130127, 1.2883315086364746, 8.314433097839355, -2.698336601257324, -1.6808336973190308, -2.368790626525879, 0.047119140625, -0.093017578125, -0.836181640625
120, 746840387, -5.080853462219238, 1.2842726707458496, 8.302462577819824, -2.600355386734009, -1.5278232097625732, -2.400038242340088, 0.046142578125, -0.095458984375, -0.837158203125
121, 746857054, -5.094128131866455, 1.3073478937149048, 8.296425819396973, -2.589738607406616, -1.5418717861175537, -2.402355909347534, 0.0498046875, -0.095458984375, -0.837646484375
122, 746873721, -5.070684432983398, 1.285638451576233, 8.32448959350586, -2.4593570232391357, -1.520305871963501, -2.433885335922241, 0.04833984375, -0.095458984375, -0.837158203125
123, 746890388, -5.089511871337891, 1.3009742498397827, 8.323525428771973, -2.5411128997802734, -1.593186855316162, -2.3354685306549072, 0.04833984375, -0.094970703125, -0.8330078125
124, 746907055, -5.086009502410889, 1.2930887937545776, 8.305870056152344, -2.5595157146453857, -1.57163405418396, -2.383159637451172, 0.046875, -0.095947265625, -0.837158203125
125, 746923722, -5.073724746704102, 1.2875474691390991, 8.314292907714844, -2.6689460277557373, -1.6480238437652588, -2.4269700050354004, 0.046142578125, -0.094482421875, -0.83837890625
126, 746940389, -5.09372091293335, 1.2885395288467407, 8.299007415771484, -2.581747531890869, -1.641210913658142, -2.4031245708465576, 0.04931640625, -0.094970703125, -0.835693359375
127, 746957056, -5.065798282623291, 1.300669550895691, 8.30482292175293, -2.58514142036438, -1.6541324853897095, -2.352475643157959, 0.04736328125, -0.094970703125, -0.837646484375
128, 746973723, -5.08223819732666, 1.29115891456604, 8.32322883605957, -2.613187074661255, -1.604123592376709, -2.4106674194335938, 0.05029296875, -0.096923828125, -0.8349609375
129, 746990390, -5.0725836753845215, 1.293705701828003, 8.302029609680176, -2.472637176513672, -1.5402709245681763, -2.3866426944732666, 0.0478515625, -0.095458984375, -0.834228515625
130, 747007057, -5.066315174102783, 1.2947686910629272, 8.313435554504395, -2.547478199005127, -1.539259433746338, -2.458909273147583, 0.0498046875, -0.094482421875, -0.836669921875
131, 747023724, -5.082426071166992, 1.3019906282424927, 8.307300567626953, -2.5515248775482178, -1.5497479438781738, -2.4056477546691895, 0.046875, -0.092529296875, -0.837646484375
132, 747040391, -5.0845160484313965, 1.2831825017929077, 8.313343048095703, -2.567058801651001, -1.460692286491394, -2.3620035648345947, 0.04736328125, -0.094482421875, -0.836669921875
133, 747057058, -5.076555252075195, 1.2897087335586548, 8.322751998901367, -2.5335447788238525, -1.506180763244629, -2.4179418087005615, 0.04736328125, -0.094970703125, -0.836181640625
134, 747073725, -5.080367088317871, 1.3025013208389282, 8.331764221191406, -2.625455617904663, -1.5778834819793701, -2.365858316421509, 0.04931640625, -0.094970703125, -0.837646484375
135, 747090392, -5.072721004486084, 1.3048430681228638, 8.336624145507812, -2.5916340351104736, -1.6253691911697388, -2.4679884910583496, 0.0478515625, -0.094482421875, -0.836669921875
136, 747107059, -5.073156356811523, 1.2894090414047241, 8.329082489013672, -2.6368019580841064, -1.481208324432373, -2.4059293270111084, 0.046630859375, -0.094482421875, -0.835693359375
137, 747123726, -5.069990158081055, 1.2935137748718262, 8.308001518249512, -2.625135660171509, -1.559429407119751, -2.452160358428955, 0.04833984375, -0.093994140625, -0.837158203125
138, 747140393, -5.069455623626709, 1.304572343826294, 8.327136993408203, -2.7695910930633545, -1.448372721672058, -2.387014389038086, 0.048828125, -0.095458984375, -0.836669921875
139, 747157060, -5.082780361175537, 1.2858015298843384, 8.31877613067627, -2.6132638454437256, -1.4930670261383057, -2.446845293045044, 0.04833984375, -0.095458984375, -0.838134765625
140, 747173727, -5.082983493804932, 1.3022595643997192, 8.318323135375977, -2.6155178546905518, -1.5640653371810913, -2.4604971408843994, 0.04736328125, -0.095947265625, -0.835693359375
141, 747190394, -5.084565162658691, 1.2929198741912842, 8.285707473754883, -2.6088333129882812, -1.4884566068649292, -2.466336965560913, 0.04736328125, -0.093505859375, -0.836669921875
142, 747207061, -5.071376323699951, 1.297471523284912, 8.313902854919434, -2.551281452178955, -1.463305115699768, -2.4366772174835205, 0.046875, -0.095947265625, -0.836181640625
143, 747223728, -5.074709415435791, 1.2977253198623657, 8.31630802154541, -2.5747039318084717, -1.4576572179794312, -2.448395013809204, 0.04736328125, -0.093505859375, -0.836669921875
144, 747240395, -5.087669849395752, 1.2970287799835205, 8.311633110046387, -2.570119619369507, -1.4861387014389038, -2.3811490535736084, 0.04638671875, -0.093017578125, -0.8388671875
145, 747257062, -5.065885543823242, 1.2892132997512817, 8.333026885986328, -2.600778102874756, -1.5127118825912476, -2.415086030960083, 0.0498046875, -0.093505859375, -0.836181640625
146, 747273729, -5.077284812927246, 1.3019312620162964, 8.323719024658203, -2.6326277256011963, -1.4718979597091675, -2.494946241378784, 0.048828125, -0.094482421875, -0.837158203125
147, 747290396, -5.074028015136719, 1.2872753143310547, 8.330299377441406, -2.6790754795074463, -1.3901293277740479, -2.4754161834716797, 0.046875, -0.094970703125, -0.836669921875
148, 747307063, -5.0863165855407715, 1.295954942703247, 8.315114974975586, -2.494741439819336, -1.4581183195114136, -2.4461536407470703, 0.048828125, -0.093994140625, -0.835205078125
149, 747323730, -5.081411838531494, 1.2867785692214966, 8.32913589477539, -2.6435511112213135, -1.3962124586105347, -2.3842222690582275, 0.046630859375, -0.094482421875, -0.836669921875
150, 747340397, -5.075921058654785, 1.303371548652649, 8.309523582458496, -2.572706460952759, -1.4983432292938232, -2.409579038619995, 0.04736328125, -0.095947265625, -0.839111328125
151, 747357064, -5.080081939697266, 1.2905638217926025, 8.335609436035156, -2.567673444747925, -1.410862922668457, -2.416161298751831, 0.04736328125, -0.093505859375, -0.836181640625
152, 747373731, -5.068554878234863, 1.2848899364471436, 8.338915824890137, -2.5927226543426514, -1.4974595308303833, -2.461048126220703, 0.048828125, -0.096435546875, -0.836669921875
153, 747390398, -5.074235439300537, 1.2850985527038574, 8.304932594299316, -2.6462788581848145, -1.4560949802398682, -2.4716389179229736, 0.04931640625, -0.093505859375, -0.835693359375
154, 747407065, -5.076822280883789, 1.2876276969909668, 8.330513000488281, -2.6210885047912598, -1.4046006202697754, -2.543968677520752, 0.04833984375, -0.094970703125, -0.836181640625
155, 747423732, -5.083873748779297, 1.3033794164657593, 8.323185920715332, -2.5733208656311035, -1.4506394863128662, -2.4385085105895996, 0.04638671875, -0.093505859375, -0.83837890625
156, 747440399, -5.071648120880127, 1.3002997636795044, 8.334113121032715, -2.5523953437805176, -1.3787189722061157, -2.4044947624206543, 0.047119140625, -0.092529296875, -0.835205078125
157, 747457066, -5.077295303344727, 1.292105793952942, 8.308674812316895, -2.515410900115967, -1.3027644157409668, -2.416302442550659, 0.04833984375, -0.095458984375, -0.835205078125
158, 747473733, -5.076962947845459, 1.2970629930496216, 8.328665733337402, -2.5411128997802734, -1.4288558959960938, -2.421552896499634, 0.04736328125, -0.095947265625, -0.837158203125
159, 747490400, -5.100939750671387, 1.2920212745666504, 8.324724197387695, -2.5243749618530273, -1.415178656578064, -2.326260566711426, 0.048828125, -0.094970703125, -0.836181640625
160, 747507067, -5.084392547607422, 1.2921494245529175, 8.313128471374512, -2.5880613327026367, -1.4612302780151367, -2.4133570194244385, 0.048828125, -0.093505859375, -0.837158203125
161, 747523734, -5.072113037109375, 1.2849568128585815, 8.32904052734375, -2.5636520385742188, -1.4745486974716187, -2.3926873207092285, 0.04736328125, -0.093017578125, -0.83837890625
162, 747540401, -5.076859474182129, 1.2919073104858398, 8.333660125732422, -2.6379034519195557, -1.568752408027649, -2.4473323822021484, 0.046142578125, -0.094970703125, -0.83837890625
163, 747557068, -5.060446262359619, 1.2828519344329834, 8.330976486206055, -2.6714816093444824, -1.5204596519470215, -2.54086971282959, 0.04736328125, -0.094482421875, -0.834716796875
164, 747573735, -5.066425323486328, 1.2878097295761108, 8.296813011169434, -2.7157535552978516, -1.441969633102417, -2.5058188438415527, 0.0478515625, -0.093994140625, -0.835693359375
165, 747590402, -5.067131996154785, 1.2936967611312866, 8.305335998535156, -2.708005428314209, -1.3766316175460815, -2.5412540435791016, 0.04736328125, -0.092041015625, -0.837646484375
166, 747607069, -5.071881294250488, 1.3003522157669067, 8.323272705078125, -2.6544108390808105, -1.3347547054290771, -2.568851947784424, 0.047119140625, -0.093505859375, -0.834228515625
167, 747623736, -5.072103023529053, 1.2943140268325806, 8.321076393127441, -2.5339670181274414, -1.151559829711914, -2.5517165660858154, 0.045654296875, -0.095458984375, -0.837646484375
168, 747640403, -5.083591938018799, 1.2790666818618774, 8.319076538085938, -2.55668568611145, -1.2593765258789062, -2.5022459030151367, 0.046875, -0.093505859375, -0.837646484375
169, 747657070, -5.084136962890625, 1.2888156175613403, 8.317117691040039, -2.5728468894958496, -1.238258719444275, -2.576766014099121, 0.05078125, -0.094482421875, -0.837646484375
170, 747673737, -5.081939697265625, 1.2950958013534546, 8.316902160644531, -2.54587721824646, -1.2395524978637695, -2.5758824348449707, 0.048828125, -0.095458984375, -0.834716796875
171, 747690404, -5.077141761779785, 1.2932826280593872, 8.31843376159668, -2.731492042541504, -1.400861144065857, -2.532917022705078, 0.048828125, -0.094482421875, -0.836669921875
172, 747707071, -5.078413486480713, 1.2877084016799927, 8.334896087646484, -2.58388614654541, -1.3403255939483643, -2.510634183883667, 0.0478515625, -0.092529296875, -0.836181640625
173, 747723738, -5.082739353179932, 1.2808998823165894, 8.291186332702637, -2.5583508014678955, -1.3609566688537598, -2.4742252826690674, 0.04833984375, -0.092529296875, -0.838623046875
174, 747740405, -5.0782551765441895, 1.269408941268921, 8.324507713317871, -2.508136034011841, -1.3305540084838867, -2.435063123703003, 0.048828125, -0.093017578125, -0.838134765625
175, 747757072, -5.077403545379639, 1.2996634244918823, 8.321869850158691, -2.4946131706237793, -1.3002415895462036, -2.4218344688415527, 0.0478515625, -0.094482421875, -0.835693359375
176, 747773739, -5.075807094573975, 1.2890915870666504, 8.320415496826172, -2.4980194568634033, -1.2647807598114014, -2.3969006538391113, 0.04833984375, -0.093994140625, -0.834228515625
177, 747790406, -5.07248067855835, 1.2934991121292114, 8.342168807983398, -2.596334218978882, -1.3698569536209106, -2.424203872680664, 0.046142578125, -0.094970703125, -0.836181640625
178, 747807073, -5.066514492034912, 1.2862591743469238, 8.295958518981934, -2.4959447383880615, -1.2323167324066162, -2.4223341941833496, 0.046875, -0.095458984375, -0.837646484375
179, 747823740, -5.074782371520996, 1.285509467124939, 8.335670471191406, -2.414304256439209, -1.2145030498504639, -2.3690595626831055, 0.046875, -0.093505859375, -0.838134765625
180, 747840407, -5.076028347015381, 1.2853646278381348, 8.304594993591309, -2.4277639389038086, -1.2787141799926758, -2.4232306480407715, 0.046142578125, -0.092529296875, -0.83740234375
181, 747857074, -5.085513591766357, 1.2764322757720947, 8.32507610321045, -2.5581326484680176, -1.3505194187164307, -2.5330450534820557, 0.0478515625, -0.093505859375, -0.836181640625
182, 747873741, -5.094924449920654, 1.2933770418167114, 8.310233116149902, -2.6998350620269775, -1.3937281370162964, -2.4628279209136963, 0.04833984375, -0.094482421875, -0.836669921875
183, 747890408, -5.073083877563477, 1.2795461416244507, 8.312292098999023, -2.4694485664367676, -1.328184962272644, -2.483330726623535, 0.046875, -0.093017578125, -0.836669921875
184, 747907075, -5.0922770500183105, 1.2850728034973145, 8.33968448638916, -2.421962261199951, -1.2676109075546265, -2.3842477798461914, 0.04833984375, -0.095947265625, -0.835693359375
185, 747923742, -5.085906505584717, 1.2960439920425415, 8.321258544921875, -2.429351568222046, -1.292916178703308, -2.4230761528015137, 0.046875, -0.093994140625, -0.838134765625
186, 747940409, -5.074304103851318, 1.3127371072769165, 8.325708389282227, -2.4658756256103516, -1.4298033714294434, -2.407414674758911, 0.04833984375, -0.094482421875, -0.839111328125
187, 747957076, -5.0908894538879395, 1.293818473815918, 8.300766944885254, -2.5348894596099854, -1.4696953296661377, -2.5248875617980957, 0.046875, -0.094482421875, -0.838623046875
188, 747973743, -5.083155632019043, 1.2854777574539185, 8.309427261352539, -2.559695243835449, -1.5053099393844604, -2.4266626834869385, 0.04931640625, -0.094482421875, -0.834716796875
189, 747990410, -5.094951629638672, 1.2693291902542114, 8.31699275970459, -2.523606300354004, -1.4083397388458252, -2.427020788192749, 0.048828125, -0.092529296875, -0.835205078125
190, 748007077, -5.080115795135498, 1.2879716157913208, 8.306123733520508, -2.5039360523223877, -1.4549038410186768, -2.3687777519226074, 0.048828125, -0.094482421875, -0.835205078125
191, 748023744, -5.087230205535889, 1.2825210094451904, 8.324883460998535, -2.4207332134246826, -1.3833802938461304, -2.389024496078491, 0.05029296875, -0.093505859375, -0.838134765625
192, 748040411, -5.084929466247559, 1.2884374856948853, 8.326923370361328, -2.479667901992798, -1.5004304647445679, -2.370032787322998, 0.04833984375, -0.093017578125, -0.835693359375
193, 748057078, -5.0730719566345215, 1.2974584102630615, 8.289163589477539, -2.492435932159424, -1.4304821491241455, -2.3320236206054688, 0.048828125, -0.094482421875, -0.838134765625
194, 748073745, -5.091545104980469, 1.282715916633606, 8.314777374267578, -2.478067398071289, -1.4435958862304688, -2.4210660457611084, 0.05078125, -0.093994140625, -0.83447265625
195, 748090412, -5.1003923416137695, 1.2716798782348633, 8.30506420135498, -2.457423448562622, -1.4884308576583862, -2.4537222385406494, 0.04833984375, -0.094482421875, -0.835693359375
196, 748107079, -5.078639507293701, 1.2831450700759888, 8.315452575683594, -2.3309481143951416, -1.4960379600524902, -2.3815457820892334, 0.0498046875, -0.093017578125, -0.838623046875
197, 748123746, -5.087841033935547, 1.2889106273651123, 8.325307846069336, -2.4321818351745605, -1.4704508781433105, -2.3792662620544434, 0.04931640625, -0.094970703125, -0.837158203125
198, 748140413, -5.089332103729248, 1.2860430479049683, 8.31847858428955, -2.418915033340454, -1.477737545967102, -2.403419256210327, 0.05078125, -0.093994140625, -0.838623046875
199, 748157080, -5.087291240692139, 1.295412302017212, 8.311962127685547, -2.472752571105957, -1.5151962041854858, -2.377140522003174, 0.0478515625, -0.094482421875, -0.837158203125
200, 748173747, -5.075597286224365, 1.3016856908798218, 8.311079978942871, -2.566392421722412, -1.4800297021865845, -2.3392460346221924, 0.04931640625, -0.095947265625, -0.835693359375
201, 748190414, -5.07255744934082, 1.2910096645355225, 8.317310333251953, -2.507291078567505, -1.520164966583252, -2.402855396270752, 0.04931640625, -0.095458984375, -0.835205078125
202, 748207081, -5.081547737121582, 1.295273780822754, 8.323477745056152, -2.5281143188476562, -1.6178134679794312, -2.4142274856567383, 0.04833984375, -0.093994140625, -0.834228515625
203, 748223748, -5.06547737121582, 1.3005584478378296, 8.310466766357422, -2.6654245853424072, -1.5904207229614258, -2.474776029586792, 0.0478515625, -0.094482421875, -0.837158203125
204, 748240415, -5.0710554122924805, 1.2898633480072021, 8.32503890991211, -2.655012845993042, -1.4989705085754395, -2.504640579223633, 0.04833984375, -0.093994140625, -0.838623046875
205, 748257082, -5.074323654174805, 1.2945727109909058, 8.30635929107666, -2.708146572113037, -1.5745282173156738, -2.453645706176758, 0.046875, -0.092529296875, -0.8388671875
206, 748273749, -5.0814337730407715, 1.2908819913864136, 8.332229614257812, -2.6077702045440674, -1.5918551683425903, -2.49337100982666, 0.04833984375, -0.093505859375, -0.838623046875
207, 748290416, -5.083769798278809, 1.2760156393051147, 8.317022323608398, -2.5794169902801514, -1.4972546100616455, -2.3942883014678955, 0.046875, -0.094970703125, -0.838623046875
208, 748307083, -5.086817741394043, 1.2942607402801514, 8.328265190124512, -2.573474407196045, -1.6268420219421387, -2.4061598777770996, 0.0478515625, -0.095458984375, -0.836669921875
209, 748323750, -5.086266994476318, 1.2955677509307861, 8.320923805236816, -2.615402936935425, -1.6013189554214478, -2.4424657821655273, 0.04736328125, -0.092529296875, -0.836181640625
210, 748340417, -5.088050842285156, 1.2948466539382935, 8.309099197387695, -2.6796140670776367, -1.5469048023223877, -2.5295491218566895, 0.04638671875, -0.095458984375, -0.83935546875
211, 748357084, -5.079464912414551, 1.2893924713134766, 8.310944557189941, -2.5476574897766113, -1.6296594142913818, -2.466900110244751, 0.05078125, -0.093017578125, -0.836669921875
212, 748373751, -5.09495210647583, 1.2907977104187012, 8.33286190032959, -2.507009506225586, -1.4524577856063843, -2.4239349365234375, 0.048828125, -0.093017578125, -0.835693359375
213, 748390418, -5.08432149887085, 1.2874433994293213, 8.32171630859375, -2.4972126483917236, -1.4431860446929932, -2.406902313232422, 0.04736328125, -0.093017578125, -0.838134765625
214, 748407085, -5.076126575469971, 1.2785241603851318, 8.309889793395996, -2.4299023151397705, -1.4091849327087402, -2.3746044635772705, 0.046630859375, -0.094970703125, -0.837158203125
215, 748423752, -5.086845397949219, 1.2825144529342651, 8.309803009033203, -2.4160711765289307, -1.4356173276901245, -2.324070692062378, 0.0478515625, -0.093994140625, -0.837158203125
216, 748440419, -5.086484909057617, 1.28742253780365, 8.310203552246094, -2.4171605110168457, -1.4679791927337646, -2.324211835861206, 0.04833984375, -0.095458984375, -0.838623046875
217, 748457086, -5.07965612411499, 1.2938871383666992, 8.31775188446045, -2.4387898445129395, -1.3805116415023804, -2.3145172595977783, 0.0498046875, -0.092041015625, -0.835693359375
218, 748473753, -5.083837509155273, 1.282880187034607, 8.331037521362305, -2.338106632232666, -1.432518482208252, -2.281118631362915, 0.048828125, -0.095947265625, -0.835693359375
219, 748490420, -5.078402519226074, 1.2936742305755615, 8.303791046142578, -2.31946063041687, -1.387196660041809, -2.2943215370178223, 0.046875, -0.094970703125, -0.836181640625
220, 748507087, -5.0895161628723145, 1.3004143238067627, 8.332231521606445, -2.363924026489258, -1.3316682577133179, -2.2781341075897217, 0.04833984375, -0.094482421875, -0.838134765625
221, 748523754, -5.088508605957031, 1.3001773357391357, 8.283368110656738, -2.433565139770508, -1.3511466979980469, -2.37092924118042, 0.04931640625, -0.093505859375, -0.837158203125
222, 748540421, -5.091012954711914, 1.2969895601272583, 8.304780006408691, -2.4152133464813232, -1.3233696222305298, -2.368316411972046, 0.046875, -0.094482421875, -0.837646484375
223, 748557088, -5.070905685424805, 1.2821887731552124, 8.320140838623047, -2.4248950481414795, -1.272208333015442, -2.3925974369049072, 0.04833984375, -0.093017578125, -0.834716796875
224, 748573755, -5.070041656494141, 1.2927988767623901, 8.32407283782959, -2.4248569011688232, -1.2867563962936401, -2.3637964725494385, 0.047607421875, -0.093994140625, -0.834716796875
225, 748590422, -5.086759090423584, 1.3034791946411133, 8.294707298278809, -2.4217066764831543, -1.3898348808288574, -2.341615676879883, 0.048828125, -0.095458984375, -0.834716796875
226, 748607089, -5.091930866241455, 1.2990453243255615, 8.304901123046875, -2.423025369644165, -1.4373592138290405, -2.3830184936523438, 0.04931640625, -0.095458984375, -0.835693359375
227, 748623756, -5.086779594421387, 1.28859281539917, 8.313981056213379, -2.5530357360839844, -1.3909746408462524, -2.4742767810821533, 0.048828125, -0.095947265625, -0.839111328125
228, 748640423, -5.0711750984191895, 1.2964271306991577, 8.295007705688477, -2.571502447128296, -1.451856017112732, -2.470639705657959, 0.04736328125, -0.094970703125, -0.838623046875
229, 748657090, -5.086187362670898, 1.2894905805587769, 8.2974214553833, -2.6213831901550293, -1.511123776435852, -2.3748867511749268, 0.048828125, -0.094970703125, -0.837158203125
230, 748673757, -5.0799102783203125, 1.2894532680511475, 8.315131187438965, -2.5530102252960205, -1.4403557777404785, -2.4312217235565186, 0.0498046875, -0.093017578125, -0.8408203125
231, 748690424, -5.093125820159912, 1.2863179445266724, 8.324456214904785, -2.5307910442352295, -1.366591215133667, -2.4892728328704834, 0.05029296875, -0.094970703125, -0.837646484375
232, 748707091, -5.095594882965088, 1.3004487752914429, 8.313279151916504, -2.6143524646759033, -1.4123228788375854, -2.450329065322876, 0.04931640625, -0.095947265625, -0.836669921875
233, 748723758, -5.094336986541748, 1.2857500314712524, 8.30671501159668, -2.5361826419830322, -1.47206449508667, -2.426534652709961, 0.04736328125, -0.093994140625, -0.837158203125
234, 748740425, -5.078441143035889, 1.2929661273956299, 8.3287353515625, -2.574704170227051, -1.4369237422943115, -2.479667901992798, 0.048828125, -0.095458984375, -0.835205078125
235, 748757092, -5.098147869110107, 1.2863401174545288, 8.32248592376709, -2.534825086593628, -1.4545069932937622, -2.450469732284546, 0.0498046875, -0.094970703125, -0.835693359375
236, 748773759, -5.091012477874756, 1.2905465364456177, 8.301365852355957, -2.6256093978881836, -1.5288351774215698, -2.457871913909912, 0.0517578125, -0.092529296875, -0.835693359375
237, 748790426, -5.084677219390869, 1.3010375499725342, 8.315561294555664, -2.6197826862335205, -1.560402750968933, -2.5004143714904785, 0.046142578125, -0.093994140625, -0.835693359375
238, 748807093, -5.087764739990234, 1.2992156744003296, 8.329866409301758, -2.618361234664917, -1.5434471368789673, -2.4078502655029297, 0.04736328125, -0.093994140625, -0.838134765625
239, 748823760, -5.076053619384766, 1.288692593574524, 8.30774974822998, -2.617605686187744, -1.538811206817627, -2.4948949813842773, 0.045654296875, -0.093505859375, -0.8369140625
240, 748840427, -5.088952541351318, 1.3094496726989746, 8.291893005371094, -2.6455490589141846, -1.538785696029663, -2.461726665496826, 0.0478515625, -0.092041015625, -0.836669921875
241, 748857094, -5.089829444885254, 1.2883702516555786, 8.313947677612305, -2.6925227642059326, -1.547545075416565, -2.4990956783294678, 0.04931640625, -0.093505859375, -0.835693359375
242, 748873761, -5.090304374694824, 1.2879124879837036, 8.330446243286133, -2.699092388153076, -1.6135492324829102, -2.5469274520874023, 0.04736328125, -0.093994140625, -0.835205078125
243, 748890428, -5.088678359985352, 1.3018220663070679, 8.331522941589355, -2.688117027282715, -1.5836591720581055, -2.5206358432769775, 0.04931640625, -0.096923828125, -0.833984375
244, 748907095, -5.094091415405273, 1.2881360054016113, 8.315840721130371, -2.7164323329925537, -1.6261122226715088, -2.5514349937438965, 0.04736328125, -0.093505859375, -0.836181640625
245, 748923762, -5.077715873718262, 1.288857102394104, 8.30536937713623, -2.7585906982421875, -1.6354479789733887, -2.4417996406555176, 0.048828125, -0.092529296875, -0.837158203125
246, 748940429, -5.086474895477295, 1.2881985902786255, 8.306880950927734, -2.666884422302246, -1.5871423482894897, -2.43300199508667, 0.0478515625, -0.093994140625, -0.84130859375
247, 748957096, -5.088794231414795, 1.2931503057479858, 8.353687286376953, -2.6741583347320557, -1.6004866361618042, -2.4680402278900146, 0.046875, -0.093994140625, -0.837158203125
248, 748973763, -5.094206809997559, 1.2891271114349365, 8.327342987060547, -2.6070916652679443, -1.6357425451278687, -2.4058141708374023, 0.0478515625, -0.095947265625, -0.836669921875
249, 748990430, -5.094029426574707, 1.2720673084259033, 8.321224212646484, -2.5211989879608154, -1.602970838546753, -2.339003324508667, 0.0478515625, -0.095458984375, -0.837158203125
250, 749007097, -5.078847408294678, 1.2778332233428955, 8.315205574035645, -2.4800140857696533, -1.6502904891967773, -2.2026283740997314, 0.048828125, -0.093017578125, -0.837646484375
251, 749023764, -5.092740535736084, 1.284544587135315, 8.329971313476562, -2.47792649269104, -1.6383932828903198, -2.191230535507202, 0.045166015625, -0.094482421875, -0.83837890625
252, 749040431, -5.075510501861572, 1.2882907390594482, 8.295170783996582, -2.6658213138580322, -1.5056042671203613, -2.3278489112854004, 0.0478515625, -0.094482421875, -0.837158203125
253, 749057098, -5.083515167236328, 1.3036881685256958, 8.303112983703613, -2.4504568576812744, -1.855525016784668, -2.275996208190918, 0.046875, -0.093017578125, -0.837890625
254, 749073765, -5.0716633796691895, 1.2933441400527954, 8.30557632446289, -2.564561605453491, -1.976314663887024, -2.31476092338562, 0.0478515625, -0.096435546875, -0.834716796875
255, 749090432, -5.067716598510742, 1.2918213605880737, 8.315510749816895, -2.5496675968170166, -1.8348556756973267, -2.219993829727173, 0.04833984375, -0.095458984375, -0.834716796875
256, 749107099, -5.0732221603393555, 1.295409083366394, 8.30113697052002, -2.5112357139587402, -1.828196406364441, -2.2678258419036865, 0.04931640625, -0.096435546875, -0.835693359375
257, 749123766, -5.061958312988281, 1.287447214126587, 8.30029296875, -2.3083062171936035, -1.6282761096954346, -2.153823137283325, 0.0478515625, -0.094482421875, -0.839111328125
258, 749140433, -5.084429740905762, 1.2735517024993896, 8.329758644104004, -2.042818069458008, -1.3218716382980347, -1.9832937717437744, 0.04931640625, -0.093017578125, -0.837646484375
259, 749157100, -5.072131156921387, 1.2988698482513428, 8.337491989135742, -1.905367136001587, -1.147679328918457, -1.9909135103225708, 0.046875, -0.095947265625, -0.836669921875
260, 749173767, -5.08404541015625, 1.2935434579849243, 8.320304870605469, -1.6906558275222778, -1.1117961406707764, -1.8329216241836548, 0.045654296875, -0.093505859375, -0.836181640625
261, 749190434, -5.059665203094482, 1.3105183839797974, 8.324095726013184, -1.773564338684082, -1.073914885520935, -1.9324780702590942, 0.04736328125, -0.095458984375, -0.836181640625
262, 749207101, -5.083740234375, 1.2735342979431152, 8.318488121032715, -1.796372413635254, -0.9093405604362488, -1.8689203262329102, 0.045654296875, -0.094970703125, -0.837158203125
263, 749223768, -5.068966865539551, 1.3448989391326904, 8.303740501403809, -1.5306919813156128, -0.7741822600364685, -1.7123756408691406, 0.0478515625, -0.093505859375, -0.83935546875
264, 749240435, -5.086835861206055, 1.3044846057891846, 8.302572250366211, -1.1760199069976807, -0.6411498785018921, -1.5886404514312744, 0.04638671875, -0.093994140625, -0.83935546875
265, 749257102, -5.080103874206543, 1.3034324645996094, 8.2609281539917, 0.15210740268230438, -0.10656163096427917, -0.8877489566802979, 0.0478515625, -0.095947265625, -0.839111328125
266, 749273769, -5.117613792419434, 1.2782834768295288, 8.299668312072754, 2.7084343433380127, 1.5793750286102295, 0.31459441781044006, 0.04736328125, -0.097412109375, -0.836669921875
267, 749290436, -5.09618616104126, 1.400322437286377, 8.301850318908691, 3.3598809242248535, 2.0891194343566895, 0.7331444621086121, 0.04931640625, -0.1005859375, -0.83544921875
268, 749307103, -5.0930681228637695, 1.3931013345718384, 8.30046558380127, 2.6488590240478516, 0.9458962678909302, 0.3343161940574646, 0.04931640625, -0.1005859375, -0.8330078125
269, 749323770, -5.089045524597168, 1.3825175762176514, 8.253233909606934, 1.9380806684494019, -0.4373495876789093, -0.09205202758312225, 0.05126953125, -0.1005859375, -0.83642578125
270, 749340437, -5.0906453132629395, 1.3453813791275024, 8.247243881225586, 1.2273155450820923, -1.6533252000808716, -0.25444933772087097, 0.048828125, -0.1015625, -0.837158203125
271, 749357104, -5.092249870300293, 1.2749707698822021, 8.258599281311035, 0.6488530039787292, -2.234592914581299, -0.39430755376815796, 0.05078125, -0.10205078125, -0.83642578125
272, 749373771, -5.028454780578613, 1.4709371328353882, 8.243232727050781, 1.9390672445297241, -1.8049139976501465, 0.42381972074508667, 0.05126953125, -0.10546875, -0.83544921875
273, 749390438, -5.115472316741943, 1.4003759622573853, 8.274272918701172, 3.7536888122558594, -1.0644512176513672, 1.0497941970825195, 0.0478515625, -0.10693359375, -0.8359375
274, 749407105, -5.076168537139893, 1.4919192790985107, 8.249720573425293, 5.656455993652344, -0.6680945158004761, 1.9681633710861206, 0.05078125, -0.108154296875, -0.8359375
275, 749423772, -5.07274055480957, 1.5824716091156006, 8.2533597946167, 5.125517845153809, -0.5820358395576477, 1.9426913261413574, 0.04931640625, -0.109130859375, -0.833984375
276, 749440439, -5.104035377502441, 1.6067098379135132, 8.253575325012207, 2.5452301502227783, -1.3099744319915771, 0.33822211623191833, 0.04931640625, -0.110107421875, -0.83642578125
277, 749457106, -5.1137003898620605, 1.7003613710403442, 8.198711395263672, -0.13906414806842804, -2.3189351558685303, -0.8239477276802063, 0.0498046875, -0.111083984375, -0.83642578125
278, 749473773, -5.114259243011475, 1.4642236232757568, 8.316203117370605, -1.3604568243026733, -3.015498161315918, -1.5448298454284668, 0.04736328125, -0.112548828125, -0.83447265625
279, 749490440, -5.0486273765563965, 1.492946743965149, 8.34809398651123, -1.091549038887024, -2.7055459022521973, -1.559096097946167, 0.04931640625, -0.112548828125, -0.8349609375
280, 749507107, -5.047273635864258, 1.444593071937561, 8.354077339172363, -0.5214873552322388, -1.2351595163345337, -1.3625186681747437, 0.0478515625, -0.112548828125, -0.833984375
281, 749523774, -5.077279090881348, 1.5654797554016113, 8.28091049194336, -0.14380250871181488, -0.3133713901042938, -1.2519744634628296, 0.05029296875, -0.114013671875, -0.832275390625
282, 749540441, -5.053586483001709, 1.508359432220459, 8.295732498168945, 1.4819318056106567, 0.4750579595565796, -0.7063855528831482, 0.048828125, -0.114501953125, -0.834228515625
283, 749557108, -5.0562238693237305, 1.5453468561172485, 8.314170837402344, 2.206822395324707, 1.6162959337234497, -0.45924854278564453, 0.04931640625, -0.11669921875, -0.834716796875
284, 749573775, -5.133138179779053, 1.575947642326355, 8.24411678314209, 1.7286076545715332, 1.9402964115142822, -0.6399333477020264, 0.05126953125, -0.1171875, -0.833251953125
285, 749590442, -5.112974643707275, 1.542744517326355, 8.252286911010742, 1.0410473346710205, 1.604168176651001, -0.8328993320465088, 0.05029296875, -0.119140625, -0.834228515625
286, 749607109, -5.1043596267700195, 1.6006648540496826, 8.231574058532715, 0.3385935127735138, 1.1433701515197754, -1.1502151489257812, 0.05322265625, -0.1201171875, -0.83349609375
287, 749623776, -5.049483299255371, 1.6487141847610474, 8.155379295349121, -0.8045077919960022, 0.9003056883811951, -1.7292542457580566, 0.05224609375, -0.1201171875, -0.835205078125
288, 749640443, -5.086653709411621, 1.611940860748291, 8.204488754272461, -1.8213320970535278, 0.7476027607917786, -2.3611578941345215, 0.052978515625, -0.11865234375, -0.834716796875
289, 749657110, -5.062107086181641, 1.6303255558013916, 8.238211631774902, -2.7298786640167236, 0.49603480100631714, -2.88574481010437, 0.053466796875, -0.12060546875, -0.835693359375
290, 749673777, -5.111273288726807, 1.6473116874694824, 8.232926368713379, -3.7820870876312256, -0.09851926565170288, -3.5938334465026855, 0.054931640625, -0.1201171875, -0.83447265625
291, 749690444, -5.175055503845215, 1.6124719381332397, 8.217270851135254, -3.716505289077759, -0.2832764685153961, -3.7143282890319824, 0.054931640625, -0.1171875, -0.83154296875
292, 749707111, -5.1569294929504395, 1.5888808965682983, 8.227411270141602, -3.4183223247528076, -0.2498903125524521, -3.5808217525482178, 0.05322265625, -0.119140625, -0.83203125
293, 749723778, -5.146796226501465, 1.6126495599746704, 8.243120193481445, -2.952235221862793, 0.07236228138208389, -3.4946482181549072, 0.052978515625, -0.1171875, -0.835205078125
294, 749740445, -5.12265157699585, 1.599082112312317, 8.24821949005127, -2.262779712677002, 0.35905808210372925, -3.155459403991699, 0.054443359375, -0.11865234375, -0.83349609375
295, 749757112, -5.067696571350098, 1.6193724870681763, 8.232125282287598, -1.0967998504638672, 1.254798173904419, -2.98037052154541, 0.057373046875, -0.1171875, -0.83203125
296, 749773779, -5.102263927459717, 1.6444530487060547, 8.248333930969238, -1.003198504447937, 1.968342661857605, -3.299940824508667, 0.054443359375, -0.1201171875, -0.83349609375
297, 749790446, -5.208464622497559, 1.5777137279510498, 8.235173225402832, -1.0750036239624023, 2.4040658473968506, -3.7553088665008545, 0.056884765625, -0.12060546875, -0.8310546875
298, 749807113, -5.204538822174072, 1.552877426147461, 8.225502014160156, 0.30174964666366577, 3.2204835414886475, -3.555759906768799, 0.057373046875, -0.11962890625, -0.83251953125
299, 749823780, -5.1816840171813965, 1.6004987955093384, 8.240442276000977, 1.7350103855133057, 4.643780708312988, -3.475412607192993, 0.059326171875, -0.1201171875, -0.83447265625
300, 749840447, -5.147004127502441, 1.623305082321167, 8.192887306213379, 2.8205926418304443, 6.281777858734131, -3.4681265354156494, 0.06201171875, -0.12109375, -0.833251953125
301, 749857114, -5.1754841804504395, 1.6183079481124878, 8.162674903869629, 4.681229114532471, 9.314094543457031, -3.258193016052246, 0.0634765625, -0.1220703125, -0.831298828125
302, 749873781, -5.213456153869629, 1.5558053255081177, 8.193395614624023, 6.617308616638184, 12.504121780395508, -2.8116869926452637, 0.06689453125, -0.125732421875, -0.8291015625
303, 749890448, -5.021265506744385, 1.587783694267273, 8.159585952758789, 8.484211921691895, 17.21476173400879, -1.9888157844543457, 0.072021484375, -0.129150390625, -0.829345703125
304, 749907115, -4.932377338409424, 1.5601320266723633, 8.130172729492188, 11.278449058532715, 25.758541107177734, -1.6993176937103271, 0.077880859375, -0.13037109375, -0.828125
305, 749923782, -5.038801193237305, 1.6995935440063477, 8.228699684143066, 11.53584098815918, 35.25108337402344, -1.8053451776504517, 0.08642578125, -0.134765625, -0.826416015625
306, 749940449, -5.039963722229004, 1.6846333742141724, 7.998427391052246, 8.721152305603027, 48.43695068359375, -2.6321113109588623, 0.094970703125, -0.136962890625, -0.826416015625
307, 749957116, -5.378772735595703, 1.951889157295227, 7.850148677825928, 10.010554313659668, 60.016605377197266, -5.681906223297119, 0.110107421875, -0.138916015625, -0.824462890625
308, 749973783, -5.684752941131592, 1.8227795362472534, 7.886214733123779, 12.407769203186035, 70.70404052734375, -7.993870735168457, 0.128173828125, -0.1435546875, -0.81982421875
309, 749990450, -5.652236461639404, 1.8607784509658813, 7.817798614501953, 13.084622383117676, 82.87486267089844, -10.288432121276855, 0.149169921875, -0.147705078125, -0.815673828125
310, 750007117, -5.7429609298706055, 1.9138977527618408, 7.6987457275390625, 12.447916984558105, 98.80960083007812, -15.288498878479004, 0.17236328125, -0.1484375, -0.807861328125
311, 750023784, -5.85121488571167, 1.8255077600479126, 7.788963317871094, 11.752556800842285, 117.86378479003906, -20.353271484375, 0.196533203125, -0.149658203125, -0.802001953125
312, 750040451, -6.072181224822998, 1.7476364374160767, 7.643804550170898, 8.867173194885254, 139.5239715576172, -22.72442626953125, 0.23046875, -0.150634765625, -0.793212890625
313, 750057118, -6.2024383544921875, 1.8415484428405762, 7.34173059463501, 8.461393356323242, 165.0728759765625, -23.57520866394043, 0.26708984375, -0.15087890625, -0.778564453125
314, 750073785, -6.509122371673584, 1.8387569189071655, 7.283906936645508, 5.3091888427734375, 196.00099182128906, -26.91828727722168, 0.31005859375, -0.149169921875, -0.760498046875
315, 750090452, -6.751943111419678, 1.8488972187042236, 7.094629764556885, -2.5830702781677246, 239.199951171875, -29.620943069458008, 0.359130859375, -0.146240234375, -0.73583984375
316, 750107119, -7.148989200592041, 2.0118842124938965, 7.183436870574951, -8.309226036071777, 298.51190185546875, -32.63913345336914, 0.421630859375, -0.140869140625, -0.70166015625
317, 750123786, -7.900700092315674, 2.2368276119232178, 7.594621181488037, 0.46085453033447266, 363.1269226074219, -37.99806594848633, 0.491455078125, -0.13671875, -0.65185546875
318, 750140453, -11.79141902923584, 2.041722059249878, 8.349909782409668, 21.11619758605957, 401.4743957519531, -43.87592697143555, 0.563720703125, -0.1318359375, -0.588134765625
319, 750157120, -14.742286682128906, 1.7024226188659668, 8.68522834777832, 33.791751861572266, 393.65496826171875, -46.510406494140625, 0.630126953125, -0.128173828125, -0.5078125
320, 750173787, -14.131957054138184, 2.8536217212677, 8.322043418884277, 42.0736198425293, 399.1929626464844, -50.41783142089844, 0.68505859375, -0.126953125, -0.42333984375
321, 750190454, -14.971503257751465, 3.355236768722534, 8.173042297363281, 43.32842254638672, 412.71875, -59.79931640625, 0.732177734375, -0.1171875, -0.329345703125
322, 750207121, -14.30111026763916, 2.449005365371704, 10.116768836975098, 51.26741409301758, 381.5633850097656, -59.58930206298828, 0.766845703125, -0.11083984375, -0.232421875
323, 750223788, -10.507122039794922, 2.4523379802703857, 10.750579833984375, 83.98127746582031, 329.4951477050781, -32.69960403442383, 0.781982421875, -0.1064453125, -0.14208984375
324, 750240455, -14.096960067749023, 4.444336891174316, 17.52631378173828, 109.54524230957031, 183.52755737304688, -10.303244590759277, 0.786865234375, -0.10791015625, -0.07568359375
325, 750257122, -24.0804500579834, 7.262438774108887, 27.11916732788086, 68.50914001464844, -18.95716094970703, -40.737125396728516, 0.7861328125, -0.104248046875, -0.049072265625
326, 750273789, -7.258870601654053, 3.9604086875915527, 17.222057342529297, 6.612895488739014, -208.8212432861328, -54.04133605957031, 0.786865234375, -0.094482421875, -0.073486328125
327, 750290456, -2.985635995864868, 1.3112913370132446, 9.077701568603516, -19.567747116088867, -238.16310119628906, -87.93919372558594, 0.79052734375, -0.07763671875, -0.114990234375
328, 750307123, -3.571995258331299, 1.9037917852401733, 7.8932647705078125, -29.712894439697266, -251.39169311523438, -107.46734619140625, 0.793701171875, -0.057861328125, -0.1630859375
329, 750323790, -4.823121547698975, 3.2669601440429688, 8.5298433303833, -39.68001174926758, -284.2182312011719, -113.12409973144531, 0.793212890625, -0.029052734375, -0.225341796875
330, 750340457, -6.339468955993652, 3.5144245624542236, 8.555871963500977, -42.341033935546875, -327.73541259765625, -105.0159912109375, 0.78173828125, -0.00146484375, -0.29736328125
331, 750357124, -6.984524726867676, 3.6485512256622314, 7.864790916442871, -17.33853530883789, -365.91864013671875, -69.6981201171875, 0.758544921875, 0.016845703125, -0.38720703125
332, 750373791, -7.283147811889648, 4.885571002960205, 6.574653625488281, 5.533603191375732, -392.1161193847656, -21.953847885131836, 0.721923828125, 0.020751953125, -0.488525390625
333, 750390458, -7.463510990142822, 5.947818279266357, 5.6258649826049805, 2.8387398719787598, -396.61029052734375, 16.0635929107666, 0.651611328125, 0.017822265625, -0.584716796875
334, 750407125, -8.184805870056152, 5.390497207641602, 6.918832778930664, -7.86929988861084, -388.94940185546875, 49.8953742980957, 0.56494140625, 0.017333984375, -0.662109375
335, 750423792, -9.489070892333984, 4.39707088470459, 7.835713863372803, -3.251099109649658, -394.5970458984375, 80.68383026123047, 0.474365234375, 0.01904296875, -0.720458984375
336, 750440459, -10.169089317321777, 2.715726852416992, 7.176673412322998, 13.205560684204102, -385.2054748535156, 92.91926574707031, 0.385498046875, 0.014892578125, -0.76220703125
337, 750457126, -10.948039054870605, 0.8517450094223022, 6.384034156799316, 41.787147521972656, -339.8507385253906, 84.48748016357422, 0.307861328125, 0.001708984375, -0.790771484375
338, 750473793, -12.872234344482422, -0.06748355180025101, 7.9051432609558105, 73.53653717041016, -270.844970703125, 71.34725952148438, 0.240478515625, -0.014404296875, -0.795654296875
339, 750490460, -17.646591186523438, -0.4508671760559082, 12.73944091796875, 107.19500732421875, -252.26995849609375, 65.36842346191406, 0.19580078125, -0.04345703125, -0.786865234375
340, 750507127, -16.955562591552734, 0.1475796401500702, 9.552421569824219, 119.60491943359375, -237.038330078125, 48.2309455871582, 0.169677734375, -0.072021484375, -0.78076171875
341, 750523794, -18.82802391052246, 0.6528745889663696, 9.548956871032715, 125.646484375, -211.89112854003906, 40.533775329589844, 0.155029296875, -0.1064453125, -0.794677734375
342, 750540461, -20.115825653076172, 1.7484766244888306, 9.09565544128418, 107.19723510742188, -206.6383819580078, 38.17047882080078, 0.1337890625, -0.13720703125, -0.829833984375
343, 750557128, -18.22980308532715, -1.468590259552002, 6.052844524383545, 84.67146301269531, -198.11366271972656, 34.45378875732422, 0.092041015625, -0.17236328125, -0.87060546875
344, 750573795, -17.656726837158203, -4.195596218109131, 4.825906276702881, 101.7336654663086, -178.8351593017578, 47.016963958740234, 0.03125, -0.212646484375, -0.902587890625
345, 750590462, -16.983051300048828, -2.753511667251587, 3.1094279289245605, 95.04039764404297, -164.26429748535156, 57.80031967163086, -0.03271484375, -0.257568359375, -0.9111328125
346, 750607129, -16.076942443847656, -2.9783506393432617, -0.842764139175415, 42.12623977661133, -136.27847290039062, 49.220054626464844, -0.09716796875, -0.28466796875, -0.91357421875
347, 750623796, -15.978801727294922, -4.207704067230225, -3.9707589149475098, 15.923986434936523, -93.52699279785156, 41.48887634277344, -0.144775390625, -0.294921875, -0.90478515625
348, 750640463, -15.954203605651855, -4.199706077575684, -4.4691596031188965, 20.219833374023438, -48.69554901123047, 48.842288970947266, -0.177490234375, -0.3056640625, -0.90625
349, 750657130, -15.423876762390137, -2.581907033920288, -3.1796905994415283, -8.53179931640625, -8.845890998840332, 54.4390754699707, -0.19873046875, -0.308349609375, -0.898681640625
350, 750673797, -15.182574272155762, -2.2973339557647705, -1.4548108577728271, -64.45325469970703, 29.097429275512695, 46.69670486450195, -0.20263671875, -0.29736328125, -0.906005859375
351, 750690464, -12.38428783416748, -3.655999183654785, 3.4674460887908936, -77.5652084350586, 51.683170318603516, 39.498939514160156, -0.201171875, -0.280517578125, -0.9189453125
352, 750707131, 3.9694480895996094, -0.6782751679420471, 12.61911392211914, -79.06255340576172, 34.394596099853516, 11.295828819274902, -0.199462890625, -0.260498046875, -0.935302734375
353, 750723798, 5.733644008636475, 7.374423027038574, 12.418314933776855, -2.2348098754882812, 136.31185913085938, -29.791305541992188, -0.17626953125, -0.26416015625, -0.94775390625
354, 750740465, -4.838658809661865, -3.047189235687256, 7.312354564666748, 14.707776069641113, 198.00254821777344, -52.711307525634766, -0.1318359375, -0.276123046875, -0.96142578125
355, 750757132, -11.602909088134766, -5.693948745727539, 15.261358261108398, 40.12604904174805, 192.8182830810547, -22.749788284301758, -0.081787109375, -0.293701171875, -0.968505859375
356, 750773799, -8.409961700439453, 2.1901259422302246, 11.867046356201172, 32.65065383911133, 154.39578247070312, -26.253183364868164, -0.0400390625, -0.30859375, -0.97509765625
357, 750790466, -7.5048065185546875, 7.295309066772461, 8.959868431091309, 27.33683967590332, 140.35694885253906, -13.75681209564209, -0.004638671875, -0.3193359375, -0.97705078125
358, 750807133, -5.374038219451904, 4.1777777671813965, 8.102760314941406, 21.845415115356445, 137.06851196289062, -15.627293586730957, 0.030517578125, -0.334228515625, -0.978759765625
359, 750823800, -10.699668884277344, 7.15719747543335, 11.967114448547363, -9.927225112915039, 121.72621154785156, -34.03493118286133, 0.064208984375, -0.337890625, -0.984130859375
360, 750840467, -8.168695449829102, -0.6462079286575317, 10.49063777923584, -43.34074020385742, 66.97562408447266, -35.282752990722656, 0.08740234375, -0.32763671875, -0.986572265625
361, 750857134, -6.038280963897705, 2.2261345386505127, 9.41511058807373, -38.01443862915039, 41.890621185302734, -19.952735900878906, 0.099853515625, -0.318115234375, -0.989990234375
362, 750873801, -6.1106390953063965, 1.44196617603302, 9.151973724365234, -34.19253921508789, 28.181299209594727, -18.19912338256836, 0.109619140625, -0.308837890625, -0.9912109375
363, 750890468, -6.057010173797607, 1.7778198719024658, 8.84384822845459, -26.95887565612793, 13.37744140625, -12.734272003173828, 0.115478515625, -0.3017578125, -0.99560546875
364, 750907135, -5.544004440307617, 1.904794692993164, 8.42726993560791, -21.469865798950195, 5.39424467086792, -10.98356819152832, 0.1181640625, -0.29833984375, -0.99609375
365, 750923802, -5.207488059997559, 1.8640806674957275, 8.3301362991333, -17.96923065185547, 2.490640163421631, -9.526375770568848, 0.11767578125, -0.294189453125, -0.996826171875
366, 750940469, -5.342678546905518, 1.97682785987854, 8.251571655273438, -14.712409019470215, 2.2704081535339355, -7.978158950805664, 0.1201171875, -0.288818359375, -1.001953125
367, 750957136, -5.275505065917969, 1.9718390703201294, 8.222916603088379, -10.038005828857422, 1.6405390501022339, -6.428150177001953, 0.12060546875, -0.286376953125, -1.001220703125
368, 750973803, -5.129803657531738, 1.9547992944717407, 8.180961608886719, -12.18166446685791, 0.5976663827896118, -7.864564895629883, 0.12353515625, -0.28466796875, -0.999755859375
369, 750990470, -5.234581470489502, 1.9107341766357422, 8.168730735778809, -14.430591583251953, -0.011039082892239094, -9.374549865722656, 0.12158203125, -0.283447265625, -1.009033203125
370, 751007137, -5.216848850250244, 1.7890512943267822, 8.201581954956055, -16.034543991088867, -0.9464800357818604, -10.367586135864258, 0.124267578125, -0.279296875, -1.0078125
371, 751023804, -5.098005771636963, 1.6176820993423462, 8.245975494384766, -15.397908210754395, -0.8933591246604919, -9.937993049621582, 0.12353515625, -0.274169921875, -1.006103515625
372, 751040471, -5.184340476989746, 1.6185358762741089, 8.256772994995117, -13.198041915893555, -0.33848491311073303, -8.1634521484375, 0.1240234375, -0.270263671875, -1.008544921875
373, 751057138, -5.220182418823242, 1.6784119606018066, 8.183145523071289, -12.8106107711792, -1.1104778051376343, -7.574589252471924, 0.12353515625, -0.268310546875, -1.009521484375
374, 751073805, -5.260592937469482, 1.7198489904403687, 8.234834671020508, -14.171854972839355, -2.6179537773132324, -8.492756843566895, 0.126708984375, -0.26220703125, -1.010009765625
375, 751090472, -5.155129909515381, 1.7358894348144531, 8.21669864654541, -13.293209075927734, -3.479027509689331, -9.148634910583496, 0.12353515625, -0.26171875, -1.0107421875
376, 751107139, -5.130607604980469, 1.723409652709961, 8.260883331298828, -13.352313041687012, -5.211075782775879, -10.692673683166504, 0.123046875, -0.25537109375, -1.012451171875
377, 751123806, -5.2502641677856445, 1.6528042554855347, 8.241132736206055, -17.261159896850586, -7.700242042541504, -13.53244400024414, 0.1201171875, -0.252197265625, -1.012939453125
378, 751140473, -5.341062068939209, 1.7351055145263672, 8.163593292236328, -19.78912353515625, -9.202499389648438, -15.903629302978516, 0.119140625, -0.247314453125, -1.01416015625
379, 751157140, -5.221392631530762, 1.3585541248321533, 8.225083351135254, -15.190237998962402, -5.729915618896484, -13.826665878295898, 0.1201171875, -0.24462890625, -1.01611328125
380, 751173807, -5.154201507568359, 1.3965338468551636, 8.256180763244629, -11.178763389587402, -1.2643978595733643, -12.19100284576416, 0.12158203125, -0.24072265625, -1.01708984375
381, 751190474, -5.1349334716796875, 1.3870114088058472, 8.264626502990723, -7.282247066497803, 2.6257967948913574, -11.064643859863281, 0.12060546875, -0.23779296875, -1.015625
382, 751207141, -5.052656173706055, 1.4781324863433838, 8.321124076843262, -5.363610744476318, 7.608122825622559, -10.738720893859863, 0.12451171875, -0.23779296875, -1.0185546875
383, 751223808, -4.992873668670654, 1.5252859592437744, 8.345356941223145, -5.809351921081543, 14.476195335388184, -12.632841110229492, 0.12548828125, -0.234619140625, -1.01416015625
384, 751240475, -4.946041107177734, 1.2918756008148193, 8.347272872924805, -6.712482452392578, 26.347427368164062, -14.6422758102417, 0.132080078125, -0.233154296875, -1.014892578125
385, 751257142, -4.780777931213379, 1.3014616966247559, 8.421948432922363, 7.159893035888672, 46.32491683959961, -16.313749313354492, 0.145751953125, -0.2333984375, -1.012451171875
386, 751273809, -5.04544734954834, 1.0246968269348145, 8.680798530578613, 9.940967559814453, 67.33727264404297, -17.412471771240234, 0.163330078125, -0.238037109375, -1.0078125
387, 751290476, -5.060598373413086, 0.8628622889518738, 8.390754699707031, 11.042867660522461, 91.90581512451172, -16.438676834106445, 0.189208984375, -0.24072265625, -1.001953125
388, 751307143, -5.373171329498291, 0.8242666721343994, 8.152814865112305, 16.769363403320312, 116.07567596435547, -14.142696380615234, 0.219970703125, -0.243896484375, -0.993408203125
389, 751323810, -5.521993160247803, 1.0409998893737793, 8.033265113830566, 20.0471134185791, 139.65921020507812, -12.473036766052246, 0.255126953125, -0.24951171875, -0.983642578125
390, 751340477, -5.684510707855225, 1.1100263595581055, 7.892950534820557, 20.602434158325195, 163.3840789794922, -13.41390609741211, 0.298095703125, -0.251708984375, -0.967041015625
391, 751357144, -5.799380302429199, 1.1138967275619507, 7.837675094604492, 17.36595916748047, 194.4329071044922, -14.427318572998047, 0.34912109375, -0.257080078125, -0.94921875
392, 751373811, -6.060440540313721, 1.621100902557373, 7.519035816192627, 9.0098295211792, 235.29566955566406, -19.90777587890625, 0.40966796875, -0.256591796875, -0.921142578125
393, 751390478, -6.583243370056152, 1.2756383419036865, 6.952852725982666, -0.2663477063179016, 287.46234130859375, -22.96399688720703, 0.475341796875, -0.25439453125, -0.888671875
394, 751407145, -7.211577415466309, 2.0142781734466553, 7.5419020652771, -8.131778717041016, 359.9271545410156, -22.048429489135742, 0.556640625, -0.2470703125, -0.83837890625
395, 751423812, -9.448962211608887, 2.5035037994384766, 9.729693412780762, -1.0772194862365723, 429.8798522949219, -29.03251075744629, 0.649169921875, -0.23828125, -0.76025390625
396, 751440479, -15.852667808532715, 1.9341787099838257, 10.41351318359375, 17.07611656188965, 440.5826110839844, -52.777488708496094, 0.734619140625, -0.225341796875, -0.668212890625
397, 751457146, -16.5186824798584, 3.137035608291626, 10.067712783813477, 27.371347427368164, 430.0175476074219, -64.05310821533203, 0.80126953125, -0.20654296875, -0.556396484375
398, 751473813, -16.001798629760742, 4.02130651473999, 9.774759292602539, 7.335718154907227, 428.9356994628906, -88.24993133544922, 0.856201171875, -0.178955078125, -0.4384765625
399, 751490480, -12.48507308959961, 4.049714088439941, 11.347312927246094, -11.251751899719238, 411.32940673828125, -104.41716003417969, 0.890625, -0.139892578125, -0.319091796875
400, 751507147, -6.350733757019043, 2.8903870582580566, 11.004380226135254, 9.326299667358398, 385.19110107421875, -84.34915161132812, 0.90673828125, -0.106201171875, -0.1982421875
401, 751523814, -15.788954734802246, 1.740945816040039, 17.542484283447266, 54.23018264770508, 273.11163330078125, -67.4418716430664, 0.9052734375, -0.08349609375, -0.105224609375
402, 751540481, -27.423843383789062, 4.354739189147949, 29.257966995239258, 102.59941864013672, 42.234153747558594, -63.26826095581055, 0.901611328125, -0.056396484375, -0.0537109375
403, 751557148, -8.603238105773926, 7.736820697784424, 19.292213439941406, 84.3799057006836, -200.0511932373047, -13.392501831054688, 0.897705078125, -0.049560546875, -0.07861328125
404, 751573815, -2.4815821647644043, 5.31254243850708, 8.972858428955078, 10.248842239379883, -249.12527465820312, -37.29216384887695, 0.9033203125, -0.04443359375, -0.140380859375
405, 751590482, -2.3871665000915527, 3.3046932220458984, 6.580976963043213, -36.96416473388672, -249.14724731445312, -52.51717758178711, 0.90771484375, -0.035888671875, -0.219970703125
406, 751607149, -5.227406978607178, 4.328654766082764, 8.055033683776855, -57.190025329589844, -278.9416809082031, -42.22227478027344, 0.8876953125, -0.031494140625, -0.315185546875
407, 751623816, -6.861517906188965, 4.100821495056152, 8.365060806274414, -70.3280258178711, -334.7060852050781, -36.78763961791992, 0.83544921875, -0.024169921875, -0.4169921875
408, 751640483, -6.772924900054932, 2.514455795288086, 6.86578893661499, -47.585235595703125, -375.2633056640625, -13.9810152053833, 0.7587890625, -0.01904296875, -0.506591796875
409, 751657150, -7.115041255950928, 2.6328225135803223, 5.969681739807129, -7.9499030113220215, -393.68902587890625, 20.727670669555664, 0.67431640625, -0.0234375, -0.57763671875
410, 751673817, -6.66949987411499, 3.8343710899353027, 4.946825981140137, 10.898563385009766, -399.34893798828125, 50.97154235839844, 0.58544921875, -0.037841796875, -0.636962890625
411, 751690484, -7.133176326751709, 4.185088157653809, 5.594878196716309, -3.1126022338867188, -388.79241943359375, 68.2062759399414, 0.496337890625, -0.047119140625, -0.679443359375
412, 751707151, -9.332314491271973, 2.882917881011963, 7.279144287109375, -11.456975936889648, -379.3838806152344, 81.71417236328125, 0.417236328125, -0.0537109375, -0.7080078125
413, 751723818, -10.567047119140625, 0.06565181910991669, 7.8676042556762695, 15.870004653930664, -377.1063537597656, 86.22808837890625, 0.339111328125, -0.062744140625, -0.731689453125
414, 751740485, -11.120734214782715, -2.4869818687438965, 5.953583717346191, 61.089778900146484, -334.5107116699219, 71.90675354003906, 0.2685546875, -0.08447265625, -0.7451171875
415, 751757152, -14.345650672912598, -3.167867660522461, 9.710390090942383, 97.94667053222656, -265.2362365722656, 44.69944763183594, 0.221923828125, -0.11328125, -0.7470703125
416, 751773819, -19.99946403503418, -0.9257903099060059, 13.74486255645752, 123.52647399902344, -271.5411682128906, 22.486392974853516, 0.184326171875, -0.14306640625, -0.749267578125
417, 751790486, -18.63389778137207, 1.343702793121338, 9.746925354003906, 112.36298370361328, -264.6366271972656, 10.056090354919434, 0.143310546875, -0.176025390625, -0.76171875
418, 751807153, -21.344409942626953, 2.862856388092041, 8.941752433776855, 95.23243713378906, -247.7228240966797, 25.01841926574707, 0.096435546875, -0.20654296875, -0.779541015625
419, 751823820, -20.91912841796875, 2.780561685562134, 5.878688335418701, 70.04745483398438, -235.00921630859375, 47.4910774230957, 0.03515625, -0.232666015625, -0.7900390625
420, 751840487, -19.71430778503418, -1.001774787902832, 2.5232460498809814, 65.38552856445312, -208.81216430664062, 67.61134338378906, -0.031494140625, -0.2548828125, -0.791259765625
421, 751857154, -18.798940658569336, -3.2807695865631104, 0.6775544285774231, 65.55224609375, -170.80747985839844, 74.24253845214844, -0.092529296875, -0.27490234375, -0.7841796875
422, 751873821, -18.458969116210938, -3.829192876815796, -0.28300318121910095, 38.437782287597656, -131.84359741210938, 71.29296112060547, -0.138671875, -0.28759765625, -0.768798828125
423, 751890488, -18.68412971496582, -4.25881814956665, -3.310060739517212, 0.6816444993019104, -100.59845733642578, 60.143192291259766, -0.176025390625, -0.291259765625, -0.7587890625
424, 751907155, -17.531810760498047, -5.074681758880615, -6.643362998962402, -21.614431381225586, -51.28534698486328, 46.091331481933594, -0.197265625, -0.282958984375, -0.748046875
425, 751923822, -17.84947967529297, -5.530523300170898, -5.94887638092041, -8.028040885925293, -0.7436714172363281, 50.01335144042969, -0.2080078125, -0.27978515625, -0.744384765625
426, 751940489, -17.668663024902344, -3.4914445877075195, -3.859781265258789, -18.069902420043945, 44.630252838134766, 46.327537536621094, -0.2099609375, -0.272705078125, -0.744873046875
427, 751957156, -2.233220338821411, -6.7039265632629395, 3.8803911209106445, -62.2779541015625, 88.88774108886719, 0.14454486966133118, -0.197998046875, -0.260986328125, -0.751953125
428, 751973823, 0.9659118056297302, 3.0376923084259033, 21.095151901245117, 12.49985122680664, 125.05258178710938, -37.982967376708984, -0.17822265625, -0.261962890625, -0.752685546875
429, 751990490, -4.649524688720703, 1.7951825857162476, 5.526069641113281, 15.345602989196777, 178.8447265625, -67.73407745361328, -0.1416015625, -0.266357421875, -0.756103515625
430, 752007157, -11.339181900024414, 0.08925393223762512, 12.340362548828125, 25.924150466918945, 194.1441650390625, -26.163066864013672, -0.09765625, -0.277099609375, -0.758056640625
431, 752023824, -8.681303024291992, 2.2387008666992188, 11.647674560546875, 21.48101234436035, 153.0259246826172, -20.203001022338867, -0.067138671875, -0.279296875, -0.757568359375
432, 752040491, -6.114960670471191, 4.137178421020508, 8.654057502746582, 27.367626190185547, 146.08912658691406, -12.320147514343262, -0.036865234375, -0.287109375, -0.756103515625
433, 752057158, -12.735894203186035, 9.241127014160156, 12.12266731262207, -11.596453666687012, 121.01062774658203, -33.89556884765625, -0.00830078125, -0.290771484375, -0.754638671875
434, 752073825, -6.563260555267334, -1.7103767395019531, 10.735946655273438, -40.39498519897461, 66.78871154785156, -31.348806381225586, 0.010009765625, -0.282958984375, -0.76123046875
435, 752090492, -6.726802349090576, 2.1341633796691895, 9.525472640991211, -41.44231414794922, 35.355892181396484, -18.254985809326172, 0.02001953125, -0.2724609375, -0.759521484375
436, 752107159, -6.697536945343018, 1.1427333354949951, 9.374554634094238, -27.855955123901367, 16.0805606842041, -12.233792304992676, 0.0263671875, -0.2666015625, -0.761962890625
437, 752123826, -5.588321208953857, 2.005096197128296, 8.572752952575684, -19.220916748046875, 5.385136604309082, -9.38744068145752, 0.027099609375, -0.262451171875, -0.763671875
438, 752140493, -5.239673614501953, 1.7991905212402344, 8.483954429626465, -12.597270011901855, -0.13390327990055084, -8.062255859375, 0.02587890625, -0.259521484375, -0.765625
439, 752157160, -5.142116069793701, 1.7510156631469727, 8.361836433410645, -12.041396141052246, -1.2294105291366577, -8.259896278381348, 0.02685546875, -0.259033203125, -0.76416015625
440, 752173827, -5.196333885192871, 1.6659226417541504, 8.38202953338623, -12.904187202453613, -1.1969847679138184, -7.9822678565979, 0.028564453125, -0.25390625, -0.76513671875
441, 752190494, -5.041459560394287, 1.6440210342407227, 8.353365898132324, -12.40001106262207, 0.012326118536293507, -7.028436660766602, 0.030517578125, -0.254638671875, -0.771728515625
442, 752207161, -5.022212028503418, 1.718759536743164, 8.30245304107666, -11.843975067138672, 0.7862016558647156, -6.436771392822266, 0.027587890625, -0.2529296875, -0.768310546875
443, 752223828, -4.954916954040527, 1.9658944606781006, 8.186161994934082, -13.19007682800293, -0.1471194624900818, -7.70310115814209, 0.030029296875, -0.24853515625, -0.771240234375
444, 752240495, -5.069256782531738, 1.8350263833999634, 8.237037658691406, -15.429197311401367, -2.937908411026001, -10.275687217712402, 0.027587890625, -0.2451171875, -0.769775390625
445, 752257162, -5.133965969085693, 1.601431131362915, 8.227410316467285, -16.28460121154785, -5.137863636016846, -10.966399192810059, 0.031005859375, -0.241943359375, -0.770263671875
446, 752273829, -5.095149517059326, 1.5531402826309204, 8.290993690490723, -14.309100151062012, -5.56582498550415, -9.552663803100586, 0.029541015625, -0.240478515625, -0.77294921875
447, 752290496, -5.017884731292725, 1.5672593116760254, 8.311625480651855, -11.76198673248291, -5.004033088684082, -7.8659987449646, 0.025390625, -0.238037109375, -0.77197265625
448, 752307163, -5.063355922698975, 1.5389773845672607, 8.311854362487793, -9.812843322753906, -4.148439884185791, -6.725001335144043, 0.028076171875, -0.236572265625, -0.7724609375
449, 752323830, -4.981971263885498, 1.6140164136886597, 8.314202308654785, -9.680953025817871, -4.496555805206299, -7.167065143585205, 0.02587890625, -0.235595703125, -0.77099609375
450, 752340497, -4.977164268493652, 1.5735294818878174, 8.324799537658691, -9.271212577819824, -4.698088645935059, -7.958279609680176, 0.02587890625, -0.234375, -0.773193359375
451, 752357164, -5.060510635375977, 1.4885151386260986, 8.337958335876465, -7.798186779022217, -3.684798240661621, -8.002525329589844, 0.02734375, -0.23291015625, -0.773193359375
452, 752373831, -5.013764381408691, 1.5342600345611572, 8.293111801147461, -6.766722679138184, -2.1798973083496094, -8.122109413146973, 0.0263671875, -0.23095703125, -0.771728515625
453, 752390498, -5.083752155303955, 1.53530752658844, 8.297734260559082, -6.027515888214111, -1.4864592552185059, -9.103961944580078, 0.029541015625, -0.232421875, -0.77392578125
454, 752407165, -5.079239368438721, 1.5618371963500977, 8.330141067504883, -6.60617208480835, -0.34540024399757385, -10.516733169555664, 0.027587890625, -0.23046875, -0.773193359375
455, 752423832, -5.031233310699463, 1.5836730003356934, 8.308747291564941, -6.900181770324707, 0.5904564261436462, -12.120668411254883, 0.028564453125, -0.22900390625, -0.776123046875
456, 752440499, -5.073806285858154, 1.449326992034912, 8.30691146850586, -4.623940467834473, 4.137472152709961, -12.63453483581543, 0.028564453125, -0.2294921875, -0.774169921875
457, 752457166, -4.95900821685791, 1.3673192262649536, 8.39214038848877, -2.1061980724334717, 10.7915678024292, -11.195281982421875, 0.031494140625, -0.22705078125, -0.7734375
458, 752473833, -4.899662494659424, 1.262108564376831, 8.432313919067383, -0.10877732932567596, 20.457725524902344, -10.919238090515137, 0.036376953125, -0.2275390625, -0.77294921875
459, 752490500, -4.596745491027832, 1.085755705833435, 8.407610893249512, 2.822768211364746, 32.71058654785156, -9.699941635131836, 0.04345703125, -0.22900390625, -0.771728515625
460, 752507167, -4.962796211242676, 1.2745420932769775, 8.392520904541016, 12.387861251831055, 52.5777587890625, -10.40697193145752, 0.0537109375, -0.231689453125, -0.771728515625
461, 752523834, -4.935410499572754, 1.140017032623291, 8.549967765808105, 17.402009963989258, 71.82304382324219, -9.64892864227295, 0.069580078125, -0.2373046875, -0.769287109375
462, 752540501, -5.098477363586426, 1.336011528968811, 8.398266792297363, 17.08864974975586, 92.82596588134766, -9.527753829956055, 0.089599609375, -0.2392578125, -0.761474609375
463, 752557168, -5.418878078460693, 1.2986822128295898, 8.140445709228516, 18.962543487548828, 115.1365966796875, -10.667834281921387, 0.115234375, -0.24560546875, -0.758544921875
464, 752573835, -5.398979187011719, 1.3100377321243286, 8.030865669250488, 18.654123306274414, 139.68966674804688, -14.69312572479248, 0.143798828125, -0.246337890625, -0.75048828125
465, 752590502, -5.509474277496338, 1.182108759880066, 8.047308921813965, 19.60780906677246, 168.4265594482422, -17.682695388793945, 0.180419921875, -0.25390625, -0.73974609375
466, 752607169, -5.611486911773682, 1.5362932682037354, 7.951416015625, 16.715574264526367, 206.45773315429688, -20.418066024780273, 0.22314453125, -0.256591796875, -0.72412109375
467, 752623836, -5.9851274490356445, 1.6393440961837769, 7.81758975982666, 8.916991233825684, 253.65899658203125, -28.413114547729492, 0.272705078125, -0.255859375, -0.705078125
468, 752640503, -6.501191139221191, 1.9134273529052734, 7.41024112701416, -7.835498332977295, 316.4888916015625, -35.548465728759766, 0.335205078125, -0.253173828125, -0.6748046875
469, 752657170, -7.479443550109863, 2.8801770210266113, 8.1743803024292, -21.932157516479492, 396.8537292480469, -52.14846420288086, 0.4072265625, -0.244873046875, -0.6337890625
470, 752673837, -10.88502311706543, 3.3437559604644775, 10.156359672546387, -20.402233123779297, 460.3091735839844, -77.7009506225586, 0.489501953125, -0.23388671875, -0.5703125
471, 752690504, -17.658926010131836, 2.2320749759674072, 11.013191223144531, 2.5203962326049805, 457.4490966796875, -98.05197143554688, 0.56689453125, -0.219482421875, -0.497314453125
472, 752707171, -18.07110595703125, 3.318666696548462, 10.561436653137207, 8.531819343566895, 435.6548767089844, -104.26934814453125, 0.6328125, -0.200439453125, -0.4130859375
473, 752723838, -13.899927139282227, 4.398844242095947, 10.566366195678711, -4.197068214416504, 422.67584228515625, -117.563720703125, 0.68310546875, -0.1796875, -0.321533203125
474, 752740505, -9.243109703063965, 3.020832061767578, 11.056621551513672, -7.101626396179199, 397.9781494140625, -114.69315338134766, 0.71484375, -0.150146484375, -0.2314453125
475, 752757172, -6.577765464782715, 0.9359097480773926, 15.501311302185059, 36.22631072998047, 321.1229248046875, -73.29199981689453, 0.73291015625, -0.133056640625, -0.143798828125
476, 752773839, -27.740758895874023, 3.4268300533294678, 23.75654411315918, 85.60791778564453, 151.8639678955078, -89.10877227783203, 0.737060546875, -0.11181640625, -0.085205078125
477, 752790506, -15.454636573791504, 7.377099990844727, 24.91749382019043, 108.96778106689453, -133.3114776611328, -15.966181755065918, 0.724365234375, -0.097412109375, -0.07666015625
478, 752807173, -2.109020709991455, 6.697424411773682, 10.716065406799316, 29.51653289794922, -231.15699768066406, -22.44446563720703, 0.7099609375, -0.08447265625, -0.094482421875
479, 752823840, -0.48019731044769287, 2.9587299823760986, 5.770290374755859, -24.7769775390625, -222.18116760253906, -38.01880645751953, 0.698974609375, -0.055419921875, -0.1015625
480, 752840507, -2.3826282024383545, 2.642922878265381, 6.445625305175781, -45.88008117675781, -214.4698944091797, -26.839092254638672, 0.704833984375, -0.021240234375, -0.09521484375
481, 752857174, -6.110843181610107, 3.614694356918335, 9.256497383117676, -62.76185607910156, -256.7389221191406, -23.216384887695312, 0.734375, 0.017333984375, -0.096923828125
482, 752873841, -7.293464183807373, 2.3547873497009277, 9.425308227539062, -64.4207992553711, -320.19549560546875, -11.512310981750488, 0.800048828125, 0.05908203125, -0.14453125
483, 752890508, -7.207658767700195, 1.554601788520813, 7.819483280181885, -34.98126220703125, -365.3566589355469, 14.02820873260498, 0.86865234375, 0.091064453125, -0.268798828125
484, 752907175, -7.602859020233154, 2.2041776180267334, 7.013090133666992, -4.799541473388672, -387.07373046875, 41.63441467285156, 0.883056640625, 0.0986328125, -0.453857421875
485, 752923842, -8.272442817687988, 3.1648623943328857, 6.84579610824585, 1.475223183631897, -405.1993408203125, 60.831661224365234, 0.80322265625, 0.083984375, -0.6455078125
486, 752940509, -8.24233627319336, 2.6780295372009277, 6.824758529663086, -7.052822113037109, -409.6739196777344, 70.26790618896484, 0.662841796875, 0.07275390625, -0.774658203125
487, 752957176, -9.318947792053223, 1.4709328413009644, 6.848913669586182, 4.327577590942383, -397.8464660644531, 78.14002990722656, 0.515869140625, 0.06884765625, -0.8447265625
488, 752973843, -9.886284828186035, -0.08631672710180283, 6.447237014770508, 39.664085388183594, -368.2207336425781, 83.57929229736328, 0.397705078125, 0.059326171875, -0.879150390625
489, 752990510, -11.265201568603516, -0.8800869584083557, 6.939360618591309, 74.71782684326172, -306.0201416015625, 80.80110168457031, 0.305908203125, 0.037841796875, -0.904541015625
490, 753007177, -16.60328483581543, -0.2979605793952942, 12.901630401611328, 83.59201049804688, -263.36175537109375, 55.78214645385742, 0.22998046875, 0.008056640625, -0.9287109375
491, 753023844, -19.3072452545166, -0.0781223475933075, 12.122756958007812, 93.38085174560547, -272.9548034667969, 30.014951705932617, 0.1376953125, -0.02197265625, -0.944091796875
492, 753040511, -18.231014251708984, 0.8951109647750854, 8.354913711547852, 107.10570526123047, -247.67840576171875, 28.293502807617188, 0.0439453125, -0.0498046875, -0.929931640625
493, 753057178, -21.93260383605957, 3.777291774749756, 9.325536727905273, 94.57038879394531, -226.33802795410156, 46.206459045410156, -0.02392578125, -0.077880859375, -0.909912109375
494, 753073845, -20.328271865844727, 1.647282600402832, 6.098053932189941, 56.815425872802734, -225.2441864013672, 61.36106872558594, -0.083740234375, -0.099365234375, -0.894287109375
495, 753090512, -18.61418914794922, -2.630922794342041, 2.6947834491729736, 59.81934356689453, -197.62435913085938, 77.96646118164062, -0.13671875, -0.12109375, -0.883056640625
496, 753107179, -18.926692962646484, -3.5027248859405518, 2.1228537559509277, 65.4708023071289, -169.64727783203125, 85.09545135498047, -0.18603515625, -0.142333984375, -0.866455078125
497, 753123846, -18.500398635864258, -4.210653781890869, -1.0595293045043945, 34.36249923706055, -147.9333038330078, 73.93994903564453, -0.229248046875, -0.156494140625, -0.853515625
498, 753140513, -17.411470413208008, -4.633138656616211, -5.87404727935791, -0.46135687828063965, -101.92606353759766, 49.74836349487305, -0.2626953125, -0.157470703125, -0.841796875
499, 753157180, -17.77168846130371, -5.562230110168457, -6.682458400726318, 7.58352518081665, -43.16942596435547, 47.47422409057617, -0.28173828125, -0.158935546875, -0.83740234375
500, 753173847, -17.965978622436523, -3.2716400623321533, -5.256609916687012, 7.771267890930176, 1.9443646669387817, 55.931121826171875, -0.286865234375, -0.1552734375, -0.83251953125
501, 753190514, -9.638532638549805, -6.393369674682617, -8.604962348937988, -32.718971252441406, 100.64395141601562, 28.63761329650879, -0.2744140625, -0.141357421875, -0.83984375
502, 753207181, -0.23554456233978271, -2.587470531463623, 17.973711013793945, -1.2059204578399658, 131.5391845703125, -16.57084083557129, -0.2470703125, -0.1376953125, -0.84716796875
503, 753223848, -5.520950794219971, 4.851332187652588, 13.560742378234863, 23.470224380493164, 171.79522705078125, -71.77605438232422, -0.208740234375, -0.14208984375, -0.85302734375
504, 753240515, -8.370695114135742, 1.4364876747131348, 7.8827385902404785, 39.59607696533203, 219.72789001464844, -28.085290908813477, -0.157958984375, -0.1474609375, -0.861083984375
505, 753257182, -12.066058158874512, -0.7307615876197815, 15.229413032531738, 34.41306686401367, 170.85076904296875, -17.061771392822266, -0.112548828125, -0.15380859375, -0.865966796875
506, 753273849, -5.974242687225342, 5.1855034828186035, 8.497627258300781, 43.252716064453125, 148.76065063476562, -8.287870407104492, -0.075927734375, -0.16015625, -0.865234375
507, 753290516, -7.144083023071289, 5.658944606781006, 9.515019416809082, 32.75910186767578, 136.8669891357422, -13.6994047164917, -0.04052734375, -0.167236328125, -0.8681640625
508, 753307183, -10.324275970458984, 8.396269798278809, 10.074967384338379, -28.571922302246094, 108.19916534423828, -44.42607116699219, -0.010498046875, -0.1640625, -0.8681640625
509, 753323850, -8.224275588989258, -1.4469053745269775, 11.336923599243164, -47.93446731567383, 65.47197723388672, -39.227638244628906, 0.009033203125, -0.149658203125, -0.871337890625
510, 753340517, -5.927588939666748, 2.363142967224121, 9.028830528259277, -46.71864318847656, 36.18943405151367, -24.805938720703125, 0.020751953125, -0.13720703125, -0.872802734375
511, 753357184, -6.224273204803467, 1.1982061862945557, 9.256134986877441, -42.723026275634766, 21.333221435546875, -21.41743278503418, 0.028564453125, -0.125244140625, -0.875244140625
512, 753373851, -6.212410926818848, 1.9720221757888794, 8.76867389678955, -31.531845092773438, 8.721195220947266, -14.692893028259277, 0.0302734375, -0.1162109375, -0.875732421875
513, 753390518, -5.355592727661133, 1.8234456777572632, 8.462727546691895, -24.023656845092773, 2.913752794265747, -12.118589401245117, 0.03173828125, -0.110107421875, -0.875244140625
514, 753407185, -5.4118804931640625, 1.8400222063064575, 8.374929428100586, -17.930849075317383, 2.270306348800659, -9.479682922363281, 0.03515625, -0.104248046875, -0.8759765625
515, 753423852, -5.207403659820557, 1.8049933910369873, 8.341588020324707, -11.543164253234863, 1.8596818447113037, -6.819180488586426, 0.03515625, -0.104736328125, -0.87744140625
516, 753440519, -5.123402118682861, 1.8283652067184448, 8.250967025756836, -10.634782791137695, 2.599350929260254, -5.994847774505615, 0.03564453125, -0.1005859375, -0.87548828125
517, 753457186, -5.136633396148682, 1.8492602109909058, 8.21749210357666, -9.927652359008789, 3.2203691005706787, -5.379027366638184, 0.0380859375, -0.10009765625, -0.87646484375
518, 753473853, -5.119716167449951, 1.991633653640747, 8.130462646484375, -8.859231948852539, 3.2896900177001953, -4.965023517608643, 0.0380859375, -0.09521484375, -0.87646484375
519, 753490520, -5.0298614501953125, 1.8827205896377563, 8.136276245117188, -8.700380325317383, 2.7301034927368164, -5.783681869506836, 0.041259765625, -0.0966796875, -0.88134765625
520, 753507187, -5.147566795349121, 1.8044607639312744, 8.154333114624023, -9.86234188079834, 1.3655610084533691, -6.569532871246338, 0.041259765625, -0.0927734375, -0.87646484375
521, 753523854, -5.257168292999268, 1.7531079053878784, 8.125655174255371, -9.74495792388916, 0.13020862638950348, -6.4099531173706055, 0.041015625, -0.091796875, -0.87744140625
522, 753540521, -5.323852062225342, 1.7008904218673706, 8.166778564453125, -8.650732040405273, -0.04634620249271393, -5.5118937492370605, 0.041259765625, -0.088623046875, -0.8779296875
523, 753557188, -5.372195720672607, 1.7184395790100098, 8.145438194274902, -7.697577953338623, 0.2218124270439148, -5.0496344566345215, 0.041748046875, -0.089599609375, -0.87744140625
524, 753573855, -5.244030475616455, 1.788751244544983, 8.183036804199219, -6.521954536437988, 0.25857943296432495, -4.790945529937744, 0.045166015625, -0.086669921875, -0.87841796875
525, 753590522, -5.154234886169434, 1.823107123374939, 8.177083969116211, -5.749629020690918, 0.5802621841430664, -5.303775787353516, 0.043701171875, -0.085693359375, -0.87744140625
526, 753607189, -5.273087501525879, 1.7877345085144043, 8.178071022033691, -5.426167964935303, 0.5895597338676453, -6.23734712600708, 0.043212890625, -0.086181640625, -0.87744140625
527, 753623856, -5.311005115509033, 1.7520736455917358, 8.140077590942383, -4.781059265136719, 0.48197346925735474, -6.563780307769775, 0.044677734375, -0.084228515625, -0.8779296875
528, 753640523, -5.32161808013916, 1.7532012462615967, 8.099292755126953, -3.4197187423706055, 0.32878389954566956, -6.829563617706299, 0.044677734375, -0.083740234375, -0.87890625
529, 753657190, -5.285120010375977, 1.7029526233673096, 8.153341293334961, -1.8779103755950928, 1.1473658084869385, -7.003575325012207, 0.047119140625, -0.084228515625, -0.877197265625
530, 753673857, -5.183722019195557, 1.7919355630874634, 8.190868377685547, 0.07402712106704712, 2.411557674407959, -7.915389537811279, 0.045654296875, -0.082763671875, -0.8779296875
531, 753690524, -5.224845886230469, 1.6779351234436035, 8.241252899169922, 2.0593063831329346, 6.065581798553467, -8.998512268066406, 0.04931640625, -0.086181640625, -0.880859375
532, 753707191, -5.191346168518066, 1.5344102382659912, 8.19356918334961, 2.8289570808410645, 13.119111061096191, -9.249482154846191, 0.05078125, -0.085205078125, -0.877685546875
533, 753723858, -4.870048522949219, 1.4673335552215576, 8.283692359924316, 2.4850075244903564, 24.286203384399414, -7.777621746063232, 0.056640625, -0.0869140625, -0.876953125
534, 753740525, -4.990749359130859, 1.3485499620437622, 8.219996452331543, 9.834749221801758, 42.7653923034668, -5.615405559539795, 0.068359375, -0.087890625, -0.87548828125
535, 753757192, -5.021378040313721, 1.5210893154144287, 8.042825698852539, 12.800989151000977, 59.375244140625, -3.648371696472168, 0.079345703125, -0.091552734375, -0.87255859375
536, 753773859, -5.2808756828308105, 2.0264315605163574, 7.982330799102783, 15.296836853027344, 77.58367919921875, -5.48213529586792, 0.098388671875, -0.0966796875, -0.87158203125
537, 753790526, -5.511373043060303, 1.9433988332748413, 8.03388786315918, 17.27864646911621, 95.96902465820312, -9.308122634887695, 0.12255859375, -0.099853515625, -0.865234375
538, 753807193, -5.648787021636963, 1.8771111965179443, 7.959502220153809, 16.023950576782227, 114.89585876464844, -14.153501510620117, 0.152099609375, -0.10400390625, -0.862060546875
539, 753823860, -5.626918792724609, 1.6429877281188965, 7.649118423461914, 17.384796142578125, 136.72607421875, -17.02011489868164, 0.184326171875, -0.108154296875, -0.85302734375
540, 753840527, -5.815643787384033, 1.3946038484573364, 7.57054328918457, 20.461576461791992, 162.4429168701172, -17.81266975402832, 0.221923828125, -0.1123046875, -0.8427734375
541, 753857194, -5.707630634307861, 1.714439034461975, 7.604376316070557, 21.88702964782715, 202.20938110351562, -17.059112548828125, 0.26806640625, -0.114501953125, -0.82763671875
542, 753873861, -6.032885551452637, 1.7391688823699951, 7.392050266265869, 16.54575538635254, 252.79945373535156, -19.233592987060547, 0.32763671875, -0.116943359375, -0.804443359375
543, 753890528, -7.136486053466797, 2.532607316970825, 7.859847068786621, -2.014683961868286, 322.96600341796875, -22.521846771240234, 0.39453125, -0.1162109375, -0.7724609375
544, 753907195, -7.65964412689209, 3.111320734024048, 8.801347732543945, -8.631280899047852, 404.90179443359375, -40.42466354370117, 0.4794921875, -0.11083984375, -0.719970703125
545, 753923862, -12.011873245239258, 2.8788347244262695, 10.270243644714355, 9.554034233093262, 457.1475830078125, -63.41450119018555, 0.569091796875, -0.1015625, -0.6474609375
546, 753940529, -17.748580932617188, 2.543741226196289, 10.673160552978516, 32.012977600097656, 453.2926025390625, -75.78463745117188, 0.651123046875, -0.094482421875, -0.562744140625
547, 753957196, -17.098281860351562, 4.495561599731445, 10.170133590698242, 25.28008270263672, 451.71826171875, -90.82848358154297, 0.721923828125, -0.08740234375, -0.4677734375
548, 753973863, -14.685311317443848, 4.893496990203857, 11.248088836669922, -3.832002639770508, 435.31805419921875, -114.87731170654297, 0.777099609375, -0.069091796875, -0.365234375
549, 753990530, -7.702722549438477, 3.03183650970459, 10.887639999389648, 14.962543487548828, 399.9304504394531, -94.65750122070312, 0.814208984375, -0.05419921875, -0.265625
550, 754007197, -8.681995391845703, 1.3702940940856934, 15.06926155090332, 48.31511306762695, 308.0188293457031, -70.95883178710938, 0.83203125, -0.0478515625, -0.17822265625
551, 754023864, -30.855684280395508, 3.9557600021362305, 27.626129150390625, 68.94877624511719, 117.19747161865234, -111.65194702148438, 0.83544921875, -0.03125, -0.12890625
552, 754040531, -12.436004638671875, 5.661080837249756, 22.192522048950195, 77.81288146972656, -158.5099334716797, -52.79823303222656, 0.81884765625, -0.0244140625, -0.146240234375
553, 754057198, -2.8722870349884033, 5.240582466125488, 10.550430297851562, 23.624500274658203, -243.61178588867188, -63.21593475341797, 0.79931640625, -0.021484375, -0.188720703125
554, 754073865, -1.0790648460388184, 3.7682132720947266, 5.392674446105957, -21.479721069335938, -242.12107849121094, -81.12467193603516, 0.771484375, -0.009521484375, -0.225341796875
555, 754090532, -2.025930166244507, 3.726820707321167, 5.601722240447998, -50.93563461303711, -237.91436767578125, -77.50682067871094, 0.748046875, 0.007568359375, -0.260009765625
556, 754107199, -6.184937000274658, 5.193736553192139, 8.643582344055176, -69.53588104248047, -274.0569763183594, -68.42236328125, 0.727783203125, 0.022705078125, -0.28466796875
557, 754123866, -8.153849601745605, 4.398599624633789, 9.12309741973877, -70.4200210571289, -340.41162109375, -43.006839752197266, 0.7080078125, 0.03515625, -0.328369140625
558, 754140533, -7.433504581451416, 3.5339436531066895, 7.079102993011475, -43.894012451171875, -389.7471618652344, -3.7885842323303223, 0.679931640625, 0.039306640625, -0.384521484375
559, 754157200, -7.092237949371338, 3.687537431716919, 5.256565093994141, -19.210044860839844, -403.70306396484375, 30.963470458984375, 0.64697265625, 0.03125, -0.439453125
560, 754173867, -8.207696914672852, 3.948903799057007, 6.225252628326416, -9.618429183959961, -405.1787109375, 56.03663635253906, 0.631103515625, 0.017333984375, -0.499267578125
561, 754190534, -9.651765823364258, 3.228675603866577, 7.06099796295166, 0.40608808398246765, -409.4646911621094, 76.88262939453125, 0.6103515625, -0.008056640625, -0.58203125
562, 754207201, -10.582267761230469, 1.9004216194152832, 7.181640625, 24.084657669067383, -405.4014892578125, 85.34981536865234, 0.5556640625, -0.035888671875, -0.685302734375
563, 754223868, -11.540831565856934, 0.08381225168704987, 5.75032377243042, 62.303375244140625, -369.6585693359375, 84.95579528808594, 0.462158203125, -0.06396484375, -0.76806640625
564, 754240535, -14.006271362304688, -0.08294794708490372, 7.376615524291992, 94.81757354736328, -304.2149963378906, 79.10862731933594, 0.369384765625, -0.09423828125, -0.820556640625
565, 754257202, -18.96584129333496, 2.613163948059082, 12.829976081848145, 92.02576446533203, -274.0606994628906, 62.61142349243164, 0.274658203125, -0.128662109375, -0.835693359375
566, 754273869, -21.036027908325195, 2.9961791038513184, 12.278705596923828, 79.2008056640625, -287.5411682128906, 60.179691314697266, 0.18505859375, -0.155029296875, -0.823974609375
567, 754290536, -20.90802574157715, 2.360401153564453, 9.172442436218262, 79.05274200439453, -276.43902587890625, 83.82903289794922, 0.12109375, -0.17724609375, -0.8017578125
568, 754307203, -21.322330474853516, 1.7993957996368408, 7.980838298797607, 67.3433609008789, -260.38330078125, 100.78032684326172, 0.07470703125, -0.20166015625, -0.78173828125
569, 754323870, -20.15064239501953, -1.720123052597046, 6.183455467224121, 52.59857940673828, -246.27769470214844, 102.34317779541016, 0.031982421875, -0.221435546875, -0.777587890625
570, 754340537, -19.0572566986084, -1.8703150749206543, 2.964069128036499, 47.160945892333984, -224.57208251953125, 105.75436401367188, -0.01171875, -0.2353515625, -0.774169921875
571, 754357204, -19.443580627441406, -0.32827943563461304, -1.1548035144805908, 1.4371284246444702, -181.44894409179688, 106.2544937133789, -0.052978515625, -0.241455078125, -0.779052734375
572, 754373871, -21.331396102905273, -0.6867524981498718, -5.554202556610107, -40.899147033691406, -134.25025939941406, 123.9117202758789, -0.091064453125, -0.23828125, -0.785400390625
573, 754390538, -20.992815017700195, -2.7671830654144287, -9.069786071777344, -63.93621826171875, -79.56346130371094, 152.7958984375, -0.12060546875, -0.221435546875, -0.79248046875
574, 754407205, -19.949132919311523, -6.290476322174072, -8.558588027954102, -97.4403305053711, -10.591233253479004, 165.4026641845703, -0.13427734375, -0.197998046875, -0.802001953125
575, 754423872, -15.887358665466309, -21.22557258605957, -4.56190299987793, -48.21525955200195, 32.81310272216797, 135.44744873046875, -0.13330078125, -0.1728515625, -0.809326171875
576, 754440539, 2.010103702545166, -11.97232437133789, 8.407694816589355, 156.29971313476562, 66.67691802978516, 89.6813735961914, -0.12158203125, -0.20556640625, -0.8095703125
577, 754457206, 4.906783580780029, 10.895408630371094, 20.757307052612305, 171.5067901611328, 147.5200958251953, -93.06123352050781, -0.081298828125, -0.2451171875, -0.8076171875
578, 754473873, -3.851625680923462, 20.29715919494629, -5.007667541503906, 132.6100616455078, 219.3179473876953, -28.254199981689453, -0.0263671875, -0.2900390625, -0.8046875
579, 754490540, -13.565646171569824, 2.1849467754364014, 17.163537979125977, 78.82836151123047, 236.29391479492188, 11.990147590637207, 0.0390625, -0.31396484375, -0.7978515625
580, 754507207, -8.921031951904297, -3.9217700958251953, 13.515329360961914, 79.15512084960938, 164.1730194091797, -19.435348510742188, 0.087890625, -0.33740234375, -0.791259765625
581, 754523874, -7.93923807144165, 10.289856910705566, 10.141142845153809, 72.31627655029297, 134.24713134765625, -13.76447868347168, 0.128173828125, -0.359130859375, -0.7822265625
582, 754540541, -9.418660163879395, 8.302736282348633, 11.11518383026123, 14.821196556091309, 108.0814437866211, -20.11118507385254, 0.1591796875, -0.368408203125, -0.77294921875
583, 754557208, -5.878815174102783, 3.8462226390838623, 9.36368179321289, -15.228724479675293, 79.94831848144531, -28.729684829711914, 0.184326171875, -0.364990234375, -0.770263671875
584, 754573875, -6.405084609985352, 3.7154617309570312, 9.225201606750488, -28.2174072265625, 58.39938735961914, -28.09688377380371, 0.204833984375, -0.357177734375, -0.768798828125
585, 754590542, -4.69020414352417, 2.8511710166931152, 8.583885192871094, -29.768306732177734, 43.72565460205078, -27.372440338134766, 0.219482421875, -0.353759765625, -0.770751953125
586, 754607209, -5.021247863769531, 3.2085909843444824, 8.208846092224121, -28.077573776245117, 38.34602737426758, -28.74767303466797, 0.2333984375, -0.346435546875, -0.76708984375
587, 754623876, -5.095984935760498, 2.493393659591675, 8.512754440307617, -22.882530212402344, 30.828977584838867, -26.24502944946289, 0.242919921875, -0.34033203125, -0.767822265625
588, 754640543, -5.771478652954102, 2.979931592941284, 8.561553955078125, -19.38454246520996, 26.019426345825195, -22.953960418701172, 0.25146484375, -0.3359375, -0.77001953125
589, 754657210, -5.554855823516846, 2.7075278759002686, 8.354222297668457, -17.88190460205078, 18.092193603515625, -20.554243087768555, 0.259521484375, -0.3310546875, -0.766845703125
590, 754673877, -5.1718430519104, 2.765676259994507, 8.086292266845703, -15.9992094039917, 16.082149505615234, -17.58173370361328, 0.26611328125, -0.326416015625, -0.768310546875
591, 754690544, -5.188019752502441, 2.8603241443634033, 7.905308246612549, -17.03091812133789, 14.103986740112305, -17.45885467529297, 0.273193359375, -0.323486328125, -0.76806640625
592, 754707211, -5.032055377960205, 2.7923996448516846, 7.972232818603516, -19.432628631591797, 11.459263801574707, -18.037321090698242, 0.277099609375, -0.320556640625, -0.7685546875
593, 754723878, -5.168824672698975, 2.831547737121582, 8.068552017211914, -22.640235900878906, 10.314764022827148, -19.646663665771484, 0.279541015625, -0.314453125, -0.76904296875
594, 754740545, -5.311472415924072, 2.5891387462615967, 8.186552047729492, -25.292512893676758, 5.172166347503662, -21.26825523376465, 0.28564453125, -0.3076171875, -0.77001953125
595, 754757212, -5.005151748657227, 2.7331812381744385, 7.704845428466797, -28.801664352416992, 1.6550170183181763, -22.18060874938965, 0.2890625, -0.299560546875, -0.77099609375
596, 754773879, -5.3660125732421875, 2.058680772781372, 8.51814079284668, -27.819271087646484, 7.680530071258545, -18.717247009277344, 0.292236328125, -0.2919921875, -0.7734375
597, 754790546, -5.510940074920654, 1.994928002357483, 8.398107528686523, -20.014829635620117, 6.082292556762695, -13.332322120666504, 0.294189453125, -0.2880859375, -0.7734375
598, 754807213, -5.3500165939331055, 2.2249245643615723, 8.146212577819824, -16.39893341064453, 3.826138496398926, -10.070771217346191, 0.298095703125, -0.2861328125, -0.7744140625
599, 754823880, -5.338047981262207, 2.2786073684692383, 8.052816390991211, -15.18612003326416, 1.3253241777420044, -9.22008228302002, 0.300537109375, -0.281005859375, -0.7744140625
600, 754840547, -5.238657474517822, 2.3245913982391357, 7.986767768859863, -16.11295509338379, -0.8876988887786865, -9.37391471862793, 0.299560546875, -0.278564453125, -0.776611328125
601, 754857214, -5.067132949829102, 2.386580228805542, 7.895977973937988, -18.20505142211914, -2.4852938652038574, -11.658202171325684, 0.30078125, -0.27197265625, -0.776611328125
602, 754873881, -5.198904514312744, 2.282424211502075, 7.9996018409729, -20.600624084472656, -6.225104331970215, -14.714710235595703, 0.3017578125, -0.2685546875, -0.779296875
603, 754890548, -5.195024013519287, 2.123919725418091, 8.02572250366211, -22.72644805908203, -9.813497543334961, -17.00794792175293, 0.30029296875, -0.2626953125, -0.78125
604, 754907215, -5.10891056060791, 2.0789363384246826, 8.028753280639648, -24.675559997558594, -11.292797088623047, -18.062185287475586, 0.30029296875, -0.257568359375, -0.783447265625
605, 754923882, -5.1697282791137695, 1.9940544366836548, 8.180462837219238, -28.301788330078125, -11.970789909362793, -19.205589294433594, 0.299560546875, -0.24951171875, -0.78564453125
606, 754940549, -5.1558356285095215, 1.801256775856018, 8.216713905334473, -31.071285247802734, -11.257415771484375, -19.2336368560791, 0.296630859375, -0.24365234375, -0.788818359375
607, 754957216, -5.1531500816345215, 1.499506950378418, 8.377449035644531, -31.40679168701172, -8.37298583984375, -17.335552215576172, 0.297119140625, -0.235595703125, -0.79296875
608, 754973883, -5.17697286605835, 1.470010757446289, 8.421551704406738, -30.034330368041992, -5.368660926818848, -15.418575286865234, 0.297607421875, -0.22705078125, -0.793701171875
609, 754990550, -5.167368412017822, 1.4111292362213135, 8.382083892822266, -26.35222053527832, -4.332119464874268, -13.072300910949707, 0.295166015625, -0.221435546875, -0.793701171875
610, 755007217, -5.090115547180176, 1.4506157636642456, 8.366873741149902, -22.45411491394043, -2.526557683944702, -11.577069282531738, 0.295654296875, -0.215087890625, -0.796875
611, 755023884, -5.154165267944336, 1.252604365348816, 8.358687400817871, -18.258102416992188, -1.2392594814300537, -10.350914001464844, 0.298095703125, -0.21044921875, -0.79931640625
612, 755040551, -5.1082329750061035, 1.2356218099594116, 8.32415771484375, -13.287879943847656, 0.5801088809967041, -8.161109924316406, 0.300048828125, -0.20703125, -0.798828125
613, 755057218, -5.077301979064941, 1.261210322380066, 8.319905281066895, -9.202991485595703, 3.4073801040649414, -6.337532043457031, 0.297119140625, -0.203369140625, -0.800048828125
614, 755073885, -5.131484508514404, 1.2736406326293945, 8.318415641784668, -7.608895778656006, 6.241669654846191, -5.884187698364258, 0.302001953125, -0.200927734375, -0.79638671875
615, 755090552, -5.1528706550598145, 1.2157570123672485, 8.280823707580566, -5.461487293243408, 7.7000956535339355, -4.6637797355651855, 0.302734375, -0.200927734375, -0.79736328125
616, 755107219, -5.045491695404053, 1.2959015369415283, 8.30771541595459, -5.520116329193115, 10.871015548706055, -4.1254143714904785, 0.306640625, -0.203369140625, -0.796630859375
617, 755123886, -4.871035575866699, 1.329289197921753, 8.41170883178711, -5.292819976806641, 17.91604995727539, -3.5680201053619385, 0.311279296875, -0.200439453125, -0.796630859375
618, 755140553, -4.845872402191162, 1.013024926185608, 8.420924186706543, -1.2046712636947632, 29.45299530029297, -3.3687586784362793, 0.319580078125, -0.201171875, -0.791748046875
619, 755157220, -4.973956108093262, 1.1032336950302124, 8.576868057250977, 1.9415141344070435, 44.99736022949219, -2.0687527656555176, 0.3271484375, -0.2021484375, -0.7900390625
620, 755173887, -5.07706880569458, 1.3350894451141357, 8.615816116333008, 3.958278179168701, 65.188720703125, -2.0901172161102295, 0.340087890625, -0.2021484375, -0.78515625
621, 755190554, -5.184564590454102, 1.7836977243423462, 8.477128982543945, -1.1330217123031616, 87.91522979736328, -7.785961627960205, 0.36083984375, -0.204345703125, -0.7763671875
622, 755207221, -5.4424614906311035, 1.5547699928283691, 8.257317543029785, -2.7818169593811035, 111.52955627441406, -15.594027519226074, 0.3876953125, -0.202880859375, -0.765869140625
623, 755223888, -5.905319690704346, 1.4892741441726685, 8.120155334472656, -1.6009310483932495, 138.52459716796875, -24.573577880859375, 0.418212890625, -0.199951171875, -0.750244140625
624, 755240555, -6.103340148925781, 1.6315034627914429, 8.231633186340332, -8.28363037109375, 166.09329223632812, -40.283687591552734, 0.453857421875, -0.195068359375, -0.732177734375
625, 755257222, -5.99043083190918, 1.8608531951904297, 8.4850435256958, -23.848834991455078, 197.5750732421875, -62.23710250854492, 0.499755859375, -0.183837890625, -0.70751953125
626, 755273889, -7.097364902496338, 2.5026357173919678, 8.401439666748047, -47.73709487915039, 225.66331481933594, -92.8505859375, 0.54541015625, -0.16064453125, -0.67578125
627, 755290556, -8.43096923828125, 3.2407727241516113, 8.148786544799805, -80.53883361816406, 244.85711669921875, -132.5839080810547, 0.596923828125, -0.126708984375, -0.643310546875
628, 755307223, -11.201369285583496, 5.466371536254883, 9.548685073852539, -126.92398834228516, 250.12710571289062, -176.5447540283203, 0.650634765625, -0.078125, -0.601318359375
629, 755323890, -13.664274215698242, 6.794434070587158, 11.144841194152832, -193.6688995361328, 218.6923065185547, -216.49777221679688, 0.690185546875, -0.00537109375, -0.561279296875
630, 755340557, -14.171111106872559, 6.732553958892822, 10.524941444396973, -231.30796813964844, 160.54373168945312, -239.10020446777344, 0.712158203125, 0.08349609375, -0.53076171875
631, 755357224, -11.547743797302246, 6.81414794921875, 9.15644359588623, -245.7908935546875, 116.44338989257812, -247.5629119873047, 0.71630859375, 0.173828125, -0.5009765625
632, 755373891, -7.709933757781982, 8.896401405334473, 8.714983940124512, -304.8492431640625, 109.95965576171875, -264.0085754394531, 0.708251953125, 0.2685546875, -0.4638671875
633, 755390558, -8.434615135192871, 16.155048370361328, 7.412012100219727, -484.800048828125, 111.8551025390625, -275.8847351074219, 0.68994140625, 0.386962890625, -0.406982421875
634, 755407225, -22.1392879486084, 14.887910842895508, 17.6058349609375, -503.13861083984375, 26.760372161865234, -43.82770538330078, 0.680419921875, 0.470947265625, -0.330322265625
635, 755423892, -14.12536907196045, 7.091536521911621, 11.383184432983398, -380.56591796875, -130.5940399169922, 139.39581298828125, 0.678466796875, 0.496826171875, -0.2978515625
636, 755440559, -5.2114577293396, 3.2643518447875977, 5.661548614501953, -308.8389892578125, -171.75515747070312, 170.88233947753906, 0.687255859375, 0.503662109375, -0.28759765625
637, 755457226, -3.6310222148895264, 1.111066222190857, 4.197861671447754, -271.7257385253906, -148.307373046875, 149.0620880126953, 0.697265625, 0.50732421875, -0.28125
638, 755473893, -4.938408374786377, 0.19739343225955963, 6.312285423278809, -226.95404052734375, -134.34544372558594, 109.40689086914062, 0.706787109375, 0.51416015625, -0.27197265625
639, 755490560, -7.502334117889404, 0.661406934261322, 9.412229537963867, -159.3748321533203, -167.78207397460938, 88.87994384765625, 0.71484375, 0.526611328125, -0.283203125
640, 755507227, -8.789385795593262, 4.196356773376465, 10.300524711608887, -110.58793640136719, -224.20462036132812, 79.44281768798828, 0.7177734375, 0.531982421875, -0.3154296875
641, 755523894, -9.565437316894531, 7.478436470031738, 9.735857009887695, -110.39773559570312, -280.3904113769531, 78.46598052978516, 0.707763671875, 0.5322265625, -0.370361328125
642, 755540561, -10.125656127929688, 8.301950454711914, 8.450419425964355, -118.21234130859375, -329.6232604980469, 99.89295959472656, 0.67919921875, 0.530517578125, -0.42626953125
643, 755557228, -9.393481254577637, 8.585533142089844, 5.9902520179748535, -114.55144500732422, -360.6812744140625, 130.75140380859375, 0.64111328125, 0.51953125, -0.478759765625
644, 755573895, -8.476139068603516, 8.294295310974121, 4.180263042449951, -99.24491882324219, -351.12347412109375, 158.9089813232422, 0.604248046875, 0.512939453125, -0.520263671875
645, 755590562, -9.739347457885742, 7.937252044677734, 4.700317859649658, -67.17282104492188, -329.16900634765625, 192.73773193359375, 0.583251953125, 0.497802734375, -0.565185546875
646, 755607229, -10.7177095413208, 7.778395652770996, 5.667389869689941, -37.199310302734375, -311.076904296875, 217.31114196777344, 0.5615234375, 0.474609375, -0.607421875
647, 755623896, -11.968708992004395, 6.454597473144531, 6.4306745529174805, -19.098419189453125, -290.4326171875, 224.4542999267578, 0.548583984375, 0.4501953125, -0.651611328125
648, 755640563, -13.069891929626465, 4.008476734161377, 6.3546671867370605, 8.423846244812012, -264.57098388671875, 213.5799560546875, 0.5380859375, 0.423828125, -0.700927734375
649, 755657230, -14.136849403381348, 3.0307657718658447, 7.10430908203125, 38.038597106933594, -227.1433563232422, 187.2822723388672, 0.525146484375, 0.39208984375, -0.75048828125
650, 755673897, -16.815608978271484, 2.7648141384124756, 10.752143859863281, 57.36520767211914, -215.1100311279297, 159.0646514892578, 0.5107421875, 0.358642578125, -0.7978515625
651, 755690564, -16.7470703125, 1.6059918403625488, 9.441889762878418, 76.06436157226562, -214.17494201660156, 137.5894012451172, 0.492919921875, 0.32275390625, -0.860107421875
652, 755707231, -18.25638198852539, 0.19151170551776886, 8.78520393371582, 96.75857543945312, -199.6392822265625, 120.24171447753906, 0.453125, 0.275390625, -0.93017578125
653, 755723898, -19.894193649291992, -1.0269525051116943, 7.92628288269043, 101.49195098876953, -194.00518798828125, 101.45680236816406, 0.387451171875, 0.219482421875, -0.969970703125
654, 755740565, -19.661222457885742, -3.4246103763580322, 4.33337926864624, 96.47100067138672, -183.23008728027344, 76.26569366455078, 0.323486328125, 0.175537109375, -0.986328125
655, 755757232, -19.057361602783203, -4.982778072357178, 1.0099148750305176, 99.89832305908203, -154.5675506591797, 57.59241485595703, 0.269775390625, 0.13427734375, -0.994873046875
656, 755773899, -20.94266700744629, -4.166072845458984, 0.1720592975616455, 104.04528045654297, -126.51205444335938, 57.562416076660156, 0.230712890625, 0.095947265625, -0.999755859375
657, 755790566, -19.890832901000977, -3.3967318534851074, -3.0125186443328857, 79.62928771972656, -102.65998077392578, 72.90563201904297, 0.19384765625, 0.06005859375, -1.002197265625
658, 755807233, -19.26426887512207, -4.527843475341797, -4.904571533203125, 34.00080108642578, -60.77060317993164, 88.85552215576172, 0.171142578125, 0.037109375, -0.99951171875
