sep=,
DeviceTag:,B,,,,,,,,,,,,,,,,,
FirmwareVersion:,2.2.1,,,,,,,,,,,,,,,,,
AppVersion:,2022.0.1,,,,,,,,,,,,,,,,,
SyncStatus:,Synced,,,,,,,,,,,,,,,,,
OutputRate:,60Hz,,,,,,,,,,,,,,,,,
FilterProfile:,General,,,,,,,,,,,,,,,,,
Measurement Mode:,Inertial Mode - Rate quantities (with mag),,,,,,,,,,,,,,,,,
StartTime:,2022-08-05 15:30:02.477 +0300,,,,,,,,,,,,,,,,,
© Xsens Technologies B. V. 2005-2022,,,,,,,,,,,,,,,,,,,

PacketCounter,SampleTimeFine,Acc_X,Acc_Y,Acc_Z,Gyr_X,Gyr_Y,Gyr_Z,Mag_X,Mag_Y,Mag_Z
1, 3144503071, -4.593174934387207, -1.6335580348968506, 8.343335151672363, -0.09841679781675339, -0.5942915081977844, -0.9343000054359436, -0.029541015625, 0.15185546875, -0.809814453125
2, 3144519738, -4.613675117492676, -1.6434673070907593, 8.349842071533203, -0.05216025933623314, -0.6510363221168518, -0.9183945059776306, -0.031494140625, 0.1513671875, -0.807373046875
3, 3144536405, -4.588685989379883, -1.6466896533966064, 8.361294746398926, 0.009739229455590248, -0.7541915774345398, -0.9344409704208374, -0.030517578125, 0.149169921875, -0.807861328125
4, 3144553072, -4.582953453063965, -1.645636796951294, 8.370659828186035, 0.015028250403702259, -0.6967806220054626, -0.8571929931640625, -0.031494140625, 0.148193359375, -0.806396484375
5, 3144569739, -4.591772079467773, -1.6413828134536743, 8.356663703918457, -0.04233779013156891, -0.6247193217277527, -0.816584050655365, -0.029052734375, 0.149169921875, -0.809326171875
6, 3144586406, -4.578782081604004, -1.634407877922058, 8.379915237426758, 0.029665905982255936, -0.5674492716789246, -0.7756165266036987, -0.030029296875, 0.15087890625, -0.810791015625
7, 3144603073, -4.589508056640625, -1.6363195180892944, 8.354267120361328, 0.04010307788848877, -0.5283387303352356, -0.8180055618286133, -0.031494140625, 0.149658203125, -0.809326171875
8, 3144619740, -4.575039863586426, -1.6304502487182617, 8.374887466430664, -0.08952919393777847, -0.4758455753326416, -0.8715490102767944, -0.031005859375, 0.15234375, -0.808349609375
9, 3144636407, -4.592902183532715, -1.6253620386123657, 8.366819381713867, -0.16047637164592743, -0.3712817132472992, -0.814432680606842, -0.030517578125, 0.148193359375, -0.807861328125
10, 3144653074, -4.617275238037109, -1.6379421949386597, 8.372480392456055, -0.18720324337482452, -0.35075312852859497, -0.8666442036628723, -0.027587890625, 0.147705078125, -0.80615234375
11, 3144669741, -4.593966960906982, -1.6347479820251465, 8.37191104888916, -0.1802941858768463, -0.44081375002861023, -0.9179142713546753, -0.030029296875, 0.150634765625, -0.809326171875
12, 3144686408, -4.611778259277344, -1.628523826599121, 8.371787071228027, -0.23230719566345215, -0.49549052119255066, -0.9164096117019653, -0.029541015625, 0.149169921875, -0.807861328125
13, 3144703075, -4.594761848449707, -1.6255916357040405, 8.363593101501465, -0.17549823224544525, -0.5465750098228455, -0.9298563003540039, -0.032470703125, 0.151611328125, -0.809326171875
14, 3144719742, -4.601102828979492, -1.6143379211425781, 8.357821464538574, -0.12968990206718445, -0.5678719878196716, -0.9106082916259766, -0.029541015625, 0.150146484375, -0.809326171875
15, 3144736409, -4.6007561683654785, -1.6374492645263672, 8.371186256408691, -0.19168543815612793, -0.5591892600059509, -0.9038336873054504, -0.030029296875, 0.149169921875, -0.805908203125
16, 3144753076, -4.601356029510498, -1.6248422861099243, 8.388805389404297, -0.013164927251636982, -0.6587713956832886, -0.8845857381820679, -0.031494140625, 0.145751953125, -0.805908203125
17, 3144769743, -4.593640327453613, -1.6289000511169434, 8.339072227478027, -0.041518181562423706, -0.7214968800544739, -0.9175364375114441, -0.030029296875, 0.149658203125, -0.807861328125
18, 3144786410, -4.595384120941162, -1.6245777606964111, 8.372118949890137, -0.08335652947425842, -0.6517407894134521, -0.8371254801750183, -0.031494140625, 0.150146484375, -0.809326171875
19, 3144803077, -4.585373878479004, -1.6228219270706177, 8.38054370880127, -0.012383740395307541, -0.7146071195602417, -0.8485103249549866, -0.032470703125, 0.150146484375, -0.808349609375
20, 3144819744, -4.592062473297119, -1.6295021772384644, 8.364562034606934, -0.08723686635494232, -0.6703996658325195, -0.870089054107666, -0.031982421875, 0.1513671875, -0.809326171875
21, 3144836411, -4.599899768829346, -1.6281696557998657, 8.356548309326172, -0.05413243919610977, -0.6722949147224426, -0.8963803648948669, -0.031494140625, 0.149658203125, -0.807861328125
22, 3144853078, -4.599786758422852, -1.6400185823440552, 8.361642837524414, -0.12083514779806137, -0.5769093632698059, -0.9229192733764648, -0.032470703125, 0.146240234375, -0.805908203125
23, 3144869745, -4.598094463348389, -1.6286423206329346, 8.376272201538086, -0.15253642201423645, -0.6383069157600403, -0.8509435057640076, -0.030029296875, 0.148681640625, -0.807373046875
24, 3144886412, -4.59431791305542, -1.6254823207855225, 8.353545188903809, -0.02862219512462616, -0.7651025652885437, -0.9762793183326721, -0.032958984375, 0.148681640625, -0.807373046875
25, 3144903079, -4.586666107177734, -1.6298350095748901, 8.352231979370117, -0.17070864140987396, -0.5103714466094971, -0.8804877400398254, -0.027587890625, 0.149658203125, -0.809814453125
26, 3144919746, -4.59454870223999, -1.6121575832366943, 8.36223030090332, -0.22213895618915558, -0.5760936737060547, -0.8737645149230957, -0.031494140625, 0.1513671875, -0.809814453125
27, 3144936413, -4.584752082824707, -1.6364191770553589, 8.35427188873291, -0.10657445341348648, -0.5895019769668579, -0.9588243365287781, -0.031005859375, 0.150146484375, -0.805419921875
28, 3144953080, -4.586236953735352, -1.616948127746582, 8.35263729095459, -0.15804314613342285, -0.4267459809780121, -0.8739308714866638, -0.031982421875, 0.147705078125, -0.805908203125
29, 3144969747, -4.5959954261779785, -1.6242895126342773, 8.369014739990234, -0.11062124371528625, -0.4506169855594635, -0.8775807023048401, -0.031494140625, 0.147705078125, -0.805908203125
30, 3144986414, -4.602200031280518, -1.621378779411316, 8.359603881835938, -0.18599943816661835, -0.4218796193599701, -0.9089051485061646, -0.031005859375, 0.150634765625, -0.804931640625
31, 3145003081, -4.6002888679504395, -1.6230987310409546, 8.372352600097656, -0.2043125033378601, -0.4082280099391937, -0.9056267738342285, -0.031005859375, 0.150146484375, -0.807373046875
32, 3145019748, -4.597067832946777, -1.627877950668335, 8.378416061401367, -0.2091468870639801, -0.4151754379272461, -0.9130350351333618, -0.030517578125, 0.149658203125, -0.807861328125
33, 3145036415, -4.601421356201172, -1.6297777891159058, 8.36079216003418, -0.2499159276485443, -0.3173285722732544, -0.9702218770980835, -0.031005859375, 0.148193359375, -0.808837890625
34, 3145053082, -4.590949058532715, -1.628568410873413, 8.354757308959961, -0.3471161127090454, -0.23657171428203583, -0.9587474465370178, -0.029541015625, 0.149169921875, -0.80419921875
35, 3145069749, -4.620781898498535, -1.60957670211792, 8.370821952819824, -0.22201085090637207, -0.25471827387809753, -0.9519984126091003, -0.028564453125, 0.147705078125, -0.807861328125
36, 3145086416, -4.601441383361816, -1.6069506406784058, 8.353048324584961, -0.22016675770282745, -0.389556348323822, -0.8690900802612305, -0.029052734375, 0.150634765625, -0.808349609375
37, 3145103083, -4.607353687286377, -1.607231855392456, 8.3645658493042, -0.3487681448459625, -0.3763786256313324, -0.9360032677650452, -0.029052734375, 0.150146484375, -0.808837890625
38, 3145119750, -4.602683067321777, -1.6333179473876953, 8.348806381225586, -0.2716482877731323, -0.40681931376457214, -0.886212170124054, -0.030029296875, 0.149169921875, -0.808349609375
39, 3145136417, -4.582200527191162, -1.6330260038375854, 8.352173805236816, -0.2513118088245392, -0.43066471815109253, -0.9433029294013977, -0.029052734375, 0.149169921875, -0.806884765625
40, 3145153084, -4.603390216827393, -1.6289629936218262, 8.368961334228516, -0.3021402359008789, -0.27922967076301575, -0.9446987509727478, -0.029541015625, 0.147216796875, -0.80517578125
41, 3145169751, -4.595297813415527, -1.6152926683425903, 8.362302780151367, -0.39073458313941956, -0.3386639356613159, -0.9533944129943848, -0.029052734375, 0.147705078125, -0.806884765625
42, 3145186418, -4.607480049133301, -1.6216708421707153, 8.358230590820312, -0.457250714302063, -0.2384798526763916, -1.0011235475540161, -0.028564453125, 0.149658203125, -0.810791015625
43, 3145203085, -4.608890533447266, -1.6113642454147339, 8.340940475463867, -0.46478086709976196, -0.3001552224159241, -1.0280041694641113, -0.028076171875, 0.150146484375, -0.808349609375
44, 3145219752, -4.597949981689453, -1.6130571365356445, 8.350455284118652, -0.3445292115211487, -0.23264014720916748, -0.9747552871704102, -0.029052734375, 0.150146484375, -0.809326171875
45, 3145236419, -4.6194329261779785, -1.6081650257110596, 8.378312110900879, -0.4731561839580536, -0.2805742919445038, -0.9741532802581787, -0.028564453125, 0.148681640625, -0.809326171875
46, 3145253086, -4.611546993255615, -1.6296731233596802, 8.351812362670898, -0.37918317317962646, -0.33827972412109375, -1.067063331604004, -0.028564453125, 0.148681640625, -0.806884765625
47, 3145269753, -4.610683917999268, -1.6347360610961914, 8.347167015075684, -0.3484991490840912, -0.4465317726135254, -1.1009106636047363, -0.028076171875, 0.147705078125, -0.807373046875
48, 3145286420, -4.614299774169922, -1.6297086477279663, 8.372014999389648, -0.3211832344532013, -0.552056074142456, -1.068331241607666, -0.030029296875, 0.148193359375, -0.806396484375
49, 3145303087, -4.606869220733643, -1.6262316703796387, 8.342275619506836, -0.32492268085479736, -0.6046261787414551, -1.1305574178695679, -0.030517578125, 0.149658203125, -0.808837890625
50, 3145319754, -4.614993572235107, -1.6324726343154907, 8.341289520263672, -0.43943071365356445, -0.40108850598335266, -1.0888150930404663, -0.029541015625, 0.148193359375, -0.806884765625
51, 3145336421, -4.59932804107666, -1.6217514276504517, 8.354485511779785, -0.43729841709136963, -0.4473642408847809, -1.1314152479171753, -0.029052734375, 0.148681640625, -0.809814453125
52, 3145353088, -4.604801654815674, -1.62734055519104, 8.33808422088623, -0.480596661567688, -0.5208854675292969, -1.1483324766159058, -0.027587890625, 0.147216796875, -0.806640625
53, 3145369755, -4.6158976554870605, -1.6244417428970337, 8.361969947814941, -0.3908753991127014, -0.49067530035972595, -1.0573307275772095, -0.031494140625, 0.145263671875, -0.8046875
54, 3145386422, -4.604936122894287, -1.6276596784591675, 8.375297546386719, -0.36428943276405334, -0.5748770833015442, -1.0269540548324585, -0.028564453125, 0.150634765625, -0.807861328125
55, 3145403089, -4.612304210662842, -1.6337388753890991, 8.3567476272583, -0.25720271468162537, -0.6358993649482727, -0.9936190843582153, -0.029052734375, 0.149658203125, -0.809326171875
56, 3145419756, -4.612853527069092, -1.6212735176086426, 8.338949203491211, -0.19062112271785736, -0.5895372033119202, -0.9509283900260925, -0.031005859375, 0.1513671875, -0.810302734375
57, 3145436423, -4.600567817687988, -1.6227988004684448, 8.36371898651123, -0.26514264941215515, -0.7048742771148682, -1.005336880683899, -0.029052734375, 0.149169921875, -0.806884765625
58, 3145453090, -4.605748653411865, -1.6302067041397095, 8.353686332702637, -0.16548363864421844, -0.816584050655365, -0.9830410480499268, -0.029541015625, 0.147705078125, -0.806396484375
59, 3145469757, -4.611222267150879, -1.6302759647369385, 8.367327690124512, -0.23864628374576569, -0.8215144872665405, -1.0427825450897217, -0.031005859375, 0.148193359375, -0.807861328125
60, 3145486424, -4.62135648727417, -1.6347401142120361, 8.348518371582031, -0.20506809651851654, -0.7924313545227051, -0.9475803375244141, -0.031005859375, 0.149658203125, -0.806396484375
61, 3145503091, -4.609244346618652, -1.6247773170471191, 8.368916511535645, -0.2563318908214569, -0.7368388772010803, -1.151175618171692, -0.029541015625, 0.149658203125, -0.807861328125
62, 3145519758, -4.610244274139404, -1.6308903694152832, 8.338621139526367, -0.2801132798194885, -0.8031246066093445, -1.1569128036499023, -0.028076171875, 0.15087890625, -0.806396484375
63, 3145536425, -4.61053991317749, -1.6375579833984375, 8.349138259887695, -0.2904736399650574, -0.7751555442810059, -1.044882893562317, -0.026611328125, 0.149658203125, -0.8056640625
64, 3145553092, -4.601325511932373, -1.6514962911605835, 8.3622465133667, -0.32051733136177063, -0.8582175970077515, -1.1040226221084595, -0.029541015625, 0.149169921875, -0.804931640625
65, 3145569759, -4.604633331298828, -1.6407757997512817, 8.346653938293457, -0.26215875148773193, -0.8082854747772217, -1.0883474349975586, -0.030029296875, 0.149658203125, -0.806884765625
66, 3145586426, -4.6005401611328125, -1.6318919658660889, 8.360899925231934, -0.24006783962249756, -0.7659221887588501, -1.1017431020736694, -0.030029296875, 0.149658203125, -0.806396484375
67, 3145603093, -4.605972766876221, -1.6423028707504272, 8.370357513427734, -0.1589139997959137, -0.8080679178237915, -1.1319917440414429, -0.032958984375, 0.150634765625, -0.807861328125
68, 3145619760, -4.600863456726074, -1.6226060390472412, 8.366654396057129, -0.2108309268951416, -0.7463412880897522, -0.9924280047416687, -0.030517578125, 0.148681640625, -0.811279296875
69, 3145636427, -4.598230838775635, -1.6298636198043823, 8.354104995727539, -0.13775789737701416, -0.8489584922790527, -1.0347273349761963, -0.031494140625, 0.148193359375, -0.807373046875
70, 3145653094, -4.600691318511963, -1.6426167488098145, 8.366585731506348, -0.1207766905426979, -0.8403655290603638, -1.0860297679901123, -0.031982421875, 0.146728515625, -0.806396484375
71, 3145669761, -4.600016117095947, -1.641727328300476, 8.352621078491211, -0.17706060409545898, -0.7345978617668152, -1.0202178955078125, -0.029541015625, 0.149169921875, -0.806396484375
72, 3145686428, -4.602848529815674, -1.637441635131836, 8.363456726074219, -0.18044787645339966, -0.765352189540863, -0.9764904975891113, -0.031494140625, 0.150634765625, -0.808837890625
73, 3145703095, -4.58784818649292, -1.650363802909851, 8.370814323425293, -0.17715023458003998, -0.6570041179656982, -1.0028011798858643, -0.031494140625, 0.148193359375, -0.807861328125
74, 3145719762, -4.5969367027282715, -1.6373693943023682, 8.383593559265137, -0.20290380716323853, -0.6053305268287659, -0.8989032506942749, -0.031494140625, 0.149658203125, -0.809814453125
75, 3145736429, -4.601316452026367, -1.6341345310211182, 8.358630180358887, -0.2489938586950302, -0.5153146982192993, -0.9674428105354309, -0.031005859375, 0.147705078125, -0.806884765625
76, 3145753096, -4.601184368133545, -1.6287952661514282, 8.337124824523926, -0.2231762409210205, -0.58381587266922, -0.9394737482070923, -0.028564453125, 0.147705078125, -0.807373046875
77, 3145769763, -4.611579895019531, -1.63145911693573, 8.342451095581055, -0.1984856277704239, -0.5597527623176575, -0.9329553842544556, -0.029541015625, 0.149658203125, -0.807861328125
78, 3145786430, -4.605886936187744, -1.6156485080718994, 8.355446815490723, -0.22470660507678986, -0.5116841197013855, -0.9579341411590576, -0.030029296875, 0.148681640625, -0.810302734375
79, 3145803097, -4.606771469116211, -1.6364003419876099, 8.364065170288086, -0.18132512271404266, -0.45322954654693604, -0.9659444689750671, -0.031005859375, 0.149658203125, -0.806396484375
80, 3145819764, -4.616998195648193, -1.6263864040374756, 8.37074089050293, -0.25178563594818115, -0.43508288264274597, -1.0329601764678955, -0.031982421875, 0.151123046875, -0.808837890625
81, 3145836431, -4.601822853088379, -1.6287062168121338, 8.356246948242188, -0.2106388360261917, -0.4933261573314667, -0.9860633015632629, -0.031494140625, 0.147216796875, -0.808349609375
82, 3145853098, -4.587536811828613, -1.6395472288131714, 8.358564376831055, -0.4305495023727417, -0.4119802713394165, -1.0331010818481445, -0.029052734375, 0.148193359375, -0.806396484375
83, 3145869765, -4.587346076965332, -1.628463864326477, 8.345809936523438, -0.3186475932598114, -0.3432229459285736, -0.8957272171974182, -0.031005859375, 0.148681640625, -0.804931640625
84, 3145886432, -4.583059787750244, -1.6309764385223389, 8.348551750183105, -0.3023066818714142, -0.20615659654140472, -0.9090843200683594, -0.030517578125, 0.149169921875, -0.806884765625
85, 3145903099, -4.599455833435059, -1.6406447887420654, 8.34769344329834, -0.43988528847694397, -0.16877488791942596, -0.9372839331626892, -0.030029296875, 0.150634765625, -0.808837890625
86, 3145919766, -4.580564498901367, -1.6434102058410645, 8.317477226257324, -0.41801202297210693, 0.01837070845067501, -0.8185306191444397, -0.029541015625, 0.148193359375, -0.807373046875
87, 3145936433, -4.595071792602539, -1.6365330219268799, 8.345573425292969, -0.29289400577545166, -0.010245079174637794, -0.6834748387336731, -0.028076171875, 0.1513671875, -0.806396484375
88, 3145953100, -4.595293998718262, -1.6214916706085205, 8.335541725158691, -0.25199052691459656, -0.026368271559476852, -0.6889431476593018, -0.029052734375, 0.147705078125, -0.8056640625
89, 3145969767, -4.608501434326172, -1.6516700983047485, 8.368668556213379, -0.1938101053237915, -0.00587846664711833, -0.6179434061050415, -0.030029296875, 0.149169921875, -0.806884765625
90, 3145986434, -4.616186141967773, -1.6168462038040161, 8.385590553283691, -0.17449933290481567, -0.10225869715213776, -0.6068801283836365, -0.029541015625, 0.149658203125, -0.806884765625
91, 3146003101, -4.633264541625977, -1.6248255968093872, 8.391204833984375, -0.35828328132629395, -0.4726696014404297, -0.6826809644699097, -0.030029296875, 0.1513671875, -0.807861328125
92, 3146019768, -4.616504669189453, -1.629896879196167, 8.339521408081055, -0.09883939474821091, -0.6153066754341125, -0.7498245239257812, -0.031494140625, 0.149658203125, -0.805419921875
93, 3146036435, -4.620422840118408, -1.6254146099090576, 8.334306716918945, -0.027303138747811317, -0.5542716979980469, -0.7682145237922668, -0.031494140625, 0.148193359375, -0.806396484375
94, 3146053102, -4.605691909790039, -1.6223351955413818, 8.353906631469727, -5.122539005242288E-4, -0.5445771813392639, -0.7682144641876221, -0.029052734375, 0.148681640625, -0.805908203125
95, 3146069769, -4.635483264923096, -1.6220563650131226, 8.36149787902832, -0.15722353756427765, -0.6780833601951599, -0.8462051153182983, -0.028564453125, 0.149658203125, -0.802734375
96, 3146086436, -4.613893032073975, -1.62534761428833, 8.380125999450684, -0.1616801619529724, -0.43996211886405945, -0.9153978824615479, -0.028076171875, 0.148681640625, -0.80615234375
97, 3146103103, -4.623996257781982, -1.6369526386260986, 8.369458198547363, -0.14864329993724823, -0.5262256860733032, -0.8498677611351013, -0.026611328125, 0.148681640625, -0.810302734375
98, 3146119770, -4.603926181793213, -1.6361662149429321, 8.37338638305664, -0.19363202154636383, -0.4824792444705963, -0.8755189776420593, -0.030029296875, 0.15234375, -0.808349609375
99, 3146136437, -4.6029253005981445, -1.6339830160140991, 8.37080192565918, -0.17305220663547516, -0.32124730944633484, -0.8808591961860657, -0.029541015625, 0.149658203125, -0.80419921875
100, 3146153104, -4.61655330657959, -1.6263693571090698, 8.367793083190918, -0.17772650718688965, -0.4136194586753845, -0.8446171283721924, -0.028564453125, 0.147705078125, -0.80615234375
101, 3146169771, -4.6182098388671875, -1.629827618598938, 8.373380661010742, -0.2345995306968689, -0.3740222752094269, -0.8866477012634277, -0.029052734375, 0.148681640625, -0.80517578125
102, 3146186438, -4.607624530792236, -1.626866340637207, 8.3740816116333, -0.22575032711029053, -0.21289274096488953, -0.8870829939842224, -0.030517578125, 0.148681640625, -0.807861328125
103, 3146203105, -4.623403072357178, -1.6276168823242188, 8.357810020446777, -0.18220871686935425, -0.1769709438085556, -0.8929226994514465, -0.030517578125, 0.151123046875, -0.807373046875
104, 3146219772, -4.633969783782959, -1.6189415454864502, 8.358016967773438, -0.3156124949455261, -0.32204127311706543, -1.0152875185012817, -0.028564453125, 0.15087890625, -0.808837890625
105, 3146236439, -4.6169114112854, -1.6301606893539429, 8.343305587768555, -0.306404709815979, -0.27901193499565125, -0.9967694282531738, -0.026611328125, 0.14990234375, -0.808837890625
106, 3146253106, -4.631617546081543, -1.6176180839538574, 8.32099723815918, -0.35354486107826233, -0.323129802942276, -0.924375057220459, -0.027587890625, 0.148681640625, -0.80517578125
107, 3146269773, -4.62473201751709, -1.6129356622695923, 8.350883483886719, -0.34765398502349854, -0.38091206550598145, -1.028695821762085, -0.029541015625, 0.147216796875, -0.8037109375
108, 3146286440, -4.626003265380859, -1.6235215663909912, 8.341794967651367, -0.4091245234012604, -0.3111302852630615, -1.0713409185409546, -0.028564453125, 0.150146484375, -0.808837890625
109, 3146303107, -4.630073070526123, -1.6269253492355347, 8.34998607635498, -0.3756614625453949, -0.40664005279541016, -1.0736074447631836, -0.031494140625, 0.150146484375, -0.809326171875
110, 3146319774, -4.625242233276367, -1.6268199682235718, 8.356060981750488, -0.33114659786224365, -0.5431429147720337, -1.0533479452133179, -0.030029296875, 0.15087890625, -0.808349609375
111, 3146336441, -4.632713794708252, -1.6115247011184692, 8.357322692871094, -0.346885621547699, -0.6309560537338257, -1.0795625448226929, -0.028076171875, 0.146728515625, -0.80615234375
112, 3146353108, -4.622708320617676, -1.6264368295669556, 8.36158561706543, -0.29579466581344604, -0.6781666874885559, -1.0915940999984741, -0.02734375, 0.146240234375, -0.80712890625
113, 3146369775, -4.633301258087158, -1.6107219457626343, 8.362653732299805, -0.23155160248279572, -0.756010115146637, -1.134553074836731, -0.0263671875, 0.147705078125, -0.80517578125
114, 3146386442, -4.6278557777404785, -1.6310638189315796, 8.340157508850098, -0.4082792401313782, -0.8377273678779602, -1.2181143760681152, -0.028076171875, 0.149169921875, -0.808349609375
115, 3146403109, -4.6205058097839355, -1.6325936317443848, 8.362645149230957, -0.353352814912796, -0.9121195077896118, -1.1894025802612305, -0.027587890625, 0.15087890625, -0.807373046875
116, 3146419776, -4.613388538360596, -1.646803617477417, 8.354126930236816, -0.40920132398605347, -0.8060829043388367, -1.124346375465393, -0.030029296875, 0.150146484375, -0.808837890625
117, 3146436443, -4.609675884246826, -1.6230632066726685, 8.36816692352295, -0.2535529136657715, -0.7450734376907349, -1.1066479682922363, -0.029541015625, 0.147216796875, -0.808349609375
118, 3146453110, -4.6231818199157715, -1.6247148513793945, 8.364758491516113, -0.34767961502075195, -0.8096174597740173, -1.0700602531433105, -0.028076171875, 0.148193359375, -0.807861328125
119, 3146469777, -4.613152503967285, -1.6248427629470825, 8.347288131713867, -0.29868248105049133, -0.8225518465042114, -1.0768988132476807, -0.030029296875, 0.149169921875, -0.807861328125
120, 3146486444, -4.619542121887207, -1.6183669567108154, 8.355330467224121, -0.3206838071346283, -0.6750099062919617, -1.1576812267303467, -0.028076171875, 0.147216796875, -0.808349609375
121, 3146503111, -4.624820709228516, -1.6172630786895752, 8.3412446975708, -0.23764744400978088, -0.6731914281845093, -1.087233543395996, -0.030029296875, 0.15234375, -0.808837890625
122, 3146519778, -4.613340377807617, -1.6297146081924438, 8.374970436096191, -0.21322573721408844, -0.5954824686050415, -1.0129566192626953, -0.029541015625, 0.149658203125, -0.808837890625
123, 3146536445, -4.6149983406066895, -1.6330933570861816, 8.364042282104492, -0.16317547857761383, -0.6078001260757446, -1.0482113361358643, -0.028076171875, 0.147705078125, -0.807373046875
124, 3146553112, -4.612380504608154, -1.6266719102859497, 8.363821983337402, -0.22773534059524536, -0.591679036617279, -1.1271892786026, -0.026611328125, 0.148193359375, -0.80517578125
125, 3146569779, -4.61506986618042, -1.630043387413025, 8.361634254455566, -0.20812879502773285, -0.608583390712738, -1.0596997737884521, -0.029541015625, 0.148681640625, -0.80517578125
126, 3146586446, -4.616673469543457, -1.6223645210266113, 8.350071907043457, -0.2676399052143097, -0.4685971438884735, -1.0428210496902466, -0.029541015625, 0.148193359375, -0.808349609375
127, 3146603113, -4.62663459777832, -1.6174330711364746, 8.353469848632812, -0.275823175907135, -0.53138667345047, -1.0764377117156982, -0.029541015625, 0.1513671875, -0.806396484375
128, 3146619780, -4.607717037200928, -1.6239594221115112, 8.338330268859863, -0.2908962368965149, -0.6782242655754089, -1.0914980173110962, -0.030517578125, 0.150634765625, -0.806884765625
129, 3146636447, -4.621172904968262, -1.6223095655441284, 8.358097076416016, -0.28369906544685364, -0.6727046966552734, -1.0149544477462769, -0.028564453125, 0.149658203125, -0.806396484375
130, 3146653114, -4.627959251403809, -1.631124496459961, 8.346094131469727, -0.2709823548793793, -0.7002640962600708, -1.0386974811553955, -0.027099609375, 0.15087890625, -0.806396484375
131, 3146669781, -4.618589401245117, -1.6420592069625854, 8.365694999694824, -0.26413094997406006, -0.6980612874031067, -1.136089563369751, -0.028564453125, 0.148681640625, -0.805908203125
132, 3146686448, -4.6047210693359375, -1.631557583808899, 8.358072280883789, -0.33819010853767395, -0.6795433163642883, -1.1151384115219116, -0.028076171875, 0.149169921875, -0.806884765625
133, 3146703115, -4.610325336456299, -1.6167577505111694, 8.367515563964844, -0.24110515415668488, -0.6955512166023254, -1.0077059268951416, -0.029541015625, 0.1513671875, -0.805908203125
134, 3146719782, -4.620031833648682, -1.6167588233947754, 8.367884635925293, -0.255550742149353, -0.6813746690750122, -1.0683953762054443, -0.027587890625, 0.15185546875, -0.806396484375
135, 3146736449, -4.608894348144531, -1.630415678024292, 8.364903450012207, -0.31095099449157715, -0.6539818644523621, -1.136371374130249, -0.029052734375, 0.150146484375, -0.808349609375
136, 3146753116, -4.614816665649414, -1.6261321306228638, 8.37063217163086, -0.25046661496162415, -0.720690131187439, -1.1205940246582031, -0.031005859375, 0.149658203125, -0.807861328125
137, 3146769783, -4.625369071960449, -1.6374167203903198, 8.341064453125, -0.17460179328918457, -0.7493764162063599, -1.0723141431808472, -0.029052734375, 0.148193359375, -0.806396484375
138, 3146786450, -4.621558666229248, -1.6351581811904907, 8.33242416381836, -0.21983382105827332, -0.7153242826461792, -0.952049732208252, -0.031494140625, 0.148681640625, -0.804931640625
139, 3146803117, -4.613928318023682, -1.6315410137176514, 8.373263359069824, -0.19671835005283356, -0.7760136127471924, -1.0816882848739624, -0.030517578125, 0.1513671875, -0.805419921875
140, 3146819784, -4.605823516845703, -1.626276969909668, 8.36601448059082, -0.23740412294864655, -0.7571882605552673, -1.1049573421478271, -0.027099609375, 0.148681640625, -0.809814453125
141, 3146836451, -4.599741458892822, -1.647947907447815, 8.359469413757324, -0.24903230369091034, -0.7364291548728943, -1.1288414001464844, -0.02734375, 0.147216796875, -0.806640625
142, 3146853118, -4.6043477058410645, -1.6213024854660034, 8.366593360900879, -0.34735941886901855, -0.6555058360099792, -1.1134992837905884, -0.031005859375, 0.147216796875, -0.80419921875
143, 3146869785, -4.61598539352417, -1.6339821815490723, 8.361330032348633, -0.34602755308151245, -0.6217354536056519, -1.0501078367233276, -0.028076171875, 0.149169921875, -0.80615234375
144, 3146886452, -4.608936786651611, -1.6359368562698364, 8.361249923706055, -0.3414941132068634, -0.6254621744155884, -1.116765022277832, -0.029541015625, 0.150634765625, -0.806396484375
145, 3146903119, -4.6147613525390625, -1.6293280124664307, 8.345552444458008, -0.4896252155303955, -0.6925418376922607, -1.1107460260391235, -0.031005859375, 0.151123046875, -0.809326171875
146, 3146919786, -4.618612766265869, -1.6156867742538452, 8.361310958862305, -0.3351421654224396, -0.6234899759292603, -1.1063532829284668, -0.031982421875, 0.150146484375, -0.806884765625
147, 3146936453, -4.617608070373535, -1.640117883682251, 8.35251522064209, -0.3238597810268402, -0.6997901797294617, -1.1054311990737915, -0.028564453125, 0.149658203125, -0.805908203125
148, 3146953120, -4.606545925140381, -1.6348261833190918, 8.34948444366455, -0.26876047253608704, -0.7706541419029236, -1.1895370483398438, -0.029052734375, 0.150146484375, -0.806396484375
149, 3146969787, -4.618688106536865, -1.64706289768219, 8.360260963439941, -0.29720979928970337, -0.6712064146995544, -1.0420783758163452, -0.030517578125, 0.147705078125, -0.805419921875
150, 3146986454, -4.604752540588379, -1.643717646598816, 8.367691993713379, -0.23532947897911072, -0.7461491823196411, -0.9899051785469055, -0.030029296875, 0.149169921875, -0.806396484375
151, 3147003121, -4.6138763427734375, -1.630558967590332, 8.364179611206055, -0.3232194781303406, -0.7220861315727234, -1.0421295166015625, -0.029541015625, 0.15087890625, -0.806396484375
152, 3147019788, -4.616664886474609, -1.6365021467208862, 8.360733985900879, -0.2069506198167801, -0.7415644526481628, -1.0334596633911133, -0.027099609375, 0.149169921875, -0.807861328125
153, 3147036455, -4.616061687469482, -1.6355592012405396, 8.349925994873047, -0.17498596012592316, -0.7820709943771362, -1.0140963792800903, -0.029541015625, 0.146240234375, -0.80517578125
154, 3147053122, -4.612276554107666, -1.6379036903381348, 8.347217559814453, -0.15459825098514557, -0.7912915349006653, -1.0760407447814941, -0.030029296875, 0.149658203125, -0.804931640625
155, 3147069789, -4.596808910369873, -1.6362944841384888, 8.388726234436035, -0.18753618001937866, -0.7743104100227356, -1.077539086341858, -0.031005859375, 0.150146484375, -0.803955078125
156, 3147086456, -4.601283073425293, -1.6369990110397339, 8.353821754455566, -0.1365623027086258, -0.7434276342391968, -1.005614995956421, -0.029052734375, 0.1513671875, -0.805419921875
157, 3147103123, -4.605049133300781, -1.640076994895935, 8.362422943115234, -0.19728180766105652, -0.8238580822944641, -1.0301555395126343, -0.032470703125, 0.151123046875, -0.808837890625
158, 3147119790, -4.590963363647461, -1.6366416215896606, 8.384810447692871, -0.17111845314502716, -0.7574187517166138, -1.0869901180267334, -0.029052734375, 0.149169921875, -0.805908203125
159, 3147136457, -4.62354850769043, -1.634753942489624, 8.349311828613281, -0.21200914680957794, -0.7668570280075073, -1.0609036684036255, -0.030029296875, 0.148193359375, -0.804931640625
160, 3147153124, -4.6025919914245605, -1.6356561183929443, 8.356191635131836, -0.2751956582069397, -0.7576364278793335, -1.0535144805908203, -0.031005859375, 0.149169921875, -0.805419921875
161, 3147169791, -4.609604835510254, -1.6273150444030762, 8.335602760314941, -0.25879067182540894, -0.7794071435928345, -1.0781537294387817, -0.030517578125, 0.149658203125, -0.8037109375
162, 3147186458, -4.609154224395752, -1.6383869647979736, 8.35454273223877, -0.18232402205467224, -0.710726797580719, -1.0976451635360718, -0.031005859375, 0.150146484375, -0.809814453125
163, 3147203125, -4.599536418914795, -1.646769642829895, 8.352643013000488, -0.23084726929664612, -0.7078837752342224, -1.1193647384643555, -0.030029296875, 0.150634765625, -0.807373046875
164, 3147219792, -4.616964817047119, -1.636855959892273, 8.35170841217041, -0.16608555614948273, -0.823960542678833, -1.0769884586334229, -0.031005859375, 0.149658203125, -0.807373046875
165, 3147236459, -4.614193439483643, -1.6447895765304565, 8.38113784790039, -0.22242067754268646, -0.7996669411659241, -1.155914068222046, -0.030517578125, 0.150146484375, -0.806884765625
166, 3147253126, -4.607557773590088, -1.6271777153015137, 8.370882034301758, -0.20385147631168365, -0.7388367652893066, -1.1170339584350586, -0.029541015625, 0.147705078125, -0.806884765625
167, 3147269793, -4.6086578369140625, -1.6405220031738281, 8.355901718139648, -0.24607403576374054, -0.782416820526123, -1.1486655473709106, -0.029541015625, 0.149658203125, -0.807861328125
168, 3147286460, -4.602217674255371, -1.646980881690979, 8.361133575439453, -0.14560818672180176, -0.7715184688568115, -1.0307830572128296, -0.032470703125, 0.149658203125, -0.805419921875
169, 3147303127, -4.614732265472412, -1.6478216648101807, 8.36436939239502, -0.04260673001408577, -0.6879443526268005, -1.028708577156067, -0.031005859375, 0.150634765625, -0.808349609375
170, 3147319794, -4.608493804931641, -1.626049518585205, 8.376341819763184, -0.12155787646770477, -0.8154827356338501, -1.047572135925293, -0.032958984375, 0.149658203125, -0.808837890625
171, 3147336461, -4.598241329193115, -1.629050374031067, 8.34382438659668, -0.17557506263256073, -0.8738925457000732, -1.0145829916000366, -0.030517578125, 0.149658203125, -0.806884765625
172, 3147353128, -4.589200496673584, -1.6378957033157349, 8.34341812133789, -0.1293313205242157, -0.9107491970062256, -0.9986135959625244, -0.032958984375, 0.149169921875, -0.807373046875
173, 3147369795, -4.594088077545166, -1.6373873949050903, 8.342166900634766, -0.21661940217018127, -0.8077989220619202, -1.06019926071167, -0.029541015625, 0.149658203125, -0.807373046875
174, 3147386462, -4.591854572296143, -1.628358006477356, 8.35414981842041, -0.13944192230701447, -0.7525075078010559, -1.0104529857635498, -0.031494140625, 0.148193359375, -0.805908203125
175, 3147403129, -4.596685886383057, -1.6422858238220215, 8.35513973236084, -0.10782945901155472, -0.7582895159721375, -1.081252932548523, -0.029541015625, 0.1513671875, -0.806396484375
176, 3147419796, -4.5871052742004395, -1.6393914222717285, 8.375920295715332, -0.22300979495048523, -0.7194863557815552, -0.9460435509681702, -0.031005859375, 0.149658203125, -0.805908203125
177, 3147436463, -4.590765953063965, -1.633374571800232, 8.345263481140137, -0.2141093611717224, -0.7096510529518127, -1.000739336013794, -0.029541015625, 0.147705078125, -0.807373046875
178, 3147453130, -4.593904495239258, -1.6233121156692505, 8.375008583068848, -0.0776192843914032, -0.6671851873397827, -0.9423424005508423, -0.032470703125, 0.146240234375, -0.804443359375
179, 3147469797, -4.606382369995117, -1.627563238143921, 8.357369422912598, -0.15924695134162903, -0.6551216840744019, -0.9946179389953613, -0.029541015625, 0.150146484375, -0.8046875
180, 3147486464, -4.582727432250977, -1.644360899925232, 8.376975059509277, -0.07053737342357635, -0.7450093626976013, -1.055435299873352, -0.031982421875, 0.150634765625, -0.808349609375
181, 3147503131, -4.598089218139648, -1.6388040781021118, 8.373937606811523, -0.142496258020401, -0.6822711825370789, -1.003159761428833, -0.031982421875, 0.151123046875, -0.807861328125
182, 3147519798, -4.589375972747803, -1.6409404277801514, 8.364890098571777, -0.24741870164871216, -0.7361090183258057, -1.0350347757339478, -0.031005859375, 0.149169921875, -0.808349609375
183, 3147536465, -4.596571922302246, -1.6329030990600586, 8.370585441589355, -0.24955731630325317, -0.6088907122612, -0.9604761600494385, -0.031494140625, 0.147705078125, -0.805908203125
184, 3147553132, -4.577447891235352, -1.6285946369171143, 8.350974082946777, -0.29327821731567383, -0.6446844339370728, -1.0612748861312866, -0.030517578125, 0.148681640625, -0.806884765625
185, 3147569799, -4.596960544586182, -1.6231807470321655, 8.364961624145508, -0.2733387053012848, -0.5769132971763611, -0.9669050574302673, -0.030517578125, 0.148681640625, -0.806884765625
186, 3147586466, -4.592033386230469, -1.6331477165222168, 8.36664867401123, -0.1580047458410263, -0.6131552457809448, -1.0301684141159058, -0.031005859375, 0.151123046875, -0.809326171875
187, 3147603133, -4.601922035217285, -1.6353564262390137, 8.374731063842773, -0.21779760718345642, -0.544910192489624, -1.0335493087768555, -0.031005859375, 0.150634765625, -0.808349609375
188, 3147619800, -4.59604549407959, -1.633535623550415, 8.384385108947754, -0.20569558441638947, -0.49380001425743103, -1.025686264038086, -0.031005859375, 0.148193359375, -0.807373046875
189, 3147636467, -4.585684776306152, -1.6372119188308716, 8.354023933410645, -0.2695736587047577, -0.5124589204788208, -1.0156588554382324, -0.031982421875, 0.147216796875, -0.806396484375
190, 3147653134, -4.602119445800781, -1.6215912103652954, 8.357091903686523, -0.2921687662601471, -0.3939597010612488, -1.0524120330810547, -0.030029296875, 0.148193359375, -0.805908203125
191, 3147669801, -4.593010425567627, -1.629549503326416, 8.353490829467773, -0.2697657644748688, -0.4678415358066559, -1.0445500612258911, -0.029052734375, 0.149169921875, -0.806396484375
192, 3147686468, -4.5955047607421875, -1.648240089416504, 8.355156898498535, -0.27912718057632446, -0.4636026620864868, -1.0018023252487183, -0.032958984375, 0.150634765625, -0.805419921875
193, 3147703135, -4.582830905914307, -1.6174938678741455, 8.354848861694336, -0.30349767208099365, -0.4685074985027313, -1.032985806465149, -0.030517578125, 0.150146484375, -0.806884765625
194, 3147719802, -4.595422744750977, -1.6310113668441772, 8.38015079498291, -0.2568953335285187, -0.5202963352203369, -1.0316026210784912, -0.031982421875, 0.151611328125, -0.807861328125
195, 3147736469, -4.613656520843506, -1.6308029890060425, 8.363747596740723, -0.274888277053833, -0.5150841474533081, -1.0452029705047607, -0.030517578125, 0.148193359375, -0.808349609375
196, 3147753136, -4.605430603027344, -1.6349592208862305, 8.356061935424805, -0.28791236877441406, -0.510461151599884, -1.0375961065292358, -0.031982421875, 0.147216796875, -0.806884765625
197, 3147769803, -4.601656913757324, -1.6401447057724, 8.348509788513184, -0.34218570590019226, -0.4999215006828308, -1.0578429698944092, -0.030517578125, 0.149658203125, -0.807373046875
198, 3147786470, -4.591107368469238, -1.630488634109497, 8.339887619018555, -0.3289566934108734, -0.519899308681488, -0.9879201650619507, -0.030517578125, 0.149169921875, -0.805908203125
199, 3147803137, -4.594472885131836, -1.6476213932037354, 8.350494384765625, -0.368617981672287, -0.53425532579422, -1.002750039100647, -0.031005859375, 0.150634765625, -0.806884765625
200, 3147819804, -4.597952365875244, -1.636196255683899, 8.370943069458008, -0.32361647486686707, -0.5024059414863586, -1.1454896926879883, -0.029541015625, 0.148193359375, -0.808349609375
201, 3147836471, -4.596946716308594, -1.6293325424194336, 8.3658447265625, -0.30340802669525146, -0.45475345849990845, -1.048571228981018, -0.030517578125, 0.149658203125, -0.805908203125
202, 3147853138, -4.609911918640137, -1.64338219165802, 8.35993480682373, -0.23954276740550995, -0.5584593415260315, -1.0413868427276611, -0.031005859375, 0.148193359375, -0.807373046875
203, 3147869805, -4.589138031005859, -1.6443017721176147, 8.36596965789795, -0.29382890462875366, -0.43450668454170227, -1.0443577766418457, -0.029541015625, 0.148681640625, -0.808349609375
204, 3147886472, -4.602640628814697, -1.6359000205993652, 8.374696731567383, -0.34145569801330566, -0.4381949007511139, -1.0128542184829712, -0.030517578125, 0.151123046875, -0.807373046875
205, 3147903139, -4.5995025634765625, -1.6329972743988037, 8.35501480102539, -0.3319021463394165, -0.5531575083732605, -1.0348683595657349, -0.030517578125, 0.150634765625, -0.806884765625
206, 3147919806, -4.595800876617432, -1.6382416486740112, 8.356983184814453, -0.2703932523727417, -0.5834188461303711, -0.9436485767364502, -0.028564453125, 0.15087890625, -0.809814453125
207, 3147936473, -4.588508129119873, -1.6458790302276611, 8.374571800231934, -0.29615962505340576, -0.5967631340026855, -0.9582223892211914, -0.028076171875, 0.149169921875, -0.80615234375
208, 3147953140, -4.5917792320251465, -1.637271761894226, 8.354061126708984, -0.2608141303062439, -0.6055994629859924, -0.9193294644355774, -0.028564453125, 0.150634765625, -0.807373046875
209, 3147969807, -4.58507776260376, -1.6679179668426514, 8.344879150390625, -0.27618172764778137, -0.6645854711532593, -0.9311368465423584, -0.031005859375, 0.150146484375, -0.806396484375
210, 3147986474, -4.583274841308594, -1.6062337160110474, 8.367974281311035, -0.22012834250926971, -0.5661174654960632, -0.9254763722419739, -0.031982421875, 0.148681640625, -0.807373046875
211, 3148003141, -4.596648216247559, -1.641283392906189, 8.378345489501953, -0.3431333303451538, -0.5531958937644958, -0.9973969459533691, -0.032470703125, 0.149658203125, -0.807861328125
212, 3148019808, -4.591361045837402, -1.6420044898986816, 8.374617576599121, -0.37016749382019043, -0.5383661389350891, -0.92997145652771, -0.032958984375, 0.151123046875, -0.807861328125
213, 3148036475, -4.608864784240723, -1.639057993888855, 8.368395805358887, -0.3021273910999298, -0.48769140243530273, -0.9724246263504028, -0.030029296875, 0.151123046875, -0.807373046875
214, 3148053142, -4.601659297943115, -1.6355609893798828, 8.382604598999023, -0.3456690013408661, -0.510230541229248, -0.9415484070777893, -0.030029296875, 0.15283203125, -0.805419921875
215, 3148069809, -4.592298984527588, -1.6363874673843384, 8.34853458404541, -0.37354838848114014, -0.42693808674812317, -1.02997624874115, -0.029541015625, 0.150146484375, -0.804931640625
216, 3148086476, -4.587981700897217, -1.644943118095398, 8.382478713989258, -0.4908161759376526, -0.4209959805011749, -1.0464708805084229, -0.031005859375, 0.150634765625, -0.807373046875
217, 3148103143, -4.592758655548096, -1.6260569095611572, 8.356619834899902, -0.4397956430912018, -0.4588899612426758, -1.0933676958084106, -0.031494140625, 0.150146484375, -0.808349609375
218, 3148119810, -4.607966423034668, -1.6497706174850464, 8.363083839416504, -0.5198481678962708, -0.4736812114715576, -1.1402133703231812, -0.030029296875, 0.150146484375, -0.807373046875
219, 3148136477, -4.590762615203857, -1.6394537687301636, 8.345416069030762, -0.5211416482925415, -0.47628098726272583, -1.0632728338241577, -0.029541015625, 0.147705078125, -0.806884765625
220, 3148153144, -4.611591815948486, -1.6351232528686523, 8.38559341430664, -0.5698185563087463, -0.5646063685417175, -1.1175973415374756, -0.031005859375, 0.149658203125, -0.806396484375
221, 3148169811, -4.588175296783447, -1.6642367839813232, 8.36298656463623, -0.34938281774520874, -0.5189772844314575, -0.9203667044639587, -0.030517578125, 0.150146484375, -0.806396484375
222, 3148186478, -4.592315673828125, -1.6334965229034424, 8.338610649108887, -0.3266771733760834, -0.43088242411613464, -0.9625764489173889, -0.031494140625, 0.15234375, -0.806884765625
223, 3148203145, -4.585620403289795, -1.6389974355697632, 8.373290061950684, -0.2840362787246704, -0.4353523552417755, -0.9642606973648071, -0.032470703125, 0.150146484375, -0.807373046875
224, 3148219812, -4.591032981872559, -1.6600555181503296, 8.381128311157227, -0.22914402186870575, -0.4032078981399536, -0.8622258305549622, -0.030517578125, 0.149169921875, -0.807373046875
225, 3148236479, -4.640859603881836, -1.6000783443450928, 8.362996101379395, -0.18466755747795105, -0.5917686223983765, -1.0327808856964111, -0.031005859375, 0.147705078125, -0.806396484375
226, 3148253146, -4.612173080444336, -1.6416152715682983, 8.38295841217041, -0.3342585265636444, -0.5022522211074829, -1.1156762838363647, -0.029052734375, 0.146728515625, -0.807373046875
227, 3148269813, -4.598924160003662, -1.6609514951705933, 8.370735168457031, -0.3149977922439575, -0.7046949863433838, -1.134706735610962, -0.030029296875, 0.147705078125, -0.808349609375
228, 3148286480, -4.612893104553223, -1.6276887655258179, 8.36725902557373, -0.22936172783374786, -0.784504234790802, -1.0767964124679565, -0.031005859375, 0.151123046875, -0.806884765625
229, 3148303147, -4.601823329925537, -1.6380966901779175, 8.34374713897705, -0.16070687770843506, -0.7673565149307251, -0.9765098094940186, -0.031494140625, 0.150146484375, -0.808349609375
230, 3148319814, -4.610969543457031, -1.6450846195220947, 8.329344749450684, -0.18884243071079254, -0.8473961353302002, -1.1084537506103516, -0.030029296875, 0.149658203125, -0.807861328125
231, 3148336481, -4.593641757965088, -1.640089750289917, 8.361482620239258, -0.13255853950977325, -0.7182953953742981, -1.0524131059646606, -0.030029296875, 0.147705078125, -0.807373046875
232, 3148353148, -4.592473030090332, -1.6483627557754517, 8.349802017211914, -0.1361827254295349, -0.8059931993484497, -1.0496084690093994, -0.031494140625, 0.150634765625, -0.806884765625
233, 3148369815, -4.595135688781738, -1.6348153352737427, 8.374709129333496, -0.1008756160736084, -0.8957016468048096, -1.129789113998413, -0.030029296875, 0.147705078125, -0.806884765625
234, 3148386482, -4.59592342376709, -1.640673279762268, 8.357646942138672, -0.09092508256435394, -0.9347224831581116, -1.064041018486023, -0.032470703125, 0.149169921875, -0.810791015625
235, 3148403149, -4.605175971984863, -1.6410069465637207, 8.39063549041748, -0.1813635379076004, -0.9225693345069885, -1.1432100534439087, -0.030029296875, 0.150146484375, -0.808837890625
236, 3148419816, -4.593393325805664, -1.6363943815231323, 8.349666595458984, -0.1780851036310196, -0.9130927920341492, -1.183127522468567, -0.030029296875, 0.149658203125, -0.806884765625
237, 3148436483, -4.593242168426514, -1.6363801956176758, 8.368000984191895, -0.45987600088119507, -0.9835020303726196, -1.230920672416687, -0.031982421875, 0.150146484375, -0.808349609375
238, 3148453150, -4.569982051849365, -1.6526411771774292, 8.359333992004395, -0.4390720725059509, -0.9440137147903442, -1.1865276098251343, -0.030029296875, 0.148193359375, -0.806396484375
239, 3148469817, -4.5817437171936035, -1.618970513343811, 8.367006301879883, -0.42958900332450867, -0.812562882900238, -1.2576091289520264, -0.031982421875, 0.150146484375, -0.807861328125
240, 3148486484, -4.572815418243408, -1.6497479677200317, 8.380541801452637, -0.47717735171318054, -0.8641982078552246, -1.1747777462005615, -0.031982421875, 0.151611328125, -0.807861328125
241, 3148503151, -4.56074333190918, -1.660005807876587, 8.378162384033203, -0.3885190486907959, -0.6688244938850403, -1.1501511335372925, -0.031005859375, 0.150146484375, -0.811279296875
242, 3148519818, -4.599532127380371, -1.632455825805664, 8.356379508972168, -0.3470648527145386, -0.5070801973342896, -1.0152617692947388, -0.031494140625, 0.151123046875, -0.808349609375
243, 3148536485, -4.557808876037598, -1.6614075899124146, 8.350386619567871, -0.1267700493335724, -0.5919094681739807, -0.9228254556655884, -0.031982421875, 0.150146484375, -0.805908203125
244, 3148553152, -4.581650733947754, -1.638063907623291, 8.345685958862305, -0.16624560952186584, -0.48407360911369324, -0.886705219745636, -0.029541015625, 0.149169921875, -0.808349609375
245, 3148569819, -4.582022666931152, -1.644716739654541, 8.369843482971191, -0.0235124584287405, -0.35747644305229187, -0.8468070030212402, -0.030517578125, 0.150146484375, -0.806884765625
246, 3148586486, -4.587339878082275, -1.631811261177063, 8.385952949523926, -0.022577594965696335, -0.2783588469028473, -0.8927435278892517, -0.031005859375, 0.151611328125, -0.803955078125
247, 3148603153, -4.5944037437438965, -1.6572564840316772, 8.362115859985352, -0.022321466356515884, -0.39274507761001587, -0.8615855574607849, -0.031982421875, 0.150634765625, -0.806396484375
248, 3148619820, -4.584746837615967, -1.6486560106277466, 8.37418270111084, 0.05735323205590248, -0.42048364877700806, -0.7446891665458679, -0.028564453125, 0.148681640625, -0.807861328125
249, 3148636487, -4.574811935424805, -1.6376827955245972, 8.390357971191406, 0.1098976880311966, -0.4429716169834137, -0.7537176609039307, -0.031494140625, 0.149169921875, -0.806884765625
250, 3148653154, -4.597504138946533, -1.632641077041626, 8.374755859375, 0.08616111427545547, -0.4448605477809906, -0.824824869632721, -0.032470703125, 0.148193359375, -0.807861328125
251, 3148669821, -4.588005065917969, -1.6392349004745483, 8.356306076049805, 0.21083731949329376, -0.5033791661262512, -0.7553696632385254, -0.026611328125, 0.1513671875, -0.808349609375
252, 3148686488, -4.5956315994262695, -1.6370753049850464, 8.354031562805176, 0.266865074634552, -0.43660685420036316, -0.7621827125549316, -0.030517578125, 0.148681640625, -0.806884765625
253, 3148703155, -4.591139316558838, -1.624472737312317, 8.356324195861816, 0.13588178157806396, -0.44391930103302, -0.7351100444793701, -0.031005859375, 0.149169921875, -0.805419921875
254, 3148719822, -4.603818416595459, -1.6333826780319214, 8.356344223022461, 0.1760936975479126, -0.4916485548019409, -0.8050071001052856, -0.031005859375, 0.151123046875, -0.808837890625
255, 3148736489, -4.603054523468018, -1.618415355682373, 8.337839126586914, 0.06483213603496552, -0.503289520740509, -0.7803035974502563, -0.030029296875, 0.149169921875, -0.807861328125
256, 3148753156, -4.600700378417969, -1.6235250234603882, 8.40197467803955, 0.04398340731859207, -0.5806527137756348, -0.7824806571006775, -0.031982421875, 0.150146484375, -0.805419921875
257, 3148769823, -4.559171199798584, -1.6552296876907349, 8.347468376159668, 0.06840921193361282, -0.5433034896850586, -0.7492035031318665, -0.033935546875, 0.148681640625, -0.809326171875
258, 3148786490, -4.591859817504883, -1.6113189458847046, 8.395296096801758, 0.022391902282834053, -0.5351133942604065, -0.8749939203262329, -0.031494140625, 0.148193359375, -0.809814453125
259, 3148803157, -4.619278907775879, -1.625643014907837, 8.370089530944824, 0.03517264127731323, -0.6350669264793396, -0.8887351155281067, -0.031005859375, 0.149658203125, -0.807373046875
260, 3148819824, -4.621147632598877, -1.6229264736175537, 8.353726387023926, -0.09434438496828079, -0.7115336656570435, -0.9616288542747498, -0.029541015625, 0.148193359375, -0.806884765625
261, 3148836491, -4.602391719818115, -1.619376540184021, 8.371139526367188, -0.3850357234477997, -0.6308280229568481, -1.0834044218063354, -0.031005859375, 0.148681640625, -0.805908203125
262, 3148853158, -4.596747398376465, -1.6246329545974731, 8.361552238464355, -0.657503604888916, -0.5943427085876465, -1.1831786632537842, -0.032470703125, 0.148681640625, -0.806396484375
263, 3148869825, -4.571908950805664, -1.6346584558486938, 8.350744247436523, -0.8335141539573669, -0.4593124985694885, -1.2890104055404663, -0.030517578125, 0.149169921875, -0.807861328125
264, 3148886492, -4.60689115524292, -1.6458029747009277, 8.351377487182617, -0.4512317478656769, -0.5858137011528015, -1.119915246963501, -0.031005859375, 0.148681640625, -0.806396484375
265, 3148903159, -4.598320960998535, -1.6250922679901123, 8.355913162231445, -0.11606393754482269, -0.5266355276107788, -0.9798778295516968, -0.031494140625, 0.1513671875, -0.809814453125
266, 3148919826, -4.592537879943848, -1.614542007446289, 8.375561714172363, 0.039603639394044876, -0.960476279258728, -0.9683136940002441, -0.030029296875, 0.149658203125, -0.806396484375
267, 3148936493, -4.5988383293151855, -1.6300532817840576, 8.361400604248047, -0.5046725869178772, -0.6608332395553589, -1.2897530794143677, -0.032470703125, 0.149658203125, -0.805908203125
268, 3148953160, -4.5986714363098145, -1.6164660453796387, 8.393762588500977, -0.35623419284820557, -0.7891656756401062, -1.1358846426010132, -0.030029296875, 0.147705078125, -0.808349609375
269, 3148969827, -4.591188430786133, -1.6305676698684692, 8.38762092590332, -0.49934515357017517, -0.7200241684913635, -1.3381098508834839, -0.030029296875, 0.149658203125, -0.809326171875
270, 3148986494, -4.610121250152588, -1.6170035600662231, 8.389774322509766, -0.4511164426803589, -0.8009475469589233, -1.2441880702972412, -0.031005859375, 0.149169921875, -0.807861328125
271, 3149003161, -4.619217395782471, -1.6208575963974, 8.375107765197754, -0.36152324080467224, -0.9514989256858826, -1.24770987033844, -0.032958984375, 0.149169921875, -0.808837890625
272, 3149019828, -4.599292278289795, -1.6509977579116821, 8.353172302246094, -0.25188809633255005, -1.110464096069336, -1.2396035194396973, -0.031005859375, 0.150146484375, -0.806884765625
273, 3149036495, -4.58642578125, -1.6273555755615234, 8.363607406616211, -0.3255886435508728, -1.2252219915390015, -1.2100592851638794, -0.031005859375, 0.150634765625, -0.807373046875
274, 3149053162, -4.5810465812683105, -1.6715357303619385, 8.337159156799316, -0.11989305913448334, -1.313150405883789, -1.1725622415542603, -0.031982421875, 0.149658203125, -0.806884765625
275, 3149069829, -4.566762924194336, -1.6530841588974, 8.360982894897461, -0.157466858625412, -1.343654990196228, -1.1056617498397827, -0.031982421875, 0.148193359375, -0.806396484375
276, 3149086496, -4.583766460418701, -1.647641658782959, 8.3644437789917, -0.061829060316085815, -1.3613791465759277, -0.9909298419952393, -0.032958984375, 0.149169921875, -0.808837890625
277, 3149103163, -4.576368808746338, -1.652713418006897, 8.383463859558105, 0.1629992127418518, -1.287243127822876, -0.9154106974601746, -0.032470703125, 0.150146484375, -0.810791015625
278, 3149119830, -4.569380760192871, -1.6407699584960938, 8.357789039611816, 0.39587628841400146, -1.3027257919311523, -0.798104465007782, -0.032470703125, 0.148681640625, -0.809814453125
279, 3149136497, -4.573122024536133, -1.6390241384506226, 8.357636451721191, 0.5686723589897156, -1.3960458040237427, -0.7170659303665161, -0.031494140625, 0.148193359375, -0.807861328125
280, 3149153164, -4.579708576202393, -1.610237956047058, 8.410029411315918, 0.4822615683078766, -1.2896122932434082, -0.691978394985199, -0.033447265625, 0.150146484375, -0.809326171875
281, 3149169831, -4.57003116607666, -1.6150052547454834, 8.359959602355957, 0.3194991648197174, -1.0203843116760254, -0.7714800238609314, -0.034423828125, 0.148681640625, -0.807861328125
282, 3149186498, -4.592674255371094, -1.6482173204421997, 8.357009887695312, 0.2411883920431137, -0.9623587131500244, -0.7875648140907288, -0.031494140625, 0.150146484375, -0.809326171875
283, 3149203165, -4.603727340698242, -1.6382399797439575, 8.369180679321289, -0.11462964117527008, -1.0342793464660645, -0.6968831419944763, -0.031005859375, 0.149169921875, -0.809326171875
284, 3149219832, -4.547964572906494, -1.6353338956832886, 8.345102310180664, -0.19966378808021545, -0.7611581683158875, -0.6102738380432129, -0.033447265625, 0.148681640625, -0.808837890625
285, 3149236499, -4.544014930725098, -1.6249785423278809, 8.362395286560059, -0.010744527913630009, -0.492916464805603, -0.4512445628643036, -0.033447265625, 0.147216796875, -0.807861328125
286, 3149253166, -4.544544219970703, -1.6231045722961426, 8.368746757507324, -0.06941041350364685, -0.0375354066491127, -0.24168141186237335, -0.031494140625, 0.149658203125, -0.808837890625
287, 3149269833, -4.520394802093506, -1.5628811120986938, 8.418388366699219, -1.2627317905426025, 1.208516240119934, -0.2266339808702469, -0.032470703125, 0.146240234375, -0.807861328125
288, 3149286500, -4.421419143676758, -1.5722153186798096, 8.413437843322754, -3.042750358581543, 2.155616044998169, -0.5548350811004639, -0.029541015625, 0.15234375, -0.807373046875
289, 3149303167, -4.360648155212402, -1.639945149421692, 8.48127555847168, -6.278557300567627, 4.54918098449707, -0.6652259826660156, -0.030029296875, 0.150146484375, -0.807373046875
290, 3149319834, -4.305119514465332, -1.643380045890808, 8.605975151062012, -9.762056350708008, 10.172724723815918, -0.03954603895545006, -0.028076171875, 0.15234375, -0.808349609375
291, 3149336501, -3.6222939491271973, -1.7662134170532227, 8.436253547668457, -6.287747383117676, 25.332496643066406, 4.9305925369262695, -0.025634765625, 0.15185546875, -0.8056640625
292, 3149353168, -2.7691097259521484, -2.0999114513397217, 9.252448081970215, -7.636419773101807, 60.999183654785156, 17.68558692932129, -0.011474609375, 0.15234375, -0.808349609375
293, 3149369835, -3.5375194549560547, -2.154148578643799, 9.664985656738281, -5.711421012878418, 94.7221450805664, 29.514179229736328, 0.00830078125, 0.154541015625, -0.8046875
294, 3149386502, -4.42790412902832, -1.6785584688186646, 10.709972381591797, -12.926769256591797, 121.63374328613281, 46.73200988769531, 0.038818359375, 0.156494140625, -0.800048828125
295, 3149403169, -5.584503173828125, -4.232998847961426, 11.506515502929688, -8.161383628845215, 125.46597290039062, 63.59055709838867, 0.072509765625, 0.15966796875, -0.79736328125
296, 3149419836, -3.769280433654785, -4.0036420822143555, 13.864163398742676, 21.394344329833984, 97.59957122802734, 80.5941162109375, 0.10400390625, 0.1533203125, -0.791015625
297, 3149436503, -5.266688823699951, -2.9408907890319824, 17.306650161743164, 33.055171966552734, 50.25599670410156, 86.196533203125, 0.125244140625, 0.137939453125, -0.78955078125
298, 3149453170, 0.7815679907798767, -5.104984760284424, 12.779770851135254, 15.36375617980957, 13.20379638671875, 71.55561065673828, 0.138916015625, 0.132568359375, -0.7802734375
299, 3149469837, 1.956215739250183, -5.567813396453857, 11.197325706481934, 14.76773452758789, 9.51927661895752, 52.62771987915039, 0.15283203125, 0.125244140625, -0.77685546875
300, 3149486504, 2.0055787563323975, -5.636909484863281, 11.682527542114258, 3.6374142169952393, -4.856664180755615, 22.720783233642578, 0.157470703125, 0.12158203125, -0.774169921875
301, 3149503171, 2.763422966003418, -5.2312140464782715, 10.668449401855469, -4.222800254821777, -23.35674476623535, -8.257308959960938, 0.1650390625, 0.11962890625, -0.765625
302, 3149519838, 2.7672321796417236, -4.006433963775635, 10.028421401977539, -7.240384578704834, -37.4205322265625, -28.779558181762695, 0.16845703125, 0.11962890625, -0.759033203125
303, 3149536505, 2.396972179412842, -3.2683627605438232, 9.84240436553955, -10.22045612335205, -49.20439147949219, -38.69969177246094, 0.16650390625, 0.1201171875, -0.75537109375
304, 3149553172, 1.3363544940948486, -3.1287026405334473, 10.27091121673584, -14.248148918151855, -60.811676025390625, -46.3602294921875, 0.165771484375, 0.125244140625, -0.75341796875
305, 3149569839, -0.05144582688808441, -3.012141227722168, 10.769320487976074, -17.93716049194336, -76.04419708251953, -55.92206954956055, 0.160400390625, 0.128173828125, -0.755126953125
306, 3149586506, -1.489316463470459, -2.5878334045410156, 11.185908317565918, -21.61009979248047, -93.61920166015625, -65.32044982910156, 0.154296875, 0.13671875, -0.7607421875
307, 3149603173, -2.328113317489624, -2.1646547317504883, 10.800424575805664, -24.565195083618164, -109.8015365600586, -69.58138275146484, 0.138671875, 0.147216796875, -0.769287109375
308, 3149619840, -3.1826815605163574, -1.6483086347579956, 10.763416290283203, -25.11298370361328, -117.84721374511719, -67.69291687011719, 0.121826171875, 0.16015625, -0.775146484375
309, 3149636507, -4.66301965713501, -1.3057787418365479, 11.603708267211914, -28.60283660888672, -126.0953369140625, -61.91533660888672, 0.101318359375, 0.175537109375, -0.784912109375
310, 3149653174, -5.681139945983887, -1.1518296003341675, 11.714425086975098, -36.49961853027344, -139.500732421875, -54.92721939086914, 0.071533203125, 0.19189453125, -0.79443359375
311, 3149669841, -5.612386703491211, -1.1821403503417969, 10.492469787597656, -39.057132720947266, -145.7169189453125, -45.0379638671875, 0.037353515625, 0.209228515625, -0.803955078125
312, 3149686508, -6.088430881500244, -1.1957467794418335, 10.112702369689941, -36.484012603759766, -144.11204528808594, -32.33816909790039, 2.44140625E-4, 0.224365234375, -0.812255859375
313, 3149703175, -7.1157965660095215, -1.4738909006118774, 10.301507949829102, -35.36204528808594, -143.0574951171875, -21.861894607543945, -0.038818359375, 0.23583984375, -0.817626953125
314, 3149719842, -7.897489547729492, -1.7454888820648193, 9.935367584228516, -34.845672607421875, -146.31361389160156, -16.35945701599121, -0.083251953125, 0.2490234375, -0.816650390625
315, 3149736509, -7.9038777351379395, -1.5993314981460571, 8.616525650024414, -38.19520568847656, -144.44920349121094, -15.271608352661133, -0.12353515625, 0.2607421875, -0.81396484375
316, 3149753176, -7.689492702484131, -1.5585522651672363, 7.277630805969238, -40.57512283325195, -133.48056030273438, -15.064026832580566, -0.16259765625, 0.272216796875, -0.80224609375
317, 3149769843, -7.555792331695557, -1.3586539030075073, 6.126875877380371, -33.471405029296875, -115.685302734375, -11.679993629455566, -0.193115234375, 0.280029296875, -0.794921875
318, 3149786510, -7.272971153259277, -0.5914322733879089, 4.8759989738464355, -22.503034591674805, -92.25949096679688, -4.352825164794922, -0.220703125, 0.287353515625, -0.78759765625
319, 3149803177, -7.943561553955078, 0.2546781301498413, 4.911514759063721, -19.438886642456055, -67.06311798095703, 3.3323652744293213, -0.240234375, 0.289794921875, -0.779052734375
320, 3149819844, -9.035699844360352, 0.47008001804351807, 5.0598249435424805, -27.039514541625977, -53.06260681152344, 4.832569122314453, -0.250244140625, 0.298095703125, -0.773193359375
321, 3149836511, -8.95034122467041, 0.23157331347465515, 3.8380439281463623, -24.84575843811035, -41.888668060302734, 5.1425933837890625, -0.26318359375, 0.302001953125, -0.762939453125
322, 3149853178, -8.408821105957031, 0.10501369833946228, 2.238114595413208, -5.765633583068848, -20.152158737182617, 8.690768241882324, -0.268310546875, 0.306640625, -0.761962890625
323, 3149869845, -8.743453025817871, 0.19040034711360931, 2.082021713256836, 8.730537414550781, 10.245965003967285, 10.107656478881836, -0.267822265625, 0.306396484375, -0.761474609375
324, 3149886512, -9.388726234436035, -0.33578231930732727, 2.645702362060547, 10.612651824951172, 36.21318054199219, 2.1533420085906982, -0.2626953125, 0.30615234375, -0.765869140625
325, 3149903179, -6.240586757659912, -2.6967079639434814, 2.376354694366455, 34.96521759033203, 60.28156280517578, -3.9253158569335938, -0.249267578125, 0.30126953125, -0.770751953125
326, 3149919846, 1.1676806211471558, -2.2535297870635986, 7.098255157470703, 103.7216567993164, 67.3274917602539, 33.82096862792969, -0.233154296875, 0.283203125, -0.7822265625
327, 3149936513, 5.637795448303223, -6.299650192260742, 15.783849716186523, 22.30024528503418, 142.32870483398438, 3.6798088550567627, -0.205810546875, 0.27294921875, -0.794189453125
328, 3149953180, -3.4317235946655273, -1.8009676933288574, 8.633672714233398, 0.31931057572364807, 160.80274963378906, 0.5751919746398926, -0.16650390625, 0.273193359375, -0.801513671875
329, 3149969847, -6.837224006652832, 7.308106899261475, 12.349088668823242, -9.37414836883545, 163.67367553710938, 27.257549285888672, -0.124755859375, 0.275146484375, -0.8095703125
330, 3149986514, -8.11617660522461, -0.016306743025779724, 13.320582389831543, -30.526933670043945, 140.45362854003906, 34.06462097167969, -0.087890625, 0.282470703125, -0.81201171875
331, 3150003181, -6.806173324584961, -5.292707443237305, 10.18311595916748, -40.5911750793457, 131.25807189941406, 11.10128116607666, -0.05859375, 0.29345703125, -0.8115234375
332, 3150019848, -7.126799583435059, -3.313053607940674, 10.686053276062012, -35.88856887817383, 108.54241943359375, 6.900885581970215, -0.02734375, 0.30126953125, -0.811767578125
333, 3150036515, -5.0139899253845215, -4.1741485595703125, 8.714649200439453, -23.63133430480957, 87.97600555419922, 11.379439353942871, -0.007080078125, 0.306884765625, -0.81103515625
334, 3150053182, -5.0017008781433105, -3.9017906188964844, 8.545170783996582, -12.440556526184082, 79.0907974243164, 13.836217880249023, 0.016845703125, 0.313232421875, -0.81005859375
335, 3150069849, -6.7291765213012695, -4.318109512329102, 9.189209938049316, 10.853984832763672, 63.0886344909668, 22.295900344848633, 0.033935546875, 0.313720703125, -0.812744140625
336, 3150086516, -6.072375774383545, -3.058283805847168, 8.923761367797852, 45.35911560058594, 38.78944396972656, 30.677669525146484, 0.048828125, 0.304931640625, -0.81201171875
337, 3150103183, -5.508537769317627, -1.9114460945129395, 9.533108711242676, 50.614749908447266, 29.62397575378418, 29.404781341552734, 0.05908203125, 0.2900390625, -0.819091796875
338, 3150119850, -5.260156631469727, -1.0018235445022583, 9.498006820678711, 50.21000671386719, 17.115102767944336, 27.370014190673828, 0.064208984375, 0.27783203125, -0.822021484375
339, 3150136517, -4.724906921386719, -1.9541316032409668, 8.948410987854004, 44.35329055786133, 10.605328559875488, 22.8500919342041, 0.071044921875, 0.266357421875, -0.8271484375
340, 3150153184, -4.257241249084473, -2.3679404258728027, 8.419260025024414, 36.80997085571289, 5.945710182189941, 17.862539291381836, 0.071533203125, 0.2568359375, -0.830078125
341, 3150169851, -4.422325611114502, -2.352106809616089, 8.444704055786133, 31.080766677856445, 5.81221866607666, 15.339493751525879, 0.078857421875, 0.246826171875, -0.830322265625
342, 3150186518, -4.587927341461182, -2.1490724086761475, 8.736869812011719, 25.80263900756836, 6.379419803619385, 13.197490692138672, 0.079345703125, 0.24072265625, -0.830810546875
343, 3150203185, -4.930491924285889, -1.9503320455551147, 8.733826637268066, 16.73733901977539, 2.2885427474975586, 10.942061424255371, 0.080322265625, 0.23583984375, -0.831787109375
344, 3150219852, -4.602766990661621, -1.8177204132080078, 8.521717071533203, 9.023763656616211, 0.5814790725708008, 10.336645126342773, 0.08203125, 0.232421875, -0.833740234375
345, 3150236519, -4.727808952331543, -1.645930528640747, 8.50291919708252, 6.80856990814209, -1.7218784093856812, 9.484867095947266, 0.08251953125, 0.230712890625, -0.833251953125
346, 3150253186, -4.538005352020264, -1.5532560348510742, 8.432876586914062, 6.747910976409912, -2.7482049465179443, 8.435417175292969, 0.08154296875, 0.229736328125, -0.836669921875
347, 3150269853, -4.655892372131348, -1.2527602910995483, 8.497620582580566, 6.504941940307617, -2.501631498336792, 7.07596492767334, 0.0830078125, 0.226318359375, -0.837646484375
348, 3150286520, -4.743180751800537, -1.4218628406524658, 8.452823638916016, 3.164398193359375, -1.9567722082138062, 4.692579746246338, 0.083984375, 0.227294921875, -0.838623046875
349, 3150303187, -4.691777229309082, -1.6345783472061157, 8.384695053100586, 1.57666015625, -1.7559683322906494, 3.7790446281433105, 0.0849609375, 0.224365234375, -0.837646484375
350, 3150319854, -4.635246753692627, -1.8127050399780273, 8.366897583007812, 3.429790496826172, -2.6798312664031982, 4.768489360809326, 0.085205078125, 0.223388671875, -0.8310546875
351, 3150336521, -4.649778842926025, -1.8521440029144287, 8.351564407348633, 6.241260528564453, -3.9091908931732178, 6.826830863952637, 0.083984375, 0.22265625, -0.838134765625
352, 3150353188, -4.6719865798950195, -1.5858595371246338, 8.37023639678955, 7.6138458251953125, -4.442909240722656, 7.735595703125, 0.08251953125, 0.22021484375, -0.838623046875
353, 3150369855, -4.554938793182373, -1.4611862897872925, 8.451154708862305, 6.8496904373168945, -3.392902374267578, 7.013803482055664, 0.083251953125, 0.21826171875, -0.837646484375
354, 3150386522, -4.421080112457275, -1.5180057287216187, 8.462847709655762, 6.032272815704346, -1.7248109579086304, 6.600017070770264, 0.081298828125, 0.21630859375, -0.8408203125
355, 3150403189, -4.4161787033081055, -1.479864478111267, 8.45914077758789, 4.088587760925293, 1.0489617586135864, 6.829966068267822, 0.083740234375, 0.21728515625, -0.839599609375
356, 3150419856, -4.453897476196289, -1.3724052906036377, 8.432847023010254, 1.0909924507141113, 5.423727512359619, 6.980633735656738, 0.084716796875, 0.21630859375, -0.840087890625
357, 3150436523, -4.442917346954346, -1.3714725971221924, 8.48979377746582, -0.19756366312503815, 10.719017028808594, 5.812479019165039, 0.088623046875, 0.2138671875, -0.839599609375
358, 3150453190, -4.421194076538086, -1.4478733539581299, 8.534012794494629, -0.12119389325380325, 17.3635196685791, 5.47933292388916, 0.091796875, 0.212646484375, -0.83740234375
359, 3150469857, -4.4749250411987305, -1.4937094449996948, 8.47984790802002, 0.25749143958091736, 24.527639389038086, 6.966944694519043, 0.09716796875, 0.2138671875, -0.8388671875
360, 3150486524, -4.600322723388672, -1.2459964752197266, 8.47210693359375, -2.1461424827575684, 34.668556213378906, 7.153453350067139, 0.105712890625, 0.2158203125, -0.837646484375
361, 3150503191, -4.086512088775635, -0.8670462965965271, 8.639291763305664, -11.12335205078125, 52.951995849609375, 5.412960529327393, 0.1181640625, 0.217041015625, -0.8349609375
362, 3150519858, -4.481423854827881, -1.218091368675232, 8.526836395263672, -18.971580505371094, 78.0245361328125, 5.76662015914917, 0.136962890625, 0.22021484375, -0.83154296875
363, 3150536525, -4.661672115325928, -1.5554300546646118, 8.341026306152344, -18.70199966430664, 102.29752349853516, 9.480578422546387, 0.158935546875, 0.222412109375, -0.82421875
364, 3150553192, -4.9598917961120605, -1.530221939086914, 8.057729721069336, -18.51211929321289, 126.67530059814453, 11.651224136352539, 0.189208984375, 0.22705078125, -0.818115234375
365, 3150569859, -5.232187271118164, -1.390565037727356, 7.892756462097168, -17.123266220092773, 151.323974609375, 11.033275604248047, 0.22412109375, 0.232421875, -0.806884765625
366, 3150586526, -5.489716529846191, -0.9240176677703857, 7.739018440246582, -19.771347045898438, 178.07191467285156, 5.634297847747803, 0.263427734375, 0.236328125, -0.7939453125
367, 3150603193, -5.859279155731201, -0.4826931953430176, 7.804843902587891, -28.35357093811035, 205.28451538085938, -6.631965637207031, 0.308837890625, 0.23828125, -0.775146484375
368, 3150619860, -5.847339630126953, -1.5193625688552856, 8.164825439453125, -24.087980270385742, 228.3785400390625, -9.078346252441406, 0.35693359375, 0.248046875, -0.7509765625
369, 3150636527, -5.854535102844238, -1.8933340311050415, 7.073498249053955, -15.104863166809082, 272.35565185546875, 0.21982097625732422, 0.41162109375, 0.25146484375, -0.719482421875
370, 3150653194, -6.160617828369141, -2.5223679542541504, 6.850599765777588, -1.841819405555725, 337.0716247558594, 18.893428802490234, 0.47802734375, 0.24951171875, -0.6767578125
371, 3150669861, -6.454913139343262, -3.8276407718658447, 8.144454002380371, 4.036436080932617, 413.9359130859375, 45.56227493286133, 0.555908203125, 0.241943359375, -0.617919921875
372, 3150686528, -10.938015937805176, -3.536607027053833, 8.615595817565918, 4.949501991271973, 465.7308654785156, 90.23895263671875, 0.63427734375, 0.22705078125, -0.5380859375
373, 3150703195, -17.631980895996094, -2.318791389465332, 10.187575340270996, -5.893763065338135, 460.5622253417969, 107.50209045410156, 0.70947265625, 0.207275390625, -0.44091796875
374, 3150719862, -17.7922420501709, -3.978036642074585, 9.229255676269531, 0.3161175549030304, 442.6413269042969, 101.29841613769531, 0.76171875, 0.180419921875, -0.343994140625
375, 3150736529, -17.252811431884766, -5.214700698852539, 10.600403785705566, 15.99478530883789, 418.5417175292969, 107.67596435546875, 0.805419921875, 0.15478515625, -0.24755859375
376, 3150753196, -13.821938514709473, -5.063004970550537, 14.822592735290527, 26.219926834106445, 366.6181640625, 105.73857116699219, 0.826171875, 0.125732421875, -0.154052734375
377, 3150769863, -6.636740684509277, -2.2375071048736572, 17.35918617248535, 0.12711948156356812, 216.68228149414062, 64.17024230957031, 0.833251953125, 0.10546875, -0.08544921875
378, 3150786530, -27.778564453125, -3.6515161991119385, 25.203582763671875, -56.20723342895508, 76.35320281982422, 70.21331787109375, 0.832763671875, 0.085205078125, -0.05419921875
379, 3150803197, -10.590120315551758, -6.788815021514893, 19.99522590637207, -102.40087127685547, -156.42141723632812, -27.57110023498535, 0.820068359375, 0.086669921875, -0.067138671875
380, 3150819864, -1.1420490741729736, -6.242854595184326, 8.19227409362793, -53.025997161865234, -228.5159912109375, -22.594680786132812, 0.812744140625, 0.08935546875, -0.099853515625
381, 3150836531, 0.5906716585159302, -4.2412428855896, 4.255402565002441, 3.083685874938965, -214.27919006347656, -5.319902420043945, 0.813232421875, 0.086669921875, -0.1298828125
382, 3150853198, -0.853203296661377, -4.534767150878906, 5.410556316375732, 47.28540802001953, -197.33819580078125, -9.186101913452148, 0.824951171875, 0.080322265625, -0.15478515625
383, 3150869865, -4.66777229309082, -5.12096643447876, 8.171717643737793, 72.23980712890625, -226.19032287597656, -32.203765869140625, 0.854736328125, 0.082275390625, -0.2001953125
384, 3150886532, -7.5561628341674805, -4.344995975494385, 8.94365119934082, 74.39069366455078, -287.6772155761719, -70.20817565917969, 0.878662109375, 0.091796875, -0.288818359375
385, 3150903199, -7.641360282897949, -2.180880308151245, 7.30190372467041, 62.514408111572266, -337.01507568359375, -88.30912017822266, 0.87353515625, 0.10302734375, -0.4228515625
386, 3150919866, -7.41373348236084, -0.7024749517440796, 5.712337970733643, 43.095455169677734, -361.4302062988281, -72.81217193603516, 0.811767578125, 0.105224609375, -0.564697265625
387, 3150936533, -7.194190502166748, -0.04386639595031738, 4.775637149810791, 20.96862030029297, -356.2330627441406, -49.03779602050781, 0.717041015625, 0.106201171875, -0.677490234375
388, 3150953200, -8.51865005493164, -0.8686390519142151, 5.750410079956055, -1.3993711471557617, -343.0383605957031, -29.775680541992188, 0.604736328125, 0.119384765625, -0.737060546875
389, 3150969867, -10.839202880859375, -2.679910898208618, 7.582269668579102, -13.910487174987793, -347.6142578125, -21.091697692871094, 0.518310546875, 0.138916015625, -0.762939453125
390, 3150986534, -11.57565689086914, -3.279930830001831, 7.454262733459473, -18.664165496826172, -358.48040771484375, -28.283849716186523, 0.45556640625, 0.158935546875, -0.796630859375
391, 3151003201, -11.070384979248047, -1.8970526456832886, 5.87423038482666, -34.65419006347656, -329.82830810546875, -38.389766693115234, 0.389404296875, 0.1787109375, -0.855712890625
392, 3151019868, -12.285502433776855, -0.9708575010299683, 7.306640625, -61.9086799621582, -270.2926025390625, -41.77251052856445, 0.29443359375, 0.20263671875, -0.91064453125
393, 3151036535, -16.818174362182617, -1.0650984048843384, 12.779130935668945, -90.6647720336914, -254.5758819580078, -44.6480827331543, 0.180908203125, 0.227783203125, -0.923583984375
394, 3151053202, -17.493785858154297, -1.186937928199768, 12.24116325378418, -94.7779541015625, -271.96051025390625, -32.50660705566406, 0.07470703125, 0.251953125, -0.9033203125
395, 3151069869, -19.12485122680664, -1.597754716873169, 10.839614868164062, -86.8237075805664, -282.76055908203125, -17.454204559326172, -0.009765625, 0.269775390625, -0.87255859375
396, 3151086536, -20.748167037963867, -1.3363025188446045, 7.800408363342285, -79.51932525634766, -285.1235656738281, -21.69614601135254, -0.0830078125, 0.28466796875, -0.844970703125
397, 3151103203, -21.4941349029541, 0.551133930683136, 4.251782417297363, -82.36200714111328, -265.2043151855469, -28.601594924926758, -0.14794921875, 0.294677734375, -0.81787109375
398, 3151119870, -21.035114288330078, 1.6374256610870361, 1.450889229774475, -90.04417419433594, -231.0660400390625, -33.95894241333008, -0.199951171875, 0.30859375, -0.788818359375
399, 3151136537, -20.26688003540039, 1.742488145828247, -1.2712453603744507, -73.93657684326172, -190.64425659179688, -42.60938262939453, -0.244140625, 0.31787109375, -0.76025390625
400, 3151153204, -20.1058349609375, 3.344064474105835, -3.800858974456787, -36.96323013305664, -141.76937866210938, -57.869510650634766, -0.278076171875, 0.323486328125, -0.73876953125
401, 3151169871, -20.323997497558594, 6.208114147186279, -7.082588195800781, -10.763814926147461, -89.24554443359375, -58.74547576904297, -0.304931640625, 0.318115234375, -0.727783203125
402, 3151186538, -18.941741943359375, 5.423860549926758, -9.650992393493652, 9.946260452270508, -16.223268508911133, -42.088539123535156, -0.3173828125, 0.310546875, -0.723388671875
403, 3151203205, -9.338506698608398, 2.1928958892822266, -6.295111179351807, 115.84336853027344, 98.39332580566406, 12.352897644042969, -0.300537109375, 0.29052734375, -0.734619140625
404, 3151219872, 7.711944580078125, -2.38274884223938, 21.592117309570312, 17.291513442993164, 140.60667419433594, -15.66225528717041, -0.2734375, 0.27783203125, -0.745849609375
405, 3151236539, -2.191030979156494, 2.1525745391845703, 7.354138374328613, -12.500746726989746, 195.82884216308594, 25.283035278320312, -0.23193359375, 0.277099609375, -0.755126953125
406, 3151253206, -9.122261047363281, 10.824951171875, 13.596709251403809, -31.48318099975586, 211.769287109375, 38.459632873535156, -0.181640625, 0.2841796875, -0.76220703125
407, 3151269873, -10.684402465820312, -5.363923072814941, 13.005044937133789, -28.034122467041016, 166.40689086914062, 51.32960891723633, -0.138916015625, 0.291015625, -0.766845703125
408, 3151286540, -8.057241439819336, -10.804447174072266, 7.402844429016113, -2.303755760192871, 158.4132537841797, 34.83173370361328, -0.1005859375, 0.29443359375, -0.76953125
409, 3151303207, -6.524650573730469, -0.2957562506198883, 9.531453132629395, 30.403064727783203, 132.49298095703125, 44.1954231262207, -0.067626953125, 0.28857421875, -0.77490234375
410, 3151319874, -11.547306060791016, -5.426782608032227, 11.804039001464844, 63.08699417114258, 95.641357421875, 41.089595794677734, -0.037841796875, 0.2744140625, -0.7783203125
411, 3151336541, -7.461984634399414, -0.31894898414611816, 12.212246894836426, 81.3597183227539, 47.68777847290039, 36.2877197265625, -0.021240234375, 0.25537109375, -0.785400390625
412, 3151353208, -5.977397441864014, -1.5730916261672974, 9.959050178527832, 53.109737396240234, 13.003655433654785, 21.787691116333008, -0.015869140625, 0.241455078125, -0.78857421875
413, 3151369875, -5.059432506561279, -2.03886079788208, 9.23091983795166, 29.97640037536621, 6.642277240753174, 14.961800575256348, -0.011474609375, 0.2353515625, -0.79150390625
414, 3151386542, -4.901908874511719, -1.775635838508606, 9.166051864624023, 4.927253246307373, 12.222728729248047, 6.71645450592041, -0.00830078125, 0.23095703125, -0.79150390625
415, 3151403209, -4.821055889129639, -0.918847918510437, 8.844608306884766, -11.852063179016113, 15.017996788024902, -2.20314359664917, -0.00634765625, 0.234375, -0.79052734375
416, 3151419876, -4.892399311065674, -1.9635661840438843, 8.474382400512695, -16.563716888427734, 15.22803020477295, -8.144163131713867, -0.001953125, 0.2353515625, -0.788818359375
417, 3151436543, -4.813896179199219, -2.382503032684326, 8.278965950012207, -15.374459266662598, 11.964147567749023, -8.033040046691895, -0.00146484375, 0.237548828125, -0.7841796875
418, 3151453210, -4.545775413513184, -2.4325811862945557, 8.2506685256958, -11.006404876708984, 6.824482440948486, -5.371479034423828, 0.0029296875, 0.240966796875, -0.787841796875
419, 3151469877, -4.725588798522949, -2.1603589057922363, 8.244905471801758, -4.315073490142822, 2.141087293624878, -1.4722051620483398, 0.001953125, 0.2431640625, -0.785888671875
420, 3151486544, -4.734719753265381, -2.028474807739258, 8.200511932373047, 0.24650302529335022, -0.06431348621845245, 0.5388463139533997, 0.00439453125, 0.24365234375, -0.788330078125
421, 3151503211, -4.725499629974365, -1.9395766258239746, 8.249438285827637, 2.5632550716400146, 0.17895592749118805, 1.622833490371704, 0.00341796875, 0.2431640625, -0.786376953125
422, 3151519878, -4.636175632476807, -1.9928975105285645, 8.210381507873535, 7.011829853057861, -0.9295362234115601, 3.0009701251983643, 0.0, 0.238525390625, -0.785888671875
423, 3151536545, -4.547702789306641, -2.075045108795166, 8.220104217529297, 9.287737846374512, -1.1131539344787598, 4.405622959136963, 0.005615234375, 0.236083984375, -0.7861328125
424, 3151553212, -4.553016662597656, -2.140242338180542, 8.172515869140625, 12.77545166015625, -2.9083757400512695, 7.434841156005859, 0.004638671875, 0.235107421875, -0.78857421875
425, 3151569879, -4.5858073234558105, -2.037269115447998, 8.261959075927734, 12.95767593383789, -4.548669338226318, 9.364571571350098, 0.003662109375, 0.234130859375, -0.789794921875
426, 3151586546, -4.573181629180908, -1.9367339611053467, 8.274141311645508, 13.350972175598145, -5.042505264282227, 10.143426895141602, 0.003662109375, 0.23095703125, -0.792724609375
427, 3151603213, -4.650262832641602, -1.8784846067428589, 8.329266548156738, 13.506659507751465, -3.740264654159546, 10.655821800231934, 0.004638671875, 0.2265625, -0.78857421875
428, 3151619880, -4.64309024810791, -2.050330877304077, 8.300268173217773, 14.894081115722656, -3.8866684436798096, 12.253511428833008, 0.003173828125, 0.224365234375, -0.78955078125
429, 3151636547, -4.653517723083496, -1.9374308586120605, 8.390182495117188, 13.628316879272461, -3.801018714904785, 13.20136547088623, 2.44140625E-4, 0.218994140625, -0.791748046875
430, 3151653214, -4.587937355041504, -1.5886995792388916, 8.505091667175293, 7.4056854248046875, 0.9739747643470764, 11.746965408325195, 0.00146484375, 0.217529296875, -0.792236328125
431, 3151669881, -4.507453918457031, -1.5062165260314941, 8.452924728393555, 3.241116762161255, 8.696971893310547, 9.74036979675293, 0.005859375, 0.21484375, -0.79345703125
432, 3151686548, -4.550176620483398, -1.4865180253982544, 8.455649375915527, 0.8713067770004272, 17.537410736083984, 8.436297416687012, 0.00927734375, 0.215087890625, -0.79345703125
433, 3151703215, -4.522984981536865, -1.4382340908050537, 8.43155574798584, -1.8482942581176758, 26.942861557006836, 7.484942436218262, 0.017822265625, 0.218017578125, -0.793212890625
434, 3151719882, -4.080163955688477, -1.4002277851104736, 8.60166072845459, -6.882091522216797, 43.575828552246094, 7.6610236167907715, 0.02587890625, 0.215087890625, -0.79052734375
435, 3151736549, -4.527444839477539, -1.2616482973098755, 8.417644500732422, -12.645681381225586, 63.93894577026367, 7.665286540985107, 0.040283203125, 0.21875, -0.790283203125
436, 3151753216, -4.526065826416016, -1.2845065593719482, 8.331469535827637, -18.691638946533203, 88.62787628173828, 4.875819683074951, 0.060546875, 0.220947265625, -0.78955078125
437, 3151769883, -4.783607006072998, -1.4859977960586548, 8.164290428161621, -22.181293487548828, 116.0866470336914, 3.709625720977783, 0.0830078125, 0.22705078125, -0.784423828125
438, 3151786550, -5.17706298828125, -1.5203416347503662, 8.000743865966797, -20.989299774169922, 142.45993041992188, 3.070950508117676, 0.115478515625, 0.23095703125, -0.7802734375
439, 3151803217, -5.497536659240723, -1.374529480934143, 7.9972758293151855, -20.380146026611328, 165.27752685546875, 1.257751226425171, 0.150634765625, 0.23388671875, -0.770751953125
440, 3151819884, -5.5268449783325195, -1.5076135396957397, 7.942216396331787, -21.110530853271484, 189.55096435546875, -0.9125822186470032, 0.19140625, 0.238525390625, -0.76123046875
441, 3151836551, -5.641109943389893, -1.7506810426712036, 7.86821174621582, -16.063875198364258, 218.54318237304688, 0.9438594579696655, 0.2373046875, 0.241943359375, -0.743896484375
442, 3151853218, -5.627336025238037, -2.0921173095703125, 7.645021438598633, -13.080145835876465, 259.7629089355469, 6.563610553741455, 0.2890625, 0.245361328125, -0.7216796875
443, 3151869885, -6.345704078674316, -2.2566113471984863, 6.554981231689453, -9.501550674438477, 317.5220642089844, 16.204050064086914, 0.3515625, 0.245361328125, -0.69189453125
444, 3151886552, -6.105401992797852, -3.533604860305786, 7.799594402313232, -2.7599265575408936, 390.85345458984375, 41.560569763183594, 0.42724609375, 0.241455078125, -0.644287109375
445, 3151903219, -9.726278305053711, -3.884636878967285, 9.369964599609375, 0.6018035411834717, 446.0860900878906, 82.67080688476562, 0.5087890625, 0.2294921875, -0.583251953125
446, 3151919886, -16.743324279785156, -2.6373672485351562, 9.93647289276123, -7.771764755249023, 449.7221984863281, 104.62261962890625, 0.587158203125, 0.2099609375, -0.505615234375
447, 3151936553, -17.569765090942383, -4.513702869415283, 9.681888580322266, -11.084875106811523, 428.3433532714844, 104.56230163574219, 0.6552734375, 0.191650390625, -0.42431640625
448, 3151953220, -16.936429977416992, -5.613982200622559, 10.297088623046875, 12.82170295715332, 403.04730224609375, 124.17341613769531, 0.70703125, 0.167236328125, -0.3408203125
449, 3151969887, -12.002948760986328, -5.042447566986084, 12.142938613891602, 40.37887954711914, 364.0138244628906, 129.9453125, 0.746337890625, 0.1376953125, -0.255615234375
450, 3151986554, -6.114834785461426, -3.7642204761505127, 15.359277725219727, 48.01446533203125, 267.6265563964844, 105.68257141113281, 0.76953125, 0.105712890625, -0.186767578125
451, 3152003221, -27.271183013916016, -3.695467472076416, 21.80820655822754, 17.112232208251953, 136.8809356689453, 113.81495666503906, 0.779541015625, 0.075439453125, -0.14306640625
452, 3152019888, -14.299120903015137, -3.836405038833618, 24.079660415649414, -50.28301239013672, -87.26750946044922, 16.341876983642578, 0.78076171875, 0.060302734375, -0.139404296875
453, 3152036555, -3.292628049850464, -5.963562965393066, 11.561168670654297, -32.462032318115234, -202.2825927734375, 1.4332361221313477, 0.77490234375, 0.055908203125, -0.173583984375
454, 3152053222, -0.48304903507232666, -4.347446918487549, 6.228316307067871, 14.823629379272461, -216.84207153320312, 29.25922966003418, 0.7685546875, 0.042724609375, -0.208740234375
455, 3152069889, -1.2361077070236206, -4.202256679534912, 5.482349395751953, 56.45767593383789, -212.9745330810547, 33.09133529663086, 0.766845703125, 0.033203125, -0.25
456, 3152086556, -3.805032730102539, -4.9846086502075195, 7.826862335205078, 86.85098266601562, -237.46180725097656, 21.523284912109375, 0.76806640625, 0.016357421875, -0.300537109375
457, 3152103223, -5.784611225128174, -3.723975896835327, 8.38550090789795, 85.7926254272461, -285.9029541015625, -10.072824478149414, 0.75732421875, 0.00830078125, -0.367919921875
458, 3152119890, -5.995961666107178, -2.4641478061676025, 6.652853965759277, 59.790828704833984, -322.8821716308594, -42.114906311035156, 0.729248046875, 0.014892578125, -0.4619140625
459, 3152136557, -6.3622307777404785, -2.1135711669921875, 5.733859062194824, 34.54920196533203, -334.96331787109375, -50.41455078125, 0.666748046875, 0.028076171875, -0.553955078125
460, 3152153224, -7.339382648468018, -1.576918601989746, 6.437531471252441, 20.530590057373047, -337.9646911621094, -49.65781021118164, 0.575439453125, 0.0380859375, -0.625732421875
461, 3152169891, -8.824356079101562, -0.9084163904190063, 7.789037227630615, 1.0195626020431519, -351.5288391113281, -48.368316650390625, 0.46484375, 0.0419921875, -0.66162109375
462, 3152186558, -9.93070125579834, -1.6339173316955566, 7.9564337730407715, -13.117814064025879, -369.9124450683594, -38.52157211303711, 0.360107421875, 0.03662109375, -0.666259765625
463, 3152203225, -10.511909484863281, -1.7167103290557861, 7.605398654937744, -27.004051208496094, -372.969482421875, -34.574642181396484, 0.281982421875, 0.0224609375, -0.655029296875
464, 3152219892, -11.117671966552734, -1.2915314435958862, 6.682092666625977, -56.26423263549805, -350.9886779785156, -46.67684555053711, 0.23193359375, 0.004638671875, -0.626953125
465, 3152236559, -12.014175415039062, -2.342284679412842, 6.568356037139893, -73.84320831298828, -298.756103515625, -62.150909423828125, 0.237060546875, -0.011962890625, -0.593994140625
466, 3152253226, -15.768131256103516, -2.5854129791259766, 12.719435691833496, -73.25685119628906, -270.8316650390625, -76.02433776855469, 0.31005859375, -0.018310546875, -0.6025390625
467, 3152269893, -18.653343200683594, -0.43431735038757324, 15.435906410217285, -71.08234405517578, -304.4056091308594, -73.28707122802734, 0.390380859375, 0.012939453125, -0.70556640625
468, 3152286560, -18.17203712463379, 1.1049853563308716, 12.629207611083984, -68.54969024658203, -330.2835998535156, -46.0477180480957, 0.37548828125, 0.077392578125, -0.869384765625
469, 3152303227, -19.396005630493164, 1.317474126815796, 10.026154518127441, -84.3927993774414, -322.3294372558594, -23.473987579345703, 0.25341796875, 0.152099609375, -0.99169921875
470, 3152319894, -22.25248908996582, -0.2394936978816986, 6.658252716064453, -102.91276550292969, -306.1304626464844, -14.358647346496582, 0.0986328125, 0.222900390625, -1.021484375
471, 3152336561, -21.909170150756836, 0.0462104007601738, 1.4956482648849487, -107.03106689453125, -265.0596923828125, -19.854326248168945, -0.034912109375, 0.279052734375, -1.006591796875
472, 3152353228, -20.547636032104492, 2.2812511920928955, -2.076230525970459, -105.85114288330078, -197.5111846923828, -43.00524139404297, -0.13232421875, 0.32177734375, -0.97216796875
473, 3152369895, -21.086313247680664, 5.156730651855469, -4.677855968475342, -87.36112213134766, -128.38702392578125, -65.73896789550781, -0.193603515625, 0.35595703125, -0.943115234375
474, 3152386562, -22.879995346069336, 5.05153226852417, -8.859880447387695, -51.37327194213867, -63.747344970703125, -57.84516525268555, -0.23681640625, 0.37646484375, -0.922607421875
475, 3152403229, -21.621753692626953, 5.460460662841797, -9.474662780761719, -26.039714813232422, 16.959896087646484, -47.57099914550781, -0.25048828125, 0.387451171875, -0.915771484375
476, 3152419896, -9.879199981689453, -2.6085615158081055, -3.739989757537842, 51.71311950683594, 83.42626190185547, -40.9884147644043, -0.243408203125, 0.38720703125, -0.923828125
477, 3152436563, 8.321244239807129, -4.490962028503418, 22.442350387573242, 35.11037826538086, 128.4351806640625, -15.452009201049805, -0.220947265625, 0.3798828125, -0.939208984375
478, 3152453230, 2.0780038833618164, 0.1824823021888733, 5.834002494812012, -10.613198280334473, 197.99444580078125, -6.209622859954834, -0.1787109375, 0.391845703125, -0.94921875
479, 3152469897, -7.900878429412842, 12.89571475982666, 12.255878448486328, -26.358049392700195, 210.65658569335938, 26.956539154052734, -0.12255859375, 0.4072265625, -0.95263671875
480, 3152486564, -8.555418968200684, 3.0880048274993896, 15.825464248657227, -41.26585388183594, 181.98377990722656, 62.16649627685547, -0.06640625, 0.425537109375, -0.953125
481, 3152503231, -7.669051647186279, -12.91604995727539, 7.148174285888672, -34.274681091308594, 165.40008544921875, 39.71792984008789, -0.015869140625, 0.445068359375, -0.95361328125
482, 3152519898, -8.186179161071777, -7.132948875427246, 9.618972778320312, -0.1160353273153305, 150.34527587890625, 37.156288146972656, 0.03125, 0.453369140625, -0.953857421875
483, 3152536565, -6.265852451324463, -0.6387638449668884, 10.33973503112793, 12.097369194030762, 120.47366333007812, 43.01816177368164, 0.069091796875, 0.453369140625, -0.95458984375
484, 3152553232, -10.500216484069824, -7.3137617111206055, 10.78182601928711, 28.12367057800293, 97.83612823486328, 37.61663055419922, 0.1005859375, 0.45166015625, -0.953857421875
485, 3152569899, -5.89980936050415, -0.512361466884613, 9.880594253540039, 50.20751190185547, 64.6561279296875, 30.13417625427246, 0.126708984375, 0.439208984375, -0.958251953125
486, 3152586566, -6.637349605560303, -1.5291807651519775, 10.759305000305176, 31.329111099243164, 42.87295150756836, 13.123592376708984, 0.138427734375, 0.4287109375, -0.95849609375
487, 3152603233, -5.991277694702148, -1.4263739585876465, 9.9414644241333, 17.407472610473633, 27.434598922729492, 6.154376983642578, 0.150390625, 0.4267578125, -0.96240234375
488, 3152619900, -5.1034345626831055, -1.9947131872177124, 8.935432434082031, 8.352898597717285, 15.254899978637695, 1.565577745437622, 0.156982421875, 0.42333984375, -0.963134765625
489, 3152636567, -4.730014801025391, -2.447824716567993, 8.463951110839844, 5.3060503005981445, 9.722744941711426, 0.10852745920419693, 0.158447265625, 0.4228515625, -0.962158203125
490, 3152653234, -4.472940921783447, -2.39961576461792, 8.433666229248047, 4.572770595550537, 7.443762302398682, 0.865459680557251, 0.161865234375, 0.421875, -0.964111328125
491, 3152669901, -4.486161708831787, -2.605238437652588, 8.185120582580566, 5.296546459197998, 6.926334857940674, 0.9381100535392761, 0.1650390625, 0.41943359375, -0.96533203125
492, 3152686568, -4.516207218170166, -2.544790029525757, 8.02138900756836, 10.272805213928223, 6.19832181930542, 3.216758966445923, 0.1669921875, 0.41845703125, -0.967529296875
493, 3152703235, -4.3162689208984375, -2.431363344192505, 8.129046440124512, 15.505105018615723, 3.2702136039733887, 6.733156681060791, 0.1669921875, 0.41552734375, -0.9658203125
494, 3152719902, -4.560883522033691, -2.34322452545166, 8.109966278076172, 17.77663803100586, 1.0335314273834229, 9.024396896362305, 0.171630859375, 0.408935546875, -0.9658203125
495, 3152736569, -4.631724834442139, -2.254369020462036, 8.322052955627441, 15.776750564575195, -2.6958167552948, 10.184172630310059, 0.170166015625, 0.40234375, -0.96923828125
496, 3152753236, -4.288264274597168, -2.445114850997925, 7.868163108825684, 18.54981231689453, -9.304024696350098, 13.22898006439209, 0.169189453125, 0.3984375, -0.97119140625
497, 3152769903, -4.86328125, -2.2057104110717773, 8.45351791381836, 24.661605834960938, -12.496699333190918, 16.751556396484375, 0.16748046875, 0.392822265625, -0.9736328125
498, 3152786570, -5.093451499938965, -1.4561078548431396, 8.727546691894531, 21.12373161315918, -11.916882514953613, 14.710702896118164, 0.16650390625, 0.38623046875, -0.981201171875
499, 3152803237, -4.891057014465332, -1.379707932472229, 8.60781192779541, 12.223319053649902, -5.621121406555176, 8.864736557006836, 0.16455078125, 0.3798828125, -0.982177734375
500, 3152819904, -4.59470272064209, -1.685219645500183, 8.468281745910645, 6.9051666259765625, 0.6197826862335205, 4.5595550537109375, 0.167236328125, 0.376708984375, -0.982177734375
501, 3152836571, -4.623032569885254, -1.806672215461731, 8.364605903625488, 5.142192363739014, 3.9539551734924316, 3.68951678276062, 0.168212890625, 0.376220703125, -0.980224609375
502, 3152853238, -4.569793224334717, -1.9165797233581543, 8.328810691833496, 6.292381763458252, 5.004831314086914, 5.1970930099487305, 0.169677734375, 0.375244140625, -0.985107421875
503, 3152869905, -4.642260551452637, -1.8657413721084595, 8.311861038208008, 7.410390853881836, 4.764124393463135, 6.723778247833252, 0.172119140625, 0.372314453125, -0.985107421875
504, 3152886572, -4.622819900512695, -1.7201594114303589, 8.372958183288574, 5.300467014312744, 6.801000595092773, 6.96223258972168, 0.173095703125, 0.370361328125, -0.9833984375
505, 3152903239, -4.6643900871276855, -1.6110420227050781, 8.398341178894043, 2.2159926891326904, 10.804229736328125, 6.167995929718018, 0.177734375, 0.370361328125, -0.9833984375
506, 3152919906, -4.571911811828613, -1.601798176765442, 8.42498779296875, -0.15915746986865997, 16.352745056152344, 4.904164791107178, 0.183349609375, 0.367431640625, -0.980712890625
507, 3152936573, -4.347503185272217, -1.6786576509475708, 8.432597160339355, -0.00694105913862586, 26.991622924804688, 4.633227825164795, 0.191650390625, 0.369873046875, -0.980712890625
508, 3152953240, -4.181325912475586, -1.5476489067077637, 8.45344066619873, -7.069535255432129, 42.2274169921875, 6.325347900390625, 0.20166015625, 0.3720703125, -0.97802734375
509, 3152969907, -4.558176040649414, -1.446786880493164, 8.387042045593262, -13.62759017944336, 60.30683517456055, 6.946598529815674, 0.217041015625, 0.374267578125, -0.97509765625
510, 3152986574, -4.483592987060547, -1.5714610815048218, 8.28754997253418, -16.574655532836914, 82.97237396240234, 6.236946105957031, 0.23876953125, 0.37890625, -0.965087890625
511, 3153003241, -4.730238437652588, -1.564823031425476, 8.156012535095215, -18.929893493652344, 110.56885528564453, 7.030665397644043, 0.269775390625, 0.38623046875, -0.95556640625
512, 3153019908, -5.123054504394531, -1.6011288166046143, 8.081009864807129, -19.990629196166992, 137.017578125, 6.9697699546813965, 0.305908203125, 0.390380859375, -0.94091796875
513, 3153036575, -5.427181243896484, -1.552838683128357, 8.021291732788086, -20.0566463470459, 159.89712524414062, 5.738839626312256, 0.348388671875, 0.394287109375, -0.927978515625
514, 3153053242, -5.35122013092041, -1.566324234008789, 8.119433403015137, -22.115415573120117, 188.4547882080078, 3.3494200706481934, 0.39501953125, 0.400146484375, -0.90087890625
515, 3153069909, -5.04703950881958, -1.8608758449554443, 8.074934005737305, -22.735153198242188, 229.13145446777344, 6.880364894866943, 0.452880859375, 0.40673828125, -0.872802734375
516, 3153086576, -5.292003631591797, -2.0967636108398438, 7.599798679351807, -17.646032333374023, 278.8429260253906, 17.18705940246582, 0.52001953125, 0.4091796875, -0.831787109375
517, 3153103243, -6.347342491149902, -2.626340389251709, 6.615788459777832, -7.7217278480529785, 349.8167724609375, 34.987762451171875, 0.600341796875, 0.4052734375, -0.77294921875
518, 3153119910, -6.613125801086426, -3.7492692470550537, 9.33984088897705, 5.680736064910889, 426.37774658203125, 65.269287109375, 0.694091796875, 0.3984375, -0.69677734375
519, 3153136577, -12.1586332321167, -3.2620882987976074, 10.05039119720459, -2.1207544803619385, 468.4231872558594, 99.2490463256836, 0.790771484375, 0.37646484375, -0.5947265625
520, 3153153244, -18.230838775634766, -2.001206874847412, 10.753929138183594, -18.22205924987793, 463.6106262207031, 104.50547790527344, 0.874267578125, 0.352294921875, -0.476318359375
521, 3153169911, -18.168201446533203, -5.734392166137695, 10.246487617492676, -11.731104850769043, 433.2832946777344, 114.73075866699219, 0.93603515625, 0.32177734375, -0.35693359375
522, 3153186578, -15.648392677307129, -5.873706340789795, 11.32754898071289, 8.885401725769043, 393.3524169921875, 127.50291442871094, 0.973388671875, 0.2822265625, -0.24365234375
523, 3153203245, -9.905922889709473, -5.166618824005127, 15.345603942871094, 30.089340209960938, 333.67626953125, 120.90847778320312, 0.995361328125, 0.2392578125, -0.142822265625
524, 3153219912, -14.595895767211914, -4.56220006942749, 18.910383224487305, 16.13317108154297, 174.04470825195312, 87.51532745361328, 0.999267578125, 0.20751953125, -0.08740234375
525, 3153236579, -20.616357803344727, -2.44866681098938, 26.106687545776367, -19.752544403076172, 3.07578444480896, 51.893310546875, 1.000244140625, 0.185302734375, -0.07470703125
526, 3153253246, -4.97389030456543, -5.618991851806641, 15.01597785949707, -41.97043228149414, -188.81027221679688, -14.09716510772705, 0.984619140625, 0.19287109375, -0.126708984375
527, 3153269913, 1.134310245513916, -4.429840564727783, 5.743586540222168, 19.430662155151367, -212.9675750732422, 29.217100143432617, 0.97119140625, 0.19287109375, -0.191162109375
528, 3153286580, -0.9144878387451172, -3.2013397216796875, 5.955679893493652, 66.16951751708984, -193.4956817626953, 59.341121673583984, 0.95458984375, 0.177978515625, -0.255126953125
529, 3153303247, -4.734591960906982, -3.629521608352661, 8.92559814453125, 56.8745002746582, -233.515625, 34.42975616455078, 0.935302734375, 0.167236328125, -0.3193359375
530, 3153319914, -4.818143367767334, -4.363074779510498, 7.497893333435059, 44.86805725097656, -288.8379211425781, -4.214712142944336, 0.90283203125, 0.170166015625, -0.4052734375
531, 3153336581, -5.143064975738525, -4.104708671569824, 5.605009078979492, 43.1076545715332, -318.825927734375, -30.275415420532227, 0.85595703125, 0.18017578125, -0.5009765625
532, 3153353248, -5.584021091461182, -3.282679557800293, 4.434160232543945, 45.41835021972656, -331.1721496582031, -39.44558334350586, 0.7890625, 0.186279296875, -0.59423828125
533, 3153369915, -6.036069869995117, -2.5707077980041504, 4.7029852867126465, 45.96742630004883, -324.5734558105469, -38.113922119140625, 0.703369140625, 0.188232421875, -0.6767578125
534, 3153386582, -7.352259635925293, -0.7350351214408875, 6.898337364196777, 17.773393630981445, -315.9496154785156, -46.51885986328125, 0.609375, 0.180419921875, -0.738037109375
535, 3153403249, -9.918054580688477, -0.8932199478149414, 8.900931358337402, -23.928712844848633, -329.10699462890625, -51.884246826171875, 0.51611328125, 0.177734375, -0.781982421875
536, 3153419916, -11.463598251342773, -1.845078706741333, 9.076557159423828, -45.914363861083984, -353.4287414550781, -51.287254333496094, 0.411865234375, 0.179443359375, -0.817138671875
537, 3153436583, -10.976719856262207, -1.8918181657791138, 6.774817943572998, -51.52442169189453, -351.4801025390625, -50.2847785949707, 0.30224609375, 0.180419921875, -0.83203125
538, 3153453250, -11.142109870910645, -1.224500298500061, 6.243090629577637, -59.3360481262207, -303.4598388671875, -52.24124526977539, 0.20849609375, 0.179443359375, -0.82177734375
539, 3153469917, -14.314760208129883, -1.2168633937835693, 11.512543678283691, -75.85829162597656, -268.2318115234375, -60.75349426269531, 0.14599609375, 0.178466796875, -0.801513671875
540, 3153486584, -16.818248748779297, -0.16818025708198547, 14.985174179077148, -91.01555633544922, -288.3857727050781, -65.87955474853516, 0.09423828125, 0.179443359375, -0.787353515625
541, 3153503251, -15.66247844696045, 1.5196847915649414, 13.401773452758789, -92.04552459716797, -311.0780944824219, -43.63750457763672, 0.041748046875, 0.18505859375, -0.777099609375
542, 3153519918, -15.81799602508545, 1.8899356126785278, 12.602806091308594, -101.00174713134766, -314.5805969238281, -14.081542015075684, -0.01318359375, 0.197021484375, -0.767578125
543, 3153536585, -17.245121002197266, 0.12469257414340973, 11.490201950073242, -117.82017517089844, -310.6270446777344, 0.5058811902999878, -0.0625, 0.210205078125, -0.7587890625
544, 3153553252, -17.307842254638672, -0.7758514881134033, 7.490775108337402, -124.66571044921875, -290.3690490722656, -4.540732383728027, -0.113525390625, 0.23193359375, -0.75439453125
545, 3153569919, -16.539220809936523, 0.49911677837371826, 3.595466375350952, -124.040283203125, -241.55543518066406, -28.484338760375977, -0.160400390625, 0.257568359375, -0.74755859375
546, 3153586586, -16.846240997314453, 2.331105947494507, 1.1623456478118896, -112.2245101928711, -182.7137908935547, -60.62899398803711, -0.20458984375, 0.27783203125, -0.740478515625
547, 3153603253, -19.0202579498291, 3.022113561630249, -2.0196611881256104, -84.80073547363281, -132.77398681640625, -72.77371978759766, -0.23974609375, 0.292724609375, -0.734375
548, 3153619920, -19.389284133911133, 5.7167887687683105, -5.775510311126709, -66.60832977294922, -81.07803344726562, -76.49978637695312, -0.268310546875, 0.30078125, -0.727294921875
549, 3153636587, -18.46528434753418, 5.40901517868042, -8.030691146850586, -45.24935531616211, -16.009056091308594, -71.07199096679688, -0.2822265625, 0.307861328125, -0.728271484375
550, 3153653254, -17.74822235107422, 3.857278347015381, -5.148019790649414, 11.463068962097168, 47.84471130371094, -47.22864532470703, -0.27783203125, 0.304443359375, -0.733642578125
551, 3153669921, -7.188930034637451, 2.2130377292633057, 2.675792694091797, 60.874664306640625, 73.92658233642578, -21.217702865600586, -0.26318359375, 0.29150390625, -0.746337890625
552, 3153686588, 13.622106552124023, -8.557965278625488, 24.480937957763672, 29.735990524291992, 104.90734100341797, 21.640899658203125, -0.241455078125, 0.279541015625, -0.75830078125
553, 3153703255, 4.128831386566162, -10.725675582885742, 0.08726855367422104, -10.846092224121094, 187.80154418945312, 5.226507663726807, -0.20166015625, 0.281982421875, -0.771728515625
554, 3153719922, -8.591060638427734, 10.738862037658691, 10.818410873413086, -18.932527542114258, 257.89434814453125, 24.040037155151367, -0.141357421875, 0.283935546875, -0.7880859375
555, 3153736589, -8.336640357971191, 5.526675224304199, 18.02881622314453, -61.2319221496582, 219.19436645507812, 53.12765884399414, -0.083251953125, 0.298095703125, -0.796875
556, 3153753256, -8.193307876586914, -8.830070495605469, 9.364575386047363, -103.42096710205078, 211.1411895751953, 20.97600555419922, -0.029052734375, 0.31982421875, -0.799560546875
557, 3153769923, -10.658723831176758, -7.47998571395874, 11.313911437988281, -88.42710876464844, 190.61363220214844, 6.652968406677246, 0.018798828125, 0.34423828125, -0.792236328125
558, 3153786590, -11.010154724121094, -10.768667221069336, 10.899628639221191, -5.417776584625244, 123.33394622802734, 28.291343688964844, 0.0576171875, 0.351318359375, -0.788330078125
559, 3153803257, -6.602468490600586, -4.515521049499512, 8.546562194824219, 52.514766693115234, 80.0304946899414, 36.68240737915039, 0.078857421875, 0.34130859375, -0.791015625
560, 3153819924, -6.676966667175293, -1.212113857269287, 10.706459045410156, 35.435123443603516, 47.0485725402832, 17.579620361328125, 0.099365234375, 0.328369140625, -0.798583984375
561, 3153836591, -4.459834575653076, -4.38845157623291, 8.031122207641602, 27.592744827270508, 31.891895294189453, 13.684147834777832, 0.10791015625, 0.323486328125, -0.8017578125
562, 3153853258, -3.635537624359131, -2.1965560913085938, 8.869357109069824, 23.976224899291992, 29.666643142700195, 15.205792427062988, 0.117431640625, 0.316162109375, -0.802001953125
563, 3153869925, -5.131718635559082, -2.9340121746063232, 9.102301597595215, 15.20280933380127, 24.159255981445312, 12.079214096069336, 0.12451171875, 0.314208984375, -0.805908203125
564, 3153886592, -4.7288126945495605, -3.2117061614990234, 8.094189643859863, 13.945503234863281, 21.214696884155273, 9.350739479064941, 0.131591796875, 0.30810546875, -0.8037109375
565, 3153903259, -4.429295539855957, -3.02935528755188, 8.216765403747559, 12.231783866882324, 25.366130828857422, 7.915263652801514, 0.14013671875, 0.3056640625, -0.80712890625
566, 3153919926, -4.45612907409668, -3.3835530281066895, 8.170317649841309, 12.870563507080078, 28.44990348815918, 8.317954063415527, 0.144775390625, 0.302734375, -0.807861328125
567, 3153936593, -4.423141002655029, -3.2965214252471924, 7.88548469543457, 13.531648635864258, 25.692852020263672, 8.558913230895996, 0.1533203125, 0.30029296875, -0.80810546875
568, 3153953260, -4.724254131317139, -3.3829188346862793, 7.620208263397217, 15.44532585144043, 28.5330753326416, 12.355535507202148, 0.163330078125, 0.2958984375, -0.81103515625
569, 3153969927, -5.109481334686279, -3.1667706966400146, 7.924037933349609, 19.38886833190918, 27.495376586914062, 13.694563865661621, 0.168701171875, 0.291748046875, -0.809814453125
570, 3153986594, -5.016911506652832, -3.1183841228485107, 7.887519836425781, 20.94954490661621, 21.920143127441406, 13.481429100036621, 0.17578125, 0.284912109375, -0.810302734375
571, 3154003261, -4.995913505554199, -3.214470624923706, 7.802767276763916, 19.026702880859375, 18.70851707458496, 14.503334999084473, 0.184326171875, 0.282470703125, -0.8125
572, 3154019928, -5.179239749908447, -2.996385335922241, 8.420760154724121, 15.341818809509277, 15.60095500946045, 13.350106239318848, 0.1875, 0.27685546875, -0.811279296875
573, 3154036595, -5.2263054847717285, -2.752882957458496, 7.71123743057251, 6.442484378814697, 9.44439697265625, 11.0970458984375, 0.191650390625, 0.27197265625, -0.812255859375
574, 3154053262, -5.375491142272949, -2.6153464317321777, 7.895589351654053, 16.090633392333984, 5.778111934661865, 12.459053993225098, 0.194091796875, 0.267333984375, -0.815185546875
575, 3154069929, -5.36461067199707, -2.483372449874878, 8.033660888671875, 21.898862838745117, 2.5822205543518066, 12.592761993408203, 0.19677734375, 0.263427734375, -0.815185546875
576, 3154086596, -5.217889785766602, -2.7315006256103516, 8.026360511779785, 22.08789825439453, -1.0052751302719116, 13.643871307373047, 0.19873046875, 0.25634765625, -0.817138671875
577, 3154103263, -5.237095832824707, -2.6440844535827637, 7.982535362243652, 22.233142852783203, -6.201543807983398, 15.240764617919922, 0.199462890625, 0.2509765625, -0.81787109375
578, 3154119930, -5.0837297439575195, -2.5296483039855957, 8.011909484863281, 18.452289581298828, -6.098280906677246, 13.738249778747559, 0.198974609375, 0.243408203125, -0.824951171875
579, 3154136597, -5.093104362487793, -2.259187698364258, 8.0031156539917, 16.11780548095703, -2.874056100845337, 12.403267860412598, 0.197509765625, 0.24072265625, -0.823486328125
580, 3154153264, -4.989955425262451, -2.211930990219116, 8.115421295166016, 14.310452461242676, 0.23668083548545837, 10.165685653686523, 0.196533203125, 0.236328125, -0.822509765625
581, 3154169931, -4.977309226989746, -2.2286019325256348, 8.04140853881836, 12.931833267211914, 5.803286075592041, 7.391723155975342, 0.203125, 0.23388671875, -0.825439453125
582, 3154186598, -4.927802085876465, -2.215731382369995, 8.080509185791016, 12.60916519165039, 12.071093559265137, 7.71815824508667, 0.2060546875, 0.230224609375, -0.8212890625
583, 3154203265, -4.845256805419922, -2.18162202835083, 8.09408187866211, 10.030472755432129, 19.74384117126465, 9.663646697998047, 0.212646484375, 0.225341796875, -0.823974609375
584, 3154219932, -4.943568229675293, -2.048604965209961, 8.130187034606934, 8.49803638458252, 29.3453369140625, 10.691669464111328, 0.21630859375, 0.222900390625, -0.822509765625
585, 3154236599, -4.963544845581055, -2.1097540855407715, 8.115081787109375, 4.975535869598389, 41.53697967529297, 11.01097583770752, 0.227783203125, 0.218017578125, -0.822265625
586, 3154253266, -5.062332630157471, -2.0817651748657227, 8.056568145751953, 2.131807327270508, 55.13595199584961, 11.998953819274902, 0.23828125, 0.219482421875, -0.821533203125
587, 3154269933, -5.30513334274292, -2.041114568710327, 7.901986122131348, 0.8875208497047424, 68.41668701171875, 12.725386619567871, 0.254150390625, 0.21728515625, -0.815673828125
588, 3154286600, -5.492310047149658, -2.1106889247894287, 7.729403972625732, 0.7352490425109863, 80.72455596923828, 13.217278480529785, 0.276123046875, 0.219482421875, -0.80517578125
589, 3154303267, -5.673897743225098, -2.2145843505859375, 7.560609340667725, -0.33009350299835205, 90.93380737304688, 14.273736953735352, 0.298095703125, 0.217529296875, -0.7998046875
590, 3154319934, -5.820070743560791, -2.2771239280700684, 7.4569902420043945, 0.3948795199394226, 102.26526641845703, 17.13920021057129, 0.320556640625, 0.213623046875, -0.793212890625
591, 3154336601, -5.642007827758789, -2.232086181640625, 7.530703544616699, 2.2723965644836426, 120.99461364746094, 21.55530548095703, 0.3486328125, 0.21337890625, -0.78369140625
592, 3154353268, -5.579358100891113, -2.5401742458343506, 7.699751377105713, 6.555326461791992, 150.6905517578125, 31.67975616455078, 0.382080078125, 0.20703125, -0.768798828125
593, 3154369935, -5.149669647216797, -2.3943443298339844, 7.861183166503906, 10.738282203674316, 183.8229522705078, 47.2430305480957, 0.424072265625, 0.201416015625, -0.748291015625
594, 3154386602, -6.187906265258789, -2.41943621635437, 7.541199207305908, 11.808695793151855, 217.44102478027344, 70.97091674804688, 0.468994140625, 0.191162109375, -0.724365234375
595, 3154403269, -7.317456245422363, -2.7639577388763428, 8.930514335632324, 9.982709884643555, 283.1115417480469, 96.56863403320312, 0.527587890625, 0.173583984375, -0.682373046875
596, 3154419936, -10.042387008666992, -1.79116952419281, 10.047654151916504, -14.068085670471191, 326.4958801269531, 114.5439453125, 0.59423828125, 0.155517578125, -0.63427734375
597, 3154436603, -15.615738868713379, -4.206690788269043, 12.120179176330566, -57.12559509277344, 326.634033203125, 123.71521759033203, 0.65771484375, 0.143798828125, -0.573974609375
598, 3154453270, -11.925593376159668, -4.385571002960205, 11.610020637512207, -81.78334045410156, 311.02386474609375, 132.84814453125, 0.707275390625, 0.1279296875, -0.5107421875
599, 3154469937, -10.786467552185059, -2.7720248699188232, 11.609465599060059, -129.32029724121094, 298.2372131347656, 135.04173278808594, 0.747314453125, 0.115966796875, -0.447998046875
600, 3154486604, -7.6931376457214355, -2.096362590789795, 10.788989067077637, -179.18045043945312, 245.5651397705078, 133.31979370117188, 0.7783203125, 0.106689453125, -0.3896484375
601, 3154503271, -4.2145256996154785, 2.3941776752471924, 13.972530364990234, -266.7509460449219, 129.581298828125, 148.63653564453125, 0.792724609375, 0.10009765625, -0.354736328125
602, 3154519938, -17.264122009277344, -7.94402551651001, 18.44703483581543, -308.82183837890625, -42.24601745605469, 107.38904571533203, 0.789306640625, 0.103759765625, -0.350341796875
603, 3154536605, -3.0938239097595215, -11.764445304870605, 7.039026260375977, -213.22059631347656, -113.41218566894531, 90.26638793945312, 0.767578125, 0.110107421875, -0.37548828125
604, 3154553272, 0.25528666377067566, -5.372768402099609, 5.031922340393066, -125.131103515625, -104.16026306152344, 63.17691421508789, 0.744873046875, 0.10888671875, -0.3974609375
605, 3154569939, -0.06618808954954147, -1.5282386541366577, 6.378446102142334, -131.87586975097656, -87.68624114990234, 0.5425953269004822, 0.71875, 0.1181640625, -0.41015625
606, 3154586606, -1.6610300540924072, 2.342200517654419, 8.888387680053711, -170.0834197998047, -94.85932159423828, -47.026031494140625, 0.69140625, 0.1416015625, -0.4228515625
607, 3154603273, -3.2140252590179443, 4.702020645141602, 10.3104887008667, -206.39456176757812, -121.6272964477539, -73.2281723022461, 0.66015625, 0.169189453125, -0.42578125
608, 3154619940, -4.869113922119141, 6.7368011474609375, 11.760388374328613, -202.00335693359375, -160.19358825683594, -59.659217834472656, 0.625244140625, 0.195556640625, -0.4345703125
609, 3154636607, -6.511415958404541, 9.971556663513184, 13.012272834777832, -201.06723022460938, -201.1276092529297, -32.1318359375, 0.591552734375, 0.2158203125, -0.44140625
610, 3154653274, -7.099445343017578, 12.236931800842285, 12.521864891052246, -221.24688720703125, -235.55377197265625, -6.7211408615112305, 0.556884765625, 0.235107421875, -0.451416015625
611, 3154669941, -6.894548416137695, 12.205255508422852, 11.160077095031738, -231.44847106933594, -254.720458984375, 23.748964309692383, 0.53271484375, 0.25146484375, -0.45751953125
612, 3154686608, -7.669465065002441, 10.97478199005127, 10.761286735534668, -219.70567321777344, -260.7323303222656, 51.83351516723633, 0.513671875, 0.259521484375, -0.473876953125
613, 3154703275, -8.408599853515625, 9.433782577514648, 10.846427917480469, -204.1182861328125, -263.9083251953125, 64.35501861572266, 0.4990234375, 0.265869140625, -0.494384765625
614, 3154719942, -8.964683532714844, 8.354548454284668, 10.524815559387207, -192.00013732910156, -271.8559875488281, 69.37500762939453, 0.484130859375, 0.275390625, -0.516845703125
615, 3154736609, -8.920737266540527, 6.533924102783203, 9.939980506896973, -175.5775146484375, -270.9435119628906, 57.01013946533203, 0.4658203125, 0.287353515625, -0.54638671875
616, 3154753276, -8.665059089660645, 5.917263984680176, 9.930187225341797, -141.90708923339844, -257.2092590332031, 43.26702880859375, 0.4462890625, 0.305419921875, -0.5771484375
617, 3154769943, -8.615887641906738, 6.531661033630371, 11.216889381408691, -120.74341583251953, -243.88177490234375, 39.3808708190918, 0.424072265625, 0.326416015625, -0.608642578125
618, 3154786610, -9.144594192504883, 6.731734752655029, 12.49709701538086, -119.8841781616211, -237.91004943847656, 46.93010711669922, 0.393798828125, 0.348388671875, -0.640625
619, 3154803277, -11.070032119750977, 5.6178364753723145, 13.46832275390625, -125.72582244873047, -242.74908447265625, 65.16943359375, 0.3583984375, 0.377685546875, -0.6640625
620, 3154819944, -12.268901824951172, 3.6645524501800537, 12.804790496826172, -124.45796203613281, -254.4900360107422, 79.48372650146484, 0.322998046875, 0.405517578125, -0.676025390625
621, 3154836611, -12.307827949523926, 2.343609571456909, 10.627376556396484, -109.71172332763672, -259.8808288574219, 83.98365783691406, 0.28564453125, 0.430908203125, -0.6865234375
622, 3154853278, -11.379515647888184, 1.975988507270813, 8.046419143676758, -91.10160064697266, -247.7517547607422, 78.64684295654297, 0.2451171875, 0.454345703125, -0.693603515625
623, 3154869945, -10.496206283569336, 1.2464112043380737, 5.913013458251953, -76.47837829589844, -221.99832153320312, 68.89485168457031, 0.21240234375, 0.47509765625, -0.698486328125
624, 3154886612, -10.075275421142578, -1.7362573146820068, 3.0960516929626465, -58.80098342895508, -199.36138916015625, 68.49726867675781, 0.18212890625, 0.488037109375, -0.69873046875
625, 3154903279, -9.192300796508789, 0.3404076099395752, 1.8485161066055298, -65.8740234375, -156.47166442871094, 70.82999420166016, 0.160400390625, 0.501953125, -0.70068359375
626, 3154919946, -9.326507568359375, 0.0024098996073007584, 1.4178768396377563, -101.54345703125, -108.1357421875, 52.39729309082031, 0.146240234375, 0.52294921875, -0.692138671875
627, 3154936613, -9.994091033935547, -3.468179702758789, 0.9129611849784851, -70.29955291748047, -79.40200805664062, 39.27192306518555, 0.138427734375, 0.539794921875, -0.683349609375
628, 3154953280, -9.303462028503418, -3.2320451736450195, 0.5434860587120056, -8.73427677154541, -49.05329513549805, 20.4178409576416, 0.130859375, 0.54443359375, -0.685546875
629, 3154969947, -9.065948486328125, -2.4849488735198975, 1.595205307006836, 38.494834899902344, -20.053600311279297, -8.300594329833984, 0.12890625, 0.540771484375, -0.692626953125
630, 3154986614, -8.125653266906738, -2.1399435997009277, 2.697821617126465, 76.17033386230469, 4.981788158416748, -22.792098999023438, 0.126220703125, 0.526611328125, -0.70361328125
631, 3155003281, -7.004271984100342, -3.2698185443878174, 2.9877989292144775, 92.50682067871094, 37.531211853027344, -25.358638763427734, 0.128173828125, 0.506591796875, -0.718505859375
632, 3155019948, -7.209414958953857, -5.319803237915039, 4.60288143157959, 79.55127716064453, 70.87764739990234, -39.76420974731445, 0.139404296875, 0.48876953125, -0.734130859375
633, 3155036615, -5.852278232574463, -6.753851890563965, 5.785233974456787, 47.42966842651367, 92.3683853149414, -66.85456848144531, 0.15185546875, 0.479248046875, -0.74072265625
634, 3155053282, -2.3538708686828613, -7.716635704040527, 7.608062744140625, 37.28801727294922, 99.93355560302734, -91.98457336425781, 0.1640625, 0.475830078125, -0.74462890625
635, 3155069949, -0.16265474259853363, -5.199923992156982, 11.764739036560059, 159.52650451660156, 67.50853729248047, -74.69570922851562, 0.17138671875, 0.44921875, -0.765869140625
636, 3155086616, 9.448648452758789, 11.724742889404297, 11.658382415771484, 51.28343200683594, 124.42967224121094, -32.75330352783203, 0.189208984375, 0.429931640625, -0.77490234375
637, 3155103283, -2.394540309906006, 11.829551696777344, 14.492508888244629, -42.578556060791016, 165.67745971679688, 28.004175186157227, 0.2333984375, 0.431640625, -0.765380859375
638, 3155119950, -9.918935775756836, 6.115109443664551, 12.451833724975586, -64.04460906982422, 133.9652862548828, 40.18672561645508, 0.273681640625, 0.43701171875, -0.74853515625
639, 3155136617, -9.228948593139648, -10.23336124420166, 10.665575981140137, -75.59033966064453, 122.59109497070312, 10.949573516845703, 0.302490234375, 0.443359375, -0.73046875
640, 3155153284, -8.293829917907715, -7.583644866943359, 10.225686073303223, -67.40904235839844, 115.78035736083984, -13.635408401489258, 0.330322265625, 0.4560546875, -0.71240234375
641, 3155169951, -3.898725986480713, -0.4758067727088928, 9.425871849060059, -80.54500579833984, 105.05961608886719, -16.85519790649414, 0.353515625, 0.473388671875, -0.694091796875
642, 3155186618, -8.975931167602539, -13.451338768005371, 8.37725830078125, -15.916714668273926, 85.84066772460938, 8.671548843383789, 0.371337890625, 0.478515625, -0.67919921875
643, 3155203285, -4.512949466705322, -0.25562775135040283, 9.057694435119629, 29.7471923828125, 58.09847640991211, 21.161483764648438, 0.389404296875, 0.468505859375, -0.6767578125
644, 3155219952, -4.966788291931152, -2.8847544193267822, 8.858524322509766, 18.09706687927246, 31.550535202026367, 6.777133464813232, 0.40087890625, 0.464599609375, -0.675048828125
645, 3155236619, -6.376569747924805, -2.5237061977386475, 10.208754539489746, 12.187020301818848, 19.709779739379883, 5.327861309051514, 0.407470703125, 0.460205078125, -0.6748046875
646, 3155253286, -5.468053817749023, -2.3009450435638428, 8.849099159240723, 3.8821237087249756, -0.24862252175807953, 0.6140325665473938, 0.409423828125, 0.457763671875, -0.67919921875
647, 3155269953, -5.349095821380615, -2.285181760787964, 8.742693901062012, -0.6540715098381042, -1.7408056259155273, -3.78056263923645, 0.406982421875, 0.458251953125, -0.6767578125
