sep=,
DeviceTag:,B,,,,,,,,,,,,,,,,,
FirmwareVersion:,2.2.1,,,,,,,,,,,,,,,,,
AppVersion:,2022.0.1,,,,,,,,,,,,,,,,,
SyncStatus:,Synced,,,,,,,,,,,,,,,,,
OutputRate:,60Hz,,,,,,,,,,,,,,,,,
FilterProfile:,General,,,,,,,,,,,,,,,,,
Measurement Mode:,Inertial Mode - Rate quantities (with mag),,,,,,,,,,,,,,,,,
StartTime:,2022-08-05 16:05:10.402 +0300,,,,,,,,,,,,,,,,,
© Xsens Technologies B. V. 2005-2022,,,,,,,,,,,,,,,,,,,

PacketCounter,SampleTimeFine,Acc_X,Acc_Y,Acc_Z,Gyr_X,Gyr_Y,Gyr_Z,Mag_X,Mag_Y,Mag_Z
1, 957461266, -4.512916564941406, -1.575961947441101, 8.42016315460205, -0.5755301713943481, -0.8377017378807068, -1.1020631790161133, -0.035400390625, 0.10791015625, -0.82861328125
2, 957477933, -4.48528528213501, -1.566352128982544, 8.435879707336426, -0.6882516741752625, -0.9012596011161804, -1.186252236366272, -0.037353515625, 0.109375, -0.830322265625
3, 957494600, -4.499610900878906, -1.5723600387573242, 8.426939964294434, -0.7087290287017822, -0.8625205159187317, -1.2775870561599731, -0.035400390625, 0.10791015625, -0.82958984375
4, 957511267, -4.476296424865723, -1.5845260620117188, 8.41519832611084, -0.566527247428894, -0.7431267499923706, -1.2891126871109009, -0.035400390625, 0.109375, -0.829345703125
5, 957527934, -4.492405414581299, -1.5878241062164307, 8.44264030456543, -0.3735804259777069, -0.6482638120651245, -1.255899429321289, -0.037841796875, 0.10595703125, -0.826171875
6, 957544601, -4.501474380493164, -1.5902268886566162, 8.43939208984375, -0.34162217378616333, -0.6265122294425964, -1.1085560321807861, -0.032958984375, 0.1083984375, -0.828125
7, 957561268, -4.496392250061035, -1.5857021808624268, 8.424698829650879, -0.1522803008556366, -0.644671618938446, -1.1075059175491333, -0.035888671875, 0.1083984375, -0.8291015625
8, 957577935, -4.478786468505859, -1.566673994064331, 8.415144920349121, -0.07124172151088715, -0.5901293754577637, -1.0203074216842651, -0.036376953125, 0.109375, -0.829833984375
9, 957594602, -4.493962287902832, -1.5858484506607056, 8.427029609680176, 0.04610925540328026, -0.5689732432365417, -0.838700532913208, -0.034423828125, 0.10888671875, -0.8291015625
10, 957611269, -4.489503860473633, -1.5796089172363281, 8.440709114074707, 0.19184552133083344, -0.5665401220321655, -0.8320285677909851, -0.034423828125, 0.1083984375, -0.828125
11, 957627936, -4.4846296310424805, -1.5958226919174194, 8.427690505981445, 0.4109749495983124, -0.6026027798652649, -0.7201650738716125, -0.035888671875, 0.10791015625, -0.82763671875
12, 957644603, -4.49957275390625, -1.5717685222625732, 8.425084114074707, 0.34104591608047485, -0.7370438575744629, -0.7113800048828125, -0.035400390625, 0.107421875, -0.8271484375
13, 957661270, -4.501638412475586, -1.5649904012680054, 8.419621467590332, 0.15526707470417023, -0.5601577162742615, -0.870128333568573, -0.036376953125, 0.1064453125, -0.82861328125
14, 957677937, -4.496912002563477, -1.5822627544403076, 8.436532020568848, 0.06480652838945389, -0.517274022102356, -0.9659316539764404, -0.037841796875, 0.1083984375, -0.82763671875
15, 957694604, -4.503868103027344, -1.55363929271698, 8.427735328674316, -0.2223566621541977, -0.567206084728241, -1.103996992111206, -0.035400390625, 0.107421875, -0.829833984375
16, 957711271, -4.485225677490234, -1.593184471130371, 8.447690963745117, -0.2748114764690399, -0.6409834027290344, -0.9934782385826111, -0.035400390625, 0.1083984375, -0.830810546875
17, 957727938, -4.489277362823486, -1.5722905397415161, 8.44237232208252, -0.06472329050302505, -0.6413804292678833, -0.9507306218147278, -0.036376953125, 0.10693359375, -0.829345703125
18, 957744605, -4.490485191345215, -1.5861215591430664, 8.417929649353027, -0.17010672390460968, -0.5713168978691101, -0.9134384393692017, -0.034423828125, 0.107421875, -0.82958984375
19, 957761272, -4.4970622062683105, -1.5888447761535645, 8.425168991088867, -0.10054264962673187, -0.6071361899375916, -0.9864858388900757, -0.037841796875, 0.1083984375, -0.827880859375
20, 957777939, -4.487444877624512, -1.580278992652893, 8.430416107177734, -0.18123547732830048, -0.5566408038139343, -0.994489848613739, -0.036376953125, 0.10986328125, -0.828857421875
21, 957794606, -4.488644123077393, -1.556069254875183, 8.438505172729492, -0.30433008074760437, -0.5007795095443726, -0.9880226254463196, -0.035400390625, 0.1083984375, -0.830810546875
22, 957811273, -4.499093055725098, -1.5615978240966797, 8.436659812927246, -0.6891224980354309, -0.46402522921562195, -1.1662101745605469, -0.036376953125, 0.10791015625, -0.829833984375
23, 957827940, -4.4770636558532715, -1.5881849527359009, 8.451550483703613, -0.8009219169616699, -0.3986361026763916, -1.281941294670105, -0.035400390625, 0.10888671875, -0.829833984375
24, 957844607, -4.511662483215332, -1.5812580585479736, 8.421575546264648, -0.7641549706459045, -0.40040335059165955, -1.2272580862045288, -0.036865234375, 0.107421875, -0.82470703125
25, 957861274, -4.497405052185059, -1.6103088855743408, 8.425060272216797, -0.7436263561248779, -0.4208166301250458, -1.1996220350265503, -0.035400390625, 0.10888671875, -0.829345703125
26, 957877941, -4.477267742156982, -1.590837001800537, 8.431196212768555, -0.30472710728645325, -0.5202963948249817, -1.0372631549835205, -0.036865234375, 0.110107421875, -0.832763671875
27, 957894608, -4.489849090576172, -1.5826741456985474, 8.431333541870117, -0.1486048847436905, -0.507541298866272, -0.8509308099746704, -0.035888671875, 0.109375, -0.828125
28, 957911275, -4.502156734466553, -1.58378005027771, 8.459673881530762, -0.13090650737285614, -0.5757095217704773, -0.9019640684127808, -0.035888671875, 0.1083984375, -0.830322265625
29, 957927942, -4.491969585418701, -1.595265507698059, 8.416677474975586, -0.0288142878562212, -0.5671675801277161, -0.7901004552841187, -0.033935546875, 0.10693359375, -0.8291015625
30, 957944609, -4.488613128662109, -1.5756962299346924, 8.439836502075195, 0.05955592915415764, -0.5442442297935486, -0.7478907704353333, -0.035888671875, 0.10791015625, -0.82666015625
31, 957961276, -4.481324672698975, -1.5814658403396606, 8.426802635192871, 0.08834460377693176, -0.46741893887519836, -0.821885883808136, -0.035400390625, 0.109375, -0.831298828125
32, 957977943, -4.511284351348877, -1.588599681854248, 8.414255142211914, 0.11595508456230164, -0.40213215351104736, -0.7940064072608948, -0.035888671875, 0.10791015625, -0.830810546875
33, 957994610, -4.500309944152832, -1.5861740112304688, 8.437250137329102, 0.17358364164829254, -0.4370550811290741, -0.8449757099151611, -0.035400390625, 0.109619140625, -0.8291015625
34, 958011277, -4.49489688873291, -1.5746452808380127, 8.423379898071289, 0.17094554007053375, -0.35816794633865356, -0.7489152550697327, -0.036865234375, 0.1064453125, -0.828125
35, 958027944, -4.504154205322266, -1.577958583831787, 8.422651290893555, 0.12452254444360733, -0.2465222328901291, -0.6746768951416016, -0.037841796875, 0.10693359375, -0.831787109375
36, 958044611, -4.5062127113342285, -1.5668294429779053, 8.431727409362793, 0.04377851262688637, -0.4106740653514862, -0.7599416971206665, -0.033935546875, 0.10791015625, -0.82861328125
37, 958061278, -4.507584095001221, -1.5710031986236572, 8.442220687866211, 0.07100480049848557, -0.31726446747779846, -0.7622339129447937, -0.036865234375, 0.10791015625, -0.828125
38, 958077945, -4.501397132873535, -1.5780694484710693, 8.413542747497559, 0.07182440906763077, -0.3095422685146332, -0.7541019320487976, -0.035888671875, 0.1083984375, -0.8291015625
39, 958094612, -4.51259183883667, -1.5661795139312744, 8.434525489807129, 0.08598823100328445, -0.3385358452796936, -0.7983222007751465, -0.036865234375, 0.10791015625, -0.828857421875
40, 958111279, -4.5131072998046875, -1.553613543510437, 8.43425464630127, 0.03492291271686554, -0.4651137888431549, -0.8441305160522461, -0.035888671875, 0.109375, -0.8271484375
41, 958127946, -4.514625549316406, -1.5703378915786743, 8.462563514709473, 0.04434198513627052, -0.4575452506542206, -0.7785620093345642, -0.034423828125, 0.10693359375, -0.82958984375
42, 958144613, -4.517951488494873, -1.5534580945968628, 8.455270767211914, 0.12386943399906158, -0.5194384455680847, -0.7420639395713806, -0.034912109375, 0.10546875, -0.8291015625
43, 958161280, -4.510616779327393, -1.5598214864730835, 8.436918258666992, 0.04006465896964073, -0.5129711031913757, -0.8080934286117554, -0.035400390625, 0.107421875, -0.830322265625
44, 958177947, -4.501884460449219, -1.5899937152862549, 8.423075675964355, 0.14228494465351105, -0.6147943735122681, -0.7563685774803162, -0.034423828125, 0.10791015625, -0.830322265625
45, 958194614, -4.515568733215332, -1.5558233261108398, 8.410120010375977, 0.20358893275260925, -0.6640860438346863, -0.8401990532875061, -0.035400390625, 0.10595703125, -0.830322265625
46, 958211281, -4.4994401931762695, -1.5597654581069946, 8.422000885009766, 0.20402434468269348, -0.6794920563697815, -0.8055449724197388, -0.035400390625, 0.10595703125, -0.82861328125
47, 958227948, -4.514031410217285, -1.568116307258606, 8.448772430419922, 0.26451820135116577, -0.6133712530136108, -0.7507275938987732, -0.035400390625, 0.10498046875, -0.82958984375
48, 958244615, -4.514685153961182, -1.562860131263733, 8.445720672607422, 0.3840816617012024, -0.6315451860427856, -0.6479117274284363, -0.036865234375, 0.1064453125, -0.828125
49, 958261282, -4.504627704620361, -1.5668586492538452, 8.433304786682129, 0.41805049777030945, -0.6076997518539429, -0.7878338098526001, -0.034912109375, 0.109375, -0.828125
50, 958277949, -4.518436431884766, -1.5426026582717896, 8.41123104095459, 0.3084729313850403, -0.6144614219665527, -0.758699357509613, -0.036865234375, 0.1064453125, -0.829345703125
51, 958294616, -4.5017852783203125, -1.5538777112960815, 8.43985366821289, 0.32130488753318787, -0.605586588382721, -0.6598086953163147, -0.037353515625, 0.10595703125, -0.82763671875
52, 958311283, -4.494025230407715, -1.5515038967132568, 8.431147575378418, 0.2952311635017395, -0.6244247555732727, -0.684563398361206, -0.034423828125, 0.107421875, -0.8291015625
53, 958327950, -4.499405860900879, -1.5421444177627563, 8.415312767028809, 0.23857587575912476, -0.7136210203170776, -0.6964860558509827, -0.03466796875, 0.10546875, -0.82958984375
54, 958344617, -4.504706382751465, -1.5352593660354614, 8.426115989685059, 0.22206850349903107, -0.680798351764679, -0.7414492964744568, -0.035888671875, 0.10595703125, -0.828125
55, 958361284, -4.5096235275268555, -1.5385082960128784, 8.434192657470703, 0.0475819893181324, -0.5528116226196289, -0.8375736474990845, -0.036376953125, 0.10498046875, -0.830322265625
56, 958377951, -4.501412391662598, -1.5386996269226074, 8.41399097442627, -0.0728297084569931, -0.39448678493499756, -0.9336724877357483, -0.036376953125, 0.10546875, -0.82958984375
57, 958394618, -4.511035919189453, -1.5343517065048218, 8.438751220703125, -0.1852182298898697, -0.44550734758377075, -0.9716050028800964, -0.03466796875, 0.10400390625, -0.832275390625
58, 958411285, -4.4965500831604, -1.5451881885528564, 8.417872428894043, -0.19333747029304504, -0.4637434780597687, -1.0150439739227295, -0.03466796875, 0.10400390625, -0.832275390625
59, 958427952, -4.5042524337768555, -1.5415385961532593, 8.438553810119629, -0.19528402388095856, -0.4429716169834137, -0.9271925091743469, -0.036376953125, 0.10498046875, -0.829833984375
60, 958444619, -4.50443172454834, -1.5401815176010132, 8.428315162658691, 0.01826825551688671, -0.5464085340499878, -0.823179304599762, -0.03466796875, 0.10400390625, -0.8310546875
61, 958461286, -4.501678943634033, -1.5599656105041504, 8.422178268432617, 0.03308520466089249, -0.4954136312007904, -0.9289981722831726, -0.035400390625, 0.10546875, -0.831787109375
62, 958477953, -4.5041584968566895, -1.5416877269744873, 8.4301176071167, 0.0598248615860939, -0.6439160704612732, -0.8584481477737427, -0.035888671875, 0.10791015625, -0.830322265625
63, 958494620, -4.499267101287842, -1.5364445447921753, 8.440213203430176, 0.027911441400647163, -0.6499606966972351, -0.7402582764625549, -0.034912109375, 0.10546875, -0.82958984375
64, 958511287, -4.506179332733154, -1.5550600290298462, 8.428447723388672, 0.06796970963478088, -0.6796587109565735, -0.8500599265098572, -0.03515625, 0.10498046875, -0.831787109375
65, 958527954, -4.497284889221191, -1.5436793565750122, 8.42383861541748, 0.09319820255041122, -0.4862954318523407, -0.7544732689857483, -0.035400390625, 0.1044921875, -0.82958984375
66, 958544621, -4.497959613800049, -1.5471932888031006, 8.431137084960938, 0.030043695122003555, -0.5315659642219543, -0.6674156188964844, -0.036865234375, 0.1044921875, -0.829345703125
67, 958561288, -4.504631996154785, -1.5279768705368042, 8.432969093322754, -0.02640669234097004, -0.5313610434532166, -0.7275671362876892, -0.03515625, 0.1044921875, -0.831787109375
68, 958577955, -4.490819931030273, -1.5359132289886475, 8.418420791625977, -0.14161263406276703, -0.4157709777355194, -0.7499911189079285, -0.03515625, 0.10400390625, -0.830810546875
69, 958594622, -4.51509428024292, -1.5238012075424194, 8.42967414855957, -0.27902477979660034, -0.3637388050556183, -0.8574236035346985, -0.036376953125, 0.10595703125, -0.829833984375
70, 958611289, -4.487628936767578, -1.5562652349472046, 8.412698745727539, -0.2409258484840393, -0.3454640805721283, -0.7037088871002197, -0.034912109375, 0.1064453125, -0.82861328125
71, 958627956, -4.508306503295898, -1.5302984714508057, 8.431594848632812, -0.3101953864097595, -0.366364061832428, -0.6799018979072571, -0.035400390625, 0.10546875, -0.828125
72, 958644623, -4.513323783874512, -1.5305595397949219, 8.402338027954102, -0.1890089064836502, -0.42029157280921936, -0.6931052207946777, -0.0341796875, 0.10498046875, -0.830078125
73, 958661290, -4.50385046005249, -1.5400114059448242, 8.440335273742676, -0.19578346610069275, -0.3471801280975342, -0.7200883030891418, -0.0341796875, 0.1044921875, -0.83154296875
74, 958677957, -4.522904396057129, -1.5392520427703857, 8.418011665344238, -0.21617116034030914, -0.42915356159210205, -0.8114998936653137, -0.037353515625, 0.103515625, -0.829345703125
75, 958694624, -4.513184547424316, -1.538544774055481, 8.433475494384766, -0.09763560444116592, -0.5774767398834229, -0.7972080707550049, -0.03515625, 0.10400390625, -0.832275390625
76, 958711291, -4.508586406707764, -1.5326910018920898, 8.428925514221191, 0.011135119944810867, -0.6193790435791016, -0.8593956232070923, -0.034423828125, 0.10595703125, -0.832275390625
77, 958727958, -4.52523946762085, -1.5244011878967285, 8.434566497802734, 0.21514028310775757, -0.7088314890861511, -0.8201954960823059, -0.03564453125, 0.103515625, -0.82861328125
78, 958744625, -4.5181427001953125, -1.5431299209594727, 8.416805267333984, 0.18696628510951996, -0.8064286112785339, -0.7560099959373474, -0.035888671875, 0.10595703125, -0.82958984375
79, 958761292, -4.507532119750977, -1.5276637077331543, 8.429104804992676, 0.13981333374977112, -0.72481369972229, -0.8349868059158325, -0.03369140625, 0.10498046875, -0.83056640625
80, 958777959, -4.4925360679626465, -1.5242937803268433, 8.455806732177734, 0.12961946427822113, -0.7170019149780273, -0.8359856605529785, -0.037353515625, 0.10693359375, -0.829833984375
81, 958794626, -4.501269340515137, -1.5228475332260132, 8.42500114440918, 0.17086617648601532, -0.8141741156578064, -0.871780514717102, -0.035400390625, 0.10693359375, -0.8291015625
82, 958811293, -4.50540018081665, -1.5527846813201904, 8.448744773864746, 0.15794071555137634, -0.8087850213050842, -0.7141717672348022, -0.035400390625, 0.1044921875, -0.830322265625
83, 958827960, -4.498264312744141, -1.5442590713500977, 8.420404434204102, 0.09010547399520874, -0.8297490477561951, -0.7821221947669983, -0.037841796875, 0.10400390625, -0.828125
84, 958844627, -4.49552583694458, -1.5285879373550415, 8.444111824035645, 0.21143925189971924, -0.7120459079742432, -0.7271830439567566, -0.0341796875, 0.1025390625, -0.82958984375
85, 958861294, -4.507401466369629, -1.5355240106582642, 8.422710418701172, 0.3354431092739105, -0.6740750074386597, -0.55616694688797, -0.037353515625, 0.10595703125, -0.831298828125
86, 958877961, -4.510963439941406, -1.5111876726150513, 8.419255256652832, 0.44931715726852417, -0.7310120463371277, -0.48527097702026367, -0.03515625, 0.103515625, -0.8291015625
87, 958894628, -4.51591682434082, -1.507473349571228, 8.456745147705078, 0.394890159368515, -0.7592628598213196, -0.5808063745498657, -0.03515625, 0.10498046875, -0.831298828125
88, 958911295, -4.506418228149414, -1.5122379064559937, 8.428938865661621, 0.37644901871681213, -0.7177702188491821, -0.6079045534133911, -0.034912109375, 0.10595703125, -0.830322265625
89, 958927962, -4.518989562988281, -1.5135365724563599, 8.436100006103516, 0.41664817929267883, -0.6703996062278748, -0.6662759184837341, -0.037353515625, 0.10302734375, -0.8291015625
90, 958944629, -4.49598503112793, -1.5209225416183472, 8.41856575012207, 0.24691924452781677, -0.6920552253723145, -0.6503833532333374, -0.0361328125, 0.10302734375, -0.830322265625
91, 958961296, -4.5077667236328125, -1.5212664604187012, 8.423718452453613, 0.153452068567276, -0.5243687629699707, -0.7005969285964966, -0.03515625, 0.103515625, -0.830078125
92, 958977963, -4.5116448402404785, -1.508590579032898, 8.420674324035645, -0.11519312858581543, -0.5517488121986389, -0.752693235874176, -0.0361328125, 0.1025390625, -0.82958984375
93, 958994630, -4.5041303634643555, -1.5046025514602661, 8.423328399658203, -0.11707565933465958, -0.5142006278038025, -0.8169426918029785, -0.035888671875, 0.10400390625, -0.830322265625
94, 959011297, -4.501951694488525, -1.5094021558761597, 8.417716026306152, -0.14609482884407043, -0.4891897439956665, -0.8096302151679993, -0.03564453125, 0.10205078125, -0.834228515625
95, 959027964, -4.515944480895996, -1.507082462310791, 8.450240135192871, -0.17102880775928497, -0.4973602294921875, -0.8850083947181702, -0.035888671875, 0.10400390625, -0.8291015625
96, 959044631, -4.490916728973389, -1.49980628490448, 8.454245567321777, -0.3357952833175659, -0.5023418664932251, -0.930611789226532, -0.03515625, 0.10400390625, -0.835205078125
97, 959061298, -4.512742042541504, -1.5201109647750854, 8.43903636932373, -0.25615260004997253, -0.3676062226295471, -0.9605786204338074, -0.0361328125, 0.101318359375, -0.830810546875
98, 959077965, -4.521925449371338, -1.5127428770065308, 8.433176040649414, -0.43377670645713806, -0.32921284437179565, -0.9323023557662964, -0.036376953125, 0.10498046875, -0.828125
99, 959094632, -4.517136573791504, -1.5083595514297485, 8.44031810760498, -0.3594101667404175, -0.4255165755748749, -0.9615007042884827, -0.03515625, 0.1044921875, -0.82861328125
100, 959111299, -4.5029988288879395, -1.5206938982009888, 8.446626663208008, -0.25678011775016785, -0.423800528049469, -0.9548157453536987, -0.0341796875, 0.10400390625, -0.82763671875
101, 959127966, -4.505917072296143, -1.5092716217041016, 8.44640064239502, -0.2886295020580292, -0.47414228320121765, -0.9628324508666992, -0.036376953125, 0.103515625, -0.828125
102, 959144633, -4.516779899597168, -1.5251975059509277, 8.437699317932129, -0.3083256781101227, -0.390785813331604, -0.9461715817451477, -0.036865234375, 0.10400390625, -0.82958984375
103, 959161300, -4.519265174865723, -1.5233995914459229, 8.436169624328613, -0.10932780802249908, -0.42427435517311096, -1.0075651407241821, -0.036376953125, 0.1044921875, -0.829833984375
104, 959177967, -4.51401424407959, -1.5267548561096191, 8.451342582702637, -0.14934763312339783, -0.5687427520751953, -0.9479259848594666, -0.03564453125, 0.103515625, -0.82958984375
105, 959194634, -4.521588325500488, -1.5099300146102905, 8.417974472045898, -0.16059161722660065, -0.5783091187477112, -0.97184818983078, -0.03564453125, 0.103515625, -0.8291015625
106, 959211301, -4.520172119140625, -1.513340950012207, 8.422855377197266, -0.0748659148812294, -0.5773998498916626, -0.9791478514671326, -0.0361328125, 0.10302734375, -0.82958984375
107, 959227968, -4.521914958953857, -1.5029367208480835, 8.440032005310059, -0.17305220663547516, -0.6354767084121704, -1.0081030130386353, -0.03564453125, 0.1025390625, -0.82958984375
108, 959244635, -4.512243270874023, -1.486596703529358, 8.45750617980957, -0.2449854612350464, -0.619046151638031, -1.0998092889785767, -0.03515625, 0.10400390625, -0.82861328125
109, 959261302, -4.509884834289551, -1.5172070264816284, 8.425562858581543, -0.1279098242521286, -0.6589890718460083, -1.0595717430114746, -0.03564453125, 0.10302734375, -0.83056640625
110, 959277969, -4.511826515197754, -1.5015661716461182, 8.46679973602295, -0.14492946863174438, -0.7867197394371033, -1.0324223041534424, -0.036376953125, 0.10595703125, -0.831298828125
111, 959294636, -4.511866092681885, -1.521297574043274, 8.43999195098877, -0.06628566235303879, -0.9022713303565979, -1.046419620513916, -0.03564453125, 0.10400390625, -0.8291015625
112, 959311303, -4.510252475738525, -1.5059854984283447, 8.410440444946289, -0.044822223484516144, -0.8324767351150513, -1.101871132850647, -0.035400390625, 0.10595703125, -0.830810546875
113, 959327970, -4.508568286895752, -1.5040080547332764, 8.443955421447754, -0.08614830672740936, -0.9326352477073669, -1.1203378438949585, -0.03515625, 0.10400390625, -0.830078125
114, 959344637, -4.516301155090332, -1.4963923692703247, 8.444488525390625, -0.17576488852500916, -0.9129042029380798, -1.1963385343551636, -0.0341796875, 0.1015625, -0.8291015625
115, 959361304, -4.499154090881348, -1.5042939186096191, 8.443414688110352, -0.1709519475698471, -0.7676637768745422, -1.2100849151611328, -0.0341796875, 0.1044921875, -0.8291015625
116, 959377971, -4.479344844818115, -1.5145553350448608, 8.430269241333008, -0.16253818571567535, -0.8785154223442078, -1.1540441513061523, -0.035888671875, 0.10400390625, -0.833251953125
117, 959394638, -4.505120754241943, -1.5203490257263184, 8.445322036743164, -0.0658886581659317, -0.8163023591041565, -1.0664615631103516, -0.036865234375, 0.10546875, -0.829833984375
118, 959411305, -4.485567092895508, -1.4945266246795654, 8.421213150024414, -0.090476855635643, -0.8540683388710022, -1.1053287982940674, -0.037353515625, 0.10498046875, -0.828857421875
119, 959427972, -4.508365154266357, -1.5000553131103516, 8.436189651489258, -0.1370919644832611, -0.7860409021377563, -1.1408663988113403, -0.03564453125, 0.10205078125, -0.8291015625
120, 959444639, -4.498476982116699, -1.5012015104293823, 8.439608573913574, -0.1814403533935547, -0.7029405236244202, -1.1327855587005615, -0.03466796875, 0.10302734375, -0.83056640625
121, 959461306, -4.487496376037598, -1.5057824850082397, 8.453330993652344, -0.26027625799179077, -0.6339399814605713, -1.1732537746429443, -0.036376953125, 0.1044921875, -0.82958984375
122, 959477973, -4.496245861053467, -1.5125325918197632, 8.437253952026367, -0.23979893326759338, -0.5852630138397217, -1.105303168296814, -0.0361328125, 0.10302734375, -0.830078125
123, 959494640, -4.481381416320801, -1.5256131887435913, 8.438809394836426, -0.3074932396411896, -0.5031998157501221, -0.988201916217804, -0.0361328125, 0.10302734375, -0.82861328125
124, 959511307, -4.507125377655029, -1.4947550296783447, 8.463167190551758, -0.34899863600730896, -0.4276424050331116, -1.0152745246887207, -0.036865234375, 0.10595703125, -0.831787109375
125, 959527974, -4.506050109863281, -1.5084642171859741, 8.453500747680664, -0.3950630724430084, -0.40999528765678406, -1.0796138048171997, -0.0341796875, 0.10302734375, -0.83154296875
126, 959544641, -4.5056633949279785, -1.5138216018676758, 8.431022644042969, -0.42129048705101013, -0.4094190001487732, -1.0608267784118652, -0.036865234375, 0.10302734375, -0.828125
127, 959561308, -4.4984283447265625, -1.5140058994293213, 8.406229972839355, -0.5061838030815125, -0.25761252641677856, -1.0268516540527344, -0.038818359375, 0.1025390625, -0.82763671875
128, 959577975, -4.5013580322265625, -1.5238667726516724, 8.446832656860352, -0.4541131258010864, -0.20465826988220215, -1.000585675239563, -0.03515625, 0.10400390625, -0.832275390625
129, 959594642, -4.4983744621276855, -1.5270097255706787, 8.454621315002441, -0.35232827067375183, -0.28441616892814636, -0.9618464708328247, -0.03515625, 0.103515625, -0.828125
130, 959611309, -4.480623245239258, -1.520232081413269, 8.422561645507812, -0.412198007106781, -0.24921156466007233, -0.8779136538505554, -0.0341796875, 0.10546875, -0.830078125
131, 959627976, -4.496832370758057, -1.4933608770370483, 8.436884880065918, -0.5544381141662598, -0.06806574761867523, -0.9151801466941833, -0.0361328125, 0.101318359375, -0.8291015625
132, 959644643, -4.516190528869629, -1.512077808380127, 8.40909194946289, -0.5423617362976074, -0.046038828790187836, -0.9909554719924927, -0.03515625, 0.10400390625, -0.82861328125
133, 959661310, -4.521848678588867, -1.518471598625183, 8.452496528625488, -0.5959306359291077, 0.05009203031659126, -0.974511981010437, -0.03369140625, 0.1025390625, -0.830078125
134, 959677977, -4.511921405792236, -1.5260272026062012, 8.432632446289062, -0.5732506513595581, -0.10834171622991562, -0.9801980257034302, -0.036865234375, 0.103515625, -0.833251953125
135, 959694644, -4.531046390533447, -1.5213590860366821, 8.421222686767578, -0.45310142636299133, -0.2875537574291229, -0.9269620180130005, -0.03466796875, 0.10498046875, -0.8310546875
136, 959711311, -4.528547763824463, -1.510439157485962, 8.410799980163574, -0.31726449728012085, -0.4120955467224121, -0.9197008609771729, -0.03466796875, 0.10302734375, -0.83056640625
137, 959727978, -4.518405914306641, -1.5256818532943726, 8.419110298156738, -0.11816418170928955, -0.6181753277778625, -0.951575756072998, -0.033203125, 0.103515625, -0.8291015625
138, 959744645, -4.49275541305542, -1.5247598886489868, 8.43789005279541, -0.08024459332227707, -0.6252444386482239, -0.7881283760070801, -0.036376953125, 0.10302734375, -0.82861328125
139, 959761312, -4.509608745574951, -1.5170434713363647, 8.408242225646973, -0.1621347963809967, -0.4165329039096832, -0.854036271572113, -0.036865234375, 0.10400390625, -0.829833984375
140, 959777979, -4.50919246673584, -1.5144211053848267, 8.41629409790039, -0.19050724804401398, -0.3314026892185211, -0.8631991744041443, -0.03515625, 0.103515625, -0.831298828125
141, 959794646, -4.521366596221924, -1.4912617206573486, 8.436498641967773, -0.19621887803077698, -0.49505504965782166, -0.8754292130470276, -0.0341796875, 0.10400390625, -0.83056640625
142, 959811313, -4.515026092529297, -1.5155072212219238, 8.410491943359375, -0.10624148696660995, -0.33644843101501465, -0.7569064497947693, -0.037841796875, 0.10205078125, -0.831298828125
143, 959827980, -4.513761520385742, -1.5151535272598267, 8.409045219421387, -0.09882660210132599, -0.48892080783843994, -0.8145862817764282, -0.03466796875, 0.103515625, -0.82958984375
144, 959844647, -4.501667499542236, -1.519392967224121, 8.446301460266113, -0.161244735121727, -0.6206340789794922, -0.7818403840065002, -0.03369140625, 0.10205078125, -0.83203125
145, 959861314, -4.507739543914795, -1.5339521169662476, 8.443553924560547, -0.16347303986549377, -0.5646575689315796, -0.7158877849578857, -0.035888671875, 0.10546875, -0.82763671875
146, 959877981, -4.483370304107666, -1.5230703353881836, 8.424562454223633, -0.1272823065519333, -0.5145719051361084, -0.7432677149772644, -0.03515625, 0.10498046875, -0.831787109375
147, 959894648, -4.5017547607421875, -1.5173454284667969, 8.421353340148926, -0.1894059032201767, -0.4177815318107605, -0.6629719138145447, -0.035400390625, 0.1044921875, -0.830810546875
148, 959911315, -4.5103325843811035, -1.5153226852416992, 8.435662269592285, -0.1877395361661911, -0.4546526074409485, -0.537553071975708, -0.033203125, 0.1025390625, -0.83056640625
149, 959927982, -4.507319450378418, -1.5235934257507324, 8.441569328308105, -0.16019460558891296, -0.2553970217704773, -0.4782787263393402, -0.03515625, 0.10205078125, -0.830078125
150, 959944649, -4.536304473876953, -1.504921555519104, 8.439946174621582, -0.2376730591058731, -0.2465222328901291, -0.5777456760406494, -0.0341796875, 0.103515625, -0.830078125
151, 959961316, -4.548516750335693, -1.4981588125228882, 8.436323165893555, -0.2148137092590332, -0.2072579562664032, -0.6598215699195862, -0.03466796875, 0.1044921875, -0.831298828125
152, 959977983, -4.515626907348633, -1.527308702468872, 8.45693302154541, -0.21594706177711487, -0.2098640501499176, -0.7611389756202698, -0.035888671875, 0.1044921875, -0.832275390625
153, 959994650, -4.526704788208008, -1.5061014890670776, 8.427364349365234, -0.27359482645988464, -0.10959673672914505, -0.7766026258468628, -0.03369140625, 0.10546875, -0.830078125
154, 960011317, -4.534665107727051, -1.5084595680236816, 8.419185638427734, -0.18731847405433655, -0.23170529305934906, -0.8091691732406616, -0.03369140625, 0.10400390625, -0.8291015625
155, 960027984, -4.540106296539307, -1.5088876485824585, 8.415163040161133, -0.2227792739868164, -0.22560948133468628, -0.8108981251716614, -0.03466796875, 0.1044921875, -0.830078125
156, 960044651, -4.54770565032959, -1.5199166536331177, 8.404834747314453, -0.1607452929019928, -0.3483198583126068, -0.7435365915298462, -0.0322265625, 0.10400390625, -0.82763671875
157, 960061318, -4.541378021240234, -1.5002471208572388, 8.42723560333252, -0.0341673381626606, -0.5651954412460327, -0.8250746726989746, -0.0341796875, 0.1044921875, -0.8291015625
158, 960077985, -4.525691509246826, -1.5263679027557373, 8.415519714355469, -0.07266322523355484, -0.5645807385444641, -0.8445146679878235, -0.03466796875, 0.1044921875, -0.83056640625
159, 960094652, -4.523490905761719, -1.5138602256774902, 8.410776138305664, -0.09579148888587952, -0.5375208258628845, -0.7769740223884583, -0.0341796875, 0.10302734375, -0.828125
160, 960111319, -4.532860279083252, -1.4938925504684448, 8.425439834594727, -0.1138356402516365, -0.43393033742904663, -0.8260608315467834, -0.03466796875, 0.10205078125, -0.8291015625
161, 960127986, -4.533432960510254, -1.497626781463623, 8.411478042602539, -0.1067921444773674, -0.5568328499794006, -0.8704859614372253, -0.03271484375, 0.10595703125, -0.83154296875
162, 960144653, -4.537085056304932, -1.5100548267364502, 8.424967765808105, -0.019824231043457985, -0.6319037675857544, -0.7981557250022888, -0.035888671875, 0.10498046875, -0.830810546875
163, 960161320, -4.550034523010254, -1.5024441480636597, 8.412508964538574, 0.05220508575439453, -0.6976643204689026, -0.8233715295791626, -0.03271484375, 0.103515625, -0.832763671875
164, 960177987, -4.523976802825928, -1.514285683631897, 8.421812057495117, 0.09200721234083176, -0.794723629951477, -0.8285195231437683, -0.03564453125, 0.10400390625, -0.830810546875
165, 960194654, -4.529055595397949, -1.4957882165908813, 8.445976257324219, 0.18951475620269775, -0.8002943992614746, -0.8801035284996033, -0.03466796875, 0.10302734375, -0.8291015625
166, 960211321, -4.524364948272705, -1.4979568719863892, 8.41561222076416, 0.09196880459785461, -0.7881796956062317, -0.9146807789802551, -0.03466796875, 0.1044921875, -0.831787109375
167, 960227988, -4.524383068084717, -1.5010286569595337, 8.436413764953613, -0.028724640607833862, -0.7827752828598022, -0.9310343861579895, -0.03369140625, 0.10205078125, -0.83056640625
168, 960244655, -4.52099084854126, -1.4963195323944092, 8.43472671508789, 0.058236874639987946, -0.7119817733764648, -0.9413563013076782, -0.0341796875, 0.10302734375, -0.83154296875
169, 960261322, -4.533457279205322, -1.4857264757156372, 8.421494483947754, 0.0444188266992569, -0.8924874067306519, -0.9833099842071533, -0.0341796875, 0.103515625, -0.833251953125
170, 960277989, -4.524085998535156, -1.49165940284729, 8.427976608276367, 0.023147478699684143, -0.9557251334190369, -1.044716477394104, -0.0341796875, 0.10498046875, -0.831787109375
171, 960294656, -4.535871982574463, -1.4954290390014648, 8.461031913757324, 0.03918743133544922, -1.003537654876709, -1.0629974603652954, -0.036376953125, 0.10302734375, -0.830322265625
172, 960311323, -4.533441543579102, -1.4944088459014893, 8.416996002197266, 0.0916486531496048, -0.9415100812911987, -1.0408744812011719, -0.03564453125, 0.1015625, -0.831787109375
173, 960327990, -4.520558834075928, -1.510676383972168, 8.450992584228516, 0.09562502056360245, -0.9827017188072205, -1.086036205291748, -0.0341796875, 0.10302734375, -0.830078125
174, 960344657, -4.512253284454346, -1.485550045967102, 8.445812225341797, -2.9454604373313487E-4, -0.9792118668556213, -1.1917459964752197, -0.03662109375, 0.1015625, -0.8291015625
175, 960361324, -4.513354778289795, -1.4712892770767212, 8.415297508239746, -0.03634442016482353, -0.7861562371253967, -1.1447596549987793, -0.03515625, 0.103515625, -0.82861328125
176, 960377991, -4.507604598999023, -1.4722458124160767, 8.440258026123047, -0.14731143414974213, -0.8572185635566711, -1.3482781648635864, -0.037353515625, 0.1044921875, -0.8291015625
177, 960394658, -4.51398229598999, -1.499789834022522, 8.433982849121094, -0.5697545409202576, -0.6884565949440002, -1.5000718832015991, -0.03271484375, 0.1025390625, -0.83251953125
178, 960411325, -4.533298969268799, -1.4973036050796509, 8.418046951293945, -0.6117336750030518, -0.6661478877067566, -1.5997819900512695, -0.03662109375, 0.101318359375, -0.830810546875
179, 960427992, -4.508721351623535, -1.4973119497299194, 8.417725563049316, -0.41885730624198914, -0.8264194130897522, -1.4372568130493164, -0.0341796875, 0.10107421875, -0.83056640625
180, 960444659, -4.519922733306885, -1.491902232170105, 8.425640106201172, -0.37262627482414246, -0.9821316003799438, -1.4902234077453613, -0.03466796875, 0.10302734375, -0.83056640625
181, 960461326, -4.512458324432373, -1.5153354406356812, 8.428711891174316, -0.3563196659088135, -0.9109448194503784, -1.4441691637039185, -0.037109375, 0.10205078125, -0.831298828125
182, 960477993, -4.5097975730896, -1.5003987550735474, 8.454198837280273, -0.17006832361221313, -0.977303683757782, -1.332462191581726, -0.036376953125, 0.10498046875, -0.82958984375
183, 960494660, -4.501711845397949, -1.5104111433029175, 8.430476188659668, -0.16570137441158295, -1.1115272045135498, -1.2905856370925903, -0.033203125, 0.10302734375, -0.8310546875
184, 960511327, -4.497250080108643, -1.4984091520309448, 8.4344482421875, -0.09375528991222382, -1.1235908269882202, -1.1662486791610718, -0.033203125, 0.103515625, -0.83056640625
185, 960527994, -4.486603260040283, -1.5030916929244995, 8.436728477478027, -0.1118890717625618, -1.1148439645767212, -1.2156428098678589, -0.036865234375, 0.10400390625, -0.831298828125
186, 960544661, -4.469269752502441, -1.5220797061920166, 8.44007682800293, -0.0683474913239479, -0.9914292097091675, -1.0731849670410156, -0.037109375, 0.10205078125, -0.830810546875
187, 960561328, -4.508978843688965, -1.5038471221923828, 8.437360763549805, -0.08854310214519501, -0.8722148537635803, -1.0762968063354492, -0.03515625, 0.1025390625, -0.82958984375
188, 960577995, -4.506407737731934, -1.5021275281906128, 8.447080612182617, -0.04009667783975601, -0.8112053871154785, -1.0721603631973267, -0.03564453125, 0.10302734375, -0.83056640625
189, 960594662, -4.506753921508789, -1.5101287364959717, 8.435506820678711, 0.011557730846107006, -0.6744208335876465, -1.0416685342788696, -0.039794921875, 0.1044921875, -0.831298828125
190, 960611329, -4.496062755584717, -1.5124984979629517, 8.402667045593262, 0.02778337337076664, -0.6650465130805969, -0.951524555683136, -0.03564453125, 0.101318359375, -0.830078125
191, 960627996, -4.497040748596191, -1.4950820207595825, 8.416460990905762, -0.016200032085180283, -0.6037040948867798, -0.9053705334663391, -0.0341796875, 0.103515625, -0.832275390625
192, 960644663, -4.501197814941406, -1.5068724155426025, 8.426828384399414, 0.18092168867588043, -0.7135313749313354, -0.8875952363014221, -0.03466796875, 0.1015625, -0.82861328125
193, 960661330, -4.504179000854492, -1.503956913948059, 8.424558639526367, 0.2209799587726593, -0.5695496201515198, -0.8419663310050964, -0.03564453125, 0.103515625, -0.830810546875
194, 960677997, -4.495107650756836, -1.4972282648086548, 8.444378852844238, 0.016059163957834244, -0.6594245433807373, -0.8423120975494385, -0.03564453125, 0.10205078125, -0.82958984375
195, 960694664, -4.51104211807251, -1.4982341527938843, 8.451404571533203, 0.01282555889338255, -0.5866076350212097, -0.89007967710495, -0.03515625, 0.103515625, -0.8310546875
196, 960711331, -4.50537633895874, -1.4929625988006592, 8.427840232849121, -0.12522050738334656, -0.6715138554573059, -1.019052505493164, -0.03466796875, 0.10302734375, -0.8291015625
197, 960727998, -4.486806869506836, -1.492075800895691, 8.431914329528809, -0.1948101967573166, -0.5563334822654724, -1.0189628601074219, -0.03564453125, 0.1015625, -0.831298828125
198, 960744665, -4.502340316772461, -1.5041543245315552, 8.435748100280762, -0.37745434045791626, -0.41660329699516296, -1.085658311843872, -0.0361328125, 0.10205078125, -0.831787109375
199, 960761332, -4.496081829071045, -1.4913907051086426, 8.448175430297852, -0.35296863317489624, -0.45804470777511597, -1.0715713500976562, -0.03662109375, 0.100341796875, -0.835205078125
200, 960777999, -4.511333465576172, -1.5086119174957275, 8.423051834106445, -0.36144641041755676, -0.5355615615844727, -1.0350219011306763, -0.036376953125, 0.10302734375, -0.830322265625
201, 960794666, -4.509068012237549, -1.4921458959579468, 8.452085494995117, -0.40772855281829834, -0.5113062858581543, -1.0980677604675293, -0.03515625, 0.1044921875, -0.830810546875
202, 960811333, -4.501645565032959, -1.5005885362625122, 8.451380729675293, -0.35807833075523376, -0.6732682585716248, -1.1226431131362915, -0.03515625, 0.1025390625, -0.8310546875
203, 960828000, -4.493829250335693, -1.5079277753829956, 8.431497573852539, -0.428923100233078, -0.5314251184463501, -1.139816403388977, -0.03515625, 0.1015625, -0.8291015625
204, 960844667, -4.512167930603027, -1.4970686435699463, 8.417715072631836, -0.4285901188850403, -0.5165697932243347, -1.0456128120422363, -0.03515625, 0.101318359375, -0.82861328125
205, 960861334, -4.513110160827637, -1.4968503713607788, 8.433316230773926, -0.44626280665397644, -0.6102994084358215, -1.113012671470642, -0.03662109375, 0.1015625, -0.832275390625
206, 960878001, -4.489893913269043, -1.5010510683059692, 8.432019233703613, -0.5440905690193176, -0.5637611150741577, -1.1398931741714478, -0.03466796875, 0.10205078125, -0.831787109375
207, 960894668, -4.512174129486084, -1.5054875612258911, 8.450797080993652, -0.6527524590492249, -0.3663896918296814, -1.1994554996490479, -0.035400390625, 0.1044921875, -0.82861328125
208, 960911335, -4.49982213973999, -1.500604271888733, 8.429414749145508, -0.5718291401863098, -0.32653629779815674, -1.1336308717727661, -0.036376953125, 0.1044921875, -0.830810546875
209, 960928002, -4.480564117431641, -1.508479356765747, 8.42525863647461, -0.5732762217521667, -0.48089122772216797, -1.1540826559066772, -0.036376953125, 0.1044921875, -0.831787109375
210, 960944669, -4.486338138580322, -1.5295368432998657, 8.42189884185791, -0.37404781579971313, -0.4681745171546936, -0.9582863450050354, -0.037841796875, 0.101318359375, -0.828125
211, 960961336, -4.468902587890625, -1.5310466289520264, 8.434818267822266, -0.17904557287693024, -0.3483455181121826, -0.847601056098938, -0.03662109375, 0.10205078125, -0.830078125
212, 960978003, -4.529584884643555, -1.4954301118850708, 8.459815979003906, -0.20344166457653046, -0.26149284839630127, -0.8146374821662903, -0.0341796875, 0.10546875, -0.831787109375
213, 960994670, -4.510556697845459, -1.499786376953125, 8.432798385620117, -0.15818403661251068, -0.31084853410720825, -0.8468583822250366, -0.036376953125, 0.10498046875, -0.831298828125
214, 961011337, -4.508330821990967, -1.5096160173416138, 8.419947624206543, -0.2447805553674698, -0.3593461513519287, -0.8207204937934875, -0.03564453125, 0.1025390625, -0.8291015625
215, 961028004, -4.5188984870910645, -1.4972121715545654, 8.436095237731934, -0.18980146944522858, -0.3973408043384552, -0.8091152906417847, -0.03515625, 0.10400390625, -0.83056640625
216, 961044671, -4.511711120605469, -1.5156490802764893, 8.41328239440918, -0.22924646735191345, -0.4523075222969055, -0.8735467791557312, -0.03515625, 0.10302734375, -0.828125
217, 961061338, -4.502381801605225, -1.5095539093017578, 8.44944953918457, -0.09380652010440826, -0.5407354235649109, -0.8741871118545532, -0.03515625, 0.103515625, -0.82861328125
218, 961078005, -4.498279094696045, -1.5149577856063843, 8.439949989318848, -0.12660357356071472, -0.46762382984161377, -0.8319901823997498, -0.03466796875, 0.1044921875, -0.830078125
219, 961094672, -4.510533809661865, -1.5040916204452515, 8.421003341674805, -0.024780284613370895, -0.6081478595733643, -0.839276909828186, -0.03515625, 0.10302734375, -0.830078125
220, 961111339, -4.5136637687683105, -1.493454933166504, 8.44015884399414, -0.09978707879781723, -0.4808272421360016, -0.8939601182937622, -0.03369140625, 0.10302734375, -0.830078125
221, 961128006, -4.50156307220459, -1.5063408613204956, 8.418728828430176, -0.28013885021209717, -0.5504680871963501, -0.9178566336631775, -0.0341796875, 0.10107421875, -0.83056640625
222, 961144673, -4.4989190101623535, -1.4949679374694824, 8.41995620727539, -0.2966078817844391, -0.4185371696949005, -0.9201747179031372, -0.036865234375, 0.1025390625, -0.829833984375
223, 961161340, -4.505664348602295, -1.5103789567947388, 8.442440032958984, -0.3144855201244354, -0.4254525303840637, -0.9624355435371399, -0.03466796875, 0.10302734375, -0.831787109375
224, 961178007, -4.522847652435303, -1.5106807947158813, 8.440165519714355, -0.3567977249622345, -0.43576163053512573, -0.9781873822212219, -0.03564453125, 0.103515625, -0.830078125
225, 961194674, -4.499113082885742, -1.4998356103897095, 8.444623947143555, -0.36915579438209534, -0.5048390626907349, -0.9773293137550354, -0.03369140625, 0.10400390625, -0.83154296875
226, 961211341, -4.520665645599365, -1.5030796527862549, 8.449808120727539, -0.35915407538414, -0.4965150058269501, -1.0529508590698242, -0.03515625, 0.1015625, -0.8291015625
227, 961228008, -4.52141809463501, -1.5117835998535156, 8.422785758972168, -0.331153005361557, -0.4066208302974701, -1.0154602527618408, -0.0341796875, 0.10302734375, -0.8291015625
228, 961244675, -4.520925521850586, -1.5115187168121338, 8.450094223022461, -0.3029341399669647, -0.5279801487922668, -1.0178742408752441, -0.036376953125, 0.10302734375, -0.82958984375
229, 961261342, -4.504058361053467, -1.502172827720642, 8.4244384765625, -0.28705430030822754, -0.5365988612174988, -1.0094220638275146, -0.03466796875, 0.10400390625, -0.8291015625
230, 961278009, -4.5124831199646, -1.510151982307434, 8.427749633789062, -0.3529813885688782, -0.491546094417572, -0.9726166129112244, -0.03662109375, 0.1025390625, -0.82958984375
231, 961294676, -4.506152629852295, -1.4945275783538818, 8.445327758789062, -0.2097167670726776, -0.5056203007698059, -1.0054008960723877, -0.0361328125, 0.10302734375, -0.8291015625
232, 961311343, -4.503037452697754, -1.4993690252304077, 8.442219734191895, -0.23293469846248627, -0.5444490909576416, -0.9729495644569397, -0.03515625, 0.1025390625, -0.828125
233, 961328010, -4.522826194763184, -1.5183496475219727, 8.440225601196289, -0.22581438720226288, -0.6246041059494019, -1.0267620086669922, -0.03662109375, 0.098876953125, -0.828125
234, 961344677, -4.508753776550293, -1.4988921880722046, 8.433674812316895, -0.2328706830739975, -0.6557108163833618, -1.0178359746932983, -0.03564453125, 0.10205078125, -0.8291015625
235, 961361344, -4.513236999511719, -1.5080703496932983, 8.443912506103516, -0.22436726093292236, -0.557306706905365, -1.0261088609695435, -0.03515625, 0.10400390625, -0.830078125
236, 961378011, -4.493658065795898, -1.5027915239334106, 8.452195167541504, -0.14336706697940826, -0.6605771780014038, -0.9991514682769775, -0.034912109375, 0.10546875, -0.8291015625
237, 961394678, -4.512092113494873, -1.507338285446167, 8.426189422607422, -0.13839823007583618, -0.5421440005302429, -0.9513324499130249, -0.03515625, 0.10205078125, -0.82666015625
238, 961411345, -4.5121049880981445, -1.4892382621765137, 8.40933609008789, -0.1338263601064682, -0.5875681638717651, -1.0036848783493042, -0.03564453125, 0.101318359375, -0.82861328125
239, 961428012, -4.495030403137207, -1.50081467628479, 8.439759254455566, -0.057769447565078735, -0.7033632397651672, -0.9978964328765869, -0.03662109375, 0.1025390625, -0.82861328125
240, 961444679, -4.521535396575928, -1.5080145597457886, 8.437553405761719, -0.08206308633089066, -0.7737084031105042, -0.9455440640449524, -0.03466796875, 0.103515625, -0.8291015625
241, 961461346, -4.5128374099731445, -1.5136713981628418, 8.448830604553223, -0.09636778384447098, -0.7233538627624512, -0.9393714070320129, -0.0341796875, 0.10205078125, -0.830078125
242, 961478013, -4.510160446166992, -1.4770931005477905, 8.412681579589844, -0.17636904120445251, -0.6835900545120239, -0.9970895051956177, -0.03564453125, 0.1025390625, -0.831787109375
243, 961494680, -4.507521152496338, -1.4845856428146362, 8.41778564453125, -0.20520897209644318, -0.5440009236335754, -1.042244791984558, -0.036376953125, 0.1044921875, -0.831787109375
244, 961511347, -4.510940074920654, -1.4986213445663452, 8.456635475158691, -0.21244455873966217, -0.6632921099662781, -1.1292383670806885, -0.03662109375, 0.10205078125, -0.830078125
245, 961528014, -4.502439498901367, -1.498795747756958, 8.450502395629883, -0.2986569106578827, -0.6321598291397095, -1.1414811611175537, -0.03515625, 0.1025390625, -0.830078125
246, 961544681, -4.515433311462402, -1.492928385734558, 8.439867973327637, -0.4159758388996124, -0.5064014792442322, -1.2251451015472412, -0.036865234375, 0.103515625, -0.829833984375
247, 961561348, -4.512852191925049, -1.4895648956298828, 8.414704322814941, -0.4343529939651489, -0.4629752039909363, -1.1832044124603271, -0.037353515625, 0.1025390625, -0.829833984375
248, 961578015, -4.503091335296631, -1.5235449075698853, 8.428421974182129, -0.4521937370300293, -0.5053560733795166, -1.172273874282837, -0.0341796875, 0.10498046875, -0.82958984375
249, 961594682, -4.522542476654053, -1.5096933841705322, 8.436296463012695, -0.4281291365623474, -0.5178887844085693, -1.1121034622192383, -0.03564453125, 0.10302734375, -0.83056640625
250, 961611349, -4.516420841217041, -1.5031177997589111, 8.442854881286621, -0.3910802900791168, -0.5421183705329895, -1.09726083278656, -0.035888671875, 0.10400390625, -0.831298828125
251, 961628016, -4.489490509033203, -1.528320074081421, 8.424505233764648, -0.4495413303375244, -0.4499511420726776, -1.1627781391143799, -0.0361328125, 0.1025390625, -0.82861328125
252, 961644683, -4.500743389129639, -1.515348196029663, 8.443634986877441, -0.545499324798584, -0.5449870228767395, -1.182090163230896, -0.0341796875, 0.10498046875, -0.82861328125
253, 961661350, -4.502033233642578, -1.5274180173873901, 8.410175323486328, -0.5251372456550598, -0.4920327961444855, -1.2600295543670654, -0.0361328125, 0.10302734375, -0.831787109375
254, 961678017, -4.504318714141846, -1.5232526063919067, 8.428650856018066, -0.5020857453346252, -0.5571658611297607, -1.2041041851043701, -0.03759765625, 0.101806640625, -0.830322265625
255, 961694684, -4.51466703414917, -1.5143522024154663, 8.459016799926758, -0.3885062634944916, -0.5900909900665283, -1.1079158782958984, -0.037353515625, 0.10302734375, -0.832763671875
256, 961711351, -4.5167975425720215, -1.51455819606781, 8.434736251831055, -0.3810785710811615, -0.5903727412223816, -1.2234162092208862, -0.036376953125, 0.10400390625, -0.82958984375
257, 961728018, -4.523242950439453, -1.5139920711517334, 8.432855606079102, -0.2999759316444397, -0.7703019380569458, -1.1540826559066772, -0.037841796875, 0.10205078125, -0.829833984375
258, 961744685, -4.511637210845947, -1.507460594177246, 8.45292854309082, -0.19810141623020172, -0.6459394097328186, -1.1226942539215088, -0.0361328125, 0.103515625, -0.82861328125
259, 961761352, -4.510643482208252, -1.5133111476898193, 8.4463472366333, -0.24896827340126038, -0.6969727277755737, -1.145861029624939, -0.037353515625, 0.10400390625, -0.829345703125
260, 961778019, -4.5118088722229, -1.5053205490112305, 8.425751686096191, -0.12779457867145538, -0.6273446679115295, -1.187673807144165, -0.035888671875, 0.10498046875, -0.830810546875
261, 961794686, -4.527041435241699, -1.5444962978363037, 8.388632774353027, 0.22706300020217896, -0.6011940836906433, -1.178658127784729, -0.03564453125, 0.10302734375, -0.8291015625
262, 961811353, -4.519404411315918, -1.4764492511749268, 8.44715690612793, -0.3642510175704956, -0.7059884667396545, -1.2274757623672485, -0.0361328125, 0.103515625, -0.82861328125
263, 961828020, -4.512639999389648, -1.5093849897384644, 8.446181297302246, -0.310413122177124, -0.5729305148124695, -1.2049880027770996, -0.038818359375, 0.1025390625, -0.830810546875
264, 961844687, -4.514376163482666, -1.5115833282470703, 8.447028160095215, -0.32922568917274475, -0.5598039627075195, -1.1974579095840454, -0.036376953125, 0.103515625, -0.832763671875
265, 961861354, -4.506258964538574, -1.5304712057113647, 8.436126708984375, -0.25607576966285706, -0.7234691977500916, -1.117622971534729, -0.03564453125, 0.1025390625, -0.830810546875
266, 961878021, -4.490260601043701, -1.5278401374816895, 8.445097923278809, -0.25291261076927185, -0.824805736541748, -1.1755716800689697, -0.03466796875, 0.10400390625, -0.830078125
267, 961894688, -4.510778903961182, -1.5139780044555664, 8.436112403869629, -0.20972959697246552, -0.9249643087387085, -1.1674269437789917, -0.0341796875, 0.10498046875, -0.832275390625
268, 961911355, -4.507349967956543, -1.5130294561386108, 8.45494556427002, -0.2928043305873871, -0.937168538570404, -1.1420316696166992, -0.035400390625, 0.1044921875, -0.830322265625
269, 961928022, -4.502782344818115, -1.4968119859695435, 8.425856590270996, -0.2986440658569336, -0.8583967685699463, -1.1656724214553833, -0.035400390625, 0.1044921875, -0.82958984375
270, 961944689, -4.499676704406738, -1.4984937906265259, 8.42972469329834, -0.36653056740760803, -0.8156875967979431, -1.2423183917999268, -0.03515625, 0.10400390625, -0.8291015625
271, 961961356, -4.504273414611816, -1.524160623550415, 8.463443756103516, -0.9236835241317749, -0.49709123373031616, -1.3539257049560547, -0.0361328125, 0.103515625, -0.831787109375
272, 961978023, -4.511285305023193, -1.5106394290924072, 8.438843727111816, -1.7025786638259888, -0.3913749158382416, -1.7067279815673828, -0.036376953125, 0.10400390625, -0.831298828125
273, 961994690, -4.4962334632873535, -1.5190138816833496, 8.416812896728516, -1.637496829032898, -0.36950162053108215, -1.6813455820083618, -0.03466796875, 0.1025390625, -0.828125
274, 962011357, -4.486062049865723, -1.538009762763977, 8.415603637695312, -1.1189290285110474, -0.5226014852523804, -1.5077682733535767, -0.03515625, 0.103515625, -0.831298828125
275, 962028024, -4.504527568817139, -1.542696237564087, 8.440980911254883, -0.8857768177986145, -0.49994713068008423, -1.4501399993896484, -0.036376953125, 0.103515625, -0.82763671875
276, 962044691, -4.498645305633545, -1.5443273782730103, 8.430828094482422, -0.7130190134048462, -0.6084808111190796, -1.2950804233551025, -0.0341796875, 0.1044921875, -0.8291015625
277, 962061358, -4.509787559509277, -1.5462136268615723, 8.445584297180176, -0.7141076922416687, -0.5637227296829224, -1.3003824949264526, -0.034912109375, 0.10693359375, -0.833251953125
278, 962078025, -4.516507148742676, -1.5018675327301025, 8.492064476013184, -1.0950068235397339, -0.5013557076454163, -1.4070206880569458, -0.036376953125, 0.10546875, -0.830810546875
279, 962094692, -4.528802871704102, -1.5038107633590698, 8.464190483093262, -1.4726917743682861, -0.012063581496477127, -1.6545547246932983, -0.034423828125, 0.10595703125, -0.83056640625
280, 962111359, -4.5021185874938965, -1.5470751523971558, 8.433676719665527, -2.1224091053009033, 0.2860490083694458, -1.8368273973464966, -0.034912109375, 0.107421875, -0.82958984375
281, 962128026, -4.493060111999512, -1.5680845975875854, 8.39269733428955, -2.338926076889038, 0.31661781668663025, -1.816939353942871, -0.034912109375, 0.10791015625, -0.830322265625
282, 962144693, -4.515120983123779, -1.5694218873977661, 8.444384574890137, -2.3854029178619385, 0.12493983656167984, -1.9386134147644043, -0.035888671875, 0.1064453125, -0.82861328125
283, 962161360, -4.50373649597168, -1.5722579956054688, 8.38634967803955, -2.3685858249664307, 0.017640748992562294, -1.9838958978652954, -0.034912109375, 0.10791015625, -0.829833984375
284, 962178027, -4.526916027069092, -1.5946242809295654, 8.42441177368164, -2.4545035362243652, -0.14754195511341095, -2.050924062728882, -0.033203125, 0.10693359375, -0.831787109375
285, 962194694, -4.597424030303955, -1.5378495454788208, 8.465868949890137, -3.852560520172119, 0.026579581201076508, -2.549168109893799, -0.034423828125, 0.1083984375, -0.82958984375
286, 962211361, -4.543274402618408, -1.556766390800476, 8.432312965393066, -5.507768154144287, 0.46533796191215515, -3.3016819953918457, -0.036376953125, 0.10888671875, -0.828857421875
287, 962228028, -4.469472885131836, -1.5971660614013672, 8.423872947692871, -4.73061466217041, 0.30163440108299255, -3.2440662384033203, -0.035888671875, 0.111083984375, -0.829345703125
288, 962244695, -4.485659599304199, -1.627909779548645, 8.421225547790527, -4.102603435516357, 0.10996171832084656, -2.837477207183838, -0.036376953125, 0.114013671875, -0.829833984375
289, 962261362, -4.490157604217529, -1.6640722751617432, 8.399274826049805, -3.591938018798828, -0.1298563927412033, -2.645202875137329, -0.034423828125, 0.114990234375, -0.830322265625
290, 962278029, -4.480940818786621, -1.6758097410202026, 8.377914428710938, -2.846979856491089, -0.20663046836853027, -2.2716543674468994, -0.033935546875, 0.114013671875, -0.832275390625
291, 962294696, -4.518593788146973, -1.6822470426559448, 8.367147445678711, -2.174543857574463, -0.5765162110328674, -1.8792802095413208, -0.033447265625, 0.112548828125, -0.82861328125
292, 962311363, -4.56322717666626, -1.6144613027572632, 8.4473876953125, -2.287674903869629, -0.5083480477333069, -1.8824692964553833, -0.034423828125, 0.115966796875, -0.828369140625
293, 962328030, -4.556914329528809, -1.613332986831665, 8.422359466552734, -2.611137866973877, -0.6176759004592896, -2.281259059906006, -0.033935546875, 0.116943359375, -0.828369140625
294, 962344697, -4.538239002227783, -1.6562350988388062, 8.417086601257324, -2.694673776626587, -0.5643118619918823, -2.5457870960235596, -0.033935546875, 0.117431640625, -0.828369140625
295, 962361364, -4.5041046142578125, -1.7035162448883057, 8.395073890686035, -2.87552547454834, -0.7210232019424438, -2.663311243057251, -0.035888671875, 0.11865234375, -0.828369140625
296, 962378031, -4.482460021972656, -1.7318484783172607, 8.367517471313477, -3.496774196624756, -0.7974386215209961, -2.603454113006592, -0.035888671875, 0.117431640625, -0.827880859375
297, 962394698, -4.47093391418457, -1.7266069650650024, 8.385427474975586, -2.7302756309509277, -0.8843937516212463, -2.1957004070281982, -0.033935546875, 0.116943359375, -0.831298828125
298, 962411365, -4.503056049346924, -1.7220194339752197, 8.365494728088379, -2.197748899459839, -1.0261344909667969, -1.800675392150879, -0.033935546875, 0.1181640625, -0.829345703125
299, 962428032, -4.520213603973389, -1.7088134288787842, 8.404258728027344, -1.997175931930542, -1.1723445653915405, -1.8148518800735474, -0.03564453125, 0.12060546875, -0.827392578125
300, 962444699, -4.4540252685546875, -1.7164794206619263, 8.34157943725586, -1.4618127346038818, -1.207658052444458, -1.577799916267395, -0.035400390625, 0.11962890625, -0.828857421875
301, 962461366, -4.464956283569336, -1.7535487413406372, 8.35470199584961, -0.7147223949432373, -0.9800827503204346, -1.1556578874588013, -0.03564453125, 0.12060546875, -0.827392578125
302, 962478033, -4.491527080535889, -1.746274709701538, 8.394189834594727, -0.10749650746583939, -0.9537529945373535, -0.9449421763420105, -0.03662109375, 0.1201171875, -0.828369140625
303, 962494700, -4.479647636413574, -1.7338471412658691, 8.381564140319824, -0.039878975600004196, -1.0390689373016357, -1.0036848783493042, -0.03662109375, 0.12060546875, -0.828369140625
304, 962511367, -4.483565807342529, -1.743090271949768, 8.387367248535156, 0.3576749563217163, -0.863737165927887, -0.8069537878036499, -0.035888671875, 0.119140625, -0.828369140625
305, 962528034, -4.495551586151123, -1.728206992149353, 8.385921478271484, 0.3242247402667999, -0.8352301120758057, -0.9194062352180481, -0.035400390625, 0.119140625, -0.826904296875
306, 962544701, -4.5177321434021, -1.7289408445358276, 8.389476776123047, 0.05903087183833122, -0.8669515252113342, -1.0967870950698853, -0.035400390625, 0.11962890625, -0.826904296875
307, 962561368, -4.457359313964844, -1.7524245977401733, 8.325736045837402, 0.43656209111213684, -0.6498070955276489, -1.0252764225006104, -0.03759765625, 0.11865234375, -0.830322265625
308, 962578035, -4.474254131317139, -1.8199737071990967, 8.35291862487793, 0.4102962017059326, -0.22226698696613312, -1.064181923866272, -0.0361328125, 0.1201171875, -0.828857421875
309, 962594702, -4.510425567626953, -1.6624997854232788, 8.445840835571289, -0.5594325065612793, 0.5634728670120239, -1.6777724027633667, -0.036865234375, 0.11865234375, -0.830810546875
310, 962611369, -4.462866306304932, -1.6996625661849976, 8.299697875976562, -1.2440216541290283, 2.057039260864258, -2.3354811668395996, -0.033447265625, 0.11865234375, -0.829345703125
311, 962628036, -4.448538780212402, -1.6165211200714111, 8.508634567260742, -1.5161056518554688, 6.023102283477783, -2.628042697906494, -0.034423828125, 0.11865234375, -0.828369140625
312, 962644703, -4.287432670593262, -1.6386088132858276, 8.46025276184082, -3.007162094116211, 8.649897575378418, -2.4906435012817383, -0.030517578125, 0.12158203125, -0.82861328125
313, 962661370, -4.273033618927002, -1.5457779169082642, 8.419962882995605, -2.842255115509033, 11.3753662109375, -1.4508191347122192, -0.029541015625, 0.1201171875, -0.83056640625
314, 962678037, -4.177539348602295, -1.4029409885406494, 8.396263122558594, -4.09281063079834, 15.729291915893555, -0.4913545250892639, -0.023681640625, 0.12158203125, -0.830078125
315, 962694704, -4.305676460266113, -1.7238229513168335, 8.472127914428711, -5.772719383239746, 25.08296775817871, -0.8716287612915039, -0.01904296875, 0.122314453125, -0.82958984375
316, 962711371, -4.125480651855469, -1.5140570402145386, 8.756032943725586, -9.2748441696167, 43.18648147583008, -3.4967212677001953, -0.01025390625, 0.124267578125, -0.827392578125
317, 962728038, -2.522242784500122, -1.3796725273132324, 9.336555480957031, -19.156808853149414, 78.76178741455078, -5.419414043426514, 0.003173828125, 0.1259765625, -0.826171875
318, 962744705, -3.366286516189575, -2.3509891033172607, 9.70278549194336, -28.982023239135742, 123.17608642578125, 4.7706475257873535, 0.028564453125, 0.13427734375, -0.822998046875
319, 962761372, -4.601365089416504, -2.4455063343048096, 10.747807502746582, -37.36851501464844, 160.15809631347656, 16.143630981445312, 0.0673828125, 0.14013671875, -0.81640625
320, 962778039, -5.420363426208496, -2.944103479385376, 11.49063777923584, -27.135652542114258, 170.25421142578125, 32.10887908935547, 0.109619140625, 0.1435546875, -0.80810546875
321, 962794706, -5.420178413391113, -3.383234739303589, 10.904869079589844, -23.195558547973633, 174.18539428710938, 47.2446174621582, 0.151123046875, 0.147216796875, -0.797607421875
322, 962811373, -2.184993267059326, -3.2933952808380127, 13.01447582244873, -19.292755126953125, 151.2927703857422, 61.00727844238281, 0.19384765625, 0.149658203125, -0.78271484375
323, 962828040, -4.709429740905762, -5.405080318450928, 16.058135986328125, 6.758929252624512, 93.69487762451172, 64.0733871459961, 0.222900390625, 0.143798828125, -0.77197265625
324, 962844707, -0.7192642092704773, -5.084023952484131, 15.922647476196289, 37.26667785644531, 32.5066032409668, 55.19007110595703, 0.242431640625, 0.13037109375, -0.762451171875
325, 962861374, 2.9802727699279785, -3.6214566230773926, 12.134821891784668, 32.549774169921875, -8.152772903442383, 36.77994155883789, 0.252197265625, 0.119384765625, -0.753173828125
326, 962878041, 3.4894859790802, -3.701078176498413, 11.165245056152344, 13.098875999450684, -22.960872650146484, 19.610597610473633, 0.255859375, 0.11279296875, -0.748046875
327, 962894708, 3.0313830375671387, -4.030399322509766, 10.95489501953125, 4.473870754241943, -43.34800720214844, 0.7534602880477905, 0.2568359375, 0.107421875, -0.740478515625
328, 962911375, 2.5165772438049316, -2.9995522499084473, 10.647201538085938, 5.750260353088379, -64.95357513427734, -9.899421691894531, 0.255859375, 0.1064453125, -0.738037109375
329, 962928042, 0.8728811740875244, -1.942305088043213, 11.530462265014648, -6.402774810791016, -86.24431610107422, -18.232696533203125, 0.2509765625, 0.106201171875, -0.735107421875
330, 962944709, -1.1936978101730347, -2.052853584289551, 12.549213409423828, -25.204017639160156, -116.4937973022461, -28.50821876525879, 0.23974609375, 0.110595703125, -0.73486328125
331, 962961376, -2.8113574981689453, -2.478151559829712, 12.543822288513184, -27.842256546020508, -149.86997985839844, -33.763458251953125, 0.2236328125, 0.123046875, -0.74169921875
332, 962978043, -3.9130916595458984, -2.1840665340423584, 11.893484115600586, -21.717737197875977, -174.2322998046875, -36.10850143432617, 0.20263671875, 0.133544921875, -0.75732421875
333, 962994710, -5.38203763961792, -1.5740931034088135, 11.65377426147461, -23.201391220092773, -189.428466796875, -38.2639274597168, 0.175048828125, 0.1455078125, -0.77099609375
334, 963011377, -6.06395149230957, -1.4432247877120972, 10.85975456237793, -26.829668045043945, -199.744873046875, -37.7457160949707, 0.141845703125, 0.161376953125, -0.783447265625
335, 963028044, -6.59954309463501, -1.1897534132003784, 10.493308067321777, -30.27424430847168, -201.11383056640625, -34.09154510498047, 0.09912109375, 0.18017578125, -0.802978515625
336, 963044711, -7.543386936187744, -0.8601663708686829, 10.941445350646973, -38.01799774169922, -199.3785858154297, -29.570072174072266, 0.050537109375, 0.1982421875, -0.814208984375
337, 963061378, -8.458426475524902, -1.4851421117782593, 10.648098945617676, -40.604454040527344, -196.88107299804688, -22.69025993347168, -9.765625E-4, 0.217041015625, -0.826171875
338, 963078045, -9.000547409057617, -2.2094686031341553, 9.342011451721191, -27.85964584350586, -192.28466796875, -11.656987190246582, -0.05615234375, 0.2275390625, -0.8291015625
339, 963094712, -9.360239028930664, -2.2844362258911133, 7.104363441467285, -15.6746187210083, -178.4505615234375, -4.458612442016602, -0.108642578125, 0.233642578125, -0.8251953125
340, 963111379, -9.637776374816895, -2.0325398445129395, 5.2205491065979, -15.06987190246582, -150.3077850341797, -7.631061553955078, -0.152099609375, 0.2392578125, -0.822021484375
341, 963128046, -10.340023040771484, -1.292905569076538, 4.797609806060791, -27.254594802856445, -122.461669921875, -23.773344039916992, -0.1875, 0.244873046875, -0.813232421875
342, 963144713, -9.771333694458008, -0.016775550320744514, 3.557760238647461, -36.40523147583008, -97.27540588378906, -32.08732604980469, -0.219970703125, 0.250732421875, -0.803466796875
343, 963161380, -9.641880989074707, 1.0090757608413696, 2.6509201526641846, -33.09091567993164, -67.6795654296875, -18.89832305908203, -0.240966796875, 0.256591796875, -0.795166015625
344, 963178047, -10.271716117858887, 1.378095269203186, 2.2190537452697754, -30.250272750854492, -40.94364929199219, -0.41709384322166443, -0.251708984375, 0.266357421875, -0.78759765625
345, 963194714, -9.921852111816406, 0.9624273180961609, 1.1662565469741821, -28.477313995361328, -14.887054443359375, 16.574495315551758, -0.25537109375, 0.27197265625, -0.78759765625
346, 963211381, -9.774381637573242, 0.45941755175590515, 1.5140197277069092, -24.45929527282715, 15.087723731994629, 31.596492767333984, -0.2529296875, 0.279541015625, -0.78515625
347, 963228048, -8.102110862731934, -3.114490270614624, -0.04301202669739723, 21.13001823425293, 51.422508239746094, 51.852569580078125, -0.243408203125, 0.28125, -0.787109375
348, 963244715, -4.27109432220459, -1.7823569774627686, 4.918250560760498, 92.13102722167969, 80.893310546875, 88.4409408569336, -0.2197265625, 0.269287109375, -0.802001953125
349, 963261382, 1.6880329847335815, -2.3877837657928467, 14.909585952758789, 2.2013285160064697, 110.5416030883789, 23.62030029296875, -0.19482421875, 0.262939453125, -0.808349609375
350, 963278049, -0.9288575649261475, -7.518133163452148, 10.016517639160156, -62.6562614440918, 155.22767639160156, -3.031114339828491, -0.1591796875, 0.2783203125, -0.810791015625
351, 963294716, -4.698986530303955, 4.063933372497559, 8.085230827331543, -32.814064025878906, 176.94754028320312, 27.214094161987305, -0.116455078125, 0.285400390625, -0.817626953125
352, 963311383, -8.479372024536133, -0.7092068195343018, 13.23008918762207, -60.849609375, 166.74957275390625, 25.099811553955078, -0.07470703125, 0.298828125, -0.8154296875
353, 963328050, -7.085085391998291, -4.755064010620117, 10.338687896728516, -85.13428497314453, 148.10385131835938, 0.32619211077690125, -0.03955078125, 0.318603515625, -0.813232421875
354, 963344717, -7.595961570739746, -4.819188594818115, 9.761763572692871, -75.08149719238281, 131.576171875, 2.8853442668914795, -0.0068359375, 0.338623046875, -0.80419921875
355, 963361384, -7.610291957855225, -9.839559555053711, 9.581948280334473, -46.40193557739258, 118.49411010742188, 3.036283254623413, 0.020263671875, 0.352294921875, -0.79931640625
356, 963378051, -8.947101593017578, -2.3769521713256836, 10.228458404541016, 34.09199905395508, 59.469844818115234, 27.658964157104492, 0.044189453125, 0.34619140625, -0.80224609375
357, 963394718, -5.550756931304932, -3.150726079940796, 9.090203285217285, 24.49652671813965, 30.844263076782227, 14.270145416259766, 0.053466796875, 0.341064453125, -0.804931640625
358, 963411385, -4.902271270751953, -3.1669583320617676, 8.380902290344238, 24.158056259155273, 21.048200607299805, 13.9005126953125, 0.060546875, 0.334228515625, -0.80419921875
359, 963428052, -4.62251615524292, -2.6487174034118652, 8.383824348449707, 23.788997650146484, 13.61011791229248, 14.732915878295898, 0.06591796875, 0.32763671875, -0.810791015625
360, 963444719, -4.7496771812438965, -2.794703960418701, 8.411169052124023, 23.381555557250977, 11.070503234863281, 14.748371124267578, 0.068115234375, 0.3251953125, -0.810546875
361, 963461386, -4.835900783538818, -2.6036200523376465, 8.503610610961914, 22.635221481323242, 7.060702800750732, 13.113319396972656, 0.07275390625, 0.317626953125, -0.81298828125
362, 963478053, -4.668234348297119, -2.7209274768829346, 8.409562110900879, 20.917041778564453, 7.485032558441162, 10.312002182006836, 0.0771484375, 0.311279296875, -0.8134765625
363, 963494720, -4.184069633483887, -3.2207791805267334, 7.835990905761719, 21.553844451904297, 10.06765079498291, 9.15660572052002, 0.080322265625, 0.306640625, -0.8173828125
364, 963511387, -4.924195766448975, -2.551675796508789, 8.765843391418457, 16.28169059753418, 10.933469772338867, 7.680293560028076, 0.0830078125, 0.29931640625, -0.82080078125
365, 963528054, -4.23276424407959, -2.6541593074798584, 8.198461532592773, 11.709630966186523, 9.48987865447998, 5.737576484680176, 0.08544921875, 0.298583984375, -0.819580078125
366, 963544721, -4.859020233154297, -2.756211757659912, 8.062054634094238, 10.603032112121582, 8.918854713439941, 5.337812900543213, 0.0888671875, 0.295654296875, -0.822509765625
367, 963561388, -4.782034873962402, -2.7581677436828613, 8.098610877990723, 13.732295989990234, 6.806396484375, 6.129016399383545, 0.091064453125, 0.294677734375, -0.822021484375
368, 963578055, -4.705699920654297, -2.691843271255493, 8.007017135620117, 16.84368133544922, 4.710265159606934, 7.011389255523682, 0.092041015625, 0.289306640625, -0.821533203125
369, 963594722, -4.720327854156494, -2.5847368240356445, 8.071930885314941, 19.061389923095703, 3.6975507736206055, 7.491143226623535, 0.09375, 0.283203125, -0.824462890625
370, 963611389, -4.68422794342041, -2.4184746742248535, 8.168477058410645, 21.297889709472656, 2.6221113204956055, 8.2443265914917, 0.095703125, 0.27880859375, -0.825927734375
371, 963628056, -4.992566108703613, -2.344834327697754, 8.4688720703125, 16.146343231201172, 2.6691083908081055, 5.97749137878418, 0.097900390625, 0.273681640625, -0.829345703125
372, 963644723, -4.667198181152344, -2.2806553840637207, 8.282417297363281, 10.586213111877441, 2.7656795978546143, 3.509408712387085, 0.100341796875, 0.270263671875, -0.82958984375
373, 963661390, -4.82489538192749, -2.342890501022339, 8.18074893951416, 7.94364595413208, 3.5322799682617188, 2.6633691787719727, 0.100341796875, 0.270263671875, -0.830078125
374, 963678057, -4.8299336433410645, -2.422600746154785, 8.123406410217285, 7.001150131225586, 2.641547441482544, 2.3057007789611816, 0.099365234375, 0.26708984375, -0.82861328125
375, 963694724, -4.759470462799072, -2.4112555980682373, 8.100658416748047, 5.009606838226318, 1.445753574371338, 2.601897954940796, 0.102783203125, 0.265625, -0.830078125
376, 963711391, -4.732126712799072, -2.3123981952667236, 8.05382251739502, 5.837768077850342, 0.6852486729621887, 3.3773739337921143, 0.103271484375, 0.26611328125, -0.8310546875
377, 963728058, -4.436720371246338, -2.4409842491149902, 7.971627235412598, 9.0354585647583, -1.2839266061782837, 5.772937297821045, 0.10205078125, 0.2607421875, -0.83203125
378, 963744725, -4.35186243057251, -2.726287841796875, 8.008687019348145, 12.221941947937012, -4.099930286407471, 9.55739974975586, 0.10205078125, 0.260009765625, -0.82958984375
379, 963761392, -4.554935932159424, -2.434948444366455, 8.216729164123535, 13.938461303710938, -3.4878392219543457, 11.80385684967041, 0.10205078125, 0.254150390625, -0.8330078125
380, 963778059, -4.8431715965271, -2.0335984230041504, 8.216081619262695, 14.799259185791016, -0.5324246883392334, 12.046351432800293, 0.103515625, 0.251708984375, -0.8330078125
381, 963794726, -4.764245510101318, -2.0812277793884277, 8.223013877868652, 16.16831398010254, 3.097559690475464, 12.445210456848145, 0.105712890625, 0.24658203125, -0.83447265625
382, 963811393, -4.926951885223389, -1.9702141284942627, 8.277091979980469, 12.150301933288574, 7.976553916931152, 12.165093421936035, 0.107666015625, 0.2431640625, -0.83544921875
383, 963828060, -4.732321739196777, -2.0003178119659424, 8.327357292175293, 4.179012775421143, 16.212635040283203, 10.023331642150879, 0.11279296875, 0.24072265625, -0.835205078125
384, 963844727, -4.5876312255859375, -1.9414737224578857, 8.2992525100708, -1.370680332183838, 27.717945098876953, 9.251686096191406, 0.11962890625, 0.2421875, -0.83154296875
385, 963861394, -3.882253408432007, -1.6356505155563354, 8.490118980407715, -6.099023342132568, 50.02836608886719, 10.199892044067383, 0.131103515625, 0.24072265625, -0.831787109375
386, 963878061, -4.594343185424805, -1.5675451755523682, 8.27797794342041, -17.09824562072754, 80.14629364013672, 9.69226360321045, 0.149658203125, 0.244384765625, -0.828857421875
387, 963894728, -4.543559551239014, -1.9597526788711548, 8.19980239868164, -21.42152976989746, 110.42334747314453, 9.050543785095215, 0.173828125, 0.250244140625, -0.821044921875
388, 963911395, -4.968479156494141, -2.0309319496154785, 8.089290618896484, -20.097204208374023, 140.8249053955078, 11.411859512329102, 0.205322265625, 0.2529296875, -0.812255859375
389, 963928062, -5.351880073547363, -2.197842836380005, 7.940655708312988, -19.279024124145508, 167.97695922851562, 14.606095314025879, 0.2421875, 0.259765625, -0.802734375
390, 963944729, -5.257375240325928, -2.214094400405884, 7.970820903778076, -14.824019432067871, 202.12294006347656, 18.867694854736328, 0.287353515625, 0.26025390625, -0.78466796875
391, 963961396, -5.025728225708008, -2.2510128021240234, 8.155089378356934, -6.9311089515686035, 248.21006774902344, 30.18909454345703, 0.34130859375, 0.260009765625, -0.762451171875
392, 963978063, -5.658439636230469, -1.8598610162734985, 7.863254547119141, 2.846893787384033, 304.22314453125, 39.938480377197266, 0.40966796875, 0.252197265625, -0.728515625
393, 963994730, -6.239042282104492, -2.387644052505493, 7.704241752624512, 14.796884536743164, 385.73944091796875, 49.50102996826172, 0.486083984375, 0.244140625, -0.6806640625
394, 964011397, -8.110607147216797, -2.864008903503418, 9.103170394897461, 16.79776382446289, 470.367919921875, 70.66631317138672, 0.572021484375, 0.22802734375, -0.613525390625
395, 964028064, -14.508584022521973, -2.1693315505981445, 11.078813552856445, 0.26915109157562256, 497.7255554199219, 93.95000457763672, 0.658935546875, 0.212158203125, -0.518798828125
396, 964044731, -18.624086380004883, -2.7125158309936523, 10.458951950073242, -18.801660537719727, 468.8647766113281, 87.84660339355469, 0.73046875, 0.1953125, -0.424560546875
397, 964061398, -16.175167083740234, -4.753347396850586, 9.700201988220215, -3.0715043544769287, 433.2030944824219, 94.9651870727539, 0.7802734375, 0.1728515625, -0.326416015625
398, 964078065, -13.674873352050781, -4.634896755218506, 11.603179931640625, 21.603025436401367, 390.195556640625, 101.6646957397461, 0.81298828125, 0.14794921875, -0.231201171875
399, 964094732, -6.626797676086426, -3.415614366531372, 14.437368392944336, 16.83146095275879, 311.21600341796875, 74.19062805175781, 0.82861328125, 0.122314453125, -0.15283203125
400, 964111399, -19.425256729125977, -0.8661505579948425, 21.234777450561523, -64.75135040283203, 160.08511352539062, 88.33199310302734, 0.833984375, 0.1015625, -0.099365234375
401, 964128066, -19.58779525756836, -1.2019786834716797, 26.174213409423828, -117.04713439941406, -45.18971252441406, 46.91621398925781, 0.82861328125, 0.085205078125, -0.0888671875
402, 964144733, -3.9457051753997803, -7.09960412979126, 13.36865234375, -91.11515045166016, -222.52626037597656, 8.358636856079102, 0.814697265625, 0.081787109375, -0.123779296875
403, 964161400, -0.10710930824279785, -6.213420391082764, 5.090526580810547, 0.7665520310401917, -237.9911346435547, 58.99363708496094, 0.802001953125, 0.069091796875, -0.16455078125
404, 964178067, -1.0654569864273071, -4.378746032714844, 5.504995346069336, 78.3269271850586, -211.15240478515625, 92.26741790771484, 0.801025390625, 0.03759765625, -0.194091796875
405, 964194734, -5.313791751861572, -3.191502094268799, 9.668331146240234, 77.29230499267578, -239.73873901367188, 60.57202911376953, 0.80712890625, 0.009521484375, -0.222900390625
406, 964211401, -6.445684909820557, -3.353022575378418, 8.603229522705078, 47.487998962402344, -297.40447998046875, 4.902180194854736, 0.82763671875, -0.0029296875, -0.276611328125
407, 964228068, -5.656126022338867, -2.851860523223877, 5.720809459686279, 37.41204071044922, -326.7937316894531, -17.75472068786621, 0.8466796875, -0.007080078125, -0.37841796875
408, 964244735, -6.372095108032227, -2.7188050746917725, 5.361589431762695, 39.627891540527344, -327.1248779296875, -21.455347061157227, 0.833984375, -0.00927734375, -0.507568359375
409, 964261402, -7.8240275382995605, -2.376727342605591, 6.720936298370361, 32.977691650390625, -330.1572265625, -34.066219329833984, 0.763916015625, -0.0146484375, -0.64111328125
410, 964278069, -9.084455490112305, -2.5821683406829834, 7.028817653656006, 13.61522388458252, -338.918212890625, -52.35670471191406, 0.651611328125, -0.015380859375, -0.728759765625
411, 964294736, -10.250804901123047, -3.594583034515381, 7.103348255157471, 0.7929653525352478, -345.8491516113281, -70.85265350341797, 0.54541015625, -0.006103515625, -0.778076171875
412, 964311403, -10.284162521362305, -3.61177659034729, 6.580160140991211, -0.7833352088928223, -341.6187744140625, -85.1219253540039, 0.46435546875, 0.01513671875, -0.801513671875
413, 964328070, -9.482276916503906, -1.3861842155456543, 5.839453220367432, -10.42291259765625, -316.2569274902344, -83.67626953125, 0.407470703125, 0.041015625, -0.832275390625
414, 964344737, -10.92307186126709, 0.006551425904035568, 7.536891937255859, -46.361690521240234, -267.5915832519531, -73.14041137695312, 0.35986328125, 0.0673828125, -0.880615234375
415, 964361404, -16.747102737426758, -1.0591058731079102, 13.79832649230957, -97.02531433105469, -261.5080871582031, -80.59585571289062, 0.280517578125, 0.109619140625, -0.935791015625
416, 964378071, -17.521770477294922, -2.038393020629883, 13.075711250305176, -96.7206039428711, -294.24237060546875, -80.39981842041016, 0.15966796875, 0.151123046875, -0.95458984375
417, 964394738, -17.474132537841797, -0.04417676478624344, 10.593534469604492, -74.55817413330078, -305.2371826171875, -60.54792785644531, 0.03662109375, 0.173828125, -0.937744140625
418, 964411405, -18.59587860107422, 1.735121250152588, 9.044139862060547, -79.09375, -297.59136962890625, -55.567474365234375, -0.0615234375, 0.18701171875, -0.9072265625
419, 964428072, -19.77113151550293, 1.6850324869155884, 6.80249547958374, -87.8111343383789, -281.4060974121094, -50.35116958618164, -0.140869140625, 0.20361328125, -0.87158203125
420, 964444739, -19.10137176513672, 1.1636059284210205, 3.7242343425750732, -85.2488021850586, -251.3352813720703, -42.836177825927734, -0.20263671875, 0.21923828125, -0.8408203125
421, 964461406, -18.913352966308594, 0.8925490975379944, 0.7986966371536255, -86.27400970458984, -207.0162811279297, -48.36869430541992, -0.254150390625, 0.232177734375, -0.81103515625
422, 964478073, -19.19247055053711, 1.883530855178833, -2.499790668487549, -80.89193725585938, -152.54823303222656, -57.442909240722656, -0.291748046875, 0.24560546875, -0.78515625
423, 964494740, -19.641767501831055, 5.02435827255249, -4.072788238525391, -75.76695251464844, -93.62188720703125, -57.393028259277344, -0.31689453125, 0.253173828125, -0.769287109375
424, 964511407, -19.497406005859375, 4.854010105133057, -5.658390998840332, -68.45996856689453, -39.0936164855957, -47.72279357910156, -0.327880859375, 0.26220703125, -0.7529296875
425, 964528074, -18.670124053955078, 1.244360089302063, -7.638027667999268, -27.247957229614258, 32.96813201904297, -27.336153030395508, -0.328125, 0.265625, -0.74853515625
426, 964544741, -7.267026424407959, 1.4714287519454956, -4.051441192626953, 52.70853805541992, 132.06900024414062, 39.921146392822266, -0.304931640625, 0.25927734375, -0.760009765625
427, 964561408, 4.961825370788574, -5.569714546203613, 19.507043838500977, -30.497173309326172, 188.38336181640625, -0.06316901743412018, -0.26611328125, 0.25634765625, -0.770751953125
428, 964578075, -8.4993257522583, -1.0083224773406982, 11.651627540588379, -49.53321838378906, 198.5806427001953, 20.901268005371094, -0.221923828125, 0.268310546875, -0.77490234375
429, 964594742, -6.420466423034668, 7.965146541595459, 11.324813842773438, -38.79058837890625, 207.89706420898438, 45.261497497558594, -0.170654296875, 0.279296875, -0.781494140625
430, 964611409, -11.901845932006836, -3.7682454586029053, 14.324109077453613, -32.81745147705078, 146.8336181640625, 50.39913558959961, -0.13330078125, 0.287109375, -0.78271484375
431, 964628076, -6.24129581451416, -11.421576499938965, 5.848736763000488, -2.7655210494995117, 124.09654998779297, 44.36964797973633, -0.10009765625, 0.289306640625, -0.78173828125
432, 964644743, -7.292655944824219, -4.810234069824219, 9.82120132446289, 30.697162628173828, 112.2535629272461, 48.71369934082031, -0.073486328125, 0.2841796875, -0.78515625
433, 964661410, -9.333184242248535, -4.3188934326171875, 9.550963401794434, 76.46902465820312, 73.13131713867188, 56.703189849853516, -0.048828125, 0.268798828125, -0.7900390625
434, 964678077, -6.817822456359863, -0.5218930840492249, 11.000140190124512, 71.02062225341797, 53.02567672729492, 32.941993713378906, -0.0341796875, 0.252197265625, -0.797119140625
435, 964694744, -6.3311004638671875, -1.7153773307800293, 10.301880836486816, 60.9143180847168, 29.47976303100586, 21.029865264892578, -0.0224609375, 0.236328125, -0.80224609375
436, 964711411, -5.940110683441162, -2.239678382873535, 9.45605754852295, 42.27547073364258, 16.77303695678711, 13.577227592468262, -0.019287109375, 0.226806640625, -0.8037109375
437, 964728078, -4.945827960968018, -1.4985045194625854, 9.290477752685547, 22.07073974609375, 11.788932800292969, 7.6968584060668945, -0.01611328125, 0.21630859375, -0.805908203125
438, 964744745, -5.189109802246094, -1.975766658782959, 9.031146049499512, 5.658225059509277, 7.618045806884766, 2.6903395652770996, -0.010986328125, 0.21484375, -0.804931640625
439, 964761412, -4.566524505615234, -2.147793769836426, 8.295266151428223, 0.9810049533843994, 3.7391090393066406, 0.7043749690055847, -0.013671875, 0.2197265625, -0.806396484375
440, 964778079, -4.522514820098877, -2.141416072845459, 8.386656761169434, 2.688181161880493, 3.578491687774658, 1.0902047157287598, -0.010498046875, 0.21337890625, -0.805908203125
441, 964794746, -4.578556537628174, -2.123176097869873, 8.407583236694336, 4.6853508949279785, 1.7256237268447876, 2.5202064514160156, -0.010009765625, 0.21533203125, -0.803955078125
442, 964811413, -4.614580154418945, -2.0788252353668213, 8.298398971557617, 6.1805500984191895, -0.4643518626689911, 3.3805696964263916, -0.009521484375, 0.211669921875, -0.80322265625
443, 964828080, -4.6344828605651855, -1.9959160089492798, 8.272842407226562, 7.17573881149292, -1.544843077659607, 4.76345682144165, -0.009033203125, 0.210205078125, -0.807861328125
444, 964844747, -4.687487602233887, -1.8559765815734863, 8.330636978149414, 6.554162979125977, -1.6325536966323853, 4.144250392913818, -0.010009765625, 0.207763671875, -0.806396484375
445, 964861414, -4.6929545402526855, -1.8965253829956055, 8.322303771972656, 7.112334251403809, -1.8812531232833862, 3.6434004306793213, -0.010009765625, 0.207275390625, -0.804931640625
446, 964878081, -4.649727821350098, -2.108402967453003, 8.293776512145996, 8.974685668945312, -2.8254785537719727, 4.754787921905518, -0.008544921875, 0.206298828125, -0.808837890625
447, 964894748, -4.626184940338135, -1.9979145526885986, 8.34488582611084, 9.139043807983398, -2.959279775619507, 6.189087390899658, -0.0087890625, 0.203857421875, -0.806884765625
448, 964911415, -4.8057756423950195, -1.7827796936035156, 8.373072624206543, 7.832602500915527, -1.5714932680130005, 5.968318462371826, -0.01025390625, 0.2001953125, -0.807861328125
449, 964928082, -4.611154556274414, -1.8053457736968994, 8.376676559448242, 5.631957530975342, -0.5236260294914246, 4.628170490264893, -0.00927734375, 0.2021484375, -0.810302734375
450, 964944749, -4.548786163330078, -1.892991304397583, 8.2849760055542, 4.28704833984375, 0.4683115482330322, 4.832760334014893, -0.0087890625, 0.19970703125, -0.80615234375
451, 964961416, -4.473329067230225, -1.981707215309143, 8.307388305664062, 3.8533871173858643, 0.9252782464027405, 6.295161247253418, -0.01025390625, 0.19775390625, -0.810302734375
452, 964978083, -4.587559700012207, -1.8298825025558472, 8.360984802246094, 1.9880902767181396, 4.638249397277832, 7.314329147338867, -0.00537109375, 0.19775390625, -0.809814453125
453, 964994750, -4.6770548820495605, -1.7033112049102783, 8.398890495300293, -1.8261351585388184, 9.873462677001953, 6.394463539123535, -0.00537109375, 0.19775390625, -0.8056640625
454, 965011417, -4.652930736541748, -1.7293094396591187, 8.381335258483887, -5.7627997398376465, 16.28074836730957, 4.7767415046691895, -0.001220703125, 0.1962890625, -0.8056640625
455, 965028084, -4.350886344909668, -1.7510172128677368, 8.334495544433594, -6.7967681884765625, 24.03166389465332, 4.037896156311035, 0.005126953125, 0.199951171875, -0.807373046875
456, 965044751, -3.9610700607299805, -1.6815707683563232, 8.381169319152832, -7.77405309677124, 40.89325714111328, 5.623399257659912, 0.0126953125, 0.201416015625, -0.805419921875
457, 965061418, -4.503314018249512, -1.6482561826705933, 8.399728775024414, -16.10356903076172, 63.9365119934082, 8.51963996887207, 0.025634765625, 0.203125, -0.803955078125
458, 965078085, -4.480310916900635, -1.5656449794769287, 8.274270057678223, -18.861026763916016, 88.78949737548828, 7.616357803344727, 0.0458984375, 0.208251953125, -0.80078125
459, 965094752, -4.753902435302734, -1.794289469718933, 8.06155776977539, -20.032649993896484, 116.19149017333984, 8.170769691467285, 0.07080078125, 0.2109375, -0.79931640625
460, 965111419, -5.067639350891113, -1.9336612224578857, 8.052781105041504, -20.11377716064453, 141.83460998535156, 9.865846633911133, 0.1025390625, 0.21533203125, -0.794189453125
461, 965128086, -5.472485542297363, -1.8970038890838623, 7.881754398345947, -17.677701950073242, 166.83160400390625, 13.133753776550293, 0.139404296875, 0.2197265625, -0.785888671875
462, 965144753, -5.371528148651123, -1.8325212001800537, 7.881631374359131, -14.859949111938477, 194.06333923339844, 16.32160758972168, 0.181884765625, 0.219970703125, -0.77490234375
463, 965161420, -5.311470985412598, -1.8946950435638428, 8.003602981567383, -8.882112503051758, 233.68295288085938, 22.65670394897461, 0.232177734375, 0.221923828125, -0.761962890625
464, 965178087, -5.350258827209473, -2.1523289680480957, 7.733002185821533, -1.9777779579162598, 286.234130859375, 35.13504409790039, 0.2919921875, 0.21826171875, -0.738525390625
465, 965194754, -6.356180667877197, -2.1639766693115234, 6.947713375091553, 8.139023780822754, 361.5245056152344, 49.306312561035156, 0.363037109375, 0.2109375, -0.702392578125
466, 965211421, -7.058714866638184, -3.269465923309326, 9.16299057006836, 15.826705932617188, 448.3497619628906, 67.91446685791016, 0.450927734375, 0.198974609375, -0.64990234375
467, 965228088, -13.04599380493164, -2.853161573410034, 10.512775421142578, 7.047575950622559, 493.06890869140625, 96.54708099365234, 0.541259765625, 0.182861328125, -0.576171875
468, 965244755, -19.459434509277344, -1.7351644039154053, 10.960311889648438, -15.122368812561035, 471.24884033203125, 93.08936309814453, 0.621826171875, 0.16796875, -0.4892578125
469, 965261422, -17.875558853149414, -5.381951808929443, 9.951183319091797, -3.9957234859466553, 431.1294860839844, 98.25078582763672, 0.683349609375, 0.149658203125, -0.4013671875
470, 965278089, -15.221711158752441, -4.804178237915039, 12.113981246948242, 5.100101470947266, 395.06072998046875, 107.56929779052734, 0.73291015625, 0.125244140625, -0.3125
471, 965294756, -8.94804573059082, -3.8519041538238525, 15.301654815673828, 0.2671555280685425, 313.17431640625, 79.15481567382812, 0.76171875, 0.10302734375, -0.23046875
472, 965311423, -15.683470726013184, -2.58872389793396, 18.55562973022461, -44.362979888916016, 149.58934020996094, 94.2093276977539, 0.7744140625, 0.083984375, -0.184326171875
473, 965328090, -21.005050659179688, -1.2499054670333862, 25.920475006103516, -88.34188842773438, -23.639780044555664, 65.51408386230469, 0.779296875, 0.06201171875, -0.1669921875
474, 965344757, -4.8397626876831055, -8.01788330078125, 13.775848388671875, -76.3548355102539, -204.29705810546875, 6.4345479011535645, 0.768798828125, 0.059814453125, -0.19677734375
475, 965361424, 0.897081732749939, -7.966120719909668, 4.373565196990967, 45.302955627441406, -220.11785888671875, 58.9722785949707, 0.757080078125, 0.043701171875, -0.235107421875
476, 965378091, -0.7705681324005127, -4.803948879241943, 4.7479472160339355, 156.2010955810547, -186.1945343017578, 96.11967468261719, 0.752197265625, 0.003662109375, -0.26806640625
477, 965394758, -4.24395227432251, -2.747316837310791, 9.33119010925293, 147.12637329101562, -208.79071044921875, 53.73737335205078, 0.744873046875, -0.029541015625, -0.300048828125
478, 965411425, -5.574321269989014, -2.5933010578155518, 9.737821578979492, 85.41227722167969, -263.8575439453125, -9.981009483337402, 0.74169921875, -0.044677734375, -0.350830078125
479, 965428092, -5.2297234535217285, -2.597825050354004, 7.099368572235107, 46.4231071472168, -301.79583740234375, -42.19847106933594, 0.727294921875, -0.042724609375, -0.4208984375
480, 965444759, -5.59162712097168, -2.0998005867004395, 5.281541347503662, 36.0894889831543, -311.94677734375, -43.787841796875, 0.69677734375, -0.03173828125, -0.50732421875
481, 965461426, -6.958354473114014, -1.6735377311706543, 6.309107780456543, 28.774394989013672, -310.4802551269531, -37.668853759765625, 0.63720703125, -0.02099609375, -0.596435546875
482, 965478093, -8.934226989746094, -0.8118684887886047, 8.138458251953125, 4.133512496948242, -323.6304626464844, -40.54179763793945, 0.540771484375, -0.012451171875, -0.662109375
483, 965494760, -10.430411338806152, -1.0255348682403564, 8.553972244262695, -21.509231567382812, -349.0174255371094, -37.02271270751953, 0.426513671875, -0.00537109375, -0.692138671875
484, 965511427, -10.156827926635742, -1.7174124717712402, 7.331638813018799, -40.7327880859375, -364.281005859375, -31.590831756591797, 0.32275390625, -0.00634765625, -0.688720703125
485, 965528094, -9.693387985229492, -1.4227874279022217, 5.563089847564697, -64.19216918945312, -347.8509521484375, -33.80680465698242, 0.24853515625, -0.01171875, -0.670166015625
486, 965544761, -10.74086856842041, -1.1332648992538452, 5.634722709655762, -88.42774200439453, -293.517578125, -35.115203857421875, 0.2109375, -0.0185546875, -0.6376953125
487, 965561428, -14.198447227478027, -0.24356499314308167, 11.554386138916016, -119.67163848876953, -256.40362548828125, -38.56222152709961, 0.222900390625, -0.026123046875, -0.601318359375
488, 965578095, -17.889572143554688, 0.7741848230361938, 13.982290267944336, -154.99948120117188, -280.2379455566406, -39.157039642333984, 0.294677734375, -0.018310546875, -0.604248046875
489, 965594762, -18.34891700744629, 0.5087771415710449, 11.70347785949707, -151.7125244140625, -303.7869567871094, -16.081377029418945, 0.366455078125, 0.022216796875, -0.700439453125
490, 965611429, -19.507783889770508, 1.6865772008895874, 9.15894889831543, -136.94454956054688, -304.9449157714844, -7.19832706451416, 0.360107421875, 0.10205078125, -0.84619140625
491, 965628096, -20.577457427978516, 2.3594064712524414, 6.707851886749268, -131.07174682617188, -287.172607421875, -16.24309730529785, 0.263671875, 0.185791015625, -0.957763671875
492, 965644763, -21.132678985595703, 2.054020643234253, 2.8999507427215576, -108.71345520019531, -259.759765625, -20.045738220214844, 0.1298828125, 0.264404296875, -0.999267578125
493, 965661430, -20.404329299926758, 1.9875158071517944, -0.7582728266716003, -76.81803894042969, -215.15628051757812, -27.302265167236328, 0.016845703125, 0.316650390625, -0.995361328125
494, 965678097, -21.128263473510742, 2.1569719314575195, -3.7728798389434814, -52.34520721435547, -157.258056640625, -54.30124282836914, -0.0732421875, 0.349853515625, -0.977294921875
495, 965694764, -20.682926177978516, 4.438998699188232, -6.767202377319336, -23.599740982055664, -84.8475341796875, -77.03955078125, -0.12841796875, 0.366943359375, -0.9609375
496, 965711431, -20.827390670776367, 7.7054362297058105, -7.530821800231934, -7.816396236419678, -21.493745803833008, -74.76522064208984, -0.157470703125, 0.375732421875, -0.95361328125
497, 965728098, -20.060943603515625, 6.180686950683594, -8.201497077941895, 22.730873107910156, 52.99371337890625, -58.90272521972656, -0.1669921875, 0.37939453125, -0.954345703125
498, 965744765, 2.846696138381958, 4.875824451446533, 9.02098560333252, 87.56332397460938, 101.9588851928711, 19.9918155670166, -0.144287109375, 0.364501953125, -0.97021484375
499, 965761432, 6.3653564453125, -3.5981271266937256, 18.452627182006836, -60.58004379272461, 181.9159698486328, -4.029335975646973, -0.107666015625, 0.3818359375, -0.979248046875
500, 965778099, -7.940311431884766, -0.28926607966423035, 8.281503677368164, -68.93588256835938, 204.61805725097656, 30.860843658447266, -0.055419921875, 0.41259765625, -0.973876953125
501, 965794766, -8.280029296875, 4.274437427520752, 11.734509468078613, -86.08480834960938, 207.20875549316406, 27.748470306396484, 0.0029296875, 0.444091796875, -0.96533203125
502, 965811433, -11.023205757141113, -6.750696182250977, 11.827807426452637, -79.82401275634766, 170.59423828125, 23.00845718383789, 0.053466796875, 0.474853515625, -0.9580078125
503, 965828100, -8.224013328552246, -10.209039688110352, 8.93513298034668, -39.34190368652344, 149.15408325195312, 20.430749893188477, 0.094970703125, 0.497802734375, -0.94580078125
504, 965844767, -10.685489654541016, -5.178497314453125, 9.281329154968262, 54.677398681640625, 84.60191345214844, 46.72178649902344, 0.12548828125, 0.489501953125, -0.9482421875
505, 965861434, -6.473235607147217, -0.921156108379364, 10.730521202087402, 37.280941009521484, 63.7140007019043, 23.335399627685547, 0.148193359375, 0.480224609375, -0.9501953125
506, 965878101, -6.151839256286621, -2.4763567447662354, 9.31562614440918, 37.34079360961914, 36.536712646484375, 16.305809020996094, 0.16162109375, 0.4716796875, -0.951904296875
507, 965894768, -5.988120079040527, -2.374605655670166, 9.548653602600098, 38.03103256225586, 19.092357635498047, 13.287341117858887, 0.167724609375, 0.460693359375, -0.957763671875
508, 965911435, -4.712508678436279, -3.019005060195923, 8.332494735717773, 36.61235809326172, 8.571662902832031, 11.694855690002441, 0.1728515625, 0.451171875, -0.964111328125
509, 965928102, -4.844594955444336, -1.7560863494873047, 9.112029075622559, 31.611024856567383, 5.432129859924316, 11.059057235717773, 0.175537109375, 0.440185546875, -0.966796875
510, 965944769, -4.3843488693237305, -2.2993080615997314, 8.3953275680542, 26.505796432495117, 4.754485607147217, 8.739371299743652, 0.177734375, 0.434814453125, -0.970703125
511, 965961436, -4.903031826019287, -2.269320487976074, 8.514384269714355, 22.62415885925293, 3.28942608833313, 7.270442008972168, 0.1767578125, 0.43017578125, -0.973876953125
512, 965978103, -4.563346862792969, -2.3398051261901855, 8.347020149230957, 19.057117462158203, 3.115494728088379, 6.255679607391357, 0.181884765625, 0.421630859375, -0.9755859375
513, 965994770, -4.476991653442383, -2.4001388549804688, 8.247579574584961, 17.8651180267334, 2.5302624702453613, 6.7577080726623535, 0.18359375, 0.416015625, -0.97705078125
514, 966011437, -4.479987144470215, -2.5697293281555176, 8.1055269241333, 14.647294998168945, 2.9561374187469482, 7.809479713439941, 0.18408203125, 0.41162109375, -0.98095703125
515, 966028104, -4.670444488525391, -2.430793046951294, 8.160161018371582, 13.831655502319336, 2.472581386566162, 9.224721908569336, 0.18505859375, 0.4091796875, -0.98095703125
516, 966044771, -5.026196479797363, -2.004023551940918, 8.418886184692383, 14.803866386413574, -1.4257577657699585, 8.774657249450684, 0.1865234375, 0.406494140625, -0.982421875
517, 966061438, -4.934976100921631, -2.0186729431152344, 8.380467414855957, 12.14318561553955, -2.611654758453369, 6.585008144378662, 0.187744140625, 0.402587890625, -0.98388671875
518, 966078105, -4.786382675170898, -2.0659339427948, 8.300736427307129, 11.585434913635254, -3.8435473442077637, 5.770667552947998, 0.186767578125, 0.39794921875, -0.9853515625
519, 966094772, -4.658440589904785, -2.1190340518951416, 8.25407886505127, 11.313552856445312, -4.553275108337402, 6.103235244750977, 0.186767578125, 0.392578125, -0.9873046875
520, 966111439, -4.60878324508667, -2.0635263919830322, 8.322577476501465, 9.5400390625, -3.76892352104187, 6.619997024536133, 0.186279296875, 0.39111328125, -0.989990234375
521, 966128106, -4.608401775360107, -2.0225727558135986, 8.33571720123291, 8.607964515686035, -1.4051517248153687, 7.148359775543213, 0.1875, 0.387939453125, -0.98828125
522, 966144773, -4.67307710647583, -2.0085084438323975, 8.296785354614258, 6.701943397521973, 0.2862284481525421, 7.119405269622803, 0.18603515625, 0.386474609375, -0.98828125
523, 966161440, -4.7011399269104, -1.9327781200408936, 8.31141185760498, 5.071014881134033, 1.62468421459198, 7.154121398925781, 0.1884765625, 0.384033203125, -0.9912109375
524, 966178107, -4.618113994598389, -1.9132862091064453, 8.248620986938477, 4.514956951141357, 4.232628345489502, 7.329638957977295, 0.19091796875, 0.382568359375, -0.98876953125
525, 966194774, -4.45798397064209, -2.1011033058166504, 8.159906387329102, 6.911783695220947, 7.372120380401611, 9.574135780334473, 0.193115234375, 0.37890625, -0.9912109375
526, 966211441, -4.473266124725342, -2.264265775680542, 8.220995903015137, 9.852662086486816, 9.711676597595215, 14.24870491027832, 0.197021484375, 0.37451171875, -0.989990234375
527, 966228108, -4.57833194732666, -1.8734694719314575, 8.320572853088379, 9.327210426330566, 16.11748504638672, 16.10338592529297, 0.205078125, 0.373046875, -0.989990234375
528, 966244775, -4.408463001251221, -1.357713222503662, 8.530256271362305, 5.382742881774902, 30.694190979003906, 14.81492805480957, 0.211181640625, 0.37255859375, -0.98974609375
529, 966261442, -4.369503498077393, -1.4492032527923584, 8.411073684692383, -7.75768518447876, 53.708065032958984, 13.850834846496582, 0.22802734375, 0.373291015625, -0.98681640625
530, 966278109, -4.618810176849365, -1.3130172491073608, 8.366786003112793, -13.114420890808105, 76.33341979980469, 10.772216796875, 0.246337890625, 0.37451171875, -0.98046875
531, 966294776, -4.875883102416992, -1.4043684005737305, 8.186956405639648, -17.650968551635742, 101.0575942993164, 7.528807640075684, 0.27490234375, 0.379150390625, -0.969482421875
532, 966311443, -5.0913238525390625, -1.592730164527893, 8.139081001281738, -19.90983009338379, 125.16043090820312, 5.906949996948242, 0.3076171875, 0.383544921875, -0.956298828125
533, 966328110, -5.448120594024658, -1.7543861865997314, 8.011015892028809, -20.448497772216797, 148.59877014160156, 5.538104057312012, 0.349365234375, 0.389404296875, -0.93994140625
534, 966344777, -5.61980676651001, -1.446033239364624, 7.880885124206543, -20.262571334838867, 171.9075927734375, 4.267935752868652, 0.39208984375, 0.395263671875, -0.920654296875
535, 966361444, -5.344901084899902, -1.604260802268982, 7.976039886474609, -16.685815811157227, 205.48797607421875, 2.1552343368530273, 0.4423828125, 0.398681640625, -0.892333984375
536, 966378111, -5.1717023849487305, -2.052197217941284, 8.077713966369629, -11.437074661254883, 252.94485473632812, 7.066464424133301, 0.504150390625, 0.404052734375, -0.85498046875
537, 966394778, -5.614160537719727, -2.346224546432495, 7.706115245819092, -3.578268527984619, 319.0765380859375, 18.18074607849121, 0.577880859375, 0.404052734375, -0.807373046875
538, 966411445, -6.385173797607422, -2.8014659881591797, 7.666271209716797, 6.812142848968506, 409.4846496582031, 38.87849426269531, 0.666748046875, 0.396728515625, -0.73583984375
539, 966428112, -8.960694313049316, -3.3526856899261475, 10.698293685913086, 0.643466591835022, 480.7391052246094, 74.18793487548828, 0.7646484375, 0.38525390625, -0.637451171875
540, 966444779, -17.285484313964844, -2.080202579498291, 10.721156120300293, -16.834409713745117, 486.7657775878906, 95.26416778564453, 0.855712890625, 0.36279296875, -0.515869140625
541, 966461446, -18.90502166748047, -4.948001861572266, 10.295767784118652, -26.04745864868164, 449.76763916015625, 93.58859252929688, 0.92236328125, 0.33837890625, -0.389892578125
542, 966478113, -16.71124839782715, -6.496585369110107, 10.5991849899292, -0.21722140908241272, 411.1982727050781, 122.80442810058594, 0.966064453125, 0.30419921875, -0.27001953125
543, 966494780, -12.89515209197998, -4.836055755615234, 14.697815895080566, 10.56557559967041, 360.6052551269531, 120.54154205322266, 0.9931640625, 0.260009765625, -0.16064453125
544, 966511447, -5.507415771484375, -2.2104332447052, 15.827802658081055, -33.58201217651367, 216.28179931640625, 79.86141967773438, 0.998046875, 0.234130859375, -0.091552734375
545, 966528114, -25.68548011779785, -3.9324703216552734, 23.00932502746582, -38.5446662902832, 82.43289947509766, 120.30106353759766, 0.99951171875, 0.199951171875, -0.059814453125
546, 966544781, -10.559335708618164, -7.002161502838135, 19.988304138183594, -64.99470520019531, -123.40538787841797, 32.237545013427734, 0.9921875, 0.185302734375, -0.083984375
547, 966561448, -1.3630183935165405, -7.635739326477051, 8.67819881439209, 2.0815069675445557, -201.5738983154297, 37.97044372558594, 0.977783203125, 0.178955078125, -0.145263671875
548, 966578115, -0.6281128525733948, -5.733232021331787, 5.046724796295166, 82.7498779296875, -191.6096954345703, 63.28996658325195, 0.96728515625, 0.166259765625, -0.206298828125
549, 966594782, -2.4901020526885986, -4.563343524932861, 7.3112711906433105, 122.53270721435547, -198.14573669433594, 51.419471740722656, 0.947998046875, 0.147216796875, -0.271240234375
550, 966611449, -4.436306476593018, -3.661233425140381, 8.68945026397705, 109.5398941040039, -246.60464477539062, 7.107963562011719, 0.9267578125, 0.14013671875, -0.34619140625
551, 966628116, -5.121495246887207, -3.084567070007324, 7.488150596618652, 77.76156616210938, -293.0972595214844, -35.6359977722168, 0.892822265625, 0.14794921875, -0.4267578125
552, 966644783, -5.282470703125, -2.626065969467163, 5.681798458099365, 50.60104751586914, -318.4308166503906, -55.22494125366211, 0.84326171875, 0.163818359375, -0.5234375
553, 966661450, -4.972185134887695, -2.9972779750823975, 4.600679397583008, 42.99184036254883, -321.7259826660156, -55.10205841064453, 0.7734375, 0.176513671875, -0.615234375
554, 966678117, -6.484442710876465, -2.076369524002075, 5.834384918212891, 34.8339729309082, -311.1824035644531, -53.26287841796875, 0.691650390625, 0.18115234375, -0.694091796875
555, 966694784, -8.953498840332031, -1.1759566068649292, 8.342499732971191, 2.444241523742676, -315.7420654296875, -56.26119613647461, 0.59375, 0.181396484375, -0.750244140625
556, 966711451, -9.677663803100586, -1.4561318159103394, 8.688699722290039, -28.615068435668945, -338.6284484863281, -55.26565170288086, 0.49853515625, 0.178955078125, -0.79638671875
557, 966728118, -9.195382118225098, -1.4937584400177002, 6.869492053985596, -41.46852493286133, -348.0760803222656, -43.494930267333984, 0.3955078125, 0.17822265625, -0.828125
558, 966744785, -10.025513648986816, 0.055694036185741425, 6.1109538078308105, -63.29225540161133, -317.0546875, -27.613248825073242, 0.293212890625, 0.179931640625, -0.839599609375
559, 966761452, -11.800300598144531, -0.2746121287345886, 8.638407707214355, -103.109130859375, -270.473388671875, -23.719253540039062, 0.207275390625, 0.181640625, -0.824951171875
560, 966778119, -16.3784236907959, -2.2191925048828125, 13.145892143249512, -132.1875457763672, -270.9493103027344, -33.01396179199219, 0.144775390625, 0.19091796875, -0.795654296875
561, 966794786, -16.519201278686523, -2.0011472702026367, 12.92742919921875, -127.0671157836914, -289.5388488769531, -34.031822204589844, 0.096923828125, 0.197021484375, -0.779541015625
562, 966811453, -16.955350875854492, 0.2235698401927948, 11.394257545471191, -126.47686767578125, -293.159912109375, -26.744842529296875, 0.0498046875, 0.208251953125, -0.7666015625
563, 966828120, -19.459949493408203, 1.0687898397445679, 10.423828125, -135.52476501464844, -286.0440979003906, -20.82105827331543, 0.001220703125, 0.224853515625, -0.756591796875
564, 966844787, -21.972003936767578, 0.7449178695678711, 6.989647388458252, -135.4796905517578, -276.7392883300781, -20.133968353271484, -0.0419921875, 0.24609375, -0.74609375
565, 966861454, -21.651832580566406, 0.10943587124347687, 0.9935681223869324, -109.6905746459961, -245.5272216796875, -19.83540916442871, -0.084716796875, 0.265869140625, -0.742431640625
566, 966878121, -21.117198944091797, 0.6506813168525696, -3.0617594718933105, -80.29953002929688, -191.00543212890625, -39.44129180908203, -0.121826171875, 0.278076171875, -0.740966796875
567, 966894788, -21.153047561645508, 2.630676507949829, -6.693525314331055, -57.87746047973633, -123.52616119384766, -73.73539733886719, -0.150390625, 0.290283203125, -0.74365234375
568, 966911455, -22.48896026611328, 5.85192346572876, -8.99301815032959, -42.33667755126953, -53.540977478027344, -81.81714630126953, -0.1708984375, 0.292724609375, -0.744873046875
569, 966928122, -23.52472496032715, 5.309878349304199, -9.212471961975098, -19.74784278869629, 12.035443305969238, -74.74920654296875, -0.176025390625, 0.297119140625, -0.74853515625
570, 966944789, -11.345629692077637, -0.8588287830352783, -7.591523170471191, 138.23175048828125, 98.45220184326172, -24.750507354736328, -0.156494140625, 0.272705078125, -0.7626953125
571, 966961456, 10.932368278503418, 4.906027793884277, 24.487895965576172, 48.41067123413086, 157.0247039794922, -11.632710456848145, -0.120361328125, 0.244384765625, -0.775146484375
572, 966978123, -3.1695117950439453, 5.402818202972412, 9.819470405578613, -59.88825225830078, 217.3072509765625, 27.97489356994629, -0.067138671875, 0.257080078125, -0.78515625
573, 966994790, -8.673276901245117, 11.457942962646484, 10.649048805236816, -70.7961196899414, 247.9335174560547, 45.92335510253906, -0.00537109375, 0.26904296875, -0.781982421875
574, 967011457, -15.006580352783203, -8.480416297912598, 14.71093463897705, -102.81956481933594, 205.17164611816406, 25.839111328125, 0.052490234375, 0.290771484375, -0.775634765625
575, 967028124, -12.488580703735352, -15.932534217834473, 8.61709213256836, -27.436918258666992, 167.0010986328125, 25.807235717773438, 0.09619140625, 0.3017578125, -0.768310546875
576, 967044791, -8.764496803283691, -0.19931790232658386, 9.830631256103516, 66.73192596435547, 90.40798950195312, 46.0181770324707, 0.12890625, 0.288330078125, -0.7705078125
577, 967061458, -6.538384437561035, -2.987257480621338, 10.107999801635742, 39.02393341064453, 69.16551208496094, 17.667314529418945, 0.148681640625, 0.276123046875, -0.7705078125
578, 967078125, -8.019514083862305, -2.1362922191619873, 11.175742149353027, 34.64647674560547, 45.05201721191406, 12.752585411071777, 0.16162109375, 0.267578125, -0.769287109375
579, 967094792, -5.404185771942139, -3.044034242630005, 8.631779670715332, 31.54591941833496, 12.950440406799316, 9.890911102294922, 0.169677734375, 0.259521484375, -0.77392578125
580, 967111459, -4.639869689941406, -2.5521934032440186, 8.377195358276367, 26.349903106689453, 4.877729415893555, 10.31473159790039, 0.16943359375, 0.251953125, -0.7744140625
581, 967128126, -4.3990020751953125, -2.1879544258117676, 8.44009017944336, 22.823177337646484, 3.65775203704834, 10.763921737670898, 0.174072265625, 0.24609375, -0.77490234375
582, 967144793, -5.008617401123047, -2.412044048309326, 8.324949264526367, 21.845619201660156, 2.4754786491394043, 8.485100746154785, 0.176513671875, 0.241455078125, -0.776611328125
583, 967161460, -4.511714935302734, -2.5195024013519287, 8.090325355529785, 24.77616310119629, -0.14001215994358063, 8.188264846801758, 0.177001953125, 0.237060546875, -0.7802734375
584, 967178127, -2.685561418533325, -2.6415200233459473, 8.478367805480957, 16.426973342895508, 2.9422786235809326, 8.561819076538086, 0.18017578125, 0.2294921875, -0.782470703125
585, 967194794, -5.136374473571777, -3.633683204650879, 7.661364555358887, 8.179286003112793, 4.108707904815674, 9.7014741897583, 0.18115234375, 0.22705078125, -0.780517578125
586, 967211461, -5.569704055786133, -2.869279623031616, 8.205060005187988, 22.38509178161621, -12.649365425109863, 19.415952682495117, 0.182861328125, 0.222900390625, -0.785400390625
587, 967228128, -5.799690246582031, -2.325100898742676, 8.173576354980469, 26.95062255859375, -16.905080795288086, 23.771148681640625, 0.178466796875, 0.21337890625, -0.78662109375
588, 967244795, -5.122683048248291, -1.7111304998397827, 8.414555549621582, 16.797136306762695, -7.953465938568115, 18.214303970336914, 0.177978515625, 0.2080078125, -0.78759765625
589, 967261462, -5.058615684509277, -1.661598563194275, 8.189048767089844, 13.040485382080078, -0.13085544109344482, 12.25596809387207, 0.18017578125, 0.202880859375, -0.789794921875
590, 967278129, -4.798093318939209, -2.269876718521118, 8.248785972595215, 14.850226402282715, 1.3407045602798462, 9.994847297668457, 0.1826171875, 0.202392578125, -0.791259765625
591, 967294796, -4.707241535186768, -2.3317723274230957, 8.160728454589844, 15.708769798278809, 1.949442744255066, 11.116508483886719, 0.18310546875, 0.198486328125, -0.79345703125
592, 967311463, -4.629422187805176, -2.753786563873291, 8.206477165222168, 24.43175506591797, 0.7023599743843079, 16.384002685546875, 0.183837890625, 0.189453125, -0.793212890625
593, 967328130, -4.698483943939209, -2.6291234493255615, 8.3335542678833, 33.397666931152344, 1.4097378253936768, 25.215246200561523, 0.182861328125, 0.182861328125, -0.793701171875
594, 967344797, -4.868327617645264, -1.8085891008377075, 8.306082725524902, 32.943477630615234, 6.738280296325684, 28.57763671875, 0.1875, 0.1728515625, -0.795166015625
595, 967361464, -4.717029094696045, -1.2078605890274048, 8.433798789978027, 30.52645492553711, 16.01328468322754, 24.908645629882812, 0.191650390625, 0.164306640625, -0.798828125
596, 967378131, -4.5324201583862305, -0.8880259990692139, 8.506402969360352, 21.208965301513672, 27.419206619262695, 19.831645965576172, 0.19970703125, 0.1572265625, -0.797119140625
597, 967394798, -4.7531633377075195, -1.3741432428359985, 8.344335556030273, 13.827916145324707, 40.16896438598633, 16.474367141723633, 0.209228515625, 0.15283203125, -0.796875
598, 967411465, -4.8672075271606445, -1.478084921836853, 8.242008209228516, 10.942401885986328, 52.61355972290039, 17.57081413269043, 0.220458984375, 0.1494140625, -0.794677734375
599, 967428132, -4.968723297119141, -1.4722845554351807, 8.148599624633789, 11.258129119873047, 64.41692352294922, 21.029666900634766, 0.2373046875, 0.146484375, -0.7919921875
600, 967444799, -5.1888322830200195, -1.1292259693145752, 8.139492988586426, 9.411247253417969, 76.17935180664062, 22.60213851928711, 0.25390625, 0.1416015625, -0.785888671875
601, 967461466, -5.3060407638549805, -1.0358737707138062, 7.991075038909912, 6.669440746307373, 88.13996887207031, 21.42510414123535, 0.27294921875, 0.13818359375, -0.782470703125
602, 967478133, -5.389473915100098, -0.956669270992279, 7.855414867401123, 4.452517986297607, 101.08038330078125, 19.73553466796875, 0.30126953125, 0.133544921875, -0.7734375
603, 967494800, -5.499763011932373, -1.1381865739822388, 7.741342544555664, 2.895021915435791, 115.99813079833984, 17.710458755493164, 0.32568359375, 0.133056640625, -0.762451171875
604, 967511467, -5.647079944610596, -1.2794623374938965, 7.781228542327881, 8.114771842956543, 133.0898895263672, 21.459218978881836, 0.352783203125, 0.12744140625, -0.751220703125
605, 967528134, -5.727329730987549, -1.1616885662078857, 7.5651421546936035, 13.066926002502441, 157.9153594970703, 29.29456901550293, 0.38427734375, 0.12255859375, -0.733154296875
606, 967544801, -5.778231143951416, -1.6893818378448486, 7.900305271148682, 17.12651252746582, 200.49481201171875, 46.939212799072266, 0.4287109375, 0.115234375, -0.713623046875
607, 967561468, -5.6947455406188965, -3.552098274230957, 7.984579563140869, 27.667892456054688, 259.5504455566406, 88.69605255126953, 0.481689453125, 0.10107421875, -0.6826171875
608, 967578135, -8.127764701843262, -4.3166656494140625, 9.892394065856934, 49.28300094604492, 331.5679016113281, 143.74813842773438, 0.544189453125, 0.071533203125, -0.63916015625
609, 967594802, -12.47620964050293, -4.07973051071167, 13.211607933044434, 55.469581604003906, 375.62701416015625, 182.01792907714844, 0.609375, 0.031005859375, -0.5771484375
610, 967611469, -14.380813598632812, -1.483132004737854, 13.882254600524902, -10.242599487304688, 379.8390197753906, 181.96337890625, 0.67333984375, -0.006103515625, -0.511962890625
611, 967628136, -13.015777587890625, -0.8310079574584961, 12.927391052246094, -103.82549285888672, 375.7891845703125, 151.28758239746094, 0.722900390625, -0.026611328125, -0.442626953125
612, 967644803, -9.614657402038574, -1.5728379487991333, 13.079526901245117, -153.80702209472656, 345.1148986816406, 148.4840545654297, 0.766845703125, -0.038330078125, -0.374267578125
613, 967661470, -4.177585124969482, -1.5630578994750977, 13.127551078796387, -183.16409301757812, 256.67486572265625, 157.81809997558594, 0.795654296875, -0.052734375, -0.321044921875
614, 967678137, -14.608226776123047, -3.369910955429077, 22.503387451171875, -233.9110107421875, 99.67228698730469, 118.8802490234375, 0.8056640625, -0.063232421875, -0.30419921875
615, 967694804, -8.519850730895996, -12.01105785369873, 13.804611206054688, -213.76031494140625, -57.8993034362793, 16.9189453125, 0.799560546875, -0.044189453125, -0.3310546875
616, 967711471, 0.05568202584981918, -6.623523712158203, 7.78361701965332, -80.2912826538086, -92.91944122314453, -3.9248807430267334, 0.78466796875, -0.026611328125, -0.364013671875
617, 967728138, 0.512921929359436, 0.9496163129806519, 8.238912582397461, -64.55550384521484, -105.76078796386719, -50.87168502807617, 0.760986328125, -0.009765625, -0.396240234375
618, 967744805, 0.4701347053050995, 5.269780158996582, 8.261703491210938, -112.20914459228516, -122.20989990234375, -81.77123260498047, 0.728759765625, 0.018310546875, -0.423583984375
619, 967761472, -2.688190460205078, 8.034482955932617, 10.475564956665039, -169.65354919433594, -153.27345275878906, -83.62451171875, 0.690673828125, 0.0546875, -0.451904296875
620, 967778139, -4.376147747039795, 8.196264266967773, 11.045954704284668, -190.05223083496094, -207.5389404296875, -54.81123733520508, 0.642578125, 0.08447265625, -0.478515625
621, 967794806, -4.300281047821045, 9.741375923156738, 9.81047534942627, -183.99729919433594, -248.8977508544922, -11.841773986816406, 0.5908203125, 0.105224609375, -0.5009765625
622, 967811473, -4.825551509857178, 11.645404815673828, 9.103919982910156, -199.74424743652344, -261.5818786621094, 19.607746124267578, 0.543212890625, 0.118408203125, -0.5185546875
623, 967828140, -6.626746654510498, 11.053483963012695, 9.452642440795898, -224.62371826171875, -274.5458068847656, 43.45610809326172, 0.503662109375, 0.13330078125, -0.531982421875
624, 967844807, -6.3619232177734375, 10.098861694335938, 7.559145927429199, -224.78823852539062, -279.3551330566406, 62.79206848144531, 0.4736328125, 0.146484375, -0.545654296875
625, 967861474, -7.915229320526123, 10.765457153320312, 7.10552453994751, -223.5247039794922, -258.431396484375, 72.19263458251953, 0.452392578125, 0.156982421875, -0.560791015625
626, 967878141, -9.090987205505371, 10.341582298278809, 7.537642478942871, -229.79676818847656, -233.50885009765625, 78.59312438964844, 0.44091796875, 0.16455078125, -0.580078125
627, 967894808, -9.791693687438965, 8.322383880615234, 8.326549530029297, -218.64266967773438, -217.20611572265625, 87.12411499023438, 0.433349609375, 0.176513671875, -0.60546875
628, 967911475, -11.57956600189209, 6.936705112457275, 10.499483108520508, -206.94496154785156, -211.2008514404297, 88.27890014648438, 0.427001953125, 0.192138671875, -0.6376953125
629, 967928142, -11.979522705078125, 6.153155326843262, 10.328989028930664, -195.58853149414062, -217.8199462890625, 85.22704315185547, 0.414306640625, 0.2177734375, -0.671875
630, 967944809, -11.10692024230957, 6.420171737670898, 9.193219184875488, -183.57858276367188, -210.46975708007812, 83.15223693847656, 0.392822265625, 0.2548828125, -0.709716796875
631, 967961476, -11.725114822387695, 6.9725422859191895, 9.760740280151367, -174.30331420898438, -198.58448791503906, 83.16873931884766, 0.36328125, 0.2939453125, -0.735107421875
632, 967978143, -12.096352577209473, 5.800709247589111, 9.671957969665527, -155.10243225097656, -199.4466552734375, 85.9737777709961, 0.3310546875, 0.33642578125, -0.751708984375
633, 967994810, -10.872382164001465, 4.419036388397217, 7.840054512023926, -123.31998443603516, -189.62643432617188, 86.74471282958984, 0.295654296875, 0.371826171875, -0.76025390625
634, 968011477, -11.048969268798828, 2.60900616645813, 6.9177703857421875, -107.15166473388672, -169.92230224609375, 76.97071075439453, 0.268310546875, 0.4013671875, -0.762451171875
635, 968028144, -10.579021453857422, 1.2928045988082886, 5.466858863830566, -100.58509826660156, -149.62295532226562, 59.97221755981445, 0.243408203125, 0.427734375, -0.76171875
636, 968044811, -9.67958927154541, 1.6969356536865234, 4.268751621246338, -91.73040771484375, -123.77571868896484, 42.75312805175781, 0.22265625, 0.45361328125, -0.75634765625
637, 968061478, -8.343111991882324, 3.3984458446502686, 3.9679388999938965, -72.94358825683594, -97.42298126220703, 36.944557189941406, 0.207763671875, 0.47509765625, -0.750732421875
638, 968078145, -7.611083984375, 4.3399176597595215, 4.389427185058594, -47.58702850341797, -69.02490234375, 41.15494155883789, 0.19677734375, 0.486572265625, -0.74853515625
639, 968094812, -7.991677284240723, 3.9349863529205322, 4.612941741943359, -24.632848739624023, -47.94198226928711, 49.47319412231445, 0.193115234375, 0.49267578125, -0.7470703125
640, 968111479, -7.662492752075195, 2.8519434928894043, 4.239026069641113, -1.9317258596420288, -31.374197006225586, 57.28580856323242, 0.195068359375, 0.4931640625, -0.753173828125
641, 968128146, -7.893637180328369, 0.7759649157524109, 2.875939130783081, 37.13864517211914, 2.0434088706970215, 71.8720703125, 0.205810546875, 0.483154296875, -0.75390625
642, 968144813, -9.238266944885254, 5.340099334716797, 2.9539411067962646, 51.770469665527344, 46.93722152709961, 99.9183578491211, 0.2265625, 0.4638671875, -0.76220703125
643, 968161480, -4.973027229309082, 0.4374709129333496, 8.791831016540527, 31.128000259399414, 45.50516128540039, 98.0683364868164, 0.254150390625, 0.44287109375, -0.76611328125
644, 968178147, -1.3133360147476196, -7.279431343078613, 10.6932954788208, -15.2964448928833, 63.80558395385742, 41.41849899291992, 0.274169921875, 0.43505859375, -0.7626953125
645, 968194814, -4.766280651092529, -10.574578285217285, 9.247942924499512, -28.81664276123047, 103.55268096923828, 19.915063858032227, 0.296142578125, 0.436279296875, -0.750732421875
646, 968211481, -5.37775182723999, -2.7281529903411865, 8.099786758422852, -27.841590881347656, 114.28157806396484, 19.625612258911133, 0.322998046875, 0.43896484375, -0.741455078125
647, 968228148, -5.706320762634277, -0.48553669452667236, 10.006072044372559, -54.053836822509766, 109.68319702148438, 7.434882164001465, 0.351806640625, 0.4443359375, -0.7255859375
648, 968244815, -5.6604156494140625, -1.2340037822723389, 10.726946830749512, -70.06937408447266, 93.57929992675781, 0.37190788984298706, 0.37451171875, 0.458984375, -0.70849609375
649, 968261482, -9.040214538574219, -7.434267044067383, 11.136473655700684, -34.1253662109375, 68.5687484741211, 5.5369720458984375, 0.391357421875, 0.466064453125, -0.6943359375
650, 968278149, -5.820145606994629, -3.7510244846343994, 6.667773246765137, 26.805498123168945, 25.61652374267578, 18.633243560791016, 0.400634765625, 0.459228515625, -0.693603515625
651, 968294816, -5.420297145843506, -1.7583003044128418, 9.2949800491333, 27.85984992980957, 22.334211349487305, 19.116634368896484, 0.41015625, 0.453369140625, -0.6953125
652, 968311483, -4.843810081481934, -2.3556559085845947, 8.021705627441406, 27.642230987548828, 28.35442543029785, 23.375253677368164, 0.415771484375, 0.443115234375, -0.697021484375
653, 968328150, -3.691514015197754, -2.7958743572235107, 7.446937084197998, 38.365230560302734, 27.723100662231445, 30.073192596435547, 0.426513671875, 0.431884765625, -0.701171875
654, 968344817, -3.7291879653930664, -1.7918058633804321, 8.106571197509766, 55.66389083862305, 30.76663589477539, 35.79086685180664, 0.43896484375, 0.417236328125, -0.703369140625
655, 968361484, -5.610358238220215, -2.314082384109497, 8.850123405456543, 57.042877197265625, 11.536999702453613, 31.000654220581055, 0.44482421875, 0.400634765625, -0.711669921875
656, 968378151, -5.18485164642334, -3.4296834468841553, 8.542484283447266, 60.87041473388672, -7.91514778137207, 30.67820167541504, 0.4501953125, 0.3828125, -0.718505859375
657, 968394818, -5.754848480224609, -1.9429105520248413, 9.123373985290527, 20.29744529724121, -13.235713958740234, 18.719762802124023, 0.44970703125, 0.37255859375, -0.722900390625
