sep=,
DeviceTag:,B,,,,,,,,,,,,,,,,,
FirmwareVersion:,2.2.1,,,,,,,,,,,,,,,,,
AppVersion:,2022.0.1,,,,,,,,,,,,,,,,,
SyncStatus:,Synced,,,,,,,,,,,,,,,,,
OutputRate:,60Hz,,,,,,,,,,,,,,,,,
FilterProfile:,General,,,,,,,,,,,,,,,,,
Measurement Mode:,Inertial Mode - Rate quantities (with mag),,,,,,,,,,,,,,,,,
StartTime:,2022-08-05 15:59:17.114 +0300,,,,,,,,,,,,,,,,,
© Xsens Technologies B. V. 2005-2022,,,,,,,,,,,,,,,,,,,

PacketCounter,SampleTimeFine,Acc_X,Acc_Y,Acc_Z,Gyr_X,Gyr_Y,Gyr_Z,Mag_X,Mag_Y,Mag_Z
1, 604170867, -4.504538536071777, -1.4710386991500854, 8.444537162780762, -0.13104736804962158, -0.76786869764328, -0.8779905438423157, -0.0263671875, 0.13818359375, -0.828857421875
2, 604187534, -4.505802154541016, -1.458613395690918, 8.429301261901855, 0.21950723230838776, -0.8513532876968384, -0.6985864043235779, -0.02685546875, 0.14013671875, -0.8271484375
3, 604204201, -4.5162787437438965, -1.4444665908813477, 8.443801879882812, 0.05905648320913315, -0.6511388421058655, -0.7965294122695923, -0.025390625, 0.140380859375, -0.826171875
4, 604220868, -4.518275737762451, -1.4303712844848633, 8.460885047912598, -0.10092009603977203, -0.5744504928588867, -0.9465485215187073, -0.02685546875, 0.142333984375, -0.828857421875
5, 604237535, -4.512187957763672, -1.4536339044570923, 8.442004203796387, -0.3285212814807892, -0.6178295612335205, -1.0535399913787842, -0.0283203125, 0.14013671875, -0.829833984375
6, 604254202, -4.521001815795898, -1.4756309986114502, 8.439057350158691, -0.26656416058540344, -0.6443002820014954, -1.060365915298462, -0.02685546875, 0.14013671875, -0.828369140625
7, 604270869, -4.509151458740234, -1.4719514846801758, 8.433971405029297, -0.22067904472351074, -0.6251163482666016, -0.9708365797996521, -0.0263671875, 0.140380859375, -0.8271484375
8, 604287536, -4.498437404632568, -1.4752246141433716, 8.45323371887207, -0.2274535745382309, -0.5825352072715759, -0.9325584173202515, -0.0234375, 0.139404296875, -0.82763671875
9, 604304203, -4.50575590133667, -1.475975751876831, 8.440467834472656, -0.22482830286026, -0.5392882227897644, -0.9089947938919067, -0.0263671875, 0.140869140625, -0.828857421875
10, 604320870, -4.497485160827637, -1.4548206329345703, 8.452795028686523, -0.36428940296173096, -0.3304678797721863, -0.8692821860313416, -0.02783203125, 0.140625, -0.828369140625
11, 604337537, -4.503638744354248, -1.4454723596572876, 8.43591594696045, -0.2253020852804184, -0.2461252361536026, -0.9276534914970398, -0.02490234375, 0.140380859375, -0.829345703125
12, 604354204, -4.534116744995117, -1.4695539474487305, 8.425485610961914, -0.32104241847991943, -0.4106612205505371, -0.9437383413314819, -0.02783203125, 0.141357421875, -0.827392578125
13, 604370871, -4.523258209228516, -1.476388931274414, 8.452255249023438, -0.22578877210617065, -0.46292397379875183, -0.8603306412696838, -0.0263671875, 0.1396484375, -0.828369140625
14, 604387538, -4.5028815269470215, -1.4500267505645752, 8.448770523071289, 0.06174582615494728, -0.551095724105835, -0.8075684905052185, -0.0263671875, 0.13916015625, -0.829833984375
15, 604404205, -4.504570484161377, -1.4584918022155762, 8.445980072021484, 0.007728632539510727, -0.6694647073745728, -0.7792280912399292, -0.02685546875, 0.14013671875, -0.82568359375
16, 604420872, -4.513979434967041, -1.4482653141021729, 8.450940132141113, -0.013164927251636982, -0.6142948865890503, -0.7755140662193298, -0.02587890625, 0.141357421875, -0.82763671875
17, 604437539, -4.520583629608154, -1.4677619934082031, 8.440481185913086, -0.007927129976451397, -0.7578157186508179, -0.8308118581771851, -0.02685546875, 0.140869140625, -0.829833984375
18, 604454206, -4.522904872894287, -1.4426287412643433, 8.445969581604004, -0.03976371884346008, -0.9046918749809265, -0.8289806842803955, -0.0263671875, 0.140380859375, -0.827880859375
19, 604470873, -4.500621318817139, -1.4521360397338867, 8.469292640686035, -0.09571465849876404, -0.7849011421203613, -0.8726374506950378, -0.02587890625, 0.13916015625, -0.828369140625
20, 604487540, -4.485475540161133, -1.4445234537124634, 8.440839767456055, -0.31349942088127136, -0.6054586172103882, -0.9422399997711182, -0.0263671875, 0.138671875, -0.830322265625
21, 604504207, -4.497912883758545, -1.4513168334960938, 8.443130493164062, -0.40655040740966797, -0.40865063667297363, -1.0300402641296387, -0.02783203125, 0.13916015625, -0.829833984375
22, 604520874, -4.513282299041748, -1.438788652420044, 8.426421165466309, -0.6324928402900696, -0.3282395899295807, -1.1027933359146118, -0.02783203125, 0.1396484375, -0.830810546875
23, 604537541, -4.510253429412842, -1.4607244729995728, 8.43873119354248, -0.6859849095344543, -0.3068913519382477, -1.099156141281128, -0.0283203125, 0.13671875, -0.8271484375
24, 604554208, -4.531768798828125, -1.441759705543518, 8.413887977600098, -0.5852886438369751, -0.36115190386772156, -0.983271598815918, -0.02392578125, 0.138671875, -0.82763671875
25, 604570875, -4.5204572677612305, -1.4531583786010742, 8.436241149902344, -0.5361250042915344, -0.4378747344017029, -0.976087212562561, -0.02587890625, 0.141357421875, -0.82568359375
26, 604587542, -4.531872749328613, -1.4673744440078735, 8.442606925964355, -0.41212114691734314, -0.5726743340492249, -0.9811072945594788, -0.02783203125, 0.14013671875, -0.827880859375
27, 604604209, -4.532020568847656, -1.4673168659210205, 8.464676856994629, -0.3343609869480133, -0.6144102215766907, -0.9825031161308289, -0.02490234375, 0.140869140625, -0.829833984375
28, 604620876, -4.534304141998291, -1.4770699739456177, 8.438445091247559, -0.15440616011619568, -0.8566423654556274, -0.9758181571960449, -0.02685546875, 0.140869140625, -0.827392578125
29, 604637543, -4.513965129852295, -1.454890489578247, 8.43128490447998, -0.1167810931801796, -0.880603015422821, -0.9004656672477722, -0.0263671875, 0.1396484375, -0.82666015625
30, 604654210, -4.508007049560547, -1.4642094373703003, 8.466449737548828, -0.15020567178726196, -0.8633400201797485, -0.9771885871887207, -0.02490234375, 0.139892578125, -0.82763671875
31, 604670877, -4.497198104858398, -1.4447009563446045, 8.429720878601074, -0.40113329887390137, -0.7152730822563171, -0.9767530560493469, -0.02587890625, 0.140869140625, -0.826171875
32, 604687544, -4.509644508361816, -1.4498927593231201, 8.445902824401855, -0.45116767287254333, -0.6138211488723755, -1.0864139795303345, -0.02685546875, 0.13916015625, -0.82763671875
33, 604704211, -4.519248962402344, -1.4583805799484253, 8.439224243164062, -0.42663076519966125, -0.7049767374992371, -1.118609070777893, -0.02783203125, 0.140625, -0.826904296875
34, 604720878, -4.513930320739746, -1.4692726135253906, 8.434209823608398, -0.4052697718143463, -0.7366085648536682, -1.2033231258392334, -0.02783203125, 0.140869140625, -0.826904296875
35, 604737545, -4.512977123260498, -1.458804965019226, 8.435199737548828, -0.27207088470458984, -0.8165200352668762, -1.1060075759887695, -0.02783203125, 0.140380859375, -0.829833984375
36, 604754212, -4.513738632202148, -1.4639229774475098, 8.445984840393066, -0.29249700903892517, -0.8845729827880859, -1.0493266582489014, -0.0263671875, 0.13916015625, -0.8271484375
37, 604770879, -4.515752792358398, -1.4665089845657349, 8.435407638549805, -0.2034800797700882, -0.8780673146247864, -0.9474649429321289, -0.0263671875, 0.140380859375, -0.82666015625
38, 604787546, -4.521689414978027, -1.467786431312561, 8.461891174316406, -0.21366111934185028, -0.8112924695014954, -1.024338960647583, -0.02587890625, 0.140380859375, -0.828369140625
39, 604804213, -4.495037078857422, -1.4589325189590454, 8.44038200378418, -0.1415613889694214, -0.8726502656936646, -1.0122010707855225, -0.02734375, 0.141845703125, -0.827880859375
40, 604820880, -4.502880096435547, -1.4677585363388062, 8.441985130310059, -0.21738781034946442, -0.6809775829315186, -1.0075651407241821, -0.02734375, 0.141357421875, -0.827880859375
41, 604837547, -4.4968109130859375, -1.4524441957473755, 8.461139678955078, -0.2247002273797989, -0.6043573021888733, -1.067229986190796, -0.02880859375, 0.142333984375, -0.827880859375
42, 604854214, -4.495210647583008, -1.4517881870269775, 8.468002319335938, -0.29322701692581177, -0.6639580726623535, -1.0369558334350586, -0.025390625, 0.140380859375, -0.828369140625
43, 604870881, -4.503575801849365, -1.453773021697998, 8.450526237487793, -0.31908300518989563, -0.6068289279937744, -1.0863243341445923, -0.025390625, 0.1396484375, -0.828125
44, 604887548, -4.5094733238220215, -1.4579393863677979, 8.456677436828613, -0.4364404082298279, -0.6371543407440186, -1.1418782472610474, -0.0283203125, 0.141357421875, -0.827392578125
45, 604904215, -4.516166687011719, -1.477244257926941, 8.451112747192383, -0.48373427987098694, -0.6483215093612671, -1.1855478286743164, -0.0283203125, 0.141845703125, -0.828369140625
46, 604920882, -4.512600421905518, -1.4625673294067383, 8.431159019470215, -0.4554706811904907, -0.685792863368988, -1.0861321687698364, -0.02783203125, 0.142333984375, -0.827392578125
47, 604937549, -4.504473686218262, -1.4735839366912842, 8.456052780151367, -0.43827173113822937, -0.7353278398513794, -1.002173662185669, -0.0263671875, 0.142822265625, -0.8271484375
48, 604954216, -4.519580364227295, -1.464168667793274, 8.447915077209473, -0.2232787311077118, -0.8034960627555847, -1.048980951309204, -0.02685546875, 0.138671875, -0.8251953125
49, 604970883, -4.495351314544678, -1.4721195697784424, 8.44360065460205, -0.21670904755592346, -0.8462563157081604, -1.055435299873352, -0.029296875, 0.14013671875, -0.826904296875
50, 604987550, -4.485405445098877, -1.457716703414917, 8.451326370239258, -0.3392274081707001, -0.5909874439239502, -1.010446548461914, -0.02783203125, 0.138671875, -0.827392578125
51, 605004217, -4.514509677886963, -1.4662251472473145, 8.46021842956543, -0.2926507294178009, -0.5580111145973206, -1.0421167612075806, -0.02685546875, 0.141357421875, -0.827880859375
52, 605020884, -4.525274276733398, -1.4587883949279785, 8.415949821472168, -0.3598840534687042, -0.5118185877799988, -1.1016663312911987, -0.0283203125, 0.140869140625, -0.827392578125
53, 605037551, -4.50743293762207, -1.4682731628417969, 8.447644233703613, -0.43404558300971985, -0.4550608694553375, -1.0152106285095215, -0.0263671875, 0.141357421875, -0.826171875
54, 605054218, -4.503058910369873, -1.470998764038086, 8.452722549438477, -0.3627014458179474, -0.4744880795478821, -1.0529508590698242, -0.02783203125, 0.141845703125, -0.827392578125
55, 605070885, -4.5109734535217285, -1.4705185890197754, 8.438138961791992, -0.3289439082145691, -0.5593045353889465, -1.0894618034362793, -0.03076171875, 0.140625, -0.826416015625
56, 605087552, -4.512770175933838, -1.4781688451766968, 8.452079772949219, -0.22984838485717773, -0.5768236517906189, -0.9991642832756042, -0.02783203125, 0.140625, -0.827880859375
57, 605104219, -4.517462730407715, -1.4648387432098389, 8.441858291625977, -0.24545931816101074, -0.5051592588424683, -1.0846338272094727, -0.02783203125, 0.142333984375, -0.829833984375
58, 605120886, -4.500000953674316, -1.4715451002120972, 8.429719924926758, -0.18363025784492493, -0.6738445162773132, -1.0423855781555176, -0.02783203125, 0.140869140625, -0.826416015625
59, 605137553, -4.512053489685059, -1.464185357093811, 8.436551094055176, -0.067425437271595, -0.6872272491455078, -0.95655757188797, -0.02783203125, 0.14013671875, -0.82470703125
60, 605154220, -4.505605220794678, -1.470011591911316, 8.442879676818848, -0.09443403035402298, -0.7271573543548584, -0.933967113494873, -0.025390625, 0.13916015625, -0.826171875
61, 605170887, -4.511618137359619, -1.4617103338241577, 8.437273979187012, 0.005769261159002781, -0.7993724346160889, -0.8784260153770447, -0.0283203125, 0.1396484375, -0.82568359375
62, 605187554, -4.502600193023682, -1.4534003734588623, 8.449101448059082, 0.05507371202111244, -0.8480236530303955, -1.0038641691207886, -0.02685546875, 0.140869140625, -0.82568359375
63, 605204221, -4.485281944274902, -1.4653621912002563, 8.434893608093262, -0.11788245290517807, -0.7667160630226135, -0.9258734583854675, -0.0302734375, 0.141845703125, -0.825927734375
64, 605220888, -4.4962053298950195, -1.4531322717666626, 8.436707496643066, -0.20482474565505981, -0.620621383190155, -0.9567495584487915, -0.0263671875, 0.141357421875, -0.828369140625
65, 605237555, -4.508336067199707, -1.4624290466308594, 8.462541580200195, -0.2327554076910019, -0.5586642026901245, -0.9569160342216492, -0.02783203125, 0.141357421875, -0.826171875
66, 605254222, -4.496594429016113, -1.4560933113098145, 8.420685768127441, -0.194925457239151, -0.5768876075744629, -0.9034240245819092, -0.02734375, 0.14013671875, -0.829345703125
67, 605270889, -4.499090194702148, -1.472057580947876, 8.458718299865723, -0.055746037513017654, -0.5109477639198303, -0.9048198461532593, -0.02783203125, 0.13818359375, -0.828369140625
68, 605287556, -4.497204780578613, -1.467826008796692, 8.439227104187012, 0.016232047230005264, -0.6142821311950684, -0.8489200472831726, -0.025390625, 0.138671875, -0.8271484375
69, 605304223, -4.49809455871582, -1.4608067274093628, 8.434093475341797, -0.07637707144021988, -0.6002976298332214, -0.8482414484024048, -0.0283203125, 0.143310546875, -0.828369140625
70, 605320890, -4.505928039550781, -1.4653241634368896, 8.435192108154297, 0.042497869580984116, -0.6547630429267883, -0.8774398565292358, -0.02734375, 0.141357421875, -0.827392578125
71, 605337557, -4.501821041107178, -1.4573655128479004, 8.436416625976562, 0.03074164129793644, -0.59319007396698, -0.8662726879119873, -0.0263671875, 0.142822265625, -0.827880859375
72, 605354224, -4.497115612030029, -1.4548345804214478, 8.462035179138184, 0.029654884710907936, -0.4668450951576233, -0.8869441747665405, -0.02734375, 0.14013671875, -0.82666015625
73, 605370891, -4.507397651672363, -1.4678955078125, 8.443429946899414, -0.08082086592912674, -0.5827016830444336, -0.8186458945274353, -0.02734375, 0.1396484375, -0.827880859375
74, 605387558, -4.501524925231934, -1.4557098150253296, 8.465738296508789, 0.05225631222128868, -0.48972761631011963, -0.8593700528144836, -0.02685546875, 0.138671875, -0.82763671875
75, 605404225, -4.50062370300293, -1.4615598917007446, 8.456937789916992, 0.06444795429706573, -0.4050392508506775, -0.9298946261405945, -0.0283203125, 0.140869140625, -0.828369140625
76, 605420892, -4.48667049407959, -1.458524227142334, 8.446192741394043, 0.04231858253479004, -0.44718489050865173, -0.8690388798713684, -0.02783203125, 0.140869140625, -0.828369140625
77, 605437559, -4.4896345138549805, -1.4558031558990479, 8.451970100402832, 0.023710956797003746, -0.4317533075809479, -0.8682833909988403, -0.025390625, 0.140380859375, -0.829345703125
78, 605454226, -4.517883777618408, -1.4661128520965576, 8.452826499938965, 0.013888485729694366, -0.5253164172172546, -0.8158668279647827, -0.02734375, 0.1396484375, -0.828369140625
79, 605470893, -4.513306140899658, -1.4559156894683838, 8.452205657958984, 0.07013397663831711, -0.535049319267273, -0.7999487519264221, -0.02587890625, 0.140380859375, -0.828125
80, 605487560, -4.498903274536133, -1.4533665180206299, 8.46925163269043, 0.08834460377693176, -0.5193486213684082, -0.8073635101318359, -0.02587890625, 0.13720703125, -0.8271484375
81, 605504227, -4.506054878234863, -1.4623432159423828, 8.451349258422852, 0.04773566499352455, -0.5616864562034607, -0.8106034994125366, -0.025390625, 0.142333984375, -0.827880859375
82, 605520894, -4.519415855407715, -1.425889015197754, 8.446249961853027, -0.1028221920132637, -0.6043061017990112, -0.9284988045692444, -0.02587890625, 0.140869140625, -0.827880859375
83, 605537561, -4.504337310791016, -1.4495904445648193, 8.4503173828125, -0.22769692540168762, -0.5195152163505554, -1.016503930091858, -0.0283203125, 0.13916015625, -0.828369140625
84, 605554228, -4.5054826736450195, -1.474378228187561, 8.443811416625977, -0.24635574221611023, -0.5512877106666565, -1.1303012371063232, -0.02685546875, 0.140380859375, -0.827392578125
85, 605570895, -4.517354488372803, -1.4502060413360596, 8.438942909240723, -0.4490802586078644, -0.4534856081008911, -1.0418477058410645, -0.0283203125, 0.140625, -0.826904296875
86, 605587562, -4.503687381744385, -1.4420922994613647, 8.439888954162598, -0.41425982117652893, -0.43539029359817505, -1.066179871559143, -0.02734375, 0.140380859375, -0.827392578125
87, 605604229, -4.510470390319824, -1.456388235092163, 8.444062232971191, -0.325883150100708, -0.48749932646751404, -1.164314866065979, -0.02734375, 0.1376953125, -0.82666015625
88, 605620896, -4.502092361450195, -1.463088870048523, 8.416213035583496, -0.28341734409332275, -0.5956873297691345, -1.0477514266967773, -0.02880859375, 0.142333984375, -0.827392578125
89, 605637563, -4.5033063888549805, -1.4566283226013184, 8.454657554626465, -0.18418091535568237, -0.526430606842041, -1.0440504550933838, -0.02685546875, 0.140869140625, -0.828857421875
90, 605654230, -4.510848045349121, -1.4549181461334229, 8.4388427734375, -0.25821444392204285, -0.6230161786079407, -1.0096782445907593, -0.02880859375, 0.141357421875, -0.826904296875
91, 605670897, -4.499880790710449, -1.4505577087402344, 8.440940856933594, -0.24098989367485046, -0.7387983798980713, -1.0064510107040405, -0.025390625, 0.1396484375, -0.8271484375
92, 605687564, -4.505909442901611, -1.4586527347564697, 8.43290901184082, -0.23830054700374603, -0.6042676568031311, -0.9447115659713745, -0.0283203125, 0.13916015625, -0.827392578125
93, 605704231, -4.5224809646606445, -1.4598947763442993, 8.436296463012695, -0.1479901820421219, -0.6541739702224731, -0.9982678294181824, -0.02880859375, 0.14013671875, -0.825927734375
94, 605720898, -4.503896713256836, -1.4411370754241943, 8.45473861694336, -0.21403254568576813, -0.6249627470970154, -1.0640156269073486, -0.0283203125, 0.140869140625, -0.827392578125
95, 605737565, -4.505772113800049, -1.4519187211990356, 8.459829330444336, -0.25462862849235535, -0.5735195279121399, -1.1108099222183228, -0.02783203125, 0.140869140625, -0.828857421875
96, 605754232, -4.513302326202393, -1.4494072198867798, 8.436331748962402, -0.18409128487110138, -0.5909874439239502, -1.02034592628479, -0.02734375, 0.138671875, -0.8271484375
97, 605770899, -4.503258228302002, -1.4580509662628174, 8.450309753417969, -0.004123644437640905, -0.7500934600830078, -1.0168113708496094, -0.02734375, 0.1396484375, -0.828857421875
98, 605787566, -4.520360946655273, -1.4482446908950806, 8.451051712036133, 0.05052745342254639, -0.7671899795532227, -0.9294592142105103, -0.029296875, 0.13720703125, -0.828369140625
99, 605804233, -4.514211654663086, -1.4509711265563965, 8.444746017456055, 0.16460642218589783, -0.8290318846702576, -0.8733546733856201, -0.02880859375, 0.140625, -0.827880859375
100, 605820900, -4.507649898529053, -1.4620672464370728, 8.457791328430176, 0.14515358209609985, -0.9006321430206299, -0.8172756433486938, -0.02734375, 0.14013671875, -0.826171875
101, 605837567, -4.507936954498291, -1.44809889793396, 8.462263107299805, 0.28725284337997437, -0.902399480342865, -0.8086698055267334, -0.029296875, 0.1396484375, -0.828857421875
102, 605854234, -4.498075485229492, -1.4396631717681885, 8.471138954162598, 0.1917174607515335, -0.9790455102920532, -0.8863146901130676, -0.02734375, 0.140869140625, -0.827392578125
103, 605870901, -4.500243186950684, -1.439324140548706, 8.444685935974121, 0.08260736614465714, -0.9005424976348877, -0.9535737037658691, -0.03076171875, 0.138671875, -0.826416015625
104, 605887568, -4.504969596862793, -1.438232660293579, 8.43559455871582, -0.09538169205188751, -0.9835020303726196, -1.0336517095565796, -0.02783203125, 0.1396484375, -0.828857421875
105, 605904235, -4.488909721374512, -1.4284158945083618, 8.465398788452148, -0.034259043633937836, -0.9397991299629211, -1.0163089036941528, -0.02783203125, 0.14013671875, -0.829345703125
106, 605920902, -4.507421016693115, -1.4397917985916138, 8.440821647644043, -0.010514013469219208, -0.9303173422813416, -1.01063871383667, -0.03076171875, 0.138671875, -0.829345703125
107, 605937569, -4.492172718048096, -1.4160720109939575, 8.453521728515625, -0.2255198359489441, -0.7709678411483765, -1.091971755027771, -0.0302734375, 0.13916015625, -0.828857421875
108, 605954236, -4.510919094085693, -1.4417818784713745, 8.455265045166016, -0.4271814227104187, -0.6065728068351746, -1.2353901863098145, -0.02734375, 0.138671875, -0.8271484375
109, 605970903, -4.499390602111816, -1.4494377374649048, 8.45605182647705, -0.4550096392631531, -0.5303494334220886, -1.2757813930511475, -0.02734375, 0.13818359375, -0.82763671875
110, 605987570, -4.490030765533447, -1.4614837169647217, 8.46676254272461, -0.4281163215637207, -0.676482617855072, -1.1256396770477295, -0.02685546875, 0.1376953125, -0.82666015625
111, 606004237, -4.48780632019043, -1.4595342874526978, 8.454914093017578, -0.20180247724056244, -0.6681713461875916, -1.0984774827957153, -0.0283203125, 0.141845703125, -0.826904296875
112, 606020904, -4.503859043121338, -1.4517542123794556, 8.443120956420898, -0.14661991596221924, -0.7656148076057434, -1.1019223928451538, -0.0283203125, 0.141357421875, -0.826904296875
113, 606037571, -4.488607406616211, -1.448071002960205, 8.453483581542969, -0.040865056216716766, -0.8539528846740723, -0.936963677406311, -0.02685546875, 0.138671875, -0.828857421875
114, 606054238, -4.491746425628662, -1.4522920846939087, 8.431035041809082, 0.0659334808588028, -0.9089178442955017, -0.9299073219299316, -0.0283203125, 0.1376953125, -0.827880859375
115, 606070905, -4.493244171142578, -1.4459351301193237, 8.45615005493164, 0.12283209711313248, -0.8160589933395386, -0.8796937465667725, -0.0263671875, 0.13916015625, -0.829345703125
116, 606087572, -4.49174690246582, -1.439013123512268, 8.436698913574219, 0.08714079856872559, -0.7430116534233093, -0.8774014115333557, -0.0283203125, 0.1396484375, -0.831298828125
117, 606104239, -4.483195781707764, -1.4426623582839966, 8.441780090332031, 0.007408473175019026, -0.6829497814178467, -0.9094685316085815, -0.02978515625, 0.14013671875, -0.831298828125
118, 606120906, -4.482949733734131, -1.4558393955230713, 8.456181526184082, 0.0038739205338060856, -0.6468743681907654, -0.8557458519935608, -0.02783203125, 0.1396484375, -0.826904296875
119, 606137573, -4.477957248687744, -1.442622423171997, 8.458815574645996, 0.011788245290517807, -0.5203092098236084, -0.7959530353546143, -0.0283203125, 0.142822265625, -0.826904296875
120, 606154240, -4.494911193847656, -1.434954047203064, 8.439852714538574, -0.04789574444293976, -0.5024571418762207, -0.8468838334083557, -0.02880859375, 0.13916015625, -0.830322265625
121, 606170907, -4.486783504486084, -1.430354356765747, 8.446085929870605, -0.0887351930141449, -0.5133680701255798, -0.8554641008377075, -0.02685546875, 0.13916015625, -0.828857421875
122, 606187574, -4.497763156890869, -1.432329535484314, 8.446208953857422, -0.16863402724266052, -0.48824208974838257, -0.9406392574310303, -0.02734375, 0.13818359375, -0.828857421875
123, 606204241, -4.480318546295166, -1.438856840133667, 8.461966514587402, -0.1708366870880127, -0.46812328696250916, -0.8815890550613403, -0.0302734375, 0.13916015625, -0.825439453125
124, 606220908, -4.501184463500977, -1.439945101737976, 8.436896324157715, -0.326497882604599, -0.32624176144599915, -0.9718994498252869, -0.02734375, 0.13916015625, -0.828857421875
125, 606237575, -4.4925150871276855, -1.4324756860733032, 8.443303108215332, -0.20584926009178162, -0.451974481344223, -0.9078676700592041, -0.02783203125, 0.13916015625, -0.831298828125
126, 606254242, -4.4956207275390625, -1.4421199560165405, 8.461081504821777, -0.24657346308231354, -0.4469544291496277, -0.9543163776397705, -0.02734375, 0.13916015625, -0.829345703125
127, 606270909, -4.494905471801758, -1.4441813230514526, 8.422518730163574, -0.16897977888584137, -0.49095699191093445, -0.8951765894889832, -0.0283203125, 0.13916015625, -0.826171875
128, 606287576, -4.500401973724365, -1.4497932195663452, 8.461140632629395, -0.20660483837127686, -0.36072924733161926, -0.9266674518585205, -0.02734375, 0.14013671875, -0.8271484375
129, 606304243, -4.495327949523926, -1.4368330240249634, 8.437028884887695, -0.12623219192028046, -0.3933854401111603, -0.9391663670539856, -0.02734375, 0.13818359375, -0.828369140625
130, 606320910, -4.487250804901123, -1.44261634349823, 8.458149909973145, -0.14298290014266968, -0.3180200755596161, -0.8914371132850647, -0.02978515625, 0.1376953125, -0.831787109375
131, 606337577, -4.4860053062438965, -1.4304908514022827, 8.461536407470703, -0.3096831440925598, -0.2580351233482361, -0.8182873725891113, -0.02978515625, 0.138671875, -0.829833984375
132, 606354244, -4.505108833312988, -1.4393447637557983, 8.449828147888184, -0.27883267402648926, -0.2341129034757614, -0.9166272878646851, -0.029296875, 0.14013671875, -0.828369140625
133, 606370911, -4.500061511993408, -1.440496802330017, 8.434820175170898, -0.23627716302871704, -0.1723734736442566, -1.0273510217666626, -0.02783203125, 0.13916015625, -0.826904296875
134, 606387578, -4.506967544555664, -1.4419910907745361, 8.463971138000488, -0.41356825828552246, -0.07550623267889023, -0.988688588142395, -0.02978515625, 0.13671875, -0.826904296875
135, 606404245, -4.515814781188965, -1.4438995122909546, 8.456831932067871, -0.29034557938575745, -0.09603482484817505, -0.9205077290534973, -0.02734375, 0.1396484375, -0.830322265625
136, 606420912, -4.5054731369018555, -1.4247947931289673, 8.464478492736816, -0.4440217912197113, -0.0039059368427842855, -0.9717074632644653, -0.02587890625, 0.13916015625, -0.828857421875
137, 606437579, -4.501393795013428, -1.456830382347107, 8.449812889099121, -0.31102779507637024, -0.04999598488211632, -0.9982677102088928, -0.02734375, 0.1376953125, -0.829345703125
138, 606454246, -4.518786430358887, -1.4414767026901245, 8.442146301269531, -0.34308212995529175, -0.1220957413315773, -0.9517423510551453, -0.02587890625, 0.140380859375, -0.828125
139, 606470913, -4.514261722564697, -1.4393959045410156, 8.463467597961426, -0.2684243619441986, -0.37309691309928894, -0.9450883865356445, -0.0263671875, 0.1396484375, -0.82666015625
140, 606487580, -4.513496398925781, -1.4450618028640747, 8.45673656463623, -0.12322269380092621, -0.40662720799446106, -0.9206997156143188, -0.02490234375, 0.139892578125, -0.828857421875
141, 606504247, -4.504326343536377, -1.437646508216858, 8.452378273010254, -0.10085000097751617, -0.3880067765712738, -0.9322510361671448, -0.02685546875, 0.140380859375, -0.829345703125
142, 606520914, -4.517158508300781, -1.4294534921646118, 8.443511009216309, -0.040519289672374725, -0.4145159423351288, -0.8839839696884155, -0.02880859375, 0.14013671875, -0.827392578125
143, 606537581, -4.523875713348389, -1.4413777589797974, 8.4483642578125, -0.09480539709329605, -0.48545026779174805, -0.8629430532455444, -0.02734375, 0.13916015625, -0.8271484375
144, 606554248, -4.525038719177246, -1.441750168800354, 8.450349807739258, -0.18314361572265625, -0.4923401474952698, -0.919739305973053, -0.02685546875, 0.1376953125, -0.830322265625
145, 606570915, -4.531230449676514, -1.4240330457687378, 8.42150592803955, -0.17592081427574158, -0.3263953924179077, -0.8834716081619263, -0.0244140625, 0.1396484375, -0.8291015625
146, 606587582, -4.5074639320373535, -1.4296822547912598, 8.444677352905273, -0.2059260904788971, -0.39357754588127136, -0.9421887397766113, -0.02734375, 0.1396484375, -0.8271484375
147, 606604249, -4.522431373596191, -1.4253853559494019, 8.42577838897705, -0.16297359764575958, -0.39368000626564026, -0.9540858864784241, -0.02490234375, 0.13818359375, -0.829345703125
148, 606620916, -4.520450115203857, -1.449461579322815, 8.425091743469238, -0.20996010303497314, -0.555232048034668, -0.9733721613883972, -0.029296875, 0.1396484375, -0.828369140625
149, 606637583, -4.512224197387695, -1.4232629537582397, 8.430682182312012, -0.3272278308868408, -0.546113908290863, -0.9483230113983154, -0.0263671875, 0.14013671875, -0.828369140625
150, 606654250, -4.518052101135254, -1.4319761991500854, 8.465868949890137, -0.348844975233078, -0.6559540629386902, -1.0444602966308594, -0.02734375, 0.14013671875, -0.831298828125
151, 606670917, -4.513564586639404, -1.4330898523330688, 8.43723201751709, -0.33493727445602417, -0.6609741449356079, -1.1225790977478027, -0.02587890625, 0.1396484375, -0.82666015625
152, 606687584, -4.513716697692871, -1.4217497110366821, 8.44232177734375, -0.3888136148452759, -0.5670267939567566, -1.1088507175445557, -0.0244140625, 0.13916015625, -0.82666015625
153, 606704251, -4.519908428192139, -1.4328670501708984, 8.43083381652832, -0.3517135977745056, -0.6648032665252686, -1.0793960094451904, -0.0263671875, 0.1396484375, -0.82568359375
154, 606720918, -4.510221481323242, -1.4338374137878418, 8.424477577209473, -0.34315893054008484, -0.6526115536689758, -1.086068034172058, -0.02783203125, 0.13916015625, -0.827392578125
155, 606737585, -4.517482757568359, -1.4363242387771606, 8.46329116821289, -0.3846130967140198, -0.597403347492218, -1.0976066589355469, -0.0283203125, 0.13720703125, -0.828369140625
156, 606754252, -4.517733097076416, -1.4477615356445312, 8.442673683166504, -0.24656064808368683, -0.6305846571922302, -1.090704083442688, -0.02490234375, 0.13623046875, -0.828125
157, 606770919, -4.5028839111328125, -1.4512152671813965, 8.454019546508789, -0.3225023150444031, -0.6024619936943054, -1.0292975902557373, -0.02734375, 0.13720703125, -0.82666015625
158, 606787586, -4.517612457275391, -1.442340612411499, 8.454983711242676, -0.18836861848831177, -0.6751764416694641, -1.0712512731552124, -0.0263671875, 0.140380859375, -0.827880859375
159, 606804253, -4.518806457519531, -1.445741057395935, 8.431724548339844, -0.14548014104366302, -0.7122763395309448, -1.0340871810913086, -0.02783203125, 0.1396484375, -0.826171875
160, 606820920, -4.507195472717285, -1.4424753189086914, 8.453670501708984, -0.17565186321735382, -0.6123228073120117, -1.1006801128387451, -0.02734375, 0.140869140625, -0.831787109375
161, 606837587, -4.5034356117248535, -1.4410293102264404, 8.455945014953613, -0.2750931680202484, -0.532820999622345, -0.9648944139480591, -0.02587890625, 0.1396484375, -0.82763671875
162, 606854254, -4.504286766052246, -1.4411165714263916, 8.435522079467773, -0.20168717205524445, -0.6707581281661987, -0.9870877265930176, -0.025390625, 0.13916015625, -0.829345703125
163, 606870921, -4.512148380279541, -1.4398391246795654, 8.431023597717285, -0.18133792281150818, -0.7147608399391174, -0.9594132900238037, -0.0263671875, 0.138671875, -0.82763671875
164, 606887588, -4.50856351852417, -1.4268914461135864, 8.441911697387695, -0.1462613195180893, -0.7854775190353394, -0.9786229133605957, -0.02734375, 0.13818359375, -0.830810546875
165, 606904255, -4.494699954986572, -1.4462032318115234, 8.439118385314941, -0.15703146159648895, -0.6979716420173645, -0.9908401966094971, -0.02734375, 0.13916015625, -0.8271484375
166, 606920922, -4.511378765106201, -1.430643081665039, 8.44409465789795, -0.10966078191995621, -0.6833212375640869, -0.9885604977607727, -0.02880859375, 0.13916015625, -0.828857421875
167, 606937589, -4.510767459869385, -1.4286317825317383, 8.439374923706055, -0.21691393852233887, -0.6324287056922913, -1.0162607431411743, -0.02685546875, 0.13916015625, -0.829833984375
168, 606954256, -4.51524019241333, -1.4401752948760986, 8.442680358886719, -0.19361920654773712, -0.6236820220947266, -1.0231634378433228, -0.02734375, 0.1396484375, -0.8271484375
169, 606970923, -4.503457546234131, -1.4389437437057495, 8.42011833190918, -0.22605770826339722, -0.5496357083320618, -0.9877666234970093, -0.02685546875, 0.13623046875, -0.828125
170, 606987590, -4.506033420562744, -1.4310063123703003, 8.46700668334961, -0.268587589263916, -0.6027820706367493, -1.0168755054473877, -0.02734375, 0.138671875, -0.827392578125
171, 607004257, -4.506511211395264, -1.4404200315475464, 8.461568832397461, -0.3489474058151245, -0.49290359020233154, -1.0055545568466187, -0.0263671875, 0.13818359375, -0.828125
172, 607020924, -4.504905700683594, -1.4203330278396606, 8.450456619262695, -0.3151319622993469, -0.4237107038497925, -1.0274639129638672, -0.0283203125, 0.141357421875, -0.829345703125
173, 607037591, -4.498134613037109, -1.4424670934677124, 8.459024429321289, -0.3006674647331238, -0.462578147649765, -1.0039536952972412, -0.0283203125, 0.138671875, -0.827880859375
174, 607054258, -4.52730131149292, -1.4424171447753906, 8.431045532226562, -0.386982262134552, -0.4398981034755707, -1.0850818157196045, -0.02587890625, 0.1396484375, -0.828369140625
175, 607070925, -4.514101982116699, -1.4392679929733276, 8.44472599029541, -0.2968127727508545, -0.5148024559020996, -1.0152617692947388, -0.025390625, 0.1376953125, -0.8291015625
176, 607087592, -4.514113426208496, -1.4554928541183472, 8.454437255859375, -0.339214563369751, -0.5287997722625732, -0.9873182773590088, -0.02685546875, 0.13916015625, -0.82763671875
177, 607104259, -4.507535934448242, -1.4410048723220825, 8.437033653259277, -0.284697949886322, -0.5482654571533203, -1.023790717124939, -0.02587890625, 0.1396484375, -0.826171875
178, 607120926, -4.514796257019043, -1.4464447498321533, 8.431546211242676, -0.3252812922000885, -0.49433788657188416, -1.013917088508606, -0.0263671875, 0.13916015625, -0.829833984375
179, 607137593, -4.513854026794434, -1.433268427848816, 8.44793701171875, -0.1828874796628952, -0.5939841270446777, -1.0087560415267944, -0.02783203125, 0.13818359375, -0.826171875
180, 607154260, -4.504154205322266, -1.4340084791183472, 8.444158554077148, -0.20730920135974884, -0.5261232852935791, -0.9940545558929443, -0.02734375, 0.13916015625, -0.828369140625
181, 607170927, -4.518411159515381, -1.436816930770874, 8.458812713623047, -0.19753791391849518, -0.5453583598136902, -0.9253994822502136, -0.0283203125, 0.1396484375, -0.827392578125
182, 607187594, -4.499862194061279, -1.4480557441711426, 8.428350448608398, -0.20574678480625153, -0.6263585090637207, -0.9589138627052307, -0.02734375, 0.138671875, -0.827392578125
183, 607204261, -4.509970188140869, -1.4414483308792114, 8.462090492248535, -0.06025388091802597, -0.6920680403709412, -0.9279993772506714, -0.02685546875, 0.1376953125, -0.82763671875
184, 607220928, -4.503227233886719, -1.4349781274795532, 8.45544147491455, -0.17251434922218323, -0.5820485353469849, -0.9755620956420898, -0.0263671875, 0.138671875, -0.828369140625
185, 607237595, -4.511711120605469, -1.429924726486206, 8.453241348266602, -0.18021096289157867, -0.5840591788291931, -0.977329432964325, -0.02685546875, 0.13916015625, -0.8271484375
186, 607254262, -4.50331974029541, -1.4439440965652466, 8.450767517089844, -0.1776752918958664, -0.49517032504081726, -0.948745608329773, -0.02685546875, 0.1396484375, -0.828369140625
187, 607270929, -4.5121541023254395, -1.445636510848999, 8.43709945678711, -0.23385676741600037, -0.6016039252281189, -0.9381547570228577, -0.02392578125, 0.1376953125, -0.8291015625
188, 607287596, -4.510965347290039, -1.4331398010253906, 8.465594291687012, -0.25670325756073, -0.5197584629058838, -0.9183433055877686, -0.0263671875, 0.13671875, -0.82666015625
189, 607304263, -4.510466575622559, -1.4333105087280273, 8.443275451660156, -0.14569783210754395, -0.5466262102127075, -0.9082903265953064, -0.0244140625, 0.138671875, -0.8271484375
190, 607320930, -4.511096954345703, -1.4384522438049316, 8.476346015930176, -0.14631254971027374, -0.6164464354515076, -1.0114327669143677, -0.02734375, 0.13720703125, -0.829345703125
191, 607337597, -4.506311893463135, -1.4281468391418457, 8.443340301513672, -0.19821669161319733, -0.66389399766922, -0.9765226244926453, -0.025390625, 0.139892578125, -0.829345703125
192, 607354264, -4.517164707183838, -1.4389134645462036, 8.467642784118652, -0.17294973134994507, -0.6676205992698669, -0.9704778790473938, -0.02734375, 0.13916015625, -0.828369140625
193, 607370931, -4.5068278312683105, -1.4430664777755737, 8.458050727844238, -0.24036236107349396, -0.5896427035331726, -0.9836044311523438, -0.02490234375, 0.1376953125, -0.8291015625
194, 607387598, -4.514042854309082, -1.44874107837677, 8.46444034576416, -0.2011236995458603, -0.6760983467102051, -0.9823365807533264, -0.025390625, 0.13818359375, -0.82763671875
195, 607404265, -4.511837005615234, -1.4214752912521362, 8.451348304748535, -0.23892804980278015, -0.629867434501648, -0.9447371363639832, -0.02685546875, 0.13818359375, -0.828857421875
196, 607420932, -4.50481653213501, -1.4276843070983887, 8.457185745239258, -0.1950151026248932, -0.6540075540542603, -1.095711350440979, -0.02783203125, 0.13916015625, -0.828857421875
197, 607437599, -4.504899978637695, -1.4274834394454956, 8.454474449157715, -0.2537449896335602, -0.5324879884719849, -1.0241621732711792, -0.02880859375, 0.138671875, -0.827392578125
198, 607454266, -4.505986213684082, -1.433620572090149, 8.426401138305664, -0.22498194873332977, -0.5348443984985352, -1.0479563474655151, -0.02587890625, 0.141357421875, -0.827880859375
199, 607470933, -4.514909744262695, -1.4420158863067627, 8.444679260253906, -0.18996939063072205, -0.5561285614967346, -1.0510554313659668, -0.02685546875, 0.138671875, -0.8271484375
200, 607487600, -4.515951156616211, -1.4403129816055298, 8.451878547668457, -0.13645164668560028, -0.5363683104515076, -1.005144715309143, -0.02783203125, 0.138671875, -0.828369140625
201, 607504267, -4.498985290527344, -1.4461488723754883, 8.451004028320312, -0.21223965287208557, -0.517210066318512, -1.070931077003479, -0.02734375, 0.140625, -0.82666015625
202, 607520934, -4.524140357971191, -1.436850905418396, 8.439359664916992, -0.28107374906539917, -0.5789110064506531, -1.047277569770813, -0.02880859375, 0.13916015625, -0.826171875
203, 607537601, -4.514242649078369, -1.4372690916061401, 8.438648223876953, -0.26057079434394836, -0.5558467507362366, -1.036276936531067, -0.02783203125, 0.138671875, -0.8271484375
204, 607554268, -4.520857334136963, -1.4233355522155762, 8.43488597869873, -0.2290031760931015, -0.622555136680603, -1.0606603622436523, -0.025390625, 0.1376953125, -0.828125
205, 607570935, -4.532182216644287, -1.435163140296936, 8.44551944732666, -0.31308966875076294, -0.45488157868385315, -1.1276119947433472, -0.025390625, 0.13916015625, -0.829345703125
206, 607587602, -4.5094075202941895, -1.449650526046753, 8.449270248413086, -0.37824535369873047, -0.4855177700519562, -1.0905261039733887, -0.0263671875, 0.1376953125, -0.828857421875
207, 607604269, -4.52200984954834, -1.4374322891235352, 8.458794593811035, -0.2787686288356781, -0.5524787306785583, -1.054141879081726, -0.02734375, 0.13818359375, -0.827880859375
208, 607620936, -4.519226551055908, -1.4522968530654907, 8.445367813110352, -0.30199936032295227, -0.5673341155052185, -1.0694069862365723, -0.02783203125, 0.13916015625, -0.82666015625
209, 607637603, -4.498452186584473, -1.4432480335235596, 8.438346862792969, -0.2657061219215393, -0.5238437056541443, -1.0693429708480835, -0.02490234375, 0.140380859375, -0.828125
210, 607654270, -4.507542133331299, -1.4460452795028687, 8.456124305725098, -0.2569465935230255, -0.5943811535835266, -0.9951558113098145, -0.02734375, 0.140380859375, -0.828369140625
211, 607670937, -4.517583847045898, -1.4321684837341309, 8.441009521484375, -0.23630274832248688, -0.5545661449432373, -0.9822853803634644, -0.02587890625, 0.1376953125, -0.8271484375
212, 607687604, -4.503236770629883, -1.4315725564956665, 8.430548667907715, -0.2902815341949463, -0.5723926424980164, -1.0109461545944214, -0.029296875, 0.140869140625, -0.827880859375
213, 607704271, -4.495992183685303, -1.4429733753204346, 8.445697784423828, -0.1873697191476822, -0.5464213490486145, -0.9818371534347534, -0.0283203125, 0.138671875, -0.829345703125
214, 607720938, -4.510841369628906, -1.4444215297698975, 8.4309663772583, -0.21047237515449524, -0.4288206398487091, -0.9837711453437805, -0.02783203125, 0.138671875, -0.829833984375
215, 607737605, -4.513393402099609, -1.4413176774978638, 8.471833229064941, -0.24384570121765137, -0.4463781714439392, -0.984705924987793, -0.02783203125, 0.1396484375, -0.829833984375
216, 607754272, -4.520374774932861, -1.4520137310028076, 8.425357818603516, -0.25544828176498413, -0.5144310593605042, -0.987139105796814, -0.025390625, 0.13818359375, -0.830322265625
217, 607770939, -4.5059590339660645, -1.4402334690093994, 8.43848705291748, -0.17293694615364075, -0.5464213490486145, -0.9196879863739014, -0.0263671875, 0.140380859375, -0.828369140625
218, 607787606, -4.516477584838867, -1.4379678964614868, 8.449234008789062, -0.2692791223526001, -0.5277752876281738, -1.0129438638687134, -0.0283203125, 0.14013671875, -0.828369140625
219, 607804273, -4.505923271179199, -1.4414434432983398, 8.435527801513672, -0.26332414150238037, -0.5277496576309204, -0.9787636399269104, -0.0263671875, 0.1396484375, -0.8271484375
220, 607820940, -4.512614727020264, -1.431153416633606, 8.466465950012207, -0.2753877341747284, -0.4804046154022217, -1.0259678363800049, -0.02587890625, 0.141845703125, -0.828369140625
221, 607837607, -4.509368419647217, -1.4513052701950073, 8.45449161529541, -0.374739408493042, -0.4341736435890198, -0.9851924777030945, -0.025390625, 0.140869140625, -0.828125
222, 607854274, -4.487234115600586, -1.4398329257965088, 8.462369918823242, -0.3194800019264221, -0.47186270356178284, -1.0018407106399536, -0.02587890625, 0.13916015625, -0.828857421875
223, 607870941, -4.50961971282959, -1.4423154592514038, 8.443680763244629, -0.3355007767677307, -0.44630128145217896, -1.0139427185058594, -0.02587890625, 0.13916015625, -0.828369140625
224, 607887608, -4.508668899536133, -1.441757082939148, 8.443155288696289, -0.3025243878364563, -0.355145663022995, -0.9934909343719482, -0.02734375, 0.141357421875, -0.827392578125
225, 607904275, -4.510023593902588, -1.4372445344924927, 8.443564414978027, -0.24393534660339355, -0.47160664200782776, -0.9579534530639648, -0.02587890625, 0.1376953125, -0.828125
226, 607920942, -4.519652843475342, -1.4436018466949463, 8.42658805847168, -0.22034606337547302, -0.48598819971084595, -0.9835917353630066, -0.02880859375, 0.1396484375, -0.826171875
227, 607937609, -4.509527206420898, -1.4442685842514038, 8.4343843460083, -0.2776416838169098, -0.6027564406394958, -1.0340231657028198, -0.02490234375, 0.139892578125, -0.828857421875
228, 607954276, -4.506868362426758, -1.4365103244781494, 8.433876037597656, -0.30689138174057007, -0.6086602210998535, -1.0351500511169434, -0.0263671875, 0.140380859375, -0.827880859375
229, 607970943, -4.514636993408203, -1.437296986579895, 8.42643928527832, -0.25861144065856934, -0.629854679107666, -0.9329169988632202, -0.02685546875, 0.13623046875, -0.82763671875
230, 607987610, -4.517897605895996, -1.4461287260055542, 8.42741584777832, -0.19468212127685547, -0.6663015484809875, -0.9747810363769531, -0.0263671875, 0.13916015625, -0.82666015625
231, 608004277, -4.502143383026123, -1.4279237985610962, 8.459980010986328, -0.2301172912120819, -0.5638635754585266, -0.9958474636077881, -0.02587890625, 0.138671875, -0.830810546875
232, 608020944, -4.5286784172058105, -1.4437607526779175, 8.42582893371582, -0.2681649923324585, -0.6469000577926636, -1.0015718936920166, -0.02587890625, 0.142333984375, -0.8271484375
233, 608037611, -4.519886493682861, -1.4356536865234375, 8.453607559204102, -0.1656501293182373, -0.7099583745002747, -1.0649248361587524, -0.02685546875, 0.13818359375, -0.8271484375
234, 608054278, -4.504523277282715, -1.4415570497512817, 8.438876152038574, -0.20031693577766418, -0.6492947340011597, -0.9823110699653625, -0.0263671875, 0.138671875, -0.829345703125
235, 608070945, -4.525720596313477, -1.4514397382736206, 8.440545082092285, -0.16773755848407745, -0.6341320872306824, -1.0320382118225098, -0.02490234375, 0.13818359375, -0.8291015625
236, 608087612, -4.502833843231201, -1.4328112602233887, 8.448858261108398, -0.16750703752040863, -0.5571402311325073, -0.9179719090461731, -0.02490234375, 0.1376953125, -0.82568359375
237, 608104279, -4.514229774475098, -1.4359084367752075, 8.452056884765625, -0.2334597408771515, -0.5125485062599182, -1.0359439849853516, -0.02783203125, 0.1396484375, -0.829833984375
238, 608120946, -4.510002613067627, -1.431415319442749, 8.429821968078613, -0.19871611893177032, -0.5685890913009644, -1.012162685394287, -0.02587890625, 0.13916015625, -0.828369140625
239, 608137613, -4.511504173278809, -1.4361127614974976, 8.454564094543457, -0.21162480115890503, -0.6787132620811462, -1.0596994161605835, -0.02685546875, 0.14013671875, -0.828369140625
240, 608154280, -4.5230021476745605, -1.4385353326797485, 8.434378623962402, -0.2422449290752411, -0.6311481595039368, -1.0310392379760742, -0.02587890625, 0.1396484375, -0.8271484375
241, 608170947, -4.518807411193848, -1.425520896911621, 8.431635856628418, -0.22519966959953308, -0.6099793314933777, -1.0452287197113037, -0.02685546875, 0.13818359375, -0.82666015625
242, 608187614, -4.517244815826416, -1.4414266347885132, 8.4345703125, -0.16120633482933044, -0.637589693069458, -1.0132383108139038, -0.02685546875, 0.13818359375, -0.828857421875
243, 608204281, -4.510412216186523, -1.4449540376663208, 8.437287330627441, -0.3140501081943512, -0.5992218852043152, -1.0045812129974365, -0.02685546875, 0.140869140625, -0.82666015625
244, 608220948, -4.501094818115234, -1.4375133514404297, 8.457578659057617, -0.2899869680404663, -0.6587458252906799, -1.0204099416732788, -0.0263671875, 0.14013671875, -0.82763671875
245, 608237615, -4.511410236358643, -1.4464987516403198, 8.445152282714844, -0.22682607173919678, -0.6316604614257812, -1.0674476623535156, -0.02783203125, 0.1376953125, -0.827392578125
246, 608254282, -4.520056247711182, -1.435660719871521, 8.452581405639648, -0.3173157274723053, -0.5955976843833923, -0.9745761156082153, -0.02783203125, 0.13916015625, -0.828857421875
247, 608270949, -4.5190935134887695, -1.4288793802261353, 8.44058609008789, -0.22414955496788025, -0.6634842157363892, -1.0773981809616089, -0.0263671875, 0.13671875, -0.828857421875
248, 608287616, -4.519193649291992, -1.456067442893982, 8.461952209472656, -0.21344344317913055, -0.6688244342803955, -1.0044533014297485, -0.0263671875, 0.13916015625, -0.82763671875
249, 608304283, -4.517511367797852, -1.445454716682434, 8.433772087097168, -0.2705725431442261, -0.6920167207717896, -1.0749906301498413, -0.02783203125, 0.14013671875, -0.827392578125
250, 608320950, -4.509216785430908, -1.4397555589675903, 8.466901779174805, -0.21476247906684875, -0.6958457827568054, -1.0725189447402954, -0.02783203125, 0.138671875, -0.828857421875
251, 608337617, -4.516058921813965, -1.4352068901062012, 8.463278770446777, -0.2402215152978897, -0.6749330759048462, -1.0055290460586548, -0.02587890625, 0.1396484375, -0.82568359375
252, 608354284, -4.504449844360352, -1.449483036994934, 8.4342679977417, -0.30128219723701477, -0.6483982801437378, -1.074952244758606, -0.02587890625, 0.1376953125, -0.82666015625
253, 608370951, -4.5108962059021, -1.4553498029708862, 8.436616897583008, -0.27095678448677063, -0.6465542316436768, -0.9982293844223022, -0.0263671875, 0.13720703125, -0.828125
254, 608387618, -4.496575832366943, -1.4371211528778076, 8.434000015258789, -0.27573350071907043, -0.7321902513504028, -0.9875103831291199, -0.02880859375, 0.13916015625, -0.826904296875
255, 608404285, -4.510019779205322, -1.4503825902938843, 8.4365816116333, -0.3007315397262573, -0.5929468274116516, -0.9882275462150574, -0.02783203125, 0.1396484375, -0.82470703125
256, 608420952, -4.511114120483398, -1.442603349685669, 8.445351600646973, -0.3968943953514099, -0.5199889540672302, -0.9936063289642334, -0.0263671875, 0.13818359375, -0.829345703125
257, 608437619, -4.502104759216309, -1.4392602443695068, 8.447674751281738, -0.4087914824485779, -0.472567081451416, -0.9911730289459229, -0.0283203125, 0.13916015625, -0.827392578125
258, 608454286, -4.507497787475586, -1.4475197792053223, 8.464439392089844, -0.29882335662841797, -0.535395085811615, -1.0477644205093384, -0.02783203125, 0.141357421875, -0.830810546875
259, 608470953, -4.51232385635376, -1.4490443468093872, 8.485511779785156, -0.3435175120830536, -0.5436039566993713, -1.0543723106384277, -0.025390625, 0.140869140625, -0.8232421875
260, 608487620, -4.525066375732422, -1.4502981901168823, 8.439361572265625, -0.31653451919555664, -0.5188236236572266, -1.0294767618179321, -0.02783203125, 0.1396484375, -0.82666015625
261, 608504287, -4.512238025665283, -1.4539501667022705, 8.423681259155273, -0.39581868052482605, -0.5702539682388306, -1.0541802644729614, -0.025390625, 0.1396484375, -0.82666015625
262, 608520954, -4.494699954986572, -1.4375721216201782, 8.420092582702637, -0.41995862126350403, -0.5010612607002258, -1.0532710552215576, -0.02734375, 0.14013671875, -0.828369140625
263, 608537621, -4.508833408355713, -1.4450465440750122, 8.445510864257812, -0.4303702116012573, -0.4871535301208496, -1.0281707048416138, -0.0302734375, 0.138671875, -0.829345703125
264, 608554288, -4.5074615478515625, -1.449091911315918, 8.4193754196167, -0.36492976546287537, -0.5459347367286682, -1.0632728338241577, -0.02783203125, 0.13818359375, -0.827392578125
265, 608570955, -4.510981559753418, -1.445014476776123, 8.442886352539062, -0.3589235246181488, -0.5106403827667236, -0.994489848613739, -0.0263671875, 0.13818359375, -0.826171875
266, 608587622, -4.517153739929199, -1.461937427520752, 8.455656051635742, -0.35386502742767334, -0.577425479888916, -0.9592724442481995, -0.02587890625, 0.1396484375, -0.82763671875
267, 608604289, -4.501888751983643, -1.4420180320739746, 8.429895401000977, -0.33420732617378235, -0.5040835738182068, -0.9111078381538391, -0.02734375, 0.140380859375, -0.827880859375
268, 608620956, -4.502406597137451, -1.4610668420791626, 8.442948341369629, -0.2209223210811615, -0.510473906993866, -0.9032446146011353, -0.0283203125, 0.141845703125, -0.827880859375
269, 608637623, -4.5206427574157715, -1.4504398107528687, 8.449618339538574, -0.3163168132305145, -0.5898860692977905, -0.9641260504722595, -0.02734375, 0.140869140625, -0.827392578125
270, 608654290, -4.51490592956543, -1.4464142322540283, 8.429032325744629, -0.25453901290893555, -0.5392242074012756, -0.9767658114433289, -0.02734375, 0.14013671875, -0.829833984375
271, 608670957, -4.518683910369873, -1.4417331218719482, 8.433679580688477, -0.2628631293773651, -0.6278440952301025, -1.0260703563690186, -0.0263671875, 0.140380859375, -0.829345703125
272, 608687624, -4.51731014251709, -1.4431802034378052, 8.43608283996582, -0.19242821633815765, -0.7086009979248047, -0.9843345284461975, -0.0263671875, 0.13818359375, -0.828125
273, 608704291, -4.51479434967041, -1.4409977197647095, 8.449477195739746, -0.2594338059425354, -0.6251025199890137, -1.0189599990844727, -0.029296875, 0.13916015625, -0.827392578125
274, 608720958, -4.52153205871582, -1.452945590019226, 8.423148155212402, -0.2530663013458252, -0.6299699544906616, -0.9878434538841248, -0.02685546875, 0.13916015625, -0.830322265625
275, 608737625, -4.517472743988037, -1.4477529525756836, 8.454573631286621, -0.2520161271095276, -0.6700281500816345, -0.9667256474494934, -0.02880859375, 0.140625, -0.829833984375
276, 608754292, -4.52294921875, -1.4448295831680298, 8.481399536132812, -0.21384043991565704, -0.7123916149139404, -0.9855254292488098, -0.025390625, 0.141357421875, -0.829345703125
277, 608770959, -4.520331859588623, -1.4545177221298218, 8.44664192199707, -0.18405285477638245, -0.7151193618774414, -0.954802930355072, -0.0263671875, 0.13818359375, -0.828369140625
278, 608787626, -4.503127574920654, -1.4424631595611572, 8.44693660736084, -0.16927435994148254, -0.6954616904258728, -0.9190861582756042, -0.025390625, 0.13818359375, -0.8271484375
279, 608804293, -4.516923904418945, -1.4495081901550293, 8.434890747070312, -0.14263711869716644, -0.7661142349243164, -0.9886502623558044, -0.0263671875, 0.1376953125, -0.82763671875
280, 608820960, -4.50222635269165, -1.4509283304214478, 8.4424467086792, -0.13756580650806427, -0.6469768285751343, -1.0200129747390747, -0.02685546875, 0.13818359375, -0.830810546875
281, 608837627, -4.507359504699707, -1.4368619918823242, 8.444825172424316, -0.09976145625114441, -0.7248777747154236, -1.0080004930496216, -0.0283203125, 0.1396484375, -0.828369140625
282, 608854294, -4.509113311767578, -1.440382719039917, 8.43815803527832, -0.16919748485088348, -0.6080966591835022, -0.9817218780517578, -0.02685546875, 0.140380859375, -0.8271484375
283, 608870961, -4.525163650512695, -1.4538947343826294, 8.452370643615723, -0.19264592230319977, -0.6905823945999146, -1.0772188901901245, -0.02587890625, 0.139892578125, -0.828369140625
284, 608887628, -4.509469509124756, -1.4394557476043701, 8.437042236328125, -0.19717937707901, -0.6567736268043518, -1.0235731601715088, -0.02783203125, 0.13671875, -0.82763671875
285, 608904295, -4.514225482940674, -1.4345741271972656, 8.445995330810547, -0.1877795159816742, -0.6869198083877563, -1.0438969135284424, -0.02783203125, 0.1396484375, -0.826904296875
286, 608920962, -4.50501012802124, -1.4437639713287354, 8.463561058044434, -0.15915730595588684, -0.6374744772911072, -0.9694790840148926, -0.02685546875, 0.14013671875, -0.82568359375
287, 608937629, -4.507807731628418, -1.441419243812561, 8.448307991027832, -0.18670378625392914, -0.7139668464660645, -0.9800828695297241, -0.02734375, 0.14013671875, -0.827880859375
288, 608954296, -4.501922607421875, -1.45369553565979, 8.467501640319824, -0.20314711332321167, -0.5510572195053101, -0.9576716423034668, -0.02685546875, 0.138671875, -0.82568359375
289, 608970963, -4.519472599029541, -1.4515411853790283, 8.46000862121582, -0.21131759881973267, -0.6267683506011963, -1.0348427295684814, -0.02783203125, 0.13818359375, -0.82421875
290, 608987630, -4.507906913757324, -1.441485047340393, 8.436450958251953, -0.20362095534801483, -0.6801067590713501, -0.977150022983551, -0.02587890625, 0.14013671875, -0.82666015625
291, 609004297, -4.517368316650391, -1.4323843717575073, 8.424174308776855, -0.16713567078113556, -0.6667497754096985, -1.0430772304534912, -0.0263671875, 0.1396484375, -0.8271484375
292, 609020964, -4.509133338928223, -1.4396570920944214, 8.43897533416748, -0.17334675788879395, -0.6736908555030823, -0.9730008840560913, -0.02783203125, 0.140625, -0.827880859375
293, 609037631, -4.502151012420654, -1.4422996044158936, 8.449003219604492, -0.08627637475728989, -0.6626774072647095, -0.9903278350830078, -0.02734375, 0.14013671875, -0.82568359375
294, 609054298, -4.49627161026001, -1.441009521484375, 8.444147109985352, -0.17916083335876465, -0.757354736328125, -0.9617825150489807, -0.0283203125, 0.1396484375, -0.8251953125
295, 609070965, -4.5088019371032715, -1.4437986612319946, 8.469738006591797, -0.12906239926815033, -0.7628999352455139, -1.0259807109832764, -0.02734375, 0.1396484375, -0.8271484375
296, 609087632, -4.495629787445068, -1.4447020292282104, 8.437093734741211, -0.19466932117938995, -0.8189276456832886, -0.9739612936973572, -0.02783203125, 0.13916015625, -0.8251953125
297, 609104299, -4.5014424324035645, -1.4363006353378296, 8.44690990447998, -0.040468066930770874, -0.8166225552558899, -0.9662135243415833, -0.02978515625, 0.138671875, -0.827880859375
298, 609120966, -4.503785133361816, -1.450432300567627, 8.434097290039062, -0.20865386724472046, -0.7025691866874695, -1.036712408065796, -0.0302734375, 0.13916015625, -0.825927734375
299, 609137633, -4.506417274475098, -1.4425239562988281, 8.443217277526855, -0.16579101979732513, -0.7686883211135864, -1.0618001222610474, -0.0263671875, 0.138671875, -0.828125
300, 609154300, -4.523568153381348, -1.4431450366973877, 8.458194732666016, -0.2558068633079529, -0.7772557735443115, -1.0237524509429932, -0.02734375, 0.138671875, -0.827880859375
301, 609170967, -4.515102386474609, -1.4476466178894043, 8.43506145477295, -0.20427410304546356, -0.8290575742721558, -1.0149800777435303, -0.02783203125, 0.13916015625, -0.826904296875
302, 609187634, -4.503960609436035, -1.4401683807373047, 8.448906898498535, -0.21724693477153778, -0.7172325253486633, -1.0555121898651123, -0.02734375, 0.138671875, -0.828857421875
303, 609204301, -4.513140678405762, -1.4360988140106201, 8.434587478637695, -0.30327996611595154, -0.7987192273139954, -1.0731464624404907, -0.02880859375, 0.138671875, -0.828369140625
304, 609220968, -4.498111724853516, -1.4389888048171997, 8.430183410644531, -0.37187081575393677, -0.779202401638031, -1.1324656009674072, -0.02734375, 0.13916015625, -0.826171875
305, 609237635, -4.489713191986084, -1.4491546154022217, 8.444855690002441, -0.30664804577827454, -0.7519760131835938, -1.0455102920532227, -0.0283203125, 0.13916015625, -0.829345703125
306, 609254302, -4.497882843017578, -1.450023889541626, 8.445018768310547, -0.2222675085067749, -0.7885087132453918, -1.109224557876587, -0.029296875, 0.140625, -0.830322265625
307, 609270969, -4.484588146209717, -1.4566881656646729, 8.443343162536621, -0.14603079855442047, -0.7962860465049744, -1.0383131504058838, -0.0283203125, 0.14013671875, -0.828369140625
308, 609287636, -4.499001502990723, -1.4537581205368042, 8.43812370300293, -0.24248823523521423, -0.7759880423545837, -0.9594773650169373, -0.0283203125, 0.14013671875, -0.829833984375
309, 609304303, -4.500563144683838, -1.4514501094818115, 8.455011367797852, -0.13011251389980316, -0.7915605306625366, -0.9787253737449646, -0.029296875, 0.13916015625, -0.827880859375
310, 609320970, -4.493398666381836, -1.44199800491333, 8.443603515625, -0.14121560752391815, -0.8788613080978394, -0.9072145223617554, -0.029296875, 0.140625, -0.82568359375
311, 609337637, -4.505375385284424, -1.4608154296875, 8.46314811706543, -0.09860890358686447, -0.7768844366073608, -1.0508891344070435, -0.02783203125, 0.1396484375, -0.828857421875
312, 609354304, -4.497149467468262, -1.4436371326446533, 8.439874649047852, -0.20577241480350494, -0.7694567441940308, -1.021767497062683, -0.029296875, 0.14013671875, -0.826904296875
313, 609370971, -4.496331691741943, -1.4496650695800781, 8.443940162658691, -0.11555170267820358, -0.7260560393333435, -1.0584577322006226, -0.0263671875, 0.13720703125, -0.8271484375
314, 609387638, -4.491084575653076, -1.4333256483078003, 8.448416709899902, -0.24088743329048157, -0.7601593136787415, -1.0302321910858154, -0.0283203125, 0.1396484375, -0.829345703125
315, 609404305, -4.504364967346191, -1.442380428314209, 8.427924156188965, -0.23324202001094818, -0.7713136076927185, -1.0424880981445312, -0.03076171875, 0.13818359375, -0.825927734375
316, 609420972, -4.4948201179504395, -1.462911605834961, 8.454282760620117, -0.3196721076965332, -0.6672877073287964, -1.0318204164505005, -0.0302734375, 0.140625, -0.827880859375
317, 609437639, -4.500120162963867, -1.4488310813903809, 8.460040092468262, -0.265219509601593, -0.6424946188926697, -0.9995868802070618, -0.0302734375, 0.13818359375, -0.829345703125
318, 609454306, -4.495532512664795, -1.4507187604904175, 8.449190139770508, -0.2858889698982239, -0.7107524871826172, -0.9938111901283264, -0.029296875, 0.13916015625, -0.827392578125
319, 609470973, -4.490384101867676, -1.4389060735702515, 8.443787574768066, -0.2264418751001358, -0.6943090558052063, -0.9716818332672119, -0.02734375, 0.13916015625, -0.827880859375
320, 609487640, -4.489023685455322, -1.4350241422653198, 8.459552764892578, -0.25229790806770325, -0.7240967154502869, -1.0446653366088867, -0.02978515625, 0.13916015625, -0.826904296875
321, 609504307, -4.483530521392822, -1.4313048124313354, 8.441780090332031, -0.2764250636100769, -0.700417697429657, -0.9953479766845703, -0.029296875, 0.13916015625, -0.830810546875
322, 609520974, -4.491001605987549, -1.428507685661316, 8.462493896484375, -0.31198829412460327, -0.6929643154144287, -1.05129873752594, -0.0302734375, 0.14111328125, -0.830322265625
323, 609537641, -4.511463642120361, -1.4059280157089233, 8.487997055053711, -0.2548079192638397, -0.3365764617919922, -1.1194286346435547, -0.02783203125, 0.140625, -0.827880859375
324, 609554308, -4.473231315612793, -1.4746317863464355, 8.411113739013672, -0.661665678024292, -0.6164592504501343, -1.1965357065200806, -0.029296875, 0.1396484375, -0.825927734375
325, 609570975, -4.492605686187744, -1.4421260356903076, 8.454387664794922, -0.5298499464988708, -0.6825785040855408, -1.1408281326293945, -0.029296875, 0.140625, -0.827392578125
326, 609587642, -4.522683620452881, -1.4474185705184937, 8.494449615478516, -1.1196589469909668, -0.6380506157875061, -1.3931641578674316, -0.03076171875, 0.140625, -0.827392578125
327, 609604309, -4.472677707672119, -1.4603583812713623, 8.468247413635254, -1.4841151237487793, -0.7234947681427002, -1.5150552988052368, -0.029296875, 0.14013671875, -0.826904296875
328, 609620976, -4.498283863067627, -1.423105001449585, 8.448914527893066, -2.1111395359039307, -0.561110258102417, -1.6880947351455688, -0.02978515625, 0.141357421875, -0.826416015625
329, 609637643, -4.448390960693359, -1.5073375701904297, 8.44813060760498, -1.901461124420166, -0.4308440089225769, -1.6477673053741455, -0.03076171875, 0.14111328125, -0.827392578125
330, 609654310, -4.446849822998047, -1.4855666160583496, 8.45503044128418, -1.3812800645828247, -0.09335828572511673, -1.2879345417022705, -0.0283203125, 0.142822265625, -0.826416015625
331, 609670977, -4.514873027801514, -1.4846988916397095, 8.462019920349121, -0.7113415598869324, -0.17721427977085114, -1.0743119716644287, -0.0263671875, 0.141357421875, -0.8271484375
332, 609687644, -4.515171051025391, -1.4780561923980713, 8.436016082763672, -0.46499860286712646, -0.2673325538635254, -0.9491298198699951, -0.0263671875, 0.140380859375, -0.82763671875
333, 609704311, -4.530129432678223, -1.4413241147994995, 8.470649719238281, -0.47056934237480164, -0.3677215576171875, -0.9550848007202148, -0.02880859375, 0.140625, -0.827392578125
334, 609720978, -4.516638278961182, -1.4977819919586182, 8.468462944030762, -1.0482637882232666, -0.3286237418651581, -1.1743422746658325, -0.02880859375, 0.142333984375, -0.827392578125
335, 609737645, -4.510266304016113, -1.4544655084609985, 8.4607572555542, -1.056459903717041, -0.3707950711250305, -1.2793673276901245, -0.02734375, 0.141845703125, -0.82666015625
336, 609754312, -4.490421772003174, -1.4846763610839844, 8.450599670410156, -0.7136467099189758, -0.3737020790576935, -1.1443626880645752, -0.02783203125, 0.142333984375, -0.82568359375
337, 609770979, -4.496813774108887, -1.4892277717590332, 8.422093391418457, -0.4321759045124054, -0.45598289370536804, -1.009191632270813, -0.02734375, 0.142822265625, -0.826904296875
338, 609787646, -4.50635290145874, -1.470153570175171, 8.450084686279297, -0.3356800377368927, -0.6445690989494324, -1.0115735530853271, -0.029296875, 0.141845703125, -0.827392578125
339, 609804313, -4.50485372543335, -1.479737401008606, 8.462329864501953, -0.4734764099121094, -0.6736268401145935, -1.095263123512268, -0.0263671875, 0.142333984375, -0.826171875
340, 609820980, -4.508068084716797, -1.4934885501861572, 8.45583438873291, -0.25887027382850647, -0.7467318177223206, -1.0629523992538452, -0.02978515625, 0.14111328125, -0.825439453125
341, 609837647, -4.449794769287109, -1.5237038135528564, 8.429996490478516, 0.06405095010995865, -0.561468780040741, -0.8045588731765747, -0.02783203125, 0.142333984375, -0.828857421875
342, 609854314, -4.519800662994385, -1.458775520324707, 8.420352935791016, 0.10928299278020859, -0.44689038395881653, -0.8012677431106567, -0.02880859375, 0.142333984375, -0.826416015625
343, 609870981, -4.51754903793335, -1.4726669788360596, 8.44653606414795, 0.14639580249786377, -0.42501717805862427, -0.7979893088340759, -0.02880859375, 0.141845703125, -0.827392578125
344, 609887648, -4.513111591339111, -1.4828901290893555, 8.451456069946289, 0.1109221950173378, -0.464985728263855, -0.7980148196220398, -0.02685546875, 0.141357421875, -0.82568359375
345, 609904315, -4.491528511047363, -1.4801305532455444, 8.449143409729004, 0.1585618108510971, -0.5615968108177185, -0.801767110824585, -0.02587890625, 0.139892578125, -0.828369140625
346, 609920982, -4.496666431427002, -1.477961540222168, 8.460367202758789, -0.008836382068693638, -0.4172821342945099, -0.8069153428077698, -0.025390625, 0.142333984375, -0.82666015625
347, 609937649, -4.535483360290527, -1.461660623550415, 8.48431396484375, -0.9243366718292236, -0.3984311521053314, -1.1591538190841675, -0.02734375, 0.142333984375, -0.827880859375
348, 609954316, -4.489609718322754, -1.4702531099319458, 8.443916320800781, -2.0514233112335205, -0.2548079192638397, -1.5883841514587402, -0.02783203125, 0.141845703125, -0.82568359375
349, 609970983, -4.363070487976074, -1.5278737545013428, 8.426936149597168, -2.0261948108673096, 0.49857035279273987, -1.5740283727645874, -0.0263671875, 0.141357421875, -0.828857421875
350, 609987650, -4.343569755554199, -1.5514582395553589, 8.458066940307617, -3.5637004375457764, 2.9516782760620117, -1.2670347690582275, -0.02783203125, 0.142333984375, -0.826171875
351, 610004317, -4.491054058074951, -1.7041813135147095, 8.369157791137695, -5.710072040557861, 3.7624237537384033, -1.6159954071044922, -0.0244140625, 0.144287109375, -0.828369140625
352, 610020984, -4.595254421234131, -1.3056422472000122, 8.491744041442871, -4.518413543701172, 3.4017446041107178, -1.1972014904022217, -0.0244140625, 0.145263671875, -0.8271484375
353, 610037651, -4.581987380981445, -1.4184209108352661, 8.401829719543457, -4.062572002410889, 3.370945453643799, -1.3483295440673828, -0.025390625, 0.148193359375, -0.826171875
354, 610054318, -4.584683895111084, -1.5183736085891724, 8.418285369873047, -2.5959625244140625, 2.5385963916778564, -1.0861321687698364, -0.0234375, 0.146728515625, -0.82568359375
355, 610070985, -4.613915920257568, -1.5432982444763184, 8.396581649780273, -1.244264841079712, 1.4621456861495972, -0.826047956943512, -0.021484375, 0.1484375, -0.82666015625
356, 610087652, -4.636030673980713, -1.4836735725402832, 8.440858840942383, -1.108184814453125, 0.7437479496002197, -1.0132383108139038, -0.0224609375, 0.144775390625, -0.8232421875
357, 610104319, -4.691368103027344, -1.504875898361206, 8.482199668884277, -1.2157068252563477, 0.36688271164894104, -1.3791797161102295, -0.02392578125, 0.147705078125, -0.82568359375
358, 610120986, -4.704549312591553, -1.5166877508163452, 8.408158302307129, -2.143885374069214, -1.0517983436584473, -1.989428162574768, -0.02294921875, 0.1484375, -0.828125
359, 610137653, -4.6457085609436035, -1.506469964981079, 8.390276908874512, -2.1728532314300537, -2.548463821411133, -2.583514451980591, -0.02294921875, 0.14990234375, -0.82568359375
360, 610154320, -4.563518047332764, -1.5707241296768188, 8.35030460357666, -1.2481452226638794, -3.043351888656616, -2.6062843799591064, -0.0234375, 0.14794921875, -0.82763671875
361, 610170987, -4.490266799926758, -1.5953092575073242, 8.38007640838623, -0.33299070596694946, -2.6692399978637695, -2.270232915878296, -0.02392578125, 0.14892578125, -0.826171875
362, 610187654, -4.487030029296875, -1.54890775680542, 8.396479606628418, -0.32909756898880005, -1.4685938358306885, -2.1178500652313232, -0.025390625, 0.14892578125, -0.826904296875
363, 610204321, -4.46682071685791, -1.6255773305892944, 8.422493934631348, -0.8490994572639465, -0.3027036786079407, -2.1914610862731934, -0.0244140625, 0.147216796875, -0.827392578125
364, 610220988, -4.499697208404541, -1.4850223064422607, 8.428783416748047, -2.2759571075439453, 1.3501925468444824, -2.7114498615264893, -0.02294921875, 0.1494140625, -0.82421875
365, 610237655, -4.466151237487793, -1.5320972204208374, 8.524935722351074, -3.5794517993927, 3.251103162765503, -3.185220956802368, -0.02197265625, 0.15087890625, -0.82763671875
366, 610254322, -4.45923376083374, -1.5185645818710327, 8.443840980529785, -6.775662422180176, 6.070192813873291, -4.344542980194092, -0.0224609375, 0.15185546875, -0.82763671875
367, 610270989, -4.487940311431885, -1.5430787801742554, 8.4743070602417, -10.130613327026367, 11.685401916503906, -5.337141036987305, -0.021484375, 0.1533203125, -0.826171875
368, 610287656, -4.134603500366211, -1.1387096643447876, 8.806665420532227, -10.537930488586426, 20.483572006225586, -5.877830982208252, -0.01611328125, 0.155029296875, -0.82421875
369, 610304323, -3.9525246620178223, -1.5005872249603271, 8.815052032470703, -9.380874633789062, 38.9528923034668, -10.815988540649414, -0.009765625, 0.159423828125, -0.82568359375
370, 610320990, -2.492708206176758, -1.8672475814819336, 9.969796180725098, -11.339822769165039, 71.62158203125, -0.4105279743671417, 0.00390625, 0.1572265625, -0.8232421875
371, 610337657, -3.8470916748046875, -2.8371760845184326, 9.81714153289795, -13.400156021118164, 105.4856948852539, 11.129389762878418, 0.03076171875, 0.163818359375, -0.82177734375
372, 610354324, -4.9773406982421875, -3.012854814529419, 12.101841926574707, -1.8376203775405884, 114.68268585205078, 21.610057830810547, 0.06005859375, 0.16455078125, -0.816162109375
373, 610370991, -1.1124701499938965, -3.1132078170776367, 13.443427085876465, 12.110193252563477, 95.96724700927734, 34.83461380004883, 0.086669921875, 0.1572265625, -0.8125
374, 610387658, -2.827430486679077, -4.325173377990723, 16.79620361328125, 25.550701141357422, 65.49494171142578, 41.410011291503906, 0.108642578125, 0.1513671875, -0.805419921875
375, 610404325, 2.4681241512298584, -3.5529701709747314, 14.09670639038086, 27.770187377929688, 24.113697052001953, 38.99974060058594, 0.121826171875, 0.14208984375, -0.80126953125
376, 610420992, 4.636684417724609, -2.9378340244293213, 11.864391326904297, 20.016530990600586, 8.558309555053711, 40.27714920043945, 0.12939453125, 0.133056640625, -0.7939453125
377, 610437659, 4.818991184234619, -3.862581491470337, 11.955135345458984, 9.15444564819336, -9.044252395629883, 37.0308837890625, 0.140869140625, 0.12744140625, -0.7861328125
378, 610454326, 4.405068397521973, -4.358880043029785, 11.773736953735352, 5.639214515686035, -31.548982620239258, 27.032878875732422, 0.140869140625, 0.1201171875, -0.779052734375
379, 610470993, 3.3434529304504395, -4.0257673263549805, 11.779313087463379, -0.5881118774414062, -51.90576934814453, 12.868083000183105, 0.14111328125, 0.116455078125, -0.77392578125
380, 610487660, 1.4440772533416748, -4.216371536254883, 12.199531555175781, -17.136201858520508, -73.19081115722656, -8.35239315032959, 0.1396484375, 0.114013671875, -0.76708984375
381, 610504327, 0.3183984160423279, -4.626876354217529, 11.71478271484375, -23.977611541748047, -95.14629364013672, -31.60083770751953, 0.131591796875, 0.116943359375, -0.768310546875
382, 610520994, -0.4880244731903076, -4.019263744354248, 11.069082260131836, -18.052461624145508, -109.17644500732422, -48.040775299072266, 0.1220703125, 0.123291015625, -0.767333984375
383, 610537661, -1.3935201168060303, -2.9340555667877197, 11.261228561401367, -14.533432006835938, -117.12867736816406, -54.19479751586914, 0.1083984375, 0.13037109375, -0.770751953125
384, 610554328, -3.2090847492218018, -2.4162726402282715, 12.680293083190918, -16.615365982055664, -128.3517608642578, -54.02953338623047, 0.096435546875, 0.138671875, -0.781494140625
385, 610570995, -4.641603946685791, -2.191981792449951, 13.089656829833984, -20.79412269592285, -149.72616577148438, -52.49641036987305, 0.069580078125, 0.152587890625, -0.787841796875
386, 610587662, -4.8602824211120605, -1.6717385053634644, 11.825403213500977, -21.67856216430664, -163.41650390625, -48.30330276489258, 0.0390625, 0.1669921875, -0.797607421875
387, 610604329, -5.905438423156738, -1.2969038486480713, 11.534309387207031, -26.825002670288086, -165.9303741455078, -43.3789176940918, 0.00146484375, 0.1806640625, -0.808349609375
388, 610620996, -6.9936347007751465, -1.9780957698822021, 11.582215309143066, -31.63167953491211, -168.11502075195312, -39.8649787902832, -0.041259765625, 0.19482421875, -0.8173828125
389, 610637663, -7.235578536987305, -2.2054288387298584, 10.190317153930664, -28.23664665222168, -166.9189453125, -34.98362350463867, -0.086669921875, 0.20751953125, -0.821044921875
390, 610654330, -6.966955661773682, -1.6046044826507568, 8.389711380004883, -30.176042556762695, -154.5466766357422, -28.45387077331543, -0.134765625, 0.21435546875, -0.818359375
391, 610670997, -7.481683731079102, -1.2784737348556519, 7.806612014770508, -40.46629333496094, -137.59445190429688, -24.585784912109375, -0.17431640625, 0.22802734375, -0.813720703125
392, 610687664, -7.701554775238037, -0.9864762425422668, 7.013385772705078, -43.4665641784668, -125.70841979980469, -20.871902465820312, -0.210205078125, 0.234619140625, -0.8056640625
393, 610704331, -7.3664679527282715, 0.08319640159606934, 5.8437933921813965, -35.926700592041016, -110.54900360107422, -11.828412055969238, -0.243408203125, 0.245849609375, -0.793701171875
394, 610720998, -7.449847221374512, 0.7397763133049011, 5.382736682891846, -34.51445388793945, -92.60385131835938, -3.297415256500244, -0.27099609375, 0.252197265625, -0.783203125
395, 610737665, -7.459508419036865, 0.3821907341480255, 4.483850002288818, -32.936012268066406, -75.88276672363281, 3.93487811088562, -0.29248046875, 0.262451171875, -0.774169921875
396, 610754332, -7.230689525604248, 0.3501896262168884, 3.463841199874878, -26.384906768798828, -55.06842041015625, 10.957625389099121, -0.30322265625, 0.267578125, -0.7666015625
397, 610770999, -7.523998737335205, 0.029245955869555473, 3.301647901535034, -21.202972412109375, -30.740503311157227, 12.567636489868164, -0.311279296875, 0.27587890625, -0.759765625
398, 610787666, -7.812798500061035, -0.4407489597797394, 3.353057622909546, -16.241241455078125, -8.643389701843262, 8.495546340942383, -0.31591796875, 0.280517578125, -0.75634765625
399, 610804333, -8.01915168762207, -0.8440593481063843, 3.356847047805786, -4.469329357147217, 12.599605560302734, 4.757453441619873, -0.314453125, 0.282958984375, -0.75732421875
400, 610821000, -8.23885440826416, -1.0866312980651855, 3.4031927585601807, 8.788980484008789, 35.12104415893555, 5.790027618408203, -0.307861328125, 0.283935546875, -0.76123046875
401, 610837667, -6.508076190948486, -3.2286055088043213, 1.8120001554489136, 32.73433303833008, 64.22445678710938, 13.601567268371582, -0.2958984375, 0.28173828125, -0.766357421875
402, 610854334, 1.0408891439437866, -3.839132070541382, 9.043441772460938, 67.66431427001953, 103.83169555664062, 42.4473991394043, -0.270263671875, 0.268310546875, -0.779296875
403, 610871001, 2.778999090194702, -9.852483749389648, 12.525015830993652, 3.9418046474456787, 143.38360595703125, 0.8724893927574158, -0.24072265625, 0.26416015625, -0.793212890625
404, 610887668, -0.9225814938545227, -1.5121468305587769, 3.4357833862304688, 21.668237686157227, 178.5690155029297, -7.959709644317627, -0.203369140625, 0.261474609375, -0.802978515625
405, 610904335, -5.217041969299316, 7.6946516036987305, 13.7557954788208, 13.277538299560547, 199.70391845703125, 25.883501052856445, -0.15673828125, 0.259765625, -0.814208984375
406, 610921002, -8.59848403930664, 3.443908452987671, 15.623502731323242, -2.546762704849243, 152.99037170410156, 50.10066604614258, -0.113037109375, 0.26171875, -0.8212890625
407, 610937669, -6.905448913574219, -6.062739849090576, 10.409321784973145, -12.539048194885254, 130.16160583496094, 37.20337677001953, -0.076171875, 0.26611328125, -0.82568359375
408, 610954336, -7.075814723968506, -5.988205432891846, 9.807136535644531, -7.265540599822998, 120.20696258544922, 21.996931076049805, -0.047119140625, 0.265869140625, -0.828125
409, 610971003, -5.569780349731445, -1.6379636526107788, 9.7001371383667, -11.321582794189453, 111.60820007324219, 18.168916702270508, -0.016357421875, 0.26953125, -0.827880859375
410, 610987670, -5.363541126251221, -2.1015219688415527, 9.646684646606445, -27.37917709350586, 107.68385314941406, 8.545774459838867, 0.009521484375, 0.27490234375, -0.827392578125
411, 611004337, -6.801353931427002, -3.2049121856689453, 10.075453758239746, -23.55253028869629, 97.9740982055664, 7.658260822296143, 0.035400390625, 0.28125, -0.823974609375
412, 611021004, -8.80158519744873, -4.424972057342529, 10.248930931091309, 15.712206840515137, 63.80095672607422, 10.68736743927002, 0.055908203125, 0.2802734375, -0.823486328125
413, 611037671, -5.853857517242432, -0.7997797131538391, 10.853395462036133, 7.563729286193848, 42.45237350463867, -2.1777470111846924, 0.064208984375, 0.279541015625, -0.825439453125
414, 611054338, -4.945286273956299, -2.719442367553711, 9.119568824768066, 1.7386537790298462, 29.856321334838867, -8.076275825500488, 0.07373046875, 0.279052734375, -0.8251953125
415, 611071005, -4.447710990905762, -1.9176539182662964, 9.137468338012695, -4.256521224975586, 25.288898468017578, -10.125699996948242, 0.079345703125, 0.276123046875, -0.823486328125
416, 611087672, -5.239476680755615, -2.5422396659851074, 8.733682632446289, -11.674113273620605, 18.060405731201172, -12.411787033081055, 0.084228515625, 0.2822265625, -0.822998046875
417, 611104339, -5.2886199951171875, -2.3422367572784424, 8.725815773010254, -19.853641510009766, 10.30628776550293, -14.472504615783691, 0.084228515625, 0.28271484375, -0.822021484375
418, 611121006, -4.676022529602051, -2.847029685974121, 8.058560371398926, -20.8797664642334, 6.44155216217041, -14.789861679077148, 0.087158203125, 0.290771484375, -0.817138671875
419, 611137673, -4.476758003234863, -2.8687164783477783, 8.069440841674805, -17.87146759033203, 4.438232898712158, -11.989798545837402, 0.0859375, 0.295654296875, -0.816162109375
420, 611154340, -4.2223920822143555, -3.1804065704345703, 7.639123916625977, -12.692075729370117, 4.237412929534912, -7.993486404418945, 0.0859375, 0.298095703125, -0.817138671875
421, 611171007, -4.760653018951416, -2.982200860977173, 7.953843116760254, -10.136743545532227, 3.8529391288757324, -5.548712730407715, 0.08642578125, 0.3017578125, -0.815185546875
422, 611187674, -4.691575527191162, -3.0029983520507812, 7.808585166931152, -6.445641994476318, 2.5900399684906006, -3.7752745151519775, 0.0888671875, 0.30322265625, -0.814697265625
423, 611204341, -4.681699752807617, -3.000969648361206, 7.795621871948242, -2.3024797439575195, 2.7674334049224854, -1.711427927017212, 0.08935546875, 0.30419921875, -0.81298828125
424, 611221008, -4.5752363204956055, -2.8800928592681885, 7.944677829742432, -0.6371030807495117, 2.596788167953491, -0.8122426867485046, 0.08984375, 0.30419921875, -0.8125
425, 611237675, -4.421722412109375, -2.896979570388794, 7.84010648727417, 0.806268572807312, 4.335634708404541, 0.37506598234176636, 0.08984375, 0.30322265625, -0.816162109375
426, 611254342, -4.559645175933838, -2.948453903198242, 7.844607830047607, 2.099915027618408, 5.922392845153809, 2.0790791511535645, 0.09521484375, 0.30322265625, -0.814453125
427, 611271009, -4.585560321807861, -3.0182113647460938, 7.7179059982299805, 4.9499053955078125, 5.086408615112305, 5.0364508628845215, 0.09521484375, 0.30224609375, -0.8125
428, 611287676, -4.574053764343262, -3.001478433609009, 7.650926113128662, 9.47852897644043, 3.5380184650421143, 8.217551231384277, 0.095947265625, 0.30126953125, -0.81494140625
429, 611304343, -4.54499626159668, -2.959325075149536, 7.609824180603027, 14.467293739318848, 5.469976902008057, 11.057805061340332, 0.098388671875, 0.29736328125, -0.81640625
430, 611321010, -4.551941394805908, -2.844026803970337, 7.800542831420898, 17.479618072509766, 8.890498161315918, 12.617036819458008, 0.1015625, 0.293212890625, -0.81787109375
431, 611337677, -4.752010345458984, -2.56254243850708, 7.978872776031494, 18.23029327392578, 10.164721488952637, 12.92723560333252, 0.10400390625, 0.285888671875, -0.817626953125
432, 611354344, -4.71056604385376, -2.5929114818573, 7.995278835296631, 18.863122940063477, 10.838556289672852, 12.801852226257324, 0.109130859375, 0.284423828125, -0.818603515625
433, 611371011, -4.734538555145264, -2.6480374336242676, 7.9313764572143555, 19.194210052490234, 11.381562232971191, 13.668986320495605, 0.112548828125, 0.27783203125, -0.822509765625
434, 611387678, -4.7143778800964355, -2.685145854949951, 7.847807884216309, 20.16110610961914, 9.29556941986084, 15.75501823425293, 0.1171875, 0.2724609375, -0.82373046875
435, 611404345, -4.994633197784424, -2.4173221588134766, 8.190871238708496, 19.534881591796875, 10.871847152709961, 16.92135238647461, 0.120849609375, 0.266357421875, -0.8212890625
436, 611421012, -4.8283467292785645, -2.3207576274871826, 8.080344200134277, 12.35256290435791, 15.748454093933105, 13.723024368286133, 0.124267578125, 0.266357421875, -0.82470703125
437, 611437679, -4.937797546386719, -1.9251799583435059, 8.3320894241333, 11.171003341674805, 23.678180694580078, 11.368797302246094, 0.1298828125, 0.259765625, -0.823486328125
438, 611454346, -4.680777549743652, -1.6460490226745605, 8.525003433227539, -0.36964428424835205, 36.43082809448242, 9.142708778381348, 0.141357421875, 0.257568359375, -0.822265625
439, 611471013, -4.495696544647217, -1.950931429862976, 8.33209228515625, -2.12785005569458, 56.06549835205078, 6.136224746704102, 0.1513671875, 0.260009765625, -0.822021484375
440, 611487680, -4.963794231414795, -2.016418218612671, 8.106104850769043, -6.710830211639404, 78.99285888671875, 4.587624549865723, 0.173828125, 0.25927734375, -0.8154296875
441, 611504347, -5.298135757446289, -2.2835376262664795, 7.984479904174805, -12.156739234924316, 97.68567657470703, 3.947167158126831, 0.193115234375, 0.260986328125, -0.811279296875
442, 611521014, -5.430333614349365, -2.3690783977508545, 7.946221351623535, -11.590740203857422, 116.23159790039062, 4.259782791137695, 0.218994140625, 0.2666015625, -0.80419921875
443, 611537681, -5.470188140869141, -2.1733829975128174, 7.817883014678955, -10.549867630004883, 139.3822479248047, 5.705967903137207, 0.25, 0.266845703125, -0.79443359375
444, 611554348, -5.4278244972229, -2.167433023452759, 7.855894088745117, -11.673090934753418, 175.24667358398438, 5.665575981140137, 0.287841796875, 0.268798828125, -0.78076171875
445, 611571015, -5.246676445007324, -2.50022029876709, 7.933718204498291, -13.318286895751953, 220.4186553955078, 11.255859375, 0.333251953125, 0.26904296875, -0.7626953125
446, 611587682, -5.443483352661133, -2.4212746620178223, 7.914610862731934, -8.48922348022461, 276.6794738769531, 16.713584899902344, 0.39306640625, 0.2685546875, -0.732421875
447, 611604349, -5.544764518737793, -2.86904239654541, 8.218602180480957, 2.1789660453796387, 356.8145446777344, 27.324125289916992, 0.46044921875, 0.264404296875, -0.687255859375
448, 611621016, -6.674919128417969, -2.718294382095337, 9.681933403015137, -8.790249824523926, 441.6118469238281, 52.821815490722656, 0.543212890625, 0.260498046875, -0.625
449, 611637683, -13.488192558288574, -1.9920061826705933, 10.26585578918457, -28.05312728881836, 476.5202331542969, 71.70122528076172, 0.62841796875, 0.252197265625, -0.540771484375
450, 611654350, -17.271839141845703, -3.441818952560425, 10.70549201965332, -48.547515869140625, 468.786865234375, 68.88198852539062, 0.699462890625, 0.241943359375, -0.445068359375
451, 611671017, -16.632999420166016, -5.204003810882568, 9.834657669067383, -43.34033203125, 447.9784851074219, 85.01963806152344, 0.75537109375, 0.2275390625, -0.34130859375
452, 611687684, -15.718611717224121, -5.54295015335083, 12.903507232666016, -27.081161499023438, 411.17034912109375, 101.09312438964844, 0.794677734375, 0.205078125, -0.244140625
453, 611704351, -11.613382339477539, -4.743256568908691, 17.40576934814453, -19.603023529052734, 308.5964660644531, 81.71505737304688, 0.815185546875, 0.182861328125, -0.16162109375
454, 611721018, -15.850729942321777, -2.718161106109619, 21.19782257080078, -49.81527328491211, 127.27354431152344, 84.67169189453125, 0.820068359375, 0.162353515625, -0.11474609375
455, 611737685, -16.487211227416992, -0.8977648615837097, 25.008312225341797, -49.87417984008789, -51.7427864074707, 98.86559295654297, 0.81591796875, 0.135498046875, -0.104736328125
456, 611754352, -2.064807891845703, -4.28677225112915, 13.205140113830566, -46.68515396118164, -200.8839874267578, 79.74005126953125, 0.804443359375, 0.115966796875, -0.13232421875
457, 611771019, 0.5064490437507629, -3.7658631801605225, 6.4294538497924805, 10.119013786315918, -209.65281677246094, 142.61903381347656, 0.803955078125, 0.080322265625, -0.1640625
458, 611787686, -1.7330081462860107, -3.8260347843170166, 6.670961380004883, 45.89689636230469, -209.83642578125, 156.34268188476562, 0.80908203125, 0.03564453125, -0.189453125
459, 611804353, -4.1966166496276855, -5.840038299560547, 8.385887145996094, 45.407997131347656, -249.81353759765625, 112.5597915649414, 0.82421875, -9.765625E-4, -0.2275390625
460, 611821020, -5.030926704406738, -7.033937454223633, 7.555934906005859, 43.61995315551758, -287.7413024902344, 40.48186492919922, 0.845947265625, -0.02587890625, -0.297119140625
461, 611837687, -5.850032329559326, -7.037143707275391, 6.642570495605469, 50.00347137451172, -312.4477844238281, -25.0046329498291, 0.859130859375, -0.033935546875, -0.405517578125
462, 611854354, -6.482560157775879, -4.668614387512207, 5.402429103851318, 58.652889251708984, -325.6813049316406, -62.383941650390625, 0.826904296875, -0.032958984375, -0.537841796875
463, 611871021, -7.215383052825928, -2.622173547744751, 5.747747898101807, 44.98865509033203, -325.13568115234375, -70.18582153320312, 0.74365234375, -0.037353515625, -0.657470703125
464, 611887688, -9.150569915771484, -0.7454760670661926, 8.794234275817871, 5.835018157958984, -325.0850524902344, -72.38092803955078, 0.64208984375, -0.0322265625, -0.732177734375
465, 611904355, -12.063577651977539, -1.2222707271575928, 10.64638900756836, -36.89992141723633, -358.69207763671875, -70.96661376953125, 0.539306640625, -0.005859375, -0.774169921875
466, 611921022, -11.71243667602539, -1.8378732204437256, 8.728472709655762, -45.05304718017578, -387.62384033203125, -51.87934875488281, 0.45654296875, 0.02880859375, -0.80517578125
467, 611937689, -10.15225887298584, 0.5755116939544678, 6.075003147125244, -71.24605560302734, -367.2516174316406, -29.766206741333008, 0.394775390625, 0.060546875, -0.849853515625
468, 611954356, -11.871454238891602, 0.4934646189212799, 5.872184753417969, -127.48304748535156, -307.6600646972656, -28.972787857055664, 0.31982421875, 0.101806640625, -0.909423828125
469, 611971023, -13.953798294067383, -3.2765777111053467, 9.424349784851074, -135.10440063476562, -257.88275146484375, -40.387481689453125, 0.218994140625, 0.148681640625, -0.9443359375
470, 611987690, -17.21129608154297, -2.3518381118774414, 14.348284721374512, -120.80994415283203, -261.6302795410156, -57.02924728393555, 0.10400390625, 0.19091796875, -0.94287109375
471, 612004357, -16.910390853881836, 0.5299669504165649, 13.790180206298828, -113.12964630126953, -282.8177490234375, -58.22467803955078, -4.8828125E-4, 0.21826171875, -0.916015625
472, 612021024, -17.57135772705078, 1.5413970947265625, 12.461996078491211, -108.57795715332031, -288.57061767578125, -38.577266693115234, -0.086181640625, 0.238037109375, -0.876953125
473, 612037691, -19.1527042388916, 2.2603845596313477, 10.131972312927246, -111.80882263183594, -285.261962890625, -27.466157913208008, -0.158203125, 0.25927734375, -0.841796875
474, 612054358, -20.290342330932617, 0.4876992106437683, 5.629128456115723, -104.55296325683594, -265.0176086425781, -27.801715850830078, -0.218505859375, 0.279296875, -0.8095703125
475, 612071025, -20.205707550048828, -0.7355080246925354, 0.9459939002990723, -73.6517333984375, -225.91787719726562, -47.32077407836914, -0.2705078125, 0.2900390625, -0.778564453125
476, 612087692, -18.66402816772461, 1.6476231813430786, -3.2356927394866943, -52.74274444580078, -162.1547393798828, -72.23413848876953, -0.31103515625, 0.29150390625, -0.751220703125
477, 612104359, -19.655574798583984, 5.046680450439453, -5.12970495223999, -67.35213470458984, -92.76917266845703, -79.06236267089844, -0.33544921875, 0.294189453125, -0.731689453125
478, 612121026, -20.207622528076172, 4.077652931213379, -7.348539352416992, -76.03518676757812, -27.79306983947754, -76.31291198730469, -0.34765625, 0.300048828125, -0.717041015625
479, 612137693, -19.342927932739258, 3.14815616607666, -6.269813537597656, -33.78056716918945, 33.04447937011719, -77.9334716796875, -0.349609375, 0.300048828125, -0.715576171875
480, 612154360, -9.62462043762207, -1.1583755016326904, -3.1105353832244873, 120.49911499023438, 93.22681427001953, -23.513656616210938, -0.336669921875, 0.276123046875, -0.72412109375
481, 612171027, 8.410122871398926, 1.6624534130096436, 22.388385772705078, 50.009620666503906, 120.45413208007812, -12.372551918029785, -0.31298828125, 0.2578125, -0.737548828125
482, 612187694, 1.5586767196655273, 3.55016827583313, 6.957566261291504, 18.921112060546875, 180.0028533935547, 30.77194595336914, -0.27587890625, 0.252197265625, -0.752685546875
483, 612204361, -8.396862030029297, 12.862397193908691, 12.929183006286621, -45.550537109375, 218.8114776611328, 32.783241271972656, -0.22607421875, 0.258544921875, -0.763427734375
484, 612221028, -8.054926872253418, -2.656834125518799, 12.9602689743042, -58.84624099731445, 195.4121856689453, 52.79277420043945, -0.179443359375, 0.273681640625, -0.76611328125
485, 612237695, -7.950930118560791, -12.322054862976074, 7.334530830383301, -66.77110290527344, 198.2082977294922, 17.638036727905273, -0.13525390625, 0.2880859375, -0.768798828125
486, 612254362, -7.998523235321045, -2.630704879760742, 10.376791954040527, -50.00258255004883, 177.03616333007812, 23.728221893310547, -0.088134765625, 0.298583984375, -0.768310546875
487, 612271029, -12.936575889587402, -10.111721992492676, 11.745780944824219, -1.1609519720077515, 138.02174377441406, 31.238601684570312, -0.056396484375, 0.302978515625, -0.770751953125
488, 612287696, -6.707594871520996, 0.25633659958839417, 10.43546199798584, 56.11613464355469, 81.06222534179688, 30.61246681213379, -0.0302734375, 0.2890625, -0.774169921875
489, 612304363, -5.957713603973389, -2.892014741897583, 9.743553161621094, 35.0457878112793, 47.23084259033203, 15.52548599243164, -0.01708984375, 0.28369140625, -0.77734375
490, 612321030, -5.594512462615967, -3.3915352821350098, 9.260644912719727, 40.45560836791992, 33.496307373046875, 18.87212371826172, -0.00537109375, 0.273193359375, -0.780029296875
491, 612337697, -5.549417495727539, -2.2803354263305664, 9.162055015563965, 38.5244255065918, 16.661407470703125, 17.173112869262695, -0.00146484375, 0.26416015625, -0.784912109375
492, 612354364, -5.3377556800842285, -2.016050100326538, 9.13535213470459, 31.310792922973633, 8.96687126159668, 11.421551704406738, 0.003662109375, 0.25927734375, -0.783935546875
493, 612371031, -4.738415718078613, -2.3607177734375, 8.58569049835205, 22.232311248779297, 6.458185195922852, 6.903156280517578, 0.0029296875, 0.25, -0.784912109375
494, 612387698, -4.820981502532959, -2.3472940921783447, 8.468266487121582, 16.083850860595703, 6.394338607788086, 4.21227502822876, 0.0048828125, 0.24560546875, -0.789794921875
495, 612404365, -4.58962869644165, -2.572444438934326, 8.224180221557617, 13.000471115112305, 6.037653923034668, 3.952291965484619, 0.007568359375, 0.240478515625, -0.7880859375
496, 612421032, -4.610697269439697, -2.7158844470977783, 8.174958229064941, 12.3388032913208, 3.432814598083496, 6.052572727203369, 0.010498046875, 0.238525390625, -0.78955078125
497, 612437699, -4.670904636383057, -2.5960803031921387, 8.083849906921387, 8.657524108886719, 0.6560119390487671, 7.4149627685546875, 0.007568359375, 0.240478515625, -0.792724609375
498, 612454366, -4.6988348960876465, -2.2449381351470947, 8.274471282958984, 9.13999080657959, -0.4288848042488098, 7.788510799407959, 0.010986328125, 0.236572265625, -0.791015625
499, 612471033, -4.7499871253967285, -2.146245002746582, 8.255454063415527, 9.016692161560059, -0.6321729421615601, 6.215865612030029, 0.010498046875, 0.234619140625, -0.79296875
500, 612487700, -4.758953094482422, -2.1800575256347656, 8.255646705627441, 8.89993667602539, 0.7599611282348633, 5.276993274688721, 0.01220703125, 0.22998046875, -0.79150390625
501, 612504367, -4.839092254638672, -2.1184539794921875, 8.337939262390137, 7.796692848205566, 1.0834749937057495, 4.815489768981934, 0.01220703125, 0.228515625, -0.79248046875
502, 612521034, -4.825053691864014, -2.1386706829071045, 8.238083839416504, 5.8336591720581055, 2.4055135250091553, 3.951573610305786, 0.01220703125, 0.22607421875, -0.79443359375
503, 612537701, -4.76919412612915, -2.1890785694122314, 8.159500122070312, 5.02119779586792, 3.5589303970336914, 3.3449745178222656, 0.01513671875, 0.22607421875, -0.79248046875
504, 612554368, -4.70167350769043, -2.2333106994628906, 8.13311767578125, 4.601521015167236, 3.8665006160736084, 3.604200839996338, 0.01611328125, 0.2236328125, -0.7919921875
505, 612571035, -4.637941837310791, -2.2221014499664307, 8.0863037109375, 3.877641439437866, 3.5645387172698975, 4.32673454284668, 0.018798828125, 0.22412109375, -0.79443359375
506, 612587702, -4.535964488983154, -2.3053808212280273, 8.141295433044434, 4.90706729888916, 3.8297200202941895, 6.312013626098633, 0.018798828125, 0.22119140625, -0.793701171875
507, 612604369, -4.663968563079834, -2.181142807006836, 8.150832176208496, 3.8121767044067383, 5.79481840133667, 7.815316200256348, 0.018310546875, 0.220703125, -0.79541015625
508, 612621036, -4.752993106842041, -2.0466079711914062, 8.15495491027832, 3.0275726318359375, 10.3015718460083, 7.835264205932617, 0.023193359375, 0.22021484375, -0.795654296875
509, 612637703, -4.769208908081055, -2.1115801334381104, 8.18999195098877, 3.8691165447235107, 16.624231338500977, 8.187474250793457, 0.02734375, 0.21875, -0.795654296875
510, 612654370, -4.642801761627197, -2.0143611431121826, 8.2533597946167, 1.8821858167648315, 25.413835525512695, 7.603615760803223, 0.03369140625, 0.21875, -0.794921875
511, 612671037, -4.108883380889893, -1.8347573280334473, 8.368477821350098, -2.3268797397613525, 44.42439270019531, 9.125815391540527, 0.044677734375, 0.21826171875, -0.795166015625
512, 612687704, -4.732025623321533, -1.7055397033691406, 8.2107572555542, -7.716057300567627, 64.483154296875, 8.89292049407959, 0.05810546875, 0.217529296875, -0.79345703125
513, 612704371, -4.865498065948486, -1.9400219917297363, 8.159076690673828, -12.097758293151855, 85.09225463867188, 7.405587673187256, 0.07470703125, 0.220947265625, -0.789794921875
514, 612721038, -5.0266547203063965, -2.049886465072632, 8.087957382202148, -12.28218936920166, 105.48870849609375, 7.3659491539001465, 0.0986328125, 0.222900390625, -0.7861328125
515, 612737705, -5.328036308288574, -2.0382375717163086, 7.893867492675781, -15.65142822265625, 125.97669219970703, 7.648715019226074, 0.1240234375, 0.22509765625, -0.783203125
516, 612754372, -5.554135322570801, -2.090090036392212, 7.765008449554443, -16.67901039123535, 146.3202362060547, 8.419544219970703, 0.1572265625, 0.228759765625, -0.77392578125
517, 612771039, -5.4465460777282715, -1.972834587097168, 7.78262996673584, -17.54355812072754, 172.76361083984375, 8.875290870666504, 0.196044921875, 0.232177734375, -0.7607421875
518, 612787706, -5.051467418670654, -2.3980891704559326, 7.97695255279541, -14.233270645141602, 211.56402587890625, 14.469400405883789, 0.237548828125, 0.2333984375, -0.747802734375
519, 612804373, -5.384798526763916, -2.1404824256896973, 7.920225143432617, -9.207514762878418, 260.934326171875, 25.14507484436035, 0.29443359375, 0.23291015625, -0.72802734375
520, 612821040, -6.103781700134277, -2.3048906326293945, 7.4603271484375, -2.882364511489868, 333.8445739746094, 28.5120906829834, 0.358154296875, 0.23095703125, -0.69677734375
521, 612837707, -6.979345321655273, -2.8896477222442627, 9.04207992553711, 0.9321594834327698, 417.7171630859375, 47.37326431274414, 0.43896484375, 0.22509765625, -0.6474609375
522, 612854374, -12.096055030822754, -2.500108480453491, 10.643758773803711, -13.416851043701172, 465.951416015625, 74.25531768798828, 0.5244140625, 0.214111328125, -0.577880859375
523, 612871041, -17.89378547668457, -2.789144277572632, 10.82114315032959, -38.194175720214844, 457.70538330078125, 79.215576171875, 0.600341796875, 0.205078125, -0.498291015625
524, 612887708, -17.27890968322754, -5.789258003234863, 9.985102653503418, -34.81407928466797, 429.1950988769531, 95.48881530761719, 0.663330078125, 0.19384765625, -0.40673828125
525, 612904375, -15.2799654006958, -5.686860084533691, 11.879669189453125, -25.635194778442383, 392.0453186035156, 112.32283782958984, 0.7119140625, 0.17236328125, -0.3203125
526, 612921042, -9.30930233001709, -4.849905014038086, 15.181252479553223, -22.715316772460938, 323.1222229003906, 99.88799285888672, 0.7451171875, 0.14892578125, -0.24365234375
527, 612937709, -15.537904739379883, -2.6698577404022217, 20.12017822265625, -66.11246490478516, 164.71604919433594, 98.99058532714844, 0.76171875, 0.130615234375, -0.18798828125
528, 612954376, -19.596172332763672, -3.265171527862549, 25.15828514099121, -62.46914291381836, -8.971196174621582, 97.46766662597656, 0.770751953125, 0.1025390625, -0.171630859375
529, 612971043, -3.818007230758667, -6.2439470291137695, 14.276496887207031, -49.0418815612793, -189.1329803466797, 51.23794174194336, 0.765869140625, 0.090087890625, -0.195556640625
530, 612987710, 0.3429214060306549, -5.709920406341553, 6.04336404800415, 21.32656478881836, -209.47691345214844, 93.9670181274414, 0.75830078125, 0.06494140625, -0.236328125
531, 613004377, -0.5566631555557251, -4.777717590332031, 5.407826900482178, 77.5535888671875, -195.37619018554688, 109.08650207519531, 0.7548828125, 0.02880859375, -0.270263671875
532, 613021044, -3.4779105186462402, -5.640738487243652, 8.255146980285645, 85.81664276123047, -226.89756774902344, 72.89379119873047, 0.7509765625, -0.001953125, -0.312744140625
533, 613037711, -4.96262264251709, -5.692127704620361, 8.219436645507812, 71.93029022216797, -272.6134948730469, 6.49880838394165, 0.744140625, -0.016357421875, -0.373046875
534, 613054378, -5.620736598968506, -5.923573970794678, 7.01075553894043, 58.28581619262695, -308.6410827636719, -50.73501205444336, 0.72265625, -0.0087890625, -0.453125
535, 613071045, -6.427267551422119, -4.078742027282715, 5.479261875152588, 55.63785934448242, -328.4853820800781, -83.12367248535156, 0.675048828125, 0.006103515625, -0.543212890625
536, 613087712, -6.407737731933594, -2.30759859085083, 5.171553134918213, 51.421226501464844, -329.044677734375, -85.20944213867188, 0.59716796875, 0.02001953125, -0.623046875
537, 613104379, -7.239740371704102, 0.10020230710506439, 6.909256935119629, 29.177772521972656, -322.154541015625, -71.73748779296875, 0.493896484375, 0.0244140625, -0.67431640625
538, 613121046, -10.436381340026855, -0.34449899196624756, 9.632977485656738, -11.871048927307129, -339.23004150390625, -58.797855377197266, 0.38720703125, 0.030029296875, -0.689208984375
539, 613137713, -11.133357048034668, -2.127624750137329, 9.070380210876465, -33.234779357910156, -372.6007995605469, -49.53653335571289, 0.29345703125, 0.025146484375, -0.681396484375
540, 613154380, -9.943632125854492, -2.225024700164795, 6.50079345703125, -44.73745346069336, -367.0384521484375, -44.487796783447266, 0.225341796875, 0.0126953125, -0.66064453125
541, 613171047, -10.820830345153809, -1.726235270500183, 6.190072059631348, -70.25113677978516, -313.636962890625, -53.02503204345703, 0.196044921875, -4.8828125E-4, -0.630615234375
542, 613187714, -13.669891357421875, -1.5942845344543457, 11.191597938537598, -92.08193969726562, -263.7864685058594, -67.33114624023438, 0.22216796875, -0.013427734375, -0.601806640625
543, 613204381, -17.953332901000977, -0.7278347015380859, 15.729963302612305, -103.1001205444336, -282.2015380859375, -73.70441436767578, 0.2998046875, -7.32421875E-4, -0.636962890625
544, 613221048, -17.637475967407227, 0.35246893763542175, 13.989864349365234, -89.690185546875, -312.1558532714844, -56.33938980102539, 0.347412109375, 0.04833984375, -0.75390625
545, 613237715, -18.46651268005371, 1.524735450744629, 11.747382164001465, -82.9222412109375, -312.42205810546875, -35.12350082397461, 0.30517578125, 0.12109375, -0.895751953125
546, 613254382, -20.796363830566406, 0.8612363934516907, 9.378080368041992, -91.75999450683594, -301.702392578125, -25.937091827392578, 0.17724609375, 0.197265625, -0.983642578125
547, 613271049, -20.512012481689453, 0.07562585175037384, 3.7655043601989746, -87.03986358642578, -273.54888916015625, -20.208093643188477, 0.034912109375, 0.25537109375, -1.00390625
548, 613287716, -19.24185562133789, 1.4187291860580444, -0.9432766437530518, -79.12653350830078, -212.80604553222656, -26.219308853149414, -0.075439453125, 0.297607421875, -0.988037109375
549, 613304383, -20.737794876098633, 4.455198764801025, -3.763362407684326, -93.11205291748047, -143.7648162841797, -39.42172622680664, -0.1533203125, 0.33251953125, -0.957763671875
550, 613321050, -21.670495986938477, 3.2841150760650635, -8.314515113830566, -77.91730499267578, -77.58208465576172, -37.08024215698242, -0.19677734375, 0.36376953125, -0.935791015625
551, 613337717, -21.464935302734375, 2.8656909465789795, -9.731731414794922, -26.02562713623047, -3.4629409313201904, -39.17628479003906, -0.217529296875, 0.380859375, -0.92431640625
552, 613354384, -19.72660255432129, 0.15846464037895203, -8.584697723388672, 25.651582717895508, 70.46004486083984, -50.493919372558594, -0.220947265625, 0.3837890625, -0.930419921875
553, 613371051, 2.9547407627105713, -4.068100929260254, 9.945454597473145, 127.46501922607422, 99.24683380126953, -19.070100784301758, -0.20166015625, 0.3623046875, -0.950927734375
554, 613387718, 7.355317115783691, -2.7371060848236084, 18.430084228515625, 10.265110969543457, 184.9811553955078, -31.398799896240234, -0.169189453125, 0.358642578125, -0.963134765625
555, 613404385, -6.336525917053223, 7.528796195983887, 7.476717948913574, -8.652503967285156, 206.55319213867188, -1.5000543594360352, -0.12109375, 0.37255859375, -0.9658203125
556, 613421052, -5.131673812866211, 14.317997932434082, 15.068960189819336, -14.436080932617188, 206.94424438476562, 41.49894332885742, -0.06494140625, 0.38525390625, -0.974365234375
557, 613437719, -10.311711311340332, -3.146117925643921, 13.593253135681152, -29.065908432006836, 155.1693572998047, 55.992244720458984, -0.01416015625, 0.40087890625, -0.973388671875
558, 613454386, -7.13494873046875, -12.99317455291748, 6.060894012451172, -12.85025691986084, 149.97476196289062, 35.56759262084961, 0.028564453125, 0.412353515625, -0.97412109375
559, 613471053, -7.749783039093018, -2.5222747325897217, 10.641722679138184, 25.42981719970703, 126.6497573852539, 44.92293930053711, 0.0693359375, 0.4140625, -0.976318359375
560, 613487720, -9.323175430297852, -2.1770896911621094, 11.77790641784668, 39.20099639892578, 97.85413360595703, 41.45285415649414, 0.103759765625, 0.406494140625, -0.9775390625
561, 613504387, -7.388367652893066, -4.123549461364746, 9.496794700622559, 75.87557983398438, 54.119361877441406, 36.22560119628906, 0.1259765625, 0.388427734375, -0.985107421875
562, 613521054, -6.232944011688232, -0.32474082708358765, 11.403607368469238, 61.15350341796875, 29.767553329467773, 23.677265167236328, 0.13916015625, 0.373046875, -0.98828125
563, 613537721, -5.95849609375, -2.858776569366455, 9.639789581298828, 41.7686882019043, 14.019097328186035, 16.455345153808594, 0.14501953125, 0.35888671875, -0.993896484375
564, 613554388, -5.034583568572998, -0.9503767490386963, 9.571146965026855, 24.121280670166016, 6.308354377746582, 12.249799728393555, 0.148193359375, 0.35205078125, -0.996337890625
565, 613571055, -4.64690637588501, -1.5154417753219604, 8.829020500183105, 7.818106174468994, 3.1449010372161865, 6.417642116546631, 0.149169921875, 0.347900390625, -0.996337890625
566, 613587722, -4.4746222496032715, -1.3827369213104248, 8.831878662109375, 5.481009483337402, 4.091072082519531, 4.295806884765625, 0.152587890625, 0.345458984375, -0.998779296875
567, 613604389, -4.581573486328125, -1.7267273664474487, 8.620068550109863, 2.5663866996765137, 5.083295822143555, 2.7701101303100586, 0.152099609375, 0.343505859375, -0.999267578125
568, 613621056, -4.637945652008057, -1.854468822479248, 8.494510650634766, 2.987433433532715, 3.752997398376465, 3.134488821029663, 0.154541015625, 0.345947265625, -0.996826171875
569, 613637723, -4.570760250091553, -1.7236886024475098, 8.433523178100586, 4.619654655456543, 1.0948598384857178, 4.393045902252197, 0.15673828125, 0.342041015625, -1.000732421875
570, 613654390, -4.492204189300537, -1.645404577255249, 8.401719093322754, 6.6595282554626465, -1.6984683275222778, 5.345148086547852, 0.15673828125, 0.341064453125, -1.000244140625
571, 613671057, -4.409060001373291, -1.5837092399597168, 8.565023422241211, 8.006912231445312, -3.721411943435669, 6.071768760681152, 0.15771484375, 0.339599609375, -0.999755859375
572, 613687724, -4.446310997009277, -1.62920343875885, 8.514275550842285, 7.599015712738037, -5.198099613189697, 6.383256912231445, 0.15673828125, 0.3359375, -1.002685546875
573, 613704391, -4.466365337371826, -1.4149675369262695, 8.505953788757324, 6.150897026062012, -4.090771675109863, 6.027713298797607, 0.154296875, 0.33349609375, -1.002197265625
574, 613721058, -4.4247236251831055, -1.3884273767471313, 8.499368667602539, 3.9183919429779053, -1.5739390850067139, 4.816258430480957, 0.154296875, 0.33447265625, -1.004150390625
575, 613737725, -4.481788158416748, -1.4294005632400513, 8.46313190460205, 2.9524319171905518, 0.3655984699726105, 3.7891597747802734, 0.15234375, 0.33203125, -1.003173828125
576, 613754392, -4.459799766540527, -1.5293612480163574, 8.449946403503418, 3.3887460231781006, 1.6914693117141724, 3.5094079971313477, 0.15576171875, 0.33154296875, -1.002685546875
577, 613771059, -4.364549160003662, -1.617882251739502, 8.474392890930176, 4.014681816101074, 2.072061061859131, 4.804155349731445, 0.15478515625, 0.331298828125, -1.002685546875
578, 613787726, -4.410516738891602, -1.6142998933792114, 8.456290245056152, 3.640596389770508, 2.6586179733276367, 6.306084632873535, 0.155517578125, 0.327880859375, -1.005615234375
579, 613804393, -4.4436821937561035, -1.4656938314437866, 8.526862144470215, 1.8161522150039673, 5.111175537109375, 7.657514572143555, 0.159912109375, 0.328369140625, -1.005126953125
580, 613821060, -4.344691753387451, -1.4187363386154175, 8.526864051818848, 1.0814647674560547, 9.68714427947998, 7.477278709411621, 0.164306640625, 0.327880859375, -1.00537109375
581, 613837727, -4.455643653869629, -1.4228843450546265, 8.577483177185059, -0.8873529434204102, 15.523174285888672, 6.840755462646484, 0.16796875, 0.328125, -1.00341796875
582, 613854394, -4.490528583526611, -1.3173338174819946, 8.558098793029785, -2.8748128414154053, 21.011369705200195, 7.308167457580566, 0.1748046875, 0.32568359375, -1.000732421875
583, 613871061, -4.414520740509033, -1.2040224075317383, 8.556924819946289, -6.434290885925293, 30.130943298339844, 6.012659549713135, 0.182373046875, 0.3310546875, -0.9990234375
584, 613887728, -3.951295852661133, -0.9442214965820312, 8.636527061462402, -13.896273612976074, 51.76408004760742, 5.414689064025879, 0.1962890625, 0.331787109375, -0.995361328125
585, 613904395, -4.353195667266846, -0.9677556753158569, 8.560338973999023, -21.80710220336914, 76.49833679199219, 3.8694162368774414, 0.216064453125, 0.33837890625, -0.989501953125
586, 613921062, -4.569053649902344, -1.1433898210525513, 8.331258773803711, -26.618322372436523, 103.17121887207031, 0.21836340427398682, 0.244873046875, 0.3447265625, -0.980224609375
587, 613937729, -4.8986992835998535, -1.2632352113723755, 8.207805633544922, -28.11033058166504, 129.32656860351562, -2.2183890342712402, 0.276123046875, 0.3564453125, -0.96875
588, 613954396, -5.366358280181885, -1.293394923210144, 8.085436820983887, -28.6774845123291, 152.2452850341797, -5.5973615646362305, 0.31640625, 0.3623046875, -0.951416015625
589, 613971063, -5.375600814819336, -1.4949253797531128, 8.119450569152832, -28.036598205566406, 172.87269592285156, -7.3834686279296875, 0.363037109375, 0.373291015625, -0.927978515625
590, 613987730, -5.317047119140625, -1.7022411823272705, 8.02910327911377, -26.349720001220703, 201.664306640625, -5.540643215179443, 0.413330078125, 0.380859375, -0.906494140625
591, 614004397, -5.140236854553223, -2.2389633655548096, 7.980643272399902, -19.550294876098633, 241.2826690673828, 3.1980795860290527, 0.47119140625, 0.3857421875, -0.874755859375
592, 614021064, -5.415317535400391, -2.5119450092315674, 7.46414852142334, -12.202662467956543, 292.12591552734375, 19.69474220275879, 0.541748046875, 0.388427734375, -0.8291015625
593, 614037731, -6.480167865753174, -2.55244779586792, 6.731964588165283, -5.010140419006348, 366.7074279785156, 34.99817657470703, 0.625, 0.386474609375, -0.7666015625
594, 614054398, -7.390793323516846, -3.393315315246582, 9.861154556274414, 3.381547212600708, 438.3332214355469, 66.0772705078125, 0.717041015625, 0.376953125, -0.6826171875
595, 614071065, -13.999506950378418, -2.3483147621154785, 9.95707893371582, -8.700380325317383, 466.6204833984375, 93.07181549072266, 0.81103515625, 0.35546875, -0.5771484375
596, 614087732, -18.4018497467041, -3.095026731491089, 10.724067687988281, -25.999828338623047, 447.5948181152344, 87.74787139892578, 0.885498046875, 0.333740234375, -0.45849609375
597, 614104399, -17.094926834106445, -5.323531150817871, 10.15329360961914, -12.773119926452637, 417.0186767578125, 105.37408447265625, 0.939697265625, 0.30615234375, -0.33984375
598, 614121066, -14.419837951660156, -5.773396968841553, 11.807121276855469, 7.020212173461914, 381.1670227050781, 120.1797103881836, 0.9736328125, 0.26904296875, -0.2294921875
599, 614137733, -9.299171447753906, -5.1785078048706055, 15.86623764038086, 14.607979774475098, 303.31585693359375, 109.40316009521484, 0.992919921875, 0.232666015625, -0.136474609375
600, 614154400, -17.388446807861328, -3.6266555786132812, 21.085853576660156, -3.0502395629882812, 137.31729125976562, 119.46000671386719, 0.99853515625, 0.196533203125, -0.08984375
601, 614171067, -18.741680145263672, -0.21246299147605896, 26.183698654174805, -49.99228286743164, -46.086143493652344, 87.05387878417969, 0.99462890625, 0.161376953125, -0.0927734375
602, 614187734, -3.9261038303375244, -5.605923175811768, 13.85865592956543, -95.40873718261719, -214.01890563964844, 12.954479217529297, 0.978759765625, 0.162353515625, -0.146240234375
603, 614204401, 0.6866553425788879, -6.377191066741943, 4.970384120941162, -30.989774703979492, -225.74435424804688, 49.21361541748047, 0.96337890625, 0.1572265625, -0.2158203125
604, 614221068, -0.12107232958078384, -5.847938537597656, 4.178606986999512, 56.90863800048828, -197.99566650390625, 74.9368896484375, 0.94677734375, 0.1416015625, -0.278564453125
605, 614237735, -2.995168924331665, -5.063761234283447, 7.57427978515625, 88.77837371826172, -219.5472869873047, 46.25802230834961, 0.924560546875, 0.12646484375, -0.34228515625
606, 614254402, -4.438934326171875, -4.19940185546875, 7.94024658203125, 79.8805160522461, -262.3560485839844, -14.231675148010254, 0.89501953125, 0.1259765625, -0.41650390625
607, 614271069, -4.759101867675781, -3.2063331604003906, 6.188422679901123, 66.5756607055664, -291.8095397949219, -54.89617919921875, 0.8544921875, 0.139892578125, -0.5029296875
608, 614287736, -5.982434272766113, -2.0266475677490234, 5.967061519622803, 48.03943634033203, -303.0284729003906, -65.95130920410156, 0.79150390625, 0.155029296875, -0.590087890625
609, 614304403, -7.596365928649902, -1.7108004093170166, 7.357429027557373, 28.798154830932617, -313.4272766113281, -72.02108001708984, 0.713623046875, 0.167724609375, -0.66943359375
610, 614321070, -8.807998657226562, -1.4911078214645386, 8.122763633728027, 21.8958683013916, -335.4433898925781, -66.91223907470703, 0.617919921875, 0.17041015625, -0.735595703125
611, 614337737, -10.358534812927246, -1.2873324155807495, 8.735404014587402, 10.6857328414917, -356.4659729003906, -53.361473083496094, 0.513427734375, 0.16455078125, -0.791015625
612, 614354404, -11.183979034423828, -1.4341070652008057, 8.5352144241333, -19.27532958984375, -373.400146484375, -52.94232940673828, 0.4072265625, 0.15966796875, -0.82470703125
613, 614371071, -10.332210540771484, -1.8999384641647339, 5.875726699829102, -43.47513961791992, -359.4453125, -55.688106536865234, 0.296142578125, 0.15673828125, -0.843505859375
614, 614387738, -10.756204605102539, -1.325055718421936, 5.675388336181641, -55.839324951171875, -298.5941162109375, -53.921287536621094, 0.200927734375, 0.154296875, -0.834228515625
615, 614404405, -14.948488235473633, -1.3351186513900757, 12.325393676757812, -78.59945678710938, -262.13458251953125, -62.359920501708984, 0.134521484375, 0.1533203125, -0.8095703125
616, 614421072, -17.718307495117188, -1.6289002895355225, 15.358508110046387, -90.4569320678711, -290.22528076171875, -72.80165100097656, 0.0810546875, 0.154296875, -0.79248046875
617, 614437739, -16.818180084228516, -0.12383668124675751, 13.501269340515137, -75.20133972167969, -315.9905700683594, -60.93340301513672, 0.0283203125, 0.15576171875, -0.78466796875
618, 614454406, -17.790220260620117, 1.901671051979065, 12.30218505859375, -79.50183868408203, -313.9689636230469, -42.224952697753906, -0.026123046875, 0.15966796875, -0.774169921875
619, 614471073, -20.134965896606445, 1.769763708114624, 9.878362655639648, -100.67986297607422, -305.0816345214844, -28.718473434448242, -0.07861328125, 0.171875, -0.768798828125
620, 614487740, -20.52597999572754, 0.7895915508270264, 5.091370582580566, -103.08436584472656, -276.79180908203125, -19.597309112548828, -0.12548828125, 0.18896484375, -0.762451171875
621, 614504407, -19.906238555908203, 1.5446544885635376, 0.630487322807312, -97.17898559570312, -224.68856811523438, -28.75739860534668, -0.17041015625, 0.205322265625, -0.75634765625
622, 614521074, -20.78648567199707, 4.867554664611816, -3.212472915649414, -101.47049713134766, -160.972412109375, -39.68074417114258, -0.205078125, 0.22265625, -0.753662109375
623, 614537741, -21.683879852294922, 4.659837245941162, -7.621728897094727, -83.4471206665039, -97.49567413330078, -33.73576354980469, -0.2294921875, 0.240478515625, -0.747802734375
624, 614554408, -21.089292526245117, 5.320833206176758, -9.178672790527344, -46.854881286621094, -24.60844612121582, -32.37868881225586, -0.240478515625, 0.248779296875, -0.74462890625
625, 614571075, -19.825958251953125, 3.8230955600738525, -7.221275806427002, -14.676259994506836, 44.00593948364258, -40.60489273071289, -0.236083984375, 0.25, -0.74609375
626, 614587742, -2.2054402828216553, -3.9580206871032715, 2.9881269931793213, 85.01152801513672, 70.72969055175781, -29.797636032104492, -0.2177734375, 0.234130859375, -0.762451171875
627, 614604409, 9.635479927062988, -6.06740665435791, 22.623353958129883, 27.15711784362793, 138.24684143066406, -5.385139465332031, -0.192138671875, 0.216064453125, -0.77734375
628, 614621076, 0.5472849011421204, -3.469231128692627, 3.6907832622528076, -25.009265899658203, 211.26844787597656, -16.510265350341797, -0.145263671875, 0.22314453125, -0.783203125
629, 614637743, -7.625844478607178, 13.669212341308594, 11.82091999053955, -20.377182006835938, 222.8526611328125, 12.970078468322754, -0.0869140625, 0.224609375, -0.798095703125
630, 614654410, -7.978344917297363, 5.6802191734313965, 15.910489082336426, -18.460371017456055, 187.80715942382812, 69.21765899658203, -0.03271484375, 0.22607421875, -0.80029296875
631, 614671077, -7.100852966308594, -11.526613235473633, 6.9247355461120605, -17.94247055053711, 169.61056518554688, 48.81938552856445, 0.0126953125, 0.22998046875, -0.802001953125
632, 614687744, -8.780348777770996, -7.621453285217285, 9.356212615966797, 6.638204097747803, 166.70896911621094, 42.22259521484375, 0.05859375, 0.23095703125, -0.802001953125
633, 614704411, -7.362983703613281, 0.6296447515487671, 10.820847511291504, 19.497926712036133, 138.75381469726562, 44.074745178222656, 0.1015625, 0.224365234375, -0.80126953125
634, 614721078, -12.298544883728027, -5.7295331954956055, 12.019822120666504, 57.545719146728516, 86.73313903808594, 35.641719818115234, 0.128662109375, 0.21142578125, -0.802001953125
635, 614737745, -6.877763748168945, -0.5191177129745483, 12.030908584594727, 61.221275329589844, 49.602779388427734, 22.958534240722656, 0.145263671875, 0.195068359375, -0.80322265625
636, 614754412, -6.015635013580322, -2.8330318927764893, 9.46574592590332, 47.62013244628906, 19.565786361694336, 15.714402198791504, 0.153564453125, 0.18212890625, -0.805419921875
637, 614771079, -4.816753387451172, -1.6146198511123657, 9.745113372802734, 20.655914306640625, 8.570279121398926, 12.243597030639648, 0.158203125, 0.174072265625, -0.80322265625
638, 614787746, -5.017752647399902, -1.8646531105041504, 8.720075607299805, 2.4168083667755127, 1.885664939880371, 8.299596786499023, 0.16015625, 0.173095703125, -0.806640625
639, 614804413, -4.8140764236450195, -2.017836570739746, 8.723212242126465, 5.075918674468994, 0.32530051469802856, 7.597873687744141, 0.16015625, 0.169921875, -0.80517578125
640, 614821080, -4.792448997497559, -1.8123056888580322, 8.605535507202148, 5.057862281799316, 0.7337079048156738, 6.137834548950195, 0.1611328125, 0.170654296875, -0.80859375
641, 614837747, -4.793971538543701, -1.8726783990859985, 8.463189125061035, 4.863166809082031, 2.6045618057250977, 4.089522361755371, 0.162841796875, 0.16796875, -0.8076171875
642, 614854414, -4.598885536193848, -1.9139660596847534, 8.429695129394531, 4.161129474639893, 3.655670642852783, 3.152940034866333, 0.163818359375, 0.16796875, -0.80517578125
643, 614871081, -4.6159844398498535, -1.7982641458511353, 8.366790771484375, 2.9471445083618164, 3.791736364364624, 3.1219894886016846, 0.163330078125, 0.16796875, -0.80517578125
644, 614887748, -4.666118144989014, -1.7120295763015747, 8.40399169921875, 1.0903775691986084, 4.870965957641602, 1.6624884605407715, 0.165771484375, 0.1650390625, -0.805908203125
645, 614904415, -4.643853664398193, -1.9104872941970825, 8.371854782104492, -2.05224347114563, 6.073060035705566, -0.4269125461578369, 0.169677734375, 0.166015625, -0.808349609375
646, 614921082, -4.588724136352539, -1.9435385465621948, 8.31087875366211, -2.4645309448242188, 6.295889854431152, -0.5806911587715149, 0.169677734375, 0.1669921875, -0.806884765625
647, 614937749, -4.652371406555176, -1.9498019218444824, 8.312777519226074, -2.6828155517578125, 7.8977742195129395, -0.15972082316875458, 0.173583984375, 0.168212890625, -0.805419921875
648, 614954416, -4.686770915985107, -1.883345603942871, 8.286365509033203, -2.377281904220581, 8.299227714538574, 0.4507260024547577, 0.174560546875, 0.168701171875, -0.803466796875
649, 614971083, -4.704395294189453, -1.908236026763916, 8.276579856872559, -1.7730778455734253, 7.700286388397217, 0.4430164694786072, 0.17724609375, 0.167236328125, -0.8056640625
650, 614987750, -4.669471740722656, -1.988929271697998, 8.283803939819336, -1.0411179065704346, 8.035262107849121, 1.026909351348877, 0.1796875, 0.166259765625, -0.80224609375
651, 615004417, -4.690053939819336, -1.987699031829834, 8.242860794067383, -0.19821669161319733, 8.513655662536621, 2.1292033195495605, 0.18115234375, 0.168701171875, -0.806640625
652, 615021084, -4.69961404800415, -2.0256338119506836, 8.25160026550293, 1.1663963794708252, 8.635778427124023, 3.416203737258911, 0.18212890625, 0.167724609375, -0.8037109375
653, 615037751, -4.655985355377197, -1.9779456853866577, 8.264171600341797, 2.6436092853546143, 10.188434600830078, 4.474674224853516, 0.18408203125, 0.166259765625, -0.802734375
654, 615054418, -4.70594596862793, -1.8751534223556519, 8.266091346740723, 3.3614330291748047, 14.432405471801758, 4.437410354614258, 0.190185546875, 0.165771484375, -0.802978515625
655, 615071085, -4.795643329620361, -1.6770461797714233, 8.268799781799316, 4.2249674797058105, 19.64051628112793, 2.665139675140381, 0.192138671875, 0.164306640625, -0.800048828125
656, 615087752, -4.531825065612793, -1.5964195728302002, 8.33935546875, -0.861869752407074, 27.27692413330078, 2.266300916671753, 0.19873046875, 0.163330078125, -0.7998046875
