sep=,
DeviceTag:,B,,,,,,,,,,,,,,,,,
FirmwareVersion:,2.2.1,,,,,,,,,,,,,,,,,
AppVersion:,2022.0.1,,,,,,,,,,,,,,,,,
SyncStatus:,Synced,,,,,,,,,,,,,,,,,
OutputRate:,60Hz,,,,,,,,,,,,,,,,,
FilterProfile:,General,,,,,,,,,,,,,,,,,
Measurement Mode:,Inertial Mode - Rate quantities (with mag),,,,,,,,,,,,,,,,,
StartTime:,2022-08-05 15:30:56.966 +0300,,,,,,,,,,,,,,,,,
© Xsens Technologies B. V. 2005-2022,,,,,,,,,,,,,,,,,,,

PacketCounter,SampleTimeFine,Acc_X,Acc_Y,Acc_Z,Gyr_X,Gyr_Y,Gyr_Z,Mag_X,Mag_Y,Mag_Z
1, 3198987494, -4.6417236328125, -1.634020209312439, 8.33443832397461, 0.4442842900753021, -0.6893529891967773, -0.7352253198623657, -0.026611328125, 0.15478515625, -0.82177734375
2, 3199004161, -4.633185386657715, -1.6213676929473877, 8.296464920043945, 0.6641181111335754, -0.7121099233627319, -0.6664424538612366, -0.029052734375, 0.15576171875, -0.8203125
3, 3199020828, -4.63959264755249, -1.6469531059265137, 8.358180046081543, 0.7441002130508423, -0.6856135725975037, -0.5839567184448242, -0.027587890625, 0.154296875, -0.81689453125
4, 3199037495, -4.633594989776611, -1.6285216808319092, 8.343788146972656, 0.614736795425415, -0.6475787162780762, -0.6354126334190369, -0.028076171875, 0.15283203125, -0.8154296875
5, 3199054162, -4.626257419586182, -1.6432185173034668, 8.339634895324707, 0.6155436038970947, -0.6511515974998474, -0.6339143514633179, -0.028564453125, 0.15478515625, -0.818359375
6, 3199070829, -4.640665054321289, -1.6160331964492798, 8.372175216674805, 0.302831768989563, -0.6199681758880615, -0.6972672939300537, -0.026123046875, 0.15380859375, -0.818359375
7, 3199087496, -4.637504577636719, -1.6279568672180176, 8.361502647399902, 0.19667990505695343, -0.6000798940658569, -0.7455856204032898, -0.027587890625, 0.154296875, -0.8193359375
8, 3199104163, -4.637977600097656, -1.6181377172470093, 8.347505569458008, -0.005174075718969107, -0.6673404574394226, -0.822882890701294, -0.026611328125, 0.15478515625, -0.818359375
9, 3199120830, -4.645489692687988, -1.6255851984024048, 8.340282440185547, -0.024690641090273857, -0.5349852442741394, -0.8964059948921204, -0.025634765625, 0.154296875, -0.81787109375
10, 3199137497, -4.63590145111084, -1.6341288089752197, 8.35371208190918, 0.021892456337809563, -0.6742927432060242, -0.8782849907875061, -0.026123046875, 0.15380859375, -0.81982421875
11, 3199154164, -4.636561870574951, -1.623223066329956, 8.348902702331543, -0.07371333986520767, -0.5467542409896851, -0.8816403150558472, -0.027099609375, 0.15234375, -0.81982421875
12, 3199170831, -4.634335994720459, -1.6174869537353516, 8.344502449035645, -0.19740988314151764, -0.5563718676567078, -0.8890039324760437, -0.026123046875, 0.154296875, -0.8203125
13, 3199187498, -4.636562347412109, -1.6248059272766113, 8.320432662963867, -0.08256253600120544, -0.5442698001861572, -0.9147575497627258, -0.028076171875, 0.15478515625, -0.81884765625
14, 3199204165, -4.62423849105835, -1.6254132986068726, 8.32532787322998, -0.11902221292257309, -0.6048566699028015, -0.9354013800621033, -0.026611328125, 0.154296875, -0.8193359375
15, 3199220832, -4.6391682624816895, -1.6271811723709106, 8.333684921264648, -0.008887605741620064, -0.6655203700065613, -0.9185097813606262, -0.027587890625, 0.15234375, -0.8203125
16, 3199237499, -4.644229412078857, -1.6223459243774414, 8.35055923461914, 0.005513133946806192, -0.6862025856971741, -0.9194574356079102, -0.027587890625, 0.1533203125, -0.8212890625
17, 3199254166, -4.6307902336120605, -1.6190671920776367, 8.339371681213379, -0.05637354776263237, -0.6414572596549988, -0.8897467255592346, -0.027099609375, 0.1533203125, -0.81689453125
18, 3199270833, -4.63701868057251, -1.62398362159729, 8.328824043273926, -0.12323550134897232, -0.6398565173149109, -0.933249831199646, -0.026611328125, 0.15380859375, -0.81787109375
19, 3199287500, -4.641366958618164, -1.6135176420211792, 8.352880477905273, 0.04235699772834778, -0.6244247555732727, -0.9720019102096558, -0.029541015625, 0.15283203125, -0.8173828125
20, 3199304167, -4.633643627166748, -1.6118652820587158, 8.35248851776123, -0.0962909460067749, -0.5041475296020508, -1.0134303569793701, -0.026611328125, 0.15380859375, -0.8193359375
21, 3199320834, -4.630428314208984, -1.6278820037841797, 8.340911865234375, -0.05452943593263626, -0.5281081795692444, -0.9694022536277771, -0.026123046875, 0.15283203125, -0.8193359375
22, 3199337501, -4.631533145904541, -1.6302266120910645, 8.34398078918457, -0.015073074027895927, -0.6310456395149231, -0.8892216682434082, -0.027587890625, 0.1533203125, -0.818359375
23, 3199354168, -4.633884906768799, -1.608869194984436, 8.346053123474121, -0.009297408163547516, -0.5147768259048462, -0.8773629665374756, -0.024658203125, 0.15478515625, -0.82080078125
24, 3199370835, -4.619356632232666, -1.6214872598648071, 8.33695125579834, 0.023006606847047806, -0.4495925009250641, -0.9119912981987, -0.029541015625, 0.15380859375, -0.81982421875
25, 3199387502, -4.6226301193237305, -1.624353289604187, 8.347805976867676, 0.03562086075544357, -0.37450888752937317, -0.8309783935546875, -0.027587890625, 0.15380859375, -0.82177734375
26, 3199404169, -4.636521816253662, -1.6079630851745605, 8.35109806060791, 0.09523440897464752, -0.37934964895248413, -0.8586657047271729, -0.024658203125, 0.1533203125, -0.81640625
27, 3199420836, -4.64030122756958, -1.628745198249817, 8.344730377197266, 0.04526404291391373, -0.416065514087677, -0.8604971170425415, -0.026611328125, 0.15185546875, -0.81982421875
28, 3199437503, -4.642523288726807, -1.6214858293533325, 8.334220886230469, -0.03603706508874893, -0.29463568329811096, -0.8556562066078186, -0.025146484375, 0.15185546875, -0.81982421875
29, 3199454170, -4.632725238800049, -1.6042840480804443, 8.335955619812012, -0.024434516206383705, -0.4520513713359833, -0.8641597628593445, -0.027099609375, 0.15283203125, -0.818359375
30, 3199470837, -4.63114070892334, -1.61601722240448, 8.308752059936523, 0.077881820499897, -0.4389120042324066, -0.8649793267250061, -0.028076171875, 0.15283203125, -0.8212890625
31, 3199487504, -4.617992401123047, -1.598024845123291, 8.332327842712402, 0.07384782284498215, -0.34949812293052673, -0.768739640712738, -0.029052734375, 0.1552734375, -0.8212890625
32, 3199504171, -4.644545078277588, -1.6039901971817017, 8.356436729431152, 0.10895001888275146, -0.3992379307746887, -0.8439896106719971, -0.026611328125, 0.154296875, -0.8193359375
33, 3199520838, -4.654787540435791, -1.6117825508117676, 8.357269287109375, 0.136317178606987, -0.5604187250137329, -0.8630455732345581, -0.024658203125, 0.15185546875, -0.8193359375
34, 3199537505, -4.64387845993042, -1.6072112321853638, 8.35404109954834, 0.0012486190535128117, -0.5481502413749695, -0.8751347064971924, -0.027587890625, 0.14990234375, -0.81689453125
35, 3199554172, -4.642819404602051, -1.6017237901687622, 8.3493070602417, 0.058749131858348846, -0.5137524008750916, -0.9216089844703674, -0.025634765625, 0.15087890625, -0.82080078125
36, 3199570839, -4.641977310180664, -1.6049344539642334, 8.352385520935059, 0.15354812145233154, -0.5262192487716675, -0.8485167026519775, -0.028076171875, 0.15380859375, -0.81884765625
37, 3199587506, -4.6405463218688965, -1.6021233797073364, 8.344367027282715, 0.09730903804302216, -0.49096980690956116, -0.856680691242218, -0.026611328125, 0.15087890625, -0.81787109375
38, 3199604173, -4.643595218658447, -1.588031530380249, 8.355217933654785, -0.07982198894023895, -0.4878450930118561, -0.9662903547286987, -0.024658203125, 0.15283203125, -0.82080078125
39, 3199620840, -4.649886131286621, -1.6221249103546143, 8.333723068237305, -0.05427330732345581, -0.46670177578926086, -0.8878641724586487, -0.02490234375, 0.150390625, -0.8193359375
40, 3199637507, -4.637660980224609, -1.606345534324646, 8.346006393432617, -0.05185290798544884, -0.5852245688438416, -0.8418125510215759, -0.025634765625, 0.15087890625, -0.815673828125
41, 3199654174, -4.641109943389893, -1.5981876850128174, 8.371588706970215, -0.11890126764774323, -0.555329442024231, -0.861112117767334, -0.027587890625, 0.15185546875, -0.81689453125
42, 3199670841, -4.654046535491943, -1.5980807542800903, 8.343442916870117, -0.3095550835132599, -0.4422800838947296, -0.9644590020179749, -0.029052734375, 0.1533203125, -0.818359375
43, 3199687508, -4.647768974304199, -1.6131114959716797, 8.34996509552002, -0.28390395641326904, -0.5334356427192688, -0.8844577074050903, -0.026123046875, 0.15185546875, -0.8203125
44, 3199704175, -4.6324567794799805, -1.609449028968811, 8.326900482177734, -0.3059949278831482, -0.536983072757721, -0.9759719371795654, -0.025634765625, 0.15185546875, -0.81884765625
45, 3199720842, -4.645656585693359, -1.6113042831420898, 8.345239639282227, -0.41457998752593994, -0.583611011505127, -1.047597885131836, -0.027099609375, 0.1513671875, -0.81982421875
46, 3199737509, -4.645203113555908, -1.6066298484802246, 8.335209846496582, -0.41669297218322754, -0.6946291327476501, -1.15027916431427, -0.026123046875, 0.15234375, -0.8193359375
47, 3199754176, -4.640089511871338, -1.6227174997329712, 8.351569175720215, -0.6301748752593994, -0.6248218417167664, -1.1522384881973267, -0.027099609375, 0.15380859375, -0.8193359375
48, 3199770843, -4.632784843444824, -1.6174569129943848, 8.363861083984375, -0.639164924621582, -0.6688628792762756, -1.1754052639007568, -0.027587890625, 0.15234375, -0.81884765625
49, 3199787510, -4.633352756500244, -1.6104048490524292, 8.3633451461792, -0.686497151851654, -0.6016806960105896, -1.2839901447296143, -0.027587890625, 0.1533203125, -0.81884765625
50, 3199804177, -4.6337890625, -1.6246031522750854, 8.363773345947266, -0.8364978432655334, -0.6613327264785767, -1.211006760597229, -0.025634765625, 0.1513671875, -0.81640625
51, 3199820844, -4.627854347229004, -1.6243823766708374, 8.333897590637207, -0.9759975671768188, -0.5883494019508362, -1.1215544939041138, -0.028564453125, 0.1533203125, -0.81640625
52, 3199837511, -4.6410417556762695, -1.6086509227752686, 8.339215278625488, -0.7650129199028015, -0.5149048566818237, -1.0766682624816895, -0.028564453125, 0.1513671875, -0.81640625
53, 3199854178, -4.645371437072754, -1.6150306463241577, 8.340036392211914, -0.7084600925445557, -0.510525107383728, -1.1213366985321045, -0.025634765625, 0.1533203125, -0.81787109375
54, 3199870845, -4.643045425415039, -1.6041780710220337, 8.333783149719238, -0.5282618999481201, -0.5264818072319031, -1.0950709581375122, -0.028076171875, 0.15380859375, -0.8193359375
55, 3199887512, -4.635198593139648, -1.611503005027771, 8.322152137756348, -0.3470776677131653, -0.5169026851654053, -0.9912754893302917, -0.030029296875, 0.15234375, -0.81689453125
56, 3199904179, -4.643993377685547, -1.6263256072998047, 8.322429656982422, -0.15466226637363434, -0.5497381091117859, -0.8758134245872498, -0.026123046875, 0.15380859375, -0.81884765625
57, 3199920846, -4.639408111572266, -1.6329425573349, 8.333767890930176, -0.06674668192863464, -0.5511340498924255, -0.7997437119483948, -0.025634765625, 0.15234375, -0.81982421875
58, 3199937513, -4.657968997955322, -1.6233240365982056, 8.342470169067383, 0.13002927601337433, -0.5131632685661316, -0.7822118997573853, -0.026611328125, 0.1513671875, -0.81787109375
59, 3199954180, -4.658680438995361, -1.617153525352478, 8.346081733703613, 0.18653088808059692, -0.5211671590805054, -0.7522705793380737, -0.025634765625, 0.15234375, -0.81787109375
60, 3199970847, -4.653934955596924, -1.615921974182129, 8.333219528198242, 0.2120155245065689, -0.5457938313484192, -0.7828906178474426, -0.027587890625, 0.15283203125, -0.81689453125
61, 3199987514, -4.651307106018066, -1.5995211601257324, 8.324227333068848, 0.15904845297336578, -0.5671420693397522, -0.7852725386619568, -0.026611328125, 0.15283203125, -0.81982421875
62, 3200004181, -4.637942314147949, -1.610470175743103, 8.330657958984375, 0.1411067545413971, -0.5525298714637756, -0.7863098382949829, -0.026611328125, 0.154296875, -0.81884765625
63, 3200020848, -4.650190830230713, -1.6092395782470703, 8.343746185302734, -0.011756230145692825, -0.5329362750053406, -0.8219884037971497, -0.029052734375, 0.1533203125, -0.818359375
64, 3200037515, -4.6348090171813965, -1.6128968000411987, 8.36036491394043, 0.06416621059179306, -0.5159934163093567, -0.8319773077964783, -0.027099609375, 0.15283203125, -0.8193359375
65, 3200054182, -4.654533386230469, -1.6014268398284912, 8.338773727416992, 0.11288156360387802, -0.48168522119522095, -0.8297745585441589, -0.028564453125, 0.15087890625, -0.8193359375
66, 3200070849, -4.640044689178467, -1.6128613948822021, 8.340855598449707, 0.14710015058517456, -0.5338454842567444, -0.8123323917388916, -0.026611328125, 0.15234375, -0.8173828125
67, 3200087516, -4.644440174102783, -1.6028141975402832, 8.352046966552734, -0.02805871143937111, -0.5596886277198792, -0.8248440623283386, -0.024169921875, 0.1533203125, -0.8193359375
68, 3200104183, -4.657891273498535, -1.5892889499664307, 8.351673126220703, -0.10439736396074295, -0.5223581790924072, -0.9375272393226624, -0.027587890625, 0.1533203125, -0.818359375
69, 3200120850, -4.644293785095215, -1.620192527770996, 8.34032917022705, 0.0836830884218216, -0.6707326173782349, -0.8830490112304688, -0.025146484375, 0.154296875, -0.818359375
70, 3200137517, -4.656469821929932, -1.6269845962524414, 8.344513893127441, 0.20101484656333923, -0.6207749247550964, -0.8369205594062805, -0.0234375, 0.1494140625, -0.817138671875
71, 3200154184, -4.6605610847473145, -1.608546495437622, 8.345319747924805, 0.07742077857255936, -0.5651442408561707, -0.9182024002075195, -0.025634765625, 0.1533203125, -0.82177734375
72, 3200170851, -4.6459784507751465, -1.589345097541809, 8.336023330688477, -0.04191518574953079, -0.5748514533042908, -0.9745504856109619, -0.028076171875, 0.1533203125, -0.82080078125
73, 3200187518, -4.6394362449646, -1.6091599464416504, 8.322216987609863, -0.1115945428609848, -0.5417086482048035, -0.827610433101654, -0.028564453125, 0.15185546875, -0.81982421875
74, 3200204185, -4.632888317108154, -1.6014187335968018, 8.339095115661621, -0.1564551591873169, -0.5630439519882202, -0.9434053897857666, -0.026123046875, 0.1533203125, -0.81787109375
75, 3200220852, -4.664988040924072, -1.5988582372665405, 8.352294921875, -0.1739078313112259, -0.6520487666130066, -0.9620705842971802, -0.02490234375, 0.15087890625, -0.82080078125
76, 3200237519, -4.642972469329834, -1.6022151708602905, 8.359113693237305, -0.21713164448738098, -0.5727255344390869, -1.0533350706100464, -0.025634765625, 0.15185546875, -0.81689453125
77, 3200254186, -4.633144855499268, -1.6060839891433716, 8.3499174118042, -0.19067373871803284, -0.5925881862640381, -0.9804157018661499, -0.027099609375, 0.15185546875, -0.81787109375
78, 3200270853, -4.648072719573975, -1.594913363456726, 8.347575187683105, -0.12744878232479095, -0.5924728512763977, -0.9773805737495422, -0.028076171875, 0.15087890625, -0.81982421875
79, 3200287520, -4.6326375007629395, -1.6014736890792847, 8.323914527893066, -0.12664197385311127, -0.5917301774024963, -0.9502695202827454, -0.028076171875, 0.15185546875, -0.82275390625
80, 3200304187, -4.633185863494873, -1.5975419282913208, 8.327566146850586, -0.24493427574634552, -0.563095211982727, -0.9031422734260559, -0.026611328125, 0.15087890625, -0.822265625
81, 3200320854, -4.644126892089844, -1.6120307445526123, 8.355799674987793, -0.2520289421081543, -0.5823943614959717, -1.011176586151123, -0.026123046875, 0.15185546875, -0.81982421875
82, 3200337521, -4.6390252113342285, -1.5942262411117554, 8.3412504196167, -0.2580735385417938, -0.45426681637763977, -1.0181047916412354, -0.02490234375, 0.15087890625, -0.8173828125
83, 3200354188, -4.638979434967041, -1.609256386756897, 8.350534439086914, -0.25228506326675415, -0.497936487197876, -0.9761895537376404, -0.028564453125, 0.1513671875, -0.8193359375
84, 3200370855, -4.658897399902344, -1.611079216003418, 8.329389572143555, -0.17324431240558624, -0.5198609828948975, -0.9646382927894592, -0.026611328125, 0.15185546875, -0.81787109375
85, 3200387522, -4.649563312530518, -1.5938422679901123, 8.360596656799316, -0.2027757316827774, -0.6797354221343994, -0.988547682762146, -0.026611328125, 0.15185546875, -0.82080078125
86, 3200404189, -4.6394124031066895, -1.5959837436676025, 8.321894645690918, -0.18063358962535858, -0.6280490756034851, -0.9771629571914673, -0.029541015625, 0.154296875, -0.81787109375
87, 3200420856, -4.648196220397949, -1.5988478660583496, 8.343535423278809, -0.15517455339431763, -0.6280362010002136, -0.9727062582969666, -0.026611328125, 0.15380859375, -0.81640625
88, 3200437523, -4.641672611236572, -1.6026681661605835, 8.353930473327637, -0.22983555495738983, -0.5775407552719116, -0.9124139547348022, -0.026123046875, 0.150390625, -0.81787109375
89, 3200454190, -4.649555683135986, -1.6028416156768799, 8.338601112365723, -0.3137299716472626, -0.5236901044845581, -0.9545853137969971, -0.029052734375, 0.1513671875, -0.8173828125
90, 3200470857, -4.63258171081543, -1.6054173707962036, 8.332033157348633, -0.27892228960990906, -0.510025680065155, -0.947797954082489, -0.027587890625, 0.15380859375, -0.82080078125
91, 3200487524, -4.636823654174805, -1.6027381420135498, 8.357894897460938, -0.31776392459869385, -0.47218286991119385, -1.0026346445083618, -0.026123046875, 0.15234375, -0.818359375
92, 3200504191, -4.655073165893555, -1.6025876998901367, 8.357234954833984, -0.3586162328720093, -0.5704845190048218, -1.0553970336914062, -0.028564453125, 0.150390625, -0.81884765625
93, 3200520858, -4.6585869789123535, -1.603963017463684, 8.343921661376953, -0.3604218661785126, -0.6038962006568909, -1.068343997001648, -0.029541015625, 0.150390625, -0.8193359375
94, 3200537525, -4.6442484855651855, -1.6078723669052124, 8.345428466796875, -0.3707694709300995, -0.6254749298095703, -0.9921335577964783, -0.027099609375, 0.1494140625, -0.81787109375
95, 3200554192, -4.64605712890625, -1.6055996417999268, 8.335993766784668, -0.4085354208946228, -0.7069617509841919, -0.9928507208824158, -0.027587890625, 0.15234375, -0.8173828125
96, 3200570859, -4.652169704437256, -1.6024645566940308, 8.349408149719238, -0.2705085575580597, -0.6159853935241699, -1.0205892324447632, -0.027587890625, 0.15234375, -0.8193359375
97, 3200587526, -4.658404350280762, -1.5920608043670654, 8.331537246704102, -0.3157789707183838, -0.7069873213768005, -1.0302324295043945, -0.025634765625, 0.15234375, -0.8173828125
98, 3200604193, -4.625748634338379, -1.6037611961364746, 8.331392288208008, -0.3035617172718048, -0.6329795122146606, -1.0240470170974731, -0.0244140625, 0.1513671875, -0.818359375
99, 3200620860, -4.629649639129639, -1.6084246635437012, 8.331571578979492, -0.23605945706367493, -0.6099921464920044, -1.024354338645935, -0.028076171875, 0.15234375, -0.818359375
100, 3200637527, -4.653390407562256, -1.6116548776626587, 8.350172996520996, -0.13613149523735046, -0.6525859832763672, -1.0099215507507324, -0.026123046875, 0.15087890625, -0.8173828125
101, 3200654194, -4.638597011566162, -1.6085069179534912, 8.348509788513184, -0.2652066946029663, -0.7472504377365112, -0.9845777750015259, -0.026611328125, 0.15234375, -0.81787109375
102, 3200670861, -4.642935276031494, -1.5990475416183472, 8.358785629272461, -0.2287854552268982, -0.6860490441322327, -0.9829513430595398, -0.027587890625, 0.15185546875, -0.8203125
103, 3200687528, -4.649008750915527, -1.6118723154067993, 8.340097427368164, -0.18167085945606232, -0.5785012245178223, -0.9840142726898193, -0.025146484375, 0.1533203125, -0.8203125
104, 3200704195, -4.6327900886535645, -1.6031146049499512, 8.369929313659668, -0.2878483533859253, -0.6335686445236206, -0.9403190612792969, -0.026123046875, 0.1533203125, -0.81884765625
105, 3200720862, -4.631263732910156, -1.6313426494598389, 8.332066535949707, -0.18830455839633942, -0.5970960855484009, -0.9417789578437805, -0.025634765625, 0.15478515625, -0.8203125
106, 3200737529, -4.637665748596191, -1.6036431789398193, 8.349313735961914, -0.1619747132062912, -0.510038435459137, -0.9288316965103149, -0.024658203125, 0.15283203125, -0.8212890625
107, 3200754196, -4.638615131378174, -1.6111409664154053, 8.330731391906738, -0.1397428810596466, -0.48991966247558594, -0.8718690872192383, -0.026611328125, 0.15185546875, -0.818359375
108, 3200770863, -4.639181613922119, -1.5933917760849, 8.324016571044922, -0.14797343313694, -0.5385777354240417, -0.9560640454292297, -0.026123046875, 0.15185546875, -0.8203125
109, 3200787530, -4.651434898376465, -1.598750114440918, 8.329996109008789, -0.23815970122814178, -0.5247145891189575, -0.9811584949493408, -0.025634765625, 0.15380859375, -0.8212890625
110, 3200804197, -4.645659923553467, -1.6105610132217407, 8.350942611694336, -0.19886979460716248, -0.5837391018867493, -0.9639211297035217, -0.027099609375, 0.15185546875, -0.81884765625
111, 3200820864, -4.648775577545166, -1.5932974815368652, 8.358026504516602, -0.10868749022483826, -0.6023722887039185, -0.9762791991233826, -0.025146484375, 0.15234375, -0.82080078125
112, 3200837531, -4.641311168670654, -1.6063568592071533, 8.345542907714844, -0.2166450172662735, -0.6292656064033508, -0.9500260949134827, -0.025634765625, 0.1513671875, -0.82080078125
113, 3200854198, -4.631455421447754, -1.6025214195251465, 8.331828117370605, -0.17047812044620514, -0.6358991861343384, -0.9567879438400269, -0.027099609375, 0.15185546875, -0.81982421875
114, 3200870865, -4.640742301940918, -1.6125035285949707, 8.3492431640625, -0.17335957288742065, -0.6314683556556702, -1.034522533416748, -0.026123046875, 0.15185546875, -0.818359375
115, 3200887532, -4.630396366119385, -1.6017329692840576, 8.333831787109375, -0.22567348182201385, -0.6071361899375916, -1.0164655447006226, -0.025634765625, 0.15283203125, -0.82080078125
116, 3200904199, -4.641817092895508, -1.6035258769989014, 8.344204902648926, -0.3280218541622162, -0.6739981770515442, -1.008038878440857, -0.027587890625, 0.15185546875, -0.818359375
117, 3200920866, -4.638485431671143, -1.6150269508361816, 8.36813735961914, -0.19352956116199493, -0.6784675717353821, -0.9856791496276855, -0.028076171875, 0.1533203125, -0.8203125
118, 3200937533, -4.637679100036621, -1.596877098083496, 8.343771934509277, -0.29746586084365845, -0.6144357919692993, -0.9659571647644043, -0.025634765625, 0.15087890625, -0.8173828125
119, 3200954200, -4.649232387542725, -1.5962119102478027, 8.346561431884766, -0.4224686622619629, -0.5387631058692932, -1.090819239616394, -0.027099609375, 0.15185546875, -0.81982421875
120, 3200970867, -4.650033473968506, -1.5796159505844116, 8.325440406799316, -0.5034816265106201, -0.6054201126098633, -1.046970248222351, -0.027587890625, 0.1513671875, -0.81982421875
121, 3200987534, -4.63991641998291, -1.590879201889038, 8.327534675598145, -0.5247274041175842, -0.5516207814216614, -1.133528470993042, -0.026611328125, 0.1552734375, -0.81884765625
122, 3201004201, -4.6491570472717285, -1.6077498197555542, 8.338018417358398, -0.4537929594516754, -0.5338838696479797, -1.1188009977340698, -0.025634765625, 0.15234375, -0.81982421875
123, 3201020868, -4.645401477813721, -1.5979726314544678, 8.346063613891602, -0.42529886960983276, -0.481672465801239, -1.0972096920013428, -0.026123046875, 0.15185546875, -0.81787109375
124, 3201037535, -4.647517204284668, -1.6064701080322266, 8.346213340759277, -0.4332900643348694, -0.4763577878475189, -1.1211061477661133, -0.025634765625, 0.150390625, -0.8173828125
125, 3201054202, -4.636281490325928, -1.6064714193344116, 8.349272727966309, -0.5500454902648926, -0.5610846281051636, -1.1897097826004028, -0.027099609375, 0.15283203125, -0.8173828125
126, 3201070869, -4.636277675628662, -1.611685037612915, 8.345383644104004, -0.37694209814071655, -0.5856215953826904, -1.0802797079086304, -0.027099609375, 0.15185546875, -0.81787109375
127, 3201087536, -4.637815475463867, -1.6338270902633667, 8.335769653320312, -0.4379643201828003, -0.6024107336997986, -1.000854730606079, -0.028564453125, 0.1533203125, -0.81787109375
128, 3201104203, -4.6407999992370605, -1.6090141534805298, 8.33593463897705, -0.38498446345329285, -0.5250090956687927, -0.9914932250976562, -0.025146484375, 0.15283203125, -0.818359375
129, 3201120870, -4.638420581817627, -1.6098147630691528, 8.347115516662598, -0.4198690354824066, -0.5145078897476196, -1.05475652217865, -0.027587890625, 0.15234375, -0.81982421875
130, 3201137537, -4.640719890594482, -1.6193488836288452, 8.338857650756836, -0.3173925578594208, -0.5639276504516602, -1.109273076057434, -0.026123046875, 0.1533203125, -0.81982421875
131, 3201154204, -4.644133567810059, -1.6082452535629272, 8.344639778137207, -0.21713164448738098, -0.5617249011993408, -1.0075396299362183, -0.026123046875, 0.15234375, -0.81982421875
132, 3201170871, -4.654826641082764, -1.6172826290130615, 8.341103553771973, -0.21527475118637085, -0.5762601494789124, -1.0056699514389038, -0.026123046875, 0.15283203125, -0.81689453125
133, 3201187538, -4.652992248535156, -1.6045507192611694, 8.357735633850098, -0.18630678951740265, -0.4911235272884369, -0.9742815494537354, -0.027587890625, 0.15234375, -0.8193359375
134, 3201204205, -4.640293121337891, -1.6060744524002075, 8.346893310546875, -0.21586382389068604, -0.4413708448410034, -0.9939647912979126, -0.026611328125, 0.15380859375, -0.81982421875
135, 3201220872, -4.650071144104004, -1.6036497354507446, 8.309667587280273, -0.27747517824172974, -0.6111190319061279, -1.0141220092773438, -0.026123046875, 0.1533203125, -0.81591796875
136, 3201237539, -4.654897689819336, -1.6109286546707153, 8.34675121307373, -0.27943456172943115, -0.5367653369903564, -1.0476106405258179, -0.025146484375, 0.1513671875, -0.81787109375
137, 3201254206, -4.644837379455566, -1.62888765335083, 8.32681941986084, -0.23637959361076355, -0.5437448024749756, -0.9830281734466553, -0.025634765625, 0.15380859375, -0.81787109375
138, 3201270873, -4.636878967285156, -1.6026188135147095, 8.338805198669434, -0.23576492071151733, -0.501944899559021, -0.8967646956443787, -0.026123046875, 0.15283203125, -0.818359375
139, 3201287540, -4.642177581787109, -1.6005046367645264, 8.35731029510498, -0.23516301810741425, -0.5684610605239868, -0.9572618007659912, -0.026611328125, 0.15185546875, -0.8203125
140, 3201304207, -4.64174747467041, -1.6157459020614624, 8.320287704467773, -0.27492672204971313, -0.582522451877594, -0.9499622583389282, -0.027587890625, 0.15380859375, -0.81640625
141, 3201320874, -4.648309707641602, -1.6048948764801025, 8.337002754211426, -0.20450462400913239, -0.5301188826560974, -1.00100839138031, -0.028564453125, 0.15234375, -0.818359375
142, 3201337541, -4.648216247558594, -1.6227766275405884, 8.315773010253906, -0.14910045266151428, -0.5969781279563904, -1.010058879852295, -0.026611328125, 0.15185546875, -0.81884765625
143, 3201354208, -4.635476589202881, -1.6046947240829468, 8.335196495056152, -0.13940991461277008, -0.6249370574951172, -0.9818883538246155, -0.028076171875, 0.15087890625, -0.8212890625
144, 3201370875, -4.641672611236572, -1.6120166778564453, 8.329671859741211, -0.18355339765548706, -0.6706684827804565, -0.9496932029724121, -0.028564453125, 0.15185546875, -0.8203125
145, 3201387542, -4.6414337158203125, -1.622376561164856, 8.333972930908203, -0.20965275168418884, -0.7653074860572815, -0.9495396614074707, -0.026123046875, 0.15478515625, -0.818359375
146, 3201404209, -4.6457600593566895, -1.6117782592773438, 8.339845657348633, -0.193170964717865, -0.7225214242935181, -0.968224048614502, -0.026123046875, 0.1533203125, -0.81787109375
147, 3201420876, -4.6447601318359375, -1.6209176778793335, 8.354029655456543, -0.12251834571361542, -0.8584735989570618, -0.8664776086807251, -0.027587890625, 0.15087890625, -0.81982421875
148, 3201437543, -4.63739538192749, -1.6050077676773071, 8.340914726257324, -0.12213414907455444, -0.8303765058517456, -0.9132335782051086, -0.028076171875, 0.15087890625, -0.818359375
149, 3201454210, -4.639091491699219, -1.6204395294189453, 8.337523460388184, -0.0987369641661644, -0.7721844911575317, -0.9884069561958313, -0.028564453125, 0.1533203125, -0.81982421875
150, 3201470877, -4.646005630493164, -1.617641806602478, 8.33246898651123, -0.04053209722042084, -0.7781650424003601, -1.0067200660705566, -0.027587890625, 0.15185546875, -0.818359375
151, 3201487544, -4.634013652801514, -1.6142711639404297, 8.351838111877441, -0.03242567554116249, -0.8064669966697693, -1.0053497552871704, -0.029052734375, 0.1533203125, -0.82080078125
152, 3201504211, -4.64251708984375, -1.60556960105896, 8.3482084274292, -0.05791031941771507, -0.8899389505386353, -1.0499926805496216, -0.028564453125, 0.15478515625, -0.8193359375
153, 3201520878, -4.636476993560791, -1.5998423099517822, 8.350275039672852, -0.12003391981124878, -0.7643725872039795, -1.009498953819275, -0.028076171875, 0.15283203125, -0.8203125
154, 3201537545, -4.632941722869873, -1.579275131225586, 8.347840309143066, -0.23641803860664368, -0.5769901275634766, -1.0471112728118896, -0.027099609375, 0.15283203125, -0.8193359375
155, 3201554212, -4.635998725891113, -1.5799643993377686, 8.363604545593262, -0.6127710342407227, -0.005327441263943911, -1.12520432472229, -0.029052734375, 0.15185546875, -0.818359375
156, 3201570879, -4.660609722137451, -1.6093031167984009, 8.360663414001465, -1.0148903131484985, -0.010962235741317272, -1.2872942686080933, -0.027099609375, 0.15283203125, -0.81787109375
157, 3201587546, -4.662492752075195, -1.6405662298202515, 8.386293411254883, -1.4928233623504639, -0.21564610302448273, -1.4419564008712769, -0.027099609375, 0.15380859375, -0.81982421875
158, 3201604213, -4.6416401863098145, -1.6463146209716797, 8.35680866241455, -2.834416389465332, 0.10519775748252869, -1.752792239189148, -0.026611328125, 0.1533203125, -0.818359375
159, 3201620880, -4.642662525177002, -1.6148675680160522, 8.328564643859863, -2.7624449729919434, -0.04205605015158653, -1.8594433069229126, -0.028564453125, 0.15283203125, -0.81787109375
160, 3201637547, -4.619907379150391, -1.6364243030548096, 8.32690143585205, -1.7355421781539917, -0.33532145619392395, -1.5169761180877686, -0.025146484375, 0.15380859375, -0.81787109375
161, 3201654214, -4.625175476074219, -1.6414637565612793, 8.291244506835938, -1.164878249168396, -0.5495204329490662, -1.425743579864502, -0.025634765625, 0.1552734375, -0.81640625
162, 3201670881, -4.628668308258057, -1.6880545616149902, 8.323983192443848, -0.7424096465110779, -0.717514157295227, -1.2672908306121826, -0.028076171875, 0.1552734375, -0.82080078125
163, 3201687548, -4.672860622406006, -1.6264039278030396, 8.33602523803711, -0.9913010001182556, -0.7136082053184509, -1.3792693614959717, -0.027587890625, 0.15673828125, -0.8173828125
164, 3201704215, -4.623782157897949, -1.6354647874832153, 8.353643417358398, -1.1899274587631226, -0.6470919847488403, -1.4576314687728882, -0.028076171875, 0.15576171875, -0.818359375
165, 3201720882, -4.6375579833984375, -1.6638327836990356, 8.311616897583008, -1.2691731452941895, -0.5979796648025513, -1.45536470413208, -0.028076171875, 0.15673828125, -0.818359375
166, 3201737549, -4.667364120483398, -1.6371104717254639, 8.369170188903809, -1.5612221956253052, -0.4751284122467041, -1.619170904159546, -0.026123046875, 0.157470703125, -0.81689453125
167, 3201754216, -4.65281343460083, -1.6494548320770264, 8.346098899841309, -2.3475449085235596, -0.3193519413471222, -1.780466914176941, -0.026611328125, 0.15625, -0.818359375
168, 3201770883, -4.666543006896973, -1.6662566661834717, 8.352767944335938, -2.7280983924865723, -0.1338263601064682, -2.001146078109741, -0.028076171875, 0.15771484375, -0.81982421875
169, 3201787550, -4.6355791091918945, -1.6931785345077515, 8.332042694091797, -2.6919074058532715, -0.33172285556793213, -2.0455071926116943, -0.030029296875, 0.158203125, -0.820556640625
170, 3201804217, -4.675166130065918, -1.678851842880249, 8.346786499023438, -2.8143365383148193, -0.46335938572883606, -2.1066701412200928, -0.028076171875, 0.160400390625, -0.818359375
171, 3201820884, -4.6333112716674805, -1.7117067575454712, 8.300291061401367, -2.5141170024871826, -0.615319550037384, -2.0724129676818848, -0.026611328125, 0.157470703125, -0.81787109375
172, 3201837551, -4.629824161529541, -1.7137054204940796, 8.319615364074707, -1.832114815711975, -0.7286556363105774, -1.7499876022338867, -0.027099609375, 0.157470703125, -0.8193359375
173, 3201854218, -4.646735191345215, -1.7158708572387695, 8.33083438873291, -1.7282936573028564, -0.869999349117279, -1.834150791168213, -0.028076171875, 0.159423828125, -0.81689453125
174, 3201870885, -4.66808557510376, -1.6929900646209717, 8.304607391357422, -2.212015390396118, -0.948182225227356, -1.952622652053833, -0.026123046875, 0.161865234375, -0.81884765625
175, 3201887552, -4.604360580444336, -1.7253330945968628, 8.327069282531738, -1.9530580043792725, -0.8232561945915222, -1.9451693296432495, -0.028564453125, 0.159423828125, -0.8193359375
176, 3201904219, -4.603065490722656, -1.7340502738952637, 8.30970287322998, -1.4023408889770508, -0.679276704788208, -1.781867265701294, -0.027099609375, 0.160400390625, -0.8173828125
177, 3201920886, -4.613709449768066, -1.7389143705368042, 8.311875343322754, -0.8144197463989258, -0.5811905264854431, -1.561811089515686, -0.027587890625, 0.160888671875, -0.818359375
178, 3201937553, -4.668943405151367, -1.6978116035461426, 8.368918418884277, -1.4718081951141357, -0.08805646002292633, -1.769555687904358, -0.027099609375, 0.161376953125, -0.81689453125
179, 3201954220, -4.597752094268799, -1.656596302986145, 8.28170108795166, -1.4299954175949097, 1.239866018295288, -2.108924150466919, -0.029052734375, 0.161865234375, -0.81787109375
180, 3201970887, -4.5461554527282715, -1.705000638961792, 8.306147575378418, -2.1698436737060547, 3.0157222747802734, -1.92811119556427, -0.026123046875, 0.163330078125, -0.81640625
181, 3201987554, -4.4576311111450195, -1.7286665439605713, 8.29903507232666, -2.54638934135437, 5.465917110443115, -1.3767595291137695, -0.02685546875, 0.165283203125, -0.81689453125
182, 3202004221, -4.486590385437012, -1.6981669664382935, 8.454239845275879, -6.040860652923584, 9.805078506469727, -1.0092945098876953, -0.023193359375, 0.163330078125, -0.8193359375
183, 3202020888, -4.275864601135254, -1.4147741794586182, 8.655389785766602, -11.200040817260742, 16.823286056518555, -1.9173568487167358, -0.016845703125, 0.16650390625, -0.816650390625
184, 3202037555, -3.958804130554199, -1.5082547664642334, 8.669424057006836, -15.049644470214844, 32.98115539550781, -1.7444504499435425, -0.012939453125, 0.16845703125, -0.813720703125
185, 3202054222, -1.9815765619277954, -1.7446048259735107, 9.390336990356445, -21.705310821533203, 72.88766479492188, 2.942824602127075, 9.765625E-4, 0.171630859375, -0.81494140625
186, 3202070889, -4.2754082679748535, -2.0618417263031006, 10.059737205505371, -28.5499324798584, 113.44010162353516, 11.094188690185547, 0.025390625, 0.177490234375, -0.810546875
187, 3202087556, -4.712722301483154, -2.6864635944366455, 10.182422637939453, -30.432191848754883, 136.38784790039062, 21.707901000976562, 0.05712890625, 0.183837890625, -0.806884765625
188, 3202104223, -5.883011341094971, -3.3935770988464355, 11.036499977111816, -21.27194595336914, 139.95802307128906, 30.51559829711914, 0.092529296875, 0.1875, -0.798583984375
189, 3202120890, -1.8768093585968018, -4.509959697723389, 11.278565406799316, 9.873456001281738, 123.1122055053711, 40.15127182006836, 0.12548828125, 0.184814453125, -0.79248046875
190, 3202137557, -3.104167938232422, -5.569936752319336, 13.961382865905762, 43.03135681152344, 102.79371643066406, 42.0945930480957, 0.156005859375, 0.173095703125, -0.78173828125
191, 3202154224, 0.45827680826187134, -4.630438327789307, 14.687485694885254, 51.13673400878906, 60.777687072753906, 34.59424591064453, 0.180419921875, 0.158203125, -0.776611328125
192, 3202170891, 1.6089321374893188, -3.283186197280884, 13.498908042907715, 34.169761657714844, 21.0045223236084, 25.908254623413086, 0.19140625, 0.14453125, -0.769775390625
193, 3202187558, 2.3392317295074463, -3.4579904079437256, 11.927597999572754, 11.057016372680664, -11.752089500427246, 17.036365509033203, 0.200927734375, 0.13720703125, -0.762451171875
194, 3202204225, 2.1333465576171875, -3.9107608795166016, 10.535970687866211, 1.8100777864456177, -37.08920669555664, 5.535220146179199, 0.2021484375, 0.13671875, -0.75439453125
195, 3202220892, 1.121625542640686, -4.021174430847168, 9.98462963104248, -0.3526395261287689, -55.75617980957031, -7.524991989135742, 0.20166015625, 0.133056640625, -0.749755859375
196, 3202237559, -0.29499006271362305, -4.099307060241699, 10.087491035461426, -3.9077651500701904, -70.18510437011719, -20.82141876220703, 0.194091796875, 0.126953125, -0.745849609375
197, 3202254226, -1.8416904211044312, -4.199659824371338, 10.345780372619629, -11.870375633239746, -85.19485473632812, -35.85741424560547, 0.189208984375, 0.130859375, -0.74462890625
198, 3202270893, -2.8803348541259766, -4.209907054901123, 10.21230697631836, -15.593354225158691, -98.36539459228516, -46.593353271484375, 0.18310546875, 0.13330078125, -0.744140625
199, 3202287560, -3.7859227657318115, -3.7236361503601074, 10.254844665527344, -13.12084674835205, -110.68901824951172, -49.97060775756836, 0.16748046875, 0.143798828125, -0.74609375
200, 3202304227, -4.323148727416992, -2.7819671630859375, 10.29269027709961, -15.917901039123535, -118.6119613647461, -49.35075378417969, 0.156982421875, 0.15234375, -0.75537109375
201, 3202320894, -4.9979047775268555, -2.234365701675415, 10.463289260864258, -27.759193420410156, -123.22355651855469, -48.296573638916016, 0.139404296875, 0.164306640625, -0.762451171875
202, 3202337561, -5.423409461975098, -1.8371641635894775, 10.373163223266602, -31.400449752807617, -127.8245849609375, -43.350555419921875, 0.11962890625, 0.18310546875, -0.77099609375
203, 3202354228, -6.6913347244262695, -1.1104904413223267, 11.358158111572266, -34.37222671508789, -133.77774047851562, -36.29753494262695, 0.093505859375, 0.197509765625, -0.783203125
204, 3202370895, -7.788506507873535, -1.145160436630249, 12.002068519592285, -41.20869064331055, -151.41433715820312, -33.13096618652344, 0.061767578125, 0.217041015625, -0.794921875
205, 3202387562, -6.549673557281494, -1.4775739908218384, 10.012155532836914, -34.958011627197266, -163.1468505859375, -28.216360092163086, 0.02294921875, 0.233642578125, -0.80078125
206, 3202404229, -5.927227973937988, -0.7253455519676208, 8.587652206420898, -28.595264434814453, -155.63735961914062, -21.1554012298584, -0.01904296875, 0.244873046875, -0.806884765625
207, 3202420896, -6.170619010925293, -0.8225041031837463, 8.107230186462402, -30.437021255493164, -143.3047332763672, -15.800997734069824, -0.0595703125, 0.258544921875, -0.810791015625
208, 3202437563, -6.897445201873779, -0.7208832502365112, 8.153902053833008, -29.247922897338867, -134.93978881835938, -9.891242027282715, -0.09619140625, 0.265380859375, -0.80810546875
209, 3202454230, -7.292531967163086, 0.08279825747013092, 7.70863151550293, -31.415964126586914, -131.04583740234375, -2.558014154434204, -0.134033203125, 0.274169921875, -0.8037109375
210, 3202470897, -6.61993408203125, 0.24008876085281372, 6.069552898406982, -32.900238037109375, -118.34378051757812, 7.896158218383789, -0.168701171875, 0.28369140625, -0.7939453125
211, 3202487564, -6.920645713806152, -0.17103204131126404, 5.750545024871826, -27.69611930847168, -99.84180450439453, 17.071563720703125, -0.19677734375, 0.295654296875, -0.78955078125
212, 3202504231, -6.922605037689209, -0.40844541788101196, 5.283205509185791, -17.407012939453125, -87.88104248046875, 21.37073516845703, -0.2158203125, 0.302490234375, -0.781005859375
213, 3202520898, -6.375173568725586, 0.08416677266359329, 4.328616142272949, -12.007465362548828, -68.92561340332031, 24.693021774291992, -0.23388671875, 0.305908203125, -0.77685546875
214, 3202537565, -6.7418212890625, 0.03238289803266525, 4.294445514678955, -14.4389009475708, -45.68083572387695, 26.344980239868164, -0.244873046875, 0.309326171875, -0.76904296875
215, 3202554232, -7.390965461730957, -1.0935348272323608, 4.630732536315918, -5.397089004516602, -31.922910690307617, 25.42387580871582, -0.2509765625, 0.315185546875, -0.767822265625
216, 3202570899, -7.010664463043213, -1.3339133262634277, 3.9369516372680664, 14.560812950134277, -14.805073738098145, 23.532407760620117, -0.25390625, 0.313720703125, -0.769775390625
217, 3202587566, -7.050135135650635, -1.256285548210144, 3.7231242656707764, 23.035385131835938, 9.370609283447266, 16.536808013916016, -0.25244140625, 0.313232421875, -0.769775390625
218, 3202604233, -6.683366298675537, -1.9621531963348389, 1.426027774810791, 50.357872009277344, 49.35625457763672, 26.391450881958008, -0.244873046875, 0.302734375, -0.776611328125
219, 3202620900, -4.040004253387451, 3.168569803237915, 5.4514594078063965, 47.82668685913086, 89.18225860595703, 59.075660705566406, -0.21923828125, 0.29443359375, -0.78564453125
220, 3202637567, 0.49966222047805786, -4.328620433807373, 14.165114402770996, -16.16678810119629, 97.80352020263672, 34.55905532836914, -0.19580078125, 0.295166015625, -0.790771484375
221, 3202654234, -0.1593121886253357, -9.511849403381348, 9.172511100769043, -37.1506233215332, 132.02276611328125, 19.823143005371094, -0.166015625, 0.306396484375, -0.794677734375
222, 3202670901, -6.494729518890381, -0.35221797227859497, 9.32834529876709, -30.75571632385254, 142.61534118652344, 17.94893455505371, -0.1298828125, 0.31396484375, -0.798095703125
223, 3202687568, -5.395632743835449, 0.7623381018638611, 10.91923999786377, -45.83476638793945, 140.5330047607422, 17.931461334228516, -0.097900390625, 0.3232421875, -0.802490234375
224, 3202704235, -5.939365386962891, -3.400585412979126, 10.62265682220459, -59.137088775634766, 136.02883911132812, 9.948728561401367, -0.065185546875, 0.338134765625, -0.79638671875
225, 3202720902, -6.4615254402160645, -4.930623531341553, 9.732575416564941, -57.5717887878418, 126.77794647216797, 4.128267765045166, -0.03369140625, 0.351318359375, -0.793701171875
226, 3202737569, -7.236983776092529, -3.66015625, 10.00560188293457, -33.00951385498047, 101.97345733642578, 12.937780380249023, -0.0029296875, 0.3623046875, -0.789306640625
227, 3202754236, -4.979271411895752, -4.0849995613098145, 8.681734085083008, -20.8292293548584, 83.9017562866211, 17.685054779052734, 0.0146484375, 0.364990234375, -0.788330078125
228, 3202770903, -8.531288146972656, -7.2651472091674805, 9.537666320800781, 19.10185432434082, 59.003028869628906, 29.76408576965332, 0.035888671875, 0.3671875, -0.78857421875
229, 3202787570, -4.870980739593506, -2.08591890335083, 8.606959342956543, 31.946922302246094, 37.93705368041992, 25.616878509521484, 0.046142578125, 0.358154296875, -0.793212890625
230, 3202804237, -5.30542516708374, -2.366089344024658, 9.058856964111328, 31.21461296081543, 29.10835075378418, 20.30487823486328, 0.056640625, 0.350341796875, -0.796875
231, 3202820904, -4.889458179473877, -2.3277952671051025, 9.12585735321045, 27.421438217163086, 21.945953369140625, 15.705322265625, 0.065673828125, 0.3427734375, -0.79736328125
232, 3202837571, -4.493717193603516, -2.7332775592803955, 8.341736793518066, 24.275135040283203, 17.36785125732422, 12.647398948669434, 0.07080078125, 0.334228515625, -0.802001953125
233, 3202854238, -4.577849864959717, -2.661586046218872, 8.351089477539062, 22.87203025817871, 16.771615982055664, 11.331551551818848, 0.075439453125, 0.330810546875, -0.802978515625
234, 3202870905, -5.010082721710205, -2.8434433937072754, 8.58258056640625, 20.897397994995117, 13.691794395446777, 9.271084785461426, 0.080078125, 0.3251953125, -0.805908203125
235, 3202887572, -4.663022518157959, -2.928741693496704, 8.16766357421875, 20.284330368041992, 9.96969223022461, 8.4638032913208, 0.0830078125, 0.32177734375, -0.808349609375
236, 3202904239, -4.6212687492370605, -2.423448324203491, 8.426305770874023, 19.269437789916992, 9.64516544342041, 8.935872077941895, 0.086669921875, 0.31689453125, -0.8076171875
237, 3202920906, -4.4657158851623535, -2.4042463302612305, 8.235791206359863, 19.474300384521484, 7.9639177322387695, 8.255813598632812, 0.089599609375, 0.312255859375, -0.81103515625
238, 3202937573, -4.743391990661621, -2.4407989978790283, 8.328289985656738, 18.29691505432129, 6.667975902557373, 8.001861572265625, 0.0947265625, 0.306884765625, -0.808349609375
239, 3202954240, -4.806577682495117, -2.5210278034210205, 8.195125579833984, 17.971668243408203, 5.095519065856934, 7.756976127624512, 0.095458984375, 0.298828125, -0.810302734375
240, 3202970907, -4.820254325866699, -2.446763277053833, 8.146093368530273, 19.141944885253906, 4.1849365234375, 8.316962242126465, 0.097412109375, 0.29736328125, -0.81396484375
241, 3202987574, -4.716114044189453, -2.385814666748047, 8.102578163146973, 21.87830352783203, 2.773944139480591, 9.672611236572266, 0.096923828125, 0.291748046875, -0.814453125
242, 3203004241, -4.685678482055664, -2.30948543548584, 8.270537376403809, 20.999540328979492, -0.1313677877187729, 11.106372833251953, 0.09912109375, 0.28564453125, -0.81787109375
243, 3203020908, -4.6513214111328125, -2.460176944732666, 8.146102905273438, 15.376710891723633, -2.640190601348877, 10.736763954162598, 0.10205078125, 0.28369140625, -0.818603515625
244, 3203037575, -4.604315280914307, -2.3553919792175293, 8.083395957946777, 20.335725784301758, -5.573206901550293, 12.948020935058594, 0.1005859375, 0.2783203125, -0.820556640625
245, 3203054242, -4.823394298553467, -2.2172274589538574, 8.243281364440918, 26.719905853271484, -11.009737014770508, 15.785674095153809, 0.099365234375, 0.270751953125, -0.821533203125
246, 3203070909, -4.927238464355469, -2.011620044708252, 8.355137825012207, 31.16298484802246, -16.786476135253906, 18.580856323242188, 0.098876953125, 0.26416015625, -0.8271484375
247, 3203087576, -4.783312797546387, -1.7332664728164673, 8.398261070251465, 24.54693603515625, -11.902790069580078, 17.535497665405273, 0.0966796875, 0.254638671875, -0.82958984375
248, 3203104243, -4.525785446166992, -1.5314315557479858, 8.521465301513672, 12.927583694458008, -1.5105364322662354, 13.511452674865723, 0.09521484375, 0.25146484375, -0.828125
249, 3203120910, -4.696156024932861, -1.533041000366211, 8.396697044372559, 6.028945446014404, 7.230310440063477, 10.087023735046387, 0.09521484375, 0.248046875, -0.8291015625
250, 3203137577, -4.6417999267578125, -1.847494125366211, 8.284125328063965, 4.079190731048584, 12.858220100402832, 9.016568183898926, 0.103271484375, 0.244140625, -0.829833984375
251, 3203154244, -4.435441970825195, -2.1164817810058594, 8.272649765014648, 7.7336602210998535, 18.15081214904785, 11.88470458984375, 0.108154296875, 0.24462890625, -0.828857421875
252, 3203170911, -4.456024646759033, -2.1139254570007324, 8.313206672668457, 11.1414155960083, 27.059978485107422, 17.53177261352539, 0.11474609375, 0.24072265625, -0.831787109375
253, 3203187578, -4.114235877990723, -1.5376300811767578, 8.66187572479248, 7.135049819946289, 44.04424285888672, 22.131389617919922, 0.122314453125, 0.23779296875, -0.83203125
254, 3203204245, -4.5578155517578125, -1.1510894298553467, 8.603302001953125, -1.916445016860962, 71.71784973144531, 24.83289337158203, 0.14208984375, 0.23974609375, -0.82568359375
255, 3203220912, -4.491696834564209, -0.8446850180625916, 8.451017379760742, -10.766655921936035, 106.08757781982422, 21.55792236328125, 0.167236328125, 0.239501953125, -0.820556640625
256, 3203237579, -4.7065582275390625, -1.093403935432434, 8.208963394165039, -16.160106658935547, 145.49893188476562, 18.817289352416992, 0.199951171875, 0.241455078125, -0.8134765625
257, 3203254246, -5.005130767822266, -1.3303178548812866, 8.134400367736816, -14.81600570678711, 183.48605346679688, 17.930753707885742, 0.243896484375, 0.2431640625, -0.799560546875
258, 3203270913, -5.446359157562256, -1.3395816087722778, 8.140028953552246, -9.437935829162598, 214.7367706298828, 18.95531463623047, 0.288818359375, 0.244140625, -0.782958984375
259, 3203287580, -5.623873710632324, -1.1596022844314575, 7.957120895385742, -3.318573474884033, 244.42713928222656, 21.432741165161133, 0.343505859375, 0.242919921875, -0.76220703125
260, 3203304247, -5.926482200622559, -1.4046783447265625, 7.108301162719727, 2.6773171424865723, 286.70263671875, 29.343961715698242, 0.406005859375, 0.240478515625, -0.727294921875
261, 3203320914, -6.115450859069824, -1.9787471294403076, 7.157003402709961, 15.938043594360352, 348.3310241699219, 46.01063919067383, 0.475341796875, 0.23095703125, -0.686279296875
262, 3203337581, -6.957292556762695, -3.189197540283203, 8.3037691116333, 28.01104736328125, 426.4886474609375, 65.59508514404297, 0.560791015625, 0.216064453125, -0.626220703125
263, 3203354248, -11.264695167541504, -3.0403027534484863, 9.210858345031738, 35.89175796508789, 478.5180358886719, 101.24726104736328, 0.644287109375, 0.19384765625, -0.545166015625
264, 3203370915, -19.835357666015625, -2.432229995727539, 11.33242416381836, 31.648679733276367, 464.67132568359375, 121.46532440185547, 0.719482421875, 0.1640625, -0.451171875
265, 3203387582, -18.63845443725586, -4.602663993835449, 10.245716094970703, 35.727088928222656, 427.4491271972656, 123.52342987060547, 0.77392578125, 0.130615234375, -0.3603515625
266, 3203404249, -15.96897029876709, -5.117129802703857, 12.40522575378418, 62.532310485839844, 397.1036376953125, 134.27056884765625, 0.809814453125, 0.093505859375, -0.26513671875
267, 3203420916, -9.817931175231934, -5.202844142913818, 15.17374038696289, 56.79461669921875, 336.7048645019531, 115.58704376220703, 0.83154296875, 0.058837890625, -0.180908203125
268, 3203437583, -11.939656257629395, -2.2589926719665527, 17.716407775878906, 6.823044300079346, 197.64012145996094, 95.3853530883789, 0.839111328125, 0.03271484375, -0.12109375
269, 3203454250, -24.999908447265625, -1.5031142234802246, 28.755090713500977, -81.6017837524414, 33.160125732421875, 52.371280670166016, 0.835205078125, 0.011962890625, -0.097412109375
270, 3203470917, -7.00663948059082, -9.507882118225098, 16.441225051879883, -105.0505142211914, -162.97576904296875, -46.56202697753906, 0.82275390625, 0.021484375, -0.11767578125
271, 3203487584, 0.2811441123485565, -7.454779148101807, 6.746351718902588, -27.127975463867188, -192.12107849121094, -30.181425094604492, 0.8115234375, 0.030029296875, -0.147705078125
272, 3203504251, -1.6139445304870605, -4.804717063903809, 7.098865032196045, 20.5604190826416, -171.0819854736328, -32.10934066772461, 0.806640625, 0.02734375, -0.166748046875
273, 3203520918, -5.523489952087402, -5.437305450439453, 10.271912574768066, 7.034642219543457, -211.52279663085938, -92.79914855957031, 0.81494140625, 0.03759765625, -0.188720703125
274, 3203537585, -5.472382545471191, -6.25081205368042, 8.679641723632812, 18.02593994140625, -279.249267578125, -147.0323028564453, 0.83447265625, 0.067138671875, -0.240234375
275, 3203554252, -3.776926279067993, -5.029917240142822, 5.4831156730651855, 69.69715118408203, -318.2403259277344, -148.289794921875, 0.853515625, 0.102294921875, -0.3330078125
276, 3203570919, -3.6911377906799316, -1.076223373413086, 3.9837749004364014, 119.73511505126953, -327.0547180175781, -106.65968322753906, 0.84130859375, 0.12109375, -0.46337890625
277, 3203587586, -5.164923667907715, 1.4329253435134888, 5.846050262451172, 105.18617248535156, -323.2873229980469, -52.37603759765625, 0.78125, 0.1123046875, -0.597900390625
278, 3203604253, -7.3980278968811035, 1.939622402191162, 8.891837120056152, 36.73423385620117, -326.70062255859375, -26.858304977416992, 0.688232421875, 0.0986328125, -0.697509765625
279, 3203620920, -9.423425674438477, -0.5625282526016235, 9.632553100585938, -26.56399917602539, -349.8853759765625, -23.39995002746582, 0.57861328125, 0.107177734375, -0.758056640625
280, 3203637587, -10.495529174804688, -3.128401517868042, 8.427854537963867, -44.29281997680664, -364.90765380859375, -19.335567474365234, 0.48779296875, 0.130126953125, -0.78125
281, 3203654254, -10.318769454956055, -3.2735869884490967, 6.3568644523620605, -52.06146240234375, -346.9415588378906, -32.70169448852539, 0.42724609375, 0.159912109375, -0.812744140625
282, 3203670921, -12.030937194824219, -2.3682022094726562, 7.532892227172852, -66.25151062011719, -290.8787841796875, -52.64855194091797, 0.364501953125, 0.190185546875, -0.864501953125
283, 3203687588, -17.49372100830078, -2.2802326679229736, 13.888875007629395, -95.05648040771484, -277.5592346191406, -72.3487319946289, 0.2685546875, 0.231201171875, -0.915283203125
284, 3203704255, -18.762714385986328, -1.8692070245742798, 14.266901969909668, -95.17938995361328, -306.1670227050781, -76.2123031616211, 0.13525390625, 0.26513671875, -0.92138671875
285, 3203720922, -19.592042922973633, 0.06654463708400726, 12.523004531860352, -80.0875473022461, -325.6979064941406, -49.47237777709961, 0.016357421875, 0.279541015625, -0.894775390625
286, 3203737589, -21.004871368408203, 1.2039344310760498, 10.05911922454834, -81.27054595947266, -326.4073791503906, -31.987445831298828, -0.075439453125, 0.292724609375, -0.859375
287, 3203754256, -22.645469665527344, 0.18873776495456696, 5.800778865814209, -85.52484893798828, -306.5994567871094, -28.304061889648438, -0.152587890625, 0.3037109375, -0.822509765625
288, 3203770923, -23.734020233154297, -1.2396228313446045, 0.3364989161491394, -73.50022888183594, -261.820556640625, -32.479026794433594, -0.215576171875, 0.317138671875, -0.793212890625
289, 3203787590, -24.016616821289062, -0.31208285689353943, -3.472580671310425, -49.501304626464844, -203.66348266601562, -56.23459243774414, -0.2626953125, 0.32373046875, -0.763671875
290, 3203804257, -23.436052322387695, 3.8459908962249756, -5.381257057189941, -13.469827651977539, -144.7838897705078, -78.93228912353516, -0.30126953125, 0.316162109375, -0.74169921875
291, 3203820924, -23.78339195251465, 8.766722679138184, -7.791925430297852, 20.11479377746582, -97.21363067626953, -63.38693618774414, -0.3271484375, 0.305419921875, -0.735595703125
292, 3203837591, -20.580408096313477, 9.528200149536133, -11.192201614379883, 28.18651580810547, -21.520671844482422, -33.26951599121094, -0.337890625, 0.291259765625, -0.729736328125
293, 3203854258, -9.419769287109375, 6.061103343963623, -5.466719150543213, 76.57176971435547, 104.03347778320312, 13.305828094482422, -0.3212890625, 0.27490234375, -0.73876953125
294, 3203870925, 9.808553695678711, -3.3013978004455566, 23.520986557006836, -26.864538192749023, 156.3546142578125, 0.17020510137081146, -0.293212890625, 0.273681640625, -0.746826171875
295, 3203887592, -1.9250311851501465, -0.31391119956970215, 3.339097261428833, -37.68557357788086, 225.94229125976562, 35.905174255371094, -0.2470703125, 0.281982421875, -0.7548828125
296, 3203904259, -13.543111801147461, 8.248480796813965, 16.342334747314453, -73.53641510009766, 244.37217712402344, 31.03885269165039, -0.18896484375, 0.297119140625, -0.762939453125
297, 3203920926, -11.097297668457031, -6.3868088722229, 12.399398803710938, -68.93183135986328, 180.083984375, 36.06915283203125, -0.142822265625, 0.312255859375, -0.76123046875
298, 3203937593, -7.909659385681152, -11.768383026123047, 6.8585896492004395, -52.79602813720703, 177.11849975585938, 17.180349349975586, -0.1025390625, 0.3251953125, -0.762451171875
299, 3203954260, -7.458743095397949, -3.5824813842773438, 10.46324348449707, -19.721410751342773, 160.39706420898438, 29.423250198364258, -0.063232421875, 0.33056640625, -0.760009765625
300, 3203970927, -11.148134231567383, -5.086732864379883, 10.243297576904297, 47.289920806884766, 99.49910736083984, 34.24214172363281, -0.03466796875, 0.32421875, -0.764404296875
301, 3203987594, -6.20639705657959, -0.8240678906440735, 10.907835006713867, 45.41778564453125, 70.72357940673828, 18.683679580688477, -0.01806640625, 0.312744140625, -0.767578125
302, 3204004261, -6.848411560058594, -2.9470055103302, 9.916102409362793, 35.08457946777344, 37.5535774230957, 13.366625785827637, -0.0048828125, 0.302734375, -0.770263671875
303, 3204020928, -5.20583438873291, -2.245337963104248, 9.402860641479492, 28.666072845458984, 16.704208374023438, 11.621909141540527, 0.001708984375, 0.294921875, -0.771728515625
304, 3204037595, -5.480100631713867, -2.496212959289551, 8.79359245300293, 17.485939025878906, 9.196003913879395, 7.344484806060791, 0.003173828125, 0.289794921875, -0.7734375
305, 3204054262, -5.460360050201416, -2.4653732776641846, 8.407979965209961, 9.632282257080078, 4.524953365325928, 4.5726189613342285, 0.00537109375, 0.286865234375, -0.777099609375
306, 3204070929, -5.098517417907715, -2.4270668029785156, 8.322427749633789, 9.165513038635254, 4.654078483581543, 2.1715030670166016, 0.00634765625, 0.284912109375, -0.77685546875
307, 3204087596, -4.860204696655273, -2.751176595687866, 8.004229545593262, 8.595017433166504, 5.860412120819092, 0.6734926104545593, 0.0068359375, 0.283203125, -0.775390625
308, 3204104263, -4.743704319000244, -2.861884832382202, 7.912001132965088, 10.936542510986328, 4.142695426940918, 2.5477535724639893, 0.0107421875, 0.282470703125, -0.77685546875
309, 3204120930, -4.7010087966918945, -2.7793757915496826, 7.854484558105469, 15.54776668548584, -0.5103976130485535, 7.700602054595947, 0.011962890625, 0.27783203125, -0.77880859375
310, 3204137597, -4.561743259429932, -2.689483165740967, 7.6978631019592285, 23.549829483032227, -8.408639907836914, 13.182859420776367, 0.010009765625, 0.27392578125, -0.7783203125
311, 3204154264, -4.376596927642822, -2.7915847301483154, 7.639650344848633, 34.853179931640625, -17.333873748779297, 20.797496795654297, 0.008544921875, 0.2626953125, -0.77978515625
312, 3204170931, -4.58399772644043, -3.2439305782318115, 7.710136890411377, 38.36411666870117, -23.89980125427246, 26.696125030517578, 0.005615234375, 0.257080078125, -0.78125
313, 3204187598, -5.366559982299805, -1.936712384223938, 8.770788192749023, 39.628360748291016, -27.744190216064453, 27.004867553710938, 0.00146484375, 0.24560546875, -0.788330078125
314, 3204204265, -4.979440689086914, -1.0470640659332275, 8.848970413208008, 21.387544631958008, -17.71393394470215, 15.933441162109375, -0.0029296875, 0.239501953125, -0.788330078125
315, 3204220932, -4.665528297424316, -1.3299614191055298, 8.553604125976562, 7.978071689605713, -3.981508493423462, 5.989923000335693, -0.0048828125, 0.237060546875, -0.789794921875
316, 3204237599, -4.475861549377441, -1.9834916591644287, 8.379863739013672, 2.8377273082733154, 4.42828893661499, 2.428743600845337, -0.00244140625, 0.23486328125, -0.788818359375
317, 3204254266, -4.579389572143555, -2.21529483795166, 8.21147632598877, 3.7255663871765137, 6.762170314788818, 4.493537902832031, 0.0, 0.235595703125, -0.787841796875
318, 3204270933, -4.524216651916504, -2.2317700386047363, 8.130911827087402, 8.383517265319824, 6.9774556159973145, 9.17656421661377, 0.001708984375, 0.23388671875, -0.790771484375
319, 3204287600, -4.634110450744629, -2.2260117530822754, 8.145705223083496, 12.763703346252441, 7.427866458892822, 13.766865730285645, 0.003662109375, 0.233642578125, -0.791259765625
320, 3204304267, -4.475813865661621, -1.9989125728607178, 8.298064231872559, 8.824707984924316, 10.872075080871582, 14.681264877319336, 0.007080078125, 0.22802734375, -0.79150390625
321, 3204320934, -4.378140926361084, -2.0010809898376465, 8.378776550292969, 7.333794593811035, 22.42905044555664, 15.838489532470703, 0.013671875, 0.228515625, -0.79345703125
322, 3204337601, -4.418043613433838, -1.292720913887024, 8.565947532653809, 4.042265892028809, 38.266597747802734, 16.158672332763672, 0.022216796875, 0.2236328125, -0.790283203125
323, 3204354268, -4.626871109008789, -1.4295061826705933, 8.410099983215332, -4.481722831726074, 61.387611389160156, 16.32053565979004, 0.03662109375, 0.223876953125, -0.79052734375
324, 3204370935, -4.621402263641357, -1.380889892578125, 8.347617149353027, -9.024746894836426, 85.3670425415039, 13.795001029968262, 0.05517578125, 0.224365234375, -0.7880859375
325, 3204387602, -4.816568374633789, -1.7144180536270142, 8.120201110839844, -13.30585765838623, 112.66300964355469, 12.88406753540039, 0.07861328125, 0.22802734375, -0.78515625
326, 3204404269, -5.097134590148926, -1.692447543144226, 8.012519836425781, -14.164274215698242, 140.05323791503906, 14.88607120513916, 0.10791015625, 0.22998046875, -0.782470703125
327, 3204420936, -5.450841426849365, -1.7926489114761353, 7.922154903411865, -12.176316261291504, 165.3850860595703, 17.04009246826172, 0.147216796875, 0.232177734375, -0.773193359375
328, 3204437603, -5.358032703399658, -1.5850310325622559, 7.830882549285889, -9.663028717041016, 191.44921875, 20.313461303710938, 0.188720703125, 0.23046875, -0.76171875
329, 3204454270, -5.573851108551025, -1.4759880304336548, 7.760896682739258, -6.738283157348633, 222.96315002441406, 23.888263702392578, 0.238525390625, 0.2333984375, -0.747314453125
330, 3204470937, -5.872461318969727, -1.537224531173706, 6.973692893981934, -1.23798406124115, 266.15911865234375, 34.09668731689453, 0.290283203125, 0.23046875, -0.724609375
331, 3204487604, -5.980206489562988, -1.8011503219604492, 7.077743053436279, 10.256129264831543, 327.92034912109375, 47.795440673828125, 0.359375, 0.223388671875, -0.693603515625
332, 3204504271, -7.133419513702393, -2.7027556896209717, 8.117133140563965, 23.282012939453125, 411.26123046875, 59.14691162109375, 0.437255859375, 0.2119140625, -0.648681640625
333, 3204520938, -9.922098159790039, -3.2591652870178223, 9.909326553344727, 27.169477462768555, 477.62115478515625, 89.531005859375, 0.525146484375, 0.1943359375, -0.578125
334, 3204537605, -18.667104721069336, -1.5395543575286865, 10.846573829650879, 13.91485595703125, 480.351318359375, 110.89598083496094, 0.607666015625, 0.169921875, -0.498046875
335, 3204554272, -19.325759887695312, -4.445718765258789, 10.112543106079102, 16.08388328552246, 439.5069885253906, 108.8864974975586, 0.6728515625, 0.146484375, -0.408203125
336, 3204570939, -17.38887596130371, -5.4874701499938965, 11.22454833984375, 46.71757125854492, 407.88250732421875, 126.29603576660156, 0.7265625, 0.11572265625, -0.320556640625
337, 3204587606, -11.570296287536621, -5.154204845428467, 14.642659187316895, 52.12405014038086, 360.3002014160156, 120.06927490234375, 0.761474609375, 0.083984375, -0.236328125
338, 3204604273, -9.953215599060059, -1.813675880432129, 18.61433982849121, 8.649968147277832, 212.0393829345703, 84.32868957519531, 0.77978515625, 0.060302734375, -0.173583984375
339, 3204620940, -28.526914596557617, -1.7295446395874023, 26.8668270111084, -41.30350875854492, 60.366058349609375, 85.65023040771484, 0.78515625, 0.03466796875, -0.140625
340, 3204637607, -9.97181224822998, -7.445406913757324, 20.29384994506836, -98.4317398071289, -173.44615173339844, -20.277708053588867, 0.78125, 0.03173828125, -0.160888671875
341, 3204654274, -0.03666102886199951, -7.573622703552246, 7.4348464012146, -28.453828811645508, -235.9986114501953, -9.514198303222656, 0.770263671875, 0.03173828125, -0.20263671875
342, 3204670941, 1.0942212343215942, -5.285706043243408, 3.838707208633423, 57.117496490478516, -201.876953125, 26.328283309936523, 0.764404296875, 0.01806640625, -0.23876953125
343, 3204687608, -1.8605738878250122, -4.659214019775391, 6.7598748207092285, 89.3951644897461, -197.43203735351562, 17.044178009033203, 0.76318359375, 0.003173828125, -0.27392578125
344, 3204704275, -4.49609375, -4.5966572761535645, 8.957756042480469, 84.05940246582031, -242.35060119628906, -21.26116371154785, 0.760498046875, -0.0068359375, -0.323486328125
345, 3204720942, -5.265291690826416, -3.6893110275268555, 8.237812042236328, 59.13267135620117, -291.49407958984375, -62.771522521972656, 0.748046875, -7.32421875E-4, -0.397705078125
346, 3204737609, -5.777583122253418, -3.4633302688598633, 6.758981227874756, 49.703128814697266, -325.0001525878906, -82.73462677001953, 0.711669921875, 0.020751953125, -0.48974609375
347, 3204754276, -6.530513763427734, -1.8570518493652344, 6.157806873321533, 49.69548797607422, -344.5555114746094, -73.27487182617188, 0.637451171875, 0.035400390625, -0.582763671875
348, 3204770943, -7.6369524002075195, 0.013188596814870834, 7.435598850250244, 26.220659255981445, -350.6023864746094, -56.253990173339844, 0.5341796875, 0.040283203125, -0.64501953125
349, 3204787610, -9.557212829589844, 0.8551052808761597, 9.245179176330566, -29.93826675415039, -364.11480712890625, -49.944583892822266, 0.41943359375, 0.042724609375, -0.66552734375
350, 3204804277, -10.6074857711792, -0.49875086545944214, 8.861666679382324, -69.80374908447266, -389.2477111816406, -39.60776138305664, 0.324462890625, 0.0439453125, -0.661865234375
351, 3204820944, -9.925198554992676, -0.14597618579864502, 6.359074115753174, -92.94487762451172, -381.2316589355469, -28.00889778137207, 0.25341796875, 0.0341796875, -0.64111328125
352, 3204837611, -12.066954612731934, -0.5888352990150452, 5.576423645019531, -121.22831726074219, -324.6565856933594, -35.10214614868164, 0.231689453125, 0.022216796875, -0.60693359375
353, 3204854278, -15.242851257324219, -3.582493543624878, 10.735543251037598, -124.12665557861328, -273.0757751464844, -46.76055908203125, 0.280029296875, 0.0126953125, -0.586669921875
354, 3204870945, -20.095346450805664, -2.7626380920410156, 14.452179908752441, -116.48182678222656, -285.1371765136719, -68.39247131347656, 0.37109375, 0.03125, -0.64892578125
355, 3204887612, -20.701799392700195, -0.6043689846992493, 12.432164192199707, -105.73719787597656, -307.06390380859375, -78.44168090820312, 0.406982421875, 0.104248046875, -0.795654296875
356, 3204904279, -21.424365997314453, 1.4910238981246948, 9.74577522277832, -90.13733673095703, -309.72076416015625, -75.6020278930664, 0.326904296875, 0.200927734375, -0.9365234375
357, 3204920946, -22.713796615600586, 1.3077147006988525, 6.826213359832764, -64.82258605957031, -303.0106506347656, -63.14637756347656, 0.175048828125, 0.27783203125, -0.999267578125
358, 3204937613, -21.616477966308594, -0.15447686612606049, 1.7242300510406494, -33.87449264526367, -276.4475402832031, -58.2713623046875, 0.02783203125, 0.31982421875, -0.9970703125
359, 3204954280, -21.86050796508789, -0.41546934843063354, -3.060129165649414, -13.309741973876953, -218.42495727539062, -69.34349060058594, -0.080810546875, 0.34228515625, -0.9794921875
360, 3204970947, -22.222522735595703, 4.297708988189697, -6.281867504119873, -22.28191375732422, -139.99053955078125, -84.68130493164062, -0.15966796875, 0.355712890625, -0.955078125
361, 3204987614, -22.592113494873047, 6.017172336578369, -9.015033721923828, -24.672073364257812, -70.21659851074219, -76.17273712158203, -0.203857421875, 0.367431640625, -0.9384765625
362, 3205004281, -22.030380249023438, 6.087324619293213, -8.278982162475586, 12.781957626342773, 1.1290799379348755, -58.79806137084961, -0.221435546875, 0.371826171875, -0.933837890625
363, 3205020948, -12.92164134979248, 4.0210676193237305, -4.99904727935791, 56.67000961303711, 63.54328536987305, -32.13275909423828, -0.22265625, 0.3662109375, -0.939208984375
364, 3205037615, 6.9082136154174805, 0.3661734461784363, 19.87689208984375, 26.510047912597656, 116.94400024414062, 5.879648208618164, -0.1982421875, 0.3603515625, -0.952392578125
365, 3205054282, 2.2310478687286377, -6.184930324554443, 8.518433570861816, -50.2728271484375, 193.62066650390625, 1.0948669910430908, -0.155517578125, 0.38037109375, -0.958984375
366, 3205070949, -9.003138542175293, 6.981235504150391, 10.805959701538086, -47.107051849365234, 213.31832885742188, 17.193143844604492, -0.10107421875, 0.401123046875, -0.962646484375
367, 3205087616, -8.525184631347656, 6.074578285217285, 15.559534072875977, -47.486812591552734, 183.53431701660156, 45.67601776123047, -0.04443359375, 0.423583984375, -0.960205078125
368, 3205104283, -7.194295406341553, -10.082140922546387, 7.674215316772461, -43.66413116455078, 158.10665893554688, 35.27206802368164, 0.001953125, 0.443603515625, -0.957763671875
369, 3205120950, -8.00660228729248, -8.785143852233887, 8.438519477844238, -25.29147720336914, 156.22705078125, 28.091835021972656, 0.046630859375, 0.4560546875, -0.95166015625
370, 3205137617, -6.698622226715088, -1.9700669050216675, 10.282463073730469, -17.151853561401367, 136.63955688476562, 31.4776554107666, 0.090576171875, 0.465087890625, -0.947265625
371, 3205154284, -11.764704704284668, -6.318047523498535, 10.992120742797852, 26.88485336303711, 93.18950653076172, 29.69141387939453, 0.123291015625, 0.4658203125, -0.944580078125
372, 3205170951, -5.884495735168457, 0.014546327292919159, 11.057312965393066, 28.066659927368164, 56.65870666503906, 13.696087837219238, 0.140869140625, 0.4599609375, -0.947265625
373, 3205187618, -5.622535228729248, -3.3106791973114014, 9.006731033325195, 20.74791145324707, 36.09537124633789, 8.636202812194824, 0.154052734375, 0.45458984375, -0.949951171875
374, 3205204285, -5.844721794128418, -1.8899517059326172, 9.639054298400879, 19.47362518310547, 16.414602279663086, 8.8149995803833, 0.159912109375, 0.451171875, -0.95166015625
375, 3205220952, -5.153097152709961, -2.4010391235351562, 8.70955753326416, 15.866978645324707, 8.141115188598633, 5.436783313751221, 0.1630859375, 0.444580078125, -0.95458984375
376, 3205237619, -4.927234649658203, -2.475574016571045, 8.54358959197998, 13.122502326965332, 5.822545051574707, 3.960385322570801, 0.167724609375, 0.442138671875, -0.955078125
377, 3205254286, -4.725124359130859, -2.603419303894043, 8.281953811645508, 8.852052688598633, 5.814523220062256, 1.532077670097351, 0.168212890625, 0.4384765625, -0.955078125
378, 3205270953, -4.625195503234863, -2.671539306640625, 8.01420783996582, 9.089381217956543, 7.2971062660217285, 1.3922748565673828, 0.170654296875, 0.4345703125, -0.956787109375
379, 3205287620, -4.6568379402160645, -2.780658721923828, 7.888697624206543, 16.8519287109375, 7.532198429107666, 3.748058319091797, 0.1748046875, 0.4306640625, -0.958251953125
380, 3205304287, -4.513736724853516, -2.6324141025543213, 7.867718696594238, 20.454084396362305, 2.8444550037384033, 8.375808715820312, 0.17578125, 0.427490234375, -0.959716796875
381, 3205320954, -4.512353420257568, -2.2794337272644043, 8.1152925491333, 23.569738388061523, -0.9255682229995728, 11.469015121459961, 0.1748046875, 0.421142578125, -0.961669921875
382, 3205337621, -4.320254802703857, -2.4061801433563232, 7.9698662757873535, 25.367786407470703, -6.836179733276367, 14.482688903808594, 0.177978515625, 0.41162109375, -0.966552734375
383, 3205354288, -4.329535484313965, -2.959434747695923, 7.871067523956299, 25.068866729736328, -13.862456321716309, 18.57061767578125, 0.175048828125, 0.406494140625, -0.96826171875
384, 3205370955, -4.919319152832031, -2.5372254848480225, 8.361983299255371, 26.919662475585938, -17.17826271057129, 22.006032943725586, 0.1748046875, 0.39697265625, -0.97509765625
385, 3205387622, -5.12159538269043, -1.2622820138931274, 8.76468563079834, 22.031896591186523, -15.519378662109375, 17.586952209472656, 0.17041015625, 0.389892578125, -0.9775390625
386, 3205404289, -4.89157772064209, -1.4062339067459106, 8.538457870483398, 17.60097312927246, -10.141533851623535, 12.0580415725708, 0.1669921875, 0.38427734375, -0.980712890625
387, 3205420956, -4.549450874328613, -1.7778756618499756, 8.421266555786133, 13.926554679870605, -2.5137481689453125, 8.504916191101074, 0.16796875, 0.380859375, -0.981689453125
388, 3205437623, -4.549072265625, -2.0898072719573975, 8.234098434448242, 17.75845718383789, 0.5072282552719116, 10.888238906860352, 0.171630859375, 0.374755859375, -0.985107421875
389, 3205454290, -4.5841779708862305, -2.196092367172241, 8.233406066894531, 23.466045379638672, -2.178699254989624, 15.586609840393066, 0.169677734375, 0.36767578125, -0.985595703125
390, 3205470957, -4.599564552307129, -1.9808636903762817, 8.408425331115723, 21.937633514404297, -1.463558554649353, 18.015483856201172, 0.17236328125, 0.3603515625, -0.989501953125
391, 3205487624, -4.380520343780518, -1.6223856210708618, 8.500885009765625, 14.165546417236328, 6.44856595993042, 16.625368118286133, 0.174560546875, 0.354736328125, -0.992919921875
392, 3205504291, -4.532565116882324, -1.4511743783950806, 8.568156242370605, 9.568037986755371, 18.930578231811523, 16.094234466552734, 0.181396484375, 0.350341796875, -0.990234375
393, 3205520958, -4.4668803215026855, -1.4201089143753052, 8.5386962890625, 8.790504455566406, 32.03498458862305, 15.971916198730469, 0.18896484375, 0.348876953125, -0.989501953125
394, 3205537625, -4.142532825469971, -1.264124870300293, 8.683326721191406, 3.48091983795166, 53.30571746826172, 17.87660789489746, 0.20654296875, 0.346435546875, -0.98876953125
395, 3205554292, -4.474260330200195, -1.2295385599136353, 8.479761123657227, -2.326287031173706, 77.27201843261719, 20.47960090637207, 0.226318359375, 0.34619140625, -0.982177734375
396, 3205570959, -4.5845184326171875, -1.1297637224197388, 8.457520484924316, -5.123171329498291, 105.26246643066406, 21.154619216918945, 0.2587890625, 0.347412109375, -0.974609375
397, 3205587626, -4.861838340759277, -1.0884929895401, 8.308600425720215, -7.96583890914917, 135.6916961669922, 22.54332160949707, 0.294189453125, 0.34716796875, -0.96484375
398, 3205604293, -4.952773094177246, -1.1485536098480225, 8.113951683044434, -8.505619049072266, 167.51028442382812, 22.391267776489258, 0.339599609375, 0.347900390625, -0.94384765625
399, 3205620960, -5.314579963684082, -1.0442034006118774, 7.996799468994141, -6.884690761566162, 198.77316284179688, 20.984722137451172, 0.394287109375, 0.349365234375, -0.9248046875
400, 3205637627, -5.695374488830566, -0.9555715918540955, 7.694826126098633, -4.153238773345947, 228.0247039794922, 20.12030792236328, 0.455322265625, 0.348876953125, -0.894287109375
401, 3205654294, -5.782509803771973, -1.327304720878601, 7.372020721435547, 0.17291052639484406, 267.2125549316406, 28.477214813232422, 0.522705078125, 0.345458984375, -0.85791015625
402, 3205670961, -6.1462178230285645, -1.7018342018127441, 6.938416481018066, 12.063531875610352, 320.7775573730469, 45.435977935791016, 0.598876953125, 0.3359375, -0.8076171875
403, 3205687628, -7.086623191833496, -2.5366852283477783, 7.761856555938721, 25.452978134155273, 395.7844543457031, 61.29117965698242, 0.6904296875, 0.322021484375, -0.73876953125
404, 3205704295, -9.539030075073242, -2.982365131378174, 9.466495513916016, 30.453460693359375, 462.344970703125, 86.92327880859375, 0.785888671875, 0.300537109375, -0.639892578125
405, 3205720962, -17.168338775634766, -1.6030858755111694, 10.799339294433594, 20.3568058013916, 470.93402099609375, 107.70349884033203, 0.8720703125, 0.272705078125, -0.5234375
406, 3205737629, -18.148956298828125, -2.1872448921203613, 10.243982315063477, 19.9601993560791, 438.11944580078125, 106.36006927490234, 0.938720703125, 0.238525390625, -0.404052734375
407, 3205754296, -17.23432731628418, -4.667700290679932, 10.907602310180664, 38.280731201171875, 417.84954833984375, 109.70121002197266, 0.982177734375, 0.2001953125, -0.285888671875
408, 3205770963, -11.80434513092041, -3.775829553604126, 12.128639221191406, 62.470359802246094, 371.7908020019531, 113.83360290527344, 1.00732421875, 0.156494140625, -0.181640625
409, 3205787630, -6.672013759613037, -2.3539974689483643, 16.135234832763672, 42.293731689453125, 273.9035339355469, 81.64205932617188, 1.0146484375, 0.125732421875, -0.092041015625
410, 3205804297, -25.025348663330078, -0.7232667803764343, 21.932392120361328, -5.094621181488037, 134.5749053955078, 95.12023162841797, 1.014404296875, 0.098876953125, -0.05078125
411, 3205820964, -15.936857223510742, -3.3807904720306396, 24.94620132446289, -106.2275390625, -97.3028564453125, -5.52202844619751, 1.003173828125, 0.09423828125, -0.0615234375
412, 3205837631, -3.223109245300293, -7.669285774230957, 10.989365577697754, -58.12701416015625, -220.7866668701172, -25.282142639160156, 0.990966796875, 0.10693359375, -0.1298828125
413, 3205854298, -0.5250654220581055, -5.216195106506348, 4.551457405090332, 29.179039001464844, -222.1717987060547, 3.8984761238098145, 0.972900390625, 0.112060546875, -0.197021484375
414, 3205870965, -0.5440393686294556, -3.831310987472534, 4.331797122955322, 93.70689392089844, -204.94522094726562, 11.096407890319824, 0.9521484375, 0.114013671875, -0.263427734375
415, 3205887632, -3.0403285026550293, -2.905398368835449, 6.42141580581665, 117.588623046875, -217.041015625, 6.301456928253174, 0.93115234375, 0.1083984375, -0.330322265625
416, 3205904299, -6.206545829772949, -0.3718986511230469, 8.486917495727539, 76.145263671875, -255.2794189453125, -19.362869262695312, 0.90185546875, 0.11279296875, -0.409912109375
417, 3205920966, -7.20886754989624, -1.1991022825241089, 7.887446403503418, 12.72889518737793, -299.30426025390625, -53.18235397338867, 0.851806640625, 0.128173828125, -0.496337890625
418, 3205937633, -7.6111063957214355, -3.041919708251953, 6.3833909034729, 6.797702312469482, -327.55206298828125, -64.85982513427734, 0.77978515625, 0.145751953125, -0.585693359375
419, 3205954300, -8.497345924377441, -2.5025877952575684, 6.256300449371338, 31.266523361206055, -343.3581848144531, -56.4796028137207, 0.69189453125, 0.148681640625, -0.662353515625
420, 3205970967, -9.098609924316406, -0.6296660900115967, 6.873413562774658, 27.41172218322754, -350.01068115234375, -46.022186279296875, 0.597412109375, 0.138427734375, -0.723388671875
421, 3205987634, -10.201504707336426, 0.7040566802024841, 7.451945781707764, -10.770125389099121, -349.039794921875, -38.45613098144531, 0.501953125, 0.13134765625, -0.77197265625
422, 3206004301, -11.478128433227539, 0.6925339698791504, 8.041213989257812, -56.33579635620117, -347.65985107421875, -26.05880355834961, 0.399169921875, 0.13134765625, -0.802490234375
423, 3206020968, -12.228292465209961, -0.46695151925086975, 7.518340110778809, -80.31171417236328, -341.6379699707031, -10.03091049194336, 0.302001953125, 0.130615234375, -0.806884765625
424, 3206037635, -13.037728309631348, -2.043985366821289, 7.442156791687012, -89.92864227294922, -321.811767578125, -1.6565128564834595, 0.22119140625, 0.12890625, -0.796142578125
425, 3206054302, -14.190886497497559, -3.7335245609283447, 8.92530345916748, -94.35530090332031, -296.1005554199219, -13.368407249450684, 0.163330078125, 0.12939453125, -0.78271484375
426, 3206070969, -14.559147834777832, -3.03898024559021, 10.96873950958252, -101.75663757324219, -282.6881408691406, -39.6826057434082, 0.118896484375, 0.134765625, -0.775146484375
427, 3206087636, -15.364433288574219, 0.4282263517379761, 12.783193588256836, -129.1874237060547, -278.9774475097656, -59.905887603759766, 0.067138671875, 0.150634765625, -0.772705078125
428, 3206104303, -17.471641540527344, 2.637129783630371, 13.039761543273926, -158.697265625, -284.18157958984375, -68.0348892211914, 0.02490234375, 0.170654296875, -0.766845703125
429, 3206120970, -20.365087509155273, 1.8875069618225098, 11.861612319946289, -143.5428466796875, -298.1619567871094, -62.204505920410156, -0.024658203125, 0.195556640625, -0.765380859375
430, 3206137637, -20.807971954345703, -0.08211113512516022, 7.357477188110352, -92.78807067871094, -301.887451171875, -63.86967468261719, -0.081298828125, 0.215576171875, -0.772216796875
431, 3206154304, -19.980560302734375, -0.9419457316398621, -0.5233009457588196, -47.938018798828125, -266.51324462890625, -85.18911743164062, -0.144775390625, 0.2265625, -0.776123046875
432, 3206170971, -21.29148292541504, 4.058619022369385, -4.4615349769592285, -46.30775451660156, -184.49708557128906, -108.98054504394531, -0.19775390625, 0.229736328125, -0.773193359375
433, 3206187638, -22.138795852661133, 8.53316879272461, -8.495831489562988, -79.2493667602539, -107.6611328125, -110.19474029541016, -0.2373046875, 0.240966796875, -0.77001953125
434, 3206204305, -23.45528221130371, 7.615654468536377, -9.59688949584961, -26.187963485717773, -35.200077056884766, -76.55574798583984, -0.255859375, 0.245849609375, -0.765380859375
435, 3206220972, -21.3631534576416, 9.421304702758789, -7.262691974639893, 51.855079650878906, 17.815885543823242, -45.63716125488281, -0.26025390625, 0.234130859375, -0.77197265625
436, 3206237639, 4.4621148109436035, 7.950864791870117, 9.088067054748535, 66.44401550292969, 70.34292602539062, 37.34516906738281, -0.245849609375, 0.211669921875, -0.78564453125
437, 3206254306, 14.179289817810059, -13.156533241271973, 15.474568367004395, -76.15093994140625, 174.3677215576172, 26.914777755737305, -0.204833984375, 0.22705078125, -0.7958984375
438, 3206270973, -7.821512699127197, -3.0101773738861084, 2.191483497619629, -41.89436340332031, 255.353759765625, 24.969505310058594, -0.1494140625, 0.23779296875, -0.8134765625
439, 3206287640, -11.35256576538086, 7.234625816345215, 18.727020263671875, -39.060604095458984, 244.89097595214844, 30.077831268310547, -0.08349609375, 0.251953125, -0.82421875
440, 3206304307, -10.362110137939453, -5.098381042480469, 12.267254829406738, -25.943588256835938, 175.2969512939453, 50.78009796142578, -0.03515625, 0.25830078125, -0.826904296875
441, 3206320974, -7.876542091369629, -10.264350891113281, 8.738960266113281, -5.338194370269775, 163.48983764648438, 30.121749877929688, 0.00830078125, 0.2607421875, -0.8310546875
442, 3206337641, -6.818505764007568, -1.1196568012237549, 10.112547874450684, 24.77650260925293, 135.18719482421875, 44.18817901611328, 0.047119140625, 0.255615234375, -0.833251953125
443, 3206354308, -6.716184616088867, -1.6940535306930542, 10.02889347076416, 36.455413818359375, 107.09852600097656, 41.97740936279297, 0.077880859375, 0.244384765625, -0.840576171875
444, 3206370975, -8.77165412902832, -4.602496147155762, 9.927495002746582, 59.99270248413086, 81.20610046386719, 40.56660842895508, 0.10498046875, 0.23193359375, -0.84033203125
445, 3206387642, -5.583874225616455, -2.4694979190826416, 9.052613258361816, 87.0145492553711, 52.144771575927734, 41.54458236694336, 0.1201171875, 0.208984375, -0.844970703125
446, 3206404309, -4.571385860443115, -0.5413613319396973, 10.219749450683594, 81.2650375366211, 34.983131408691406, 35.26237106323242, 0.135009765625, 0.1875, -0.848388671875
447, 3206420976, -6.971705913543701, -3.4787659645080566, 10.243621826171875, 56.48924255371094, 22.663511276245117, 26.767717361450195, 0.141845703125, 0.169921875, -0.8515625
448, 3206437643, -5.616514682769775, -0.9089470505714417, 10.119049072265625, -9.045217514038086, 20.542505264282227, 6.357833385467529, 0.150390625, 0.16748046875, -0.85302734375
449, 3206454310, -5.133081436157227, -0.9571634531021118, 9.1578950881958, -23.434246063232422, 17.708898544311523, -1.5682960748672485, 0.1533203125, 0.171142578125, -0.8525390625
450, 3206470977, -5.4430413246154785, -1.243958592414856, 8.73576831817627, -22.56655502319336, 15.969952583312988, -5.739091873168945, 0.15869140625, 0.177734375, -0.848388671875
451, 3206487644, -4.996098041534424, -1.7880767583847046, 8.480485916137695, -19.58295440673828, 15.453402519226074, -7.661160945892334, 0.160888671875, 0.183837890625, -0.848388671875
452, 3206504311, -4.7815446853637695, -2.1300599575042725, 8.305928230285645, -16.7726993560791, 15.78659725189209, -6.5124640464782715, 0.1650390625, 0.188232421875, -0.849365234375
453, 3206520978, -4.739528656005859, -2.1545023918151855, 8.289134979248047, -14.833839416503906, 16.39133071899414, -4.332267761230469, 0.171875, 0.19189453125, -0.845703125
454, 3206537645, -4.878101825714111, -2.143656015396118, 8.21433162689209, -12.400971412658691, 16.444103240966797, -3.2156412601470947, 0.17333984375, 0.1962890625, -0.84521484375
455, 3206554312, -5.110224723815918, -2.1428050994873047, 8.093177795410156, -8.101828575134277, 12.901057243347168, -2.7185213565826416, 0.1767578125, 0.197509765625, -0.8427734375
456, 3206570979, -4.97124719619751, -2.1401243209838867, 8.128273010253906, -5.746224403381348, 10.785160064697266, -2.6498653888702393, 0.17919921875, 0.200927734375, -0.842041015625
457, 3206587646, -4.882919788360596, -2.184218645095825, 8.065651893615723, -3.3562891483306885, 9.022504806518555, -1.3070420026779175, 0.18310546875, 0.201904296875, -0.842041015625
458, 3206604313, -4.925934314727783, -2.30537748336792, 8.028368949890137, 0.506395161151886, 8.44327163696289, 1.0460419654846191, 0.18408203125, 0.201904296875, -0.840576171875
459, 3206620980, -4.875757217407227, -2.2878849506378174, 8.04843521118164, 3.907954216003418, 6.708242416381836, 3.240551233291626, 0.187744140625, 0.198486328125, -0.84033203125
460, 3206637647, -4.910468101501465, -2.2145280838012695, 8.09936809539795, 4.568417072296143, 6.602424621582031, 4.255327224731445, 0.189208984375, 0.196533203125, -0.841796875
461, 3206654314, -4.878693103790283, -2.2523396015167236, 8.068132400512695, 5.337464809417725, 7.1714630126953125, 5.292885780334473, 0.190185546875, 0.194580078125, -0.841796875
462, 3206670981, -4.81965970993042, -2.2684435844421387, 8.003209114074707, 7.728578567504883, 8.758158683776855, 6.824437141418457, 0.193359375, 0.193115234375, -0.8408203125
463, 3206687648, -4.921106815338135, -2.0242507457733154, 8.120022773742676, 10.605351448059082, 11.56488037109375, 7.547806262969971, 0.1962890625, 0.193115234375, -0.841796875
464, 3206704315, -4.947729110717773, -1.827283263206482, 8.180727005004883, 8.825692176818848, 16.18170738220215, 6.759360313415527, 0.19970703125, 0.18896484375, -0.840576171875
465, 3206720982, -4.75283145904541, -1.6483420133590698, 8.221555709838867, 2.761087656021118, 25.729496002197266, 6.21791410446167, 0.204345703125, 0.18701171875, -0.840087890625
466, 3206737649, -4.88384485244751, -1.622774600982666, 8.1353178024292, -1.209053635597229, 37.488555908203125, 5.661645412445068, 0.21533203125, 0.185302734375, -0.837158203125
467, 3206754316, -5.109837055206299, -1.7295759916305542, 8.06942081451416, -2.9957380294799805, 48.55838394165039, 4.514437198638916, 0.229248046875, 0.184814453125, -0.83349609375
468, 3206770983, -5.225668907165527, -1.9139833450317383, 7.988163471221924, -3.6389434337615967, 58.401695251464844, 4.222631454467773, 0.24072265625, 0.18896484375, -0.830322265625
469, 3206787650, -5.302667140960693, -2.1542563438415527, 7.890084266662598, -4.9089741706848145, 68.66201782226562, 6.829075336456299, 0.25732421875, 0.18603515625, -0.826416015625
470, 3206804317, -5.3777666091918945, -2.2654242515563965, 7.778678894042969, -5.452159404754639, 79.72746276855469, 11.098435401916504, 0.274658203125, 0.190185546875, -0.822021484375
471, 3206820984, -5.602231502532959, -2.0602478981018066, 7.682320594787598, -5.7643022537231445, 91.85850524902344, 15.437202453613281, 0.296630859375, 0.18798828125, -0.8115234375
472, 3206837651, -5.9451751708984375, -1.7731022834777832, 7.560067653656006, -7.281833171844482, 103.53972625732422, 16.06012535095215, 0.321044921875, 0.18798828125, -0.799560546875
473, 3206854318, -5.77762508392334, -1.8299944400787354, 7.494489669799805, -6.765054702758789, 119.04862976074219, 15.50575065612793, 0.348388671875, 0.187255859375, -0.79052734375
474, 3206870985, -5.716512203216553, -1.8250447511672974, 7.655267238616943, -4.409627437591553, 140.53334045410156, 16.840225219726562, 0.380859375, 0.18701171875, -0.776611328125
475, 3206887652, -5.509965896606445, -2.0736329555511475, 7.604068279266357, -2.7159268856048584, 172.17782592773438, 23.963417053222656, 0.417236328125, 0.184814453125, -0.7578125
476, 3206904319, -5.894551753997803, -2.323763370513916, 7.296921253204346, -5.457041263580322, 218.07627868652344, 40.60332107543945, 0.460693359375, 0.1826171875, -0.73193359375
477, 3206920986, -6.430488586425781, -2.416405200958252, 7.989960670471191, -14.946595191955566, 279.9600524902344, 55.047027587890625, 0.51904296875, 0.175537109375, -0.694091796875
478, 3206937653, -8.542431831359863, -2.1206929683685303, 9.32446002960205, -38.05059051513672, 340.8808288574219, 67.29242706298828, 0.583984375, 0.171875, -0.639404296875
479, 3206954320, -13.149024963378906, -2.0771331787109375, 10.940913200378418, -74.260986328125, 373.6336364746094, 71.86714172363281, 0.653076171875, 0.1708984375, -0.57080078125
480, 3206970987, -13.892045974731445, -3.574308395385742, 10.61585521697998, -111.085205078125, 372.635986328125, 73.62816619873047, 0.71337890625, 0.172119140625, -0.493408203125
481, 3206987654, -12.146431922912598, -3.664278984069824, 10.111217498779297, -111.43046569824219, 365.5956726074219, 87.05519104003906, 0.76123046875, 0.17041015625, -0.4130859375
482, 3207004321, -9.521023750305176, -2.579324960708618, 8.297045707702637, -133.36993408203125, 351.45770263671875, 91.74968719482422, 0.8017578125, 0.16455078125, -0.33154296875
483, 3207020988, -9.494647026062012, -1.318609595298767, 10.061349868774414, -159.96627807617188, 310.91632080078125, 103.99504852294922, 0.826904296875, 0.152099609375, -0.24951171875
484, 3207037655, -7.709852695465088, 2.789655923843384, 15.19217586517334, -222.3310546875, 208.2080841064453, 120.0372543334961, 0.841552734375, 0.137451171875, -0.1875
485, 3207054322, -22.77829360961914, 5.106379508972168, 25.900362014770508, -390.3789367675781, -28.729063034057617, 113.22920227050781, 0.841552734375, 0.126953125, -0.177734375
486, 3207070989, -7.302058696746826, -6.539501667022705, 11.959193229675293, -405.2636413574219, -224.6484375, 69.77981567382812, 0.821044921875, 0.13037109375, -0.21728515625
487, 3207087656, 0.4199405014514923, -6.592794418334961, 2.239262580871582, -289.38055419921875, -248.49081420898438, 38.60880661010742, 0.787109375, 0.1416015625, -0.269775390625
488, 3207104323, 0.05944092199206352, -3.2754299640655518, 2.989697217941284, -172.6890869140625, -184.53402709960938, -0.3646404445171356, 0.75341796875, 0.153564453125, -0.306640625
489, 3207120990, -3.4212353229522705, 1.733259916305542, 8.3363676071167, -99.08877563476562, -182.66102600097656, -26.710763931274414, 0.718994140625, 0.158447265625, -0.33203125
490, 3207137657, -6.2642741203308105, 10.417842864990234, 12.399964332580566, -122.90106964111328, -237.29238891601562, -48.405033111572266, 0.677001953125, 0.169677734375, -0.365234375
491, 3207154324, -5.214742660522461, 14.344746589660645, 10.755728721618652, -177.6693115234375, -287.97216796875, -19.820974349975586, 0.633544921875, 0.184326171875, -0.396728515625
492, 3207170991, -4.472532749176025, 15.248775482177734, 8.47064208984375, -207.84439086914062, -300.819580078125, 46.791412353515625, 0.597900390625, 0.191650390625, -0.420166015625
493, 3207187658, -6.065174579620361, 14.147812843322754, 8.371245384216309, -233.27279663085938, -297.71966552734375, 84.59693145751953, 0.56787109375, 0.195556640625, -0.44580078125
494, 3207204325, -7.6423540115356445, 11.307311058044434, 8.915056228637695, -232.70574951171875, -302.6145935058594, 92.15116119384766, 0.54248046875, 0.19873046875, -0.4658203125
495, 3207220992, -7.896698951721191, 9.743277549743652, 8.674007415771484, -193.49037170410156, -304.3332824707031, 95.08789825439453, 0.52001953125, 0.20068359375, -0.49658203125
496, 3207237659, -7.570629119873047, 10.496109008789062, 8.039752960205078, -175.08306884765625, -293.9649963378906, 91.40023040771484, 0.4951171875, 0.20068359375, -0.527587890625
497, 3207254326, -7.7511420249938965, 10.382911682128906, 6.65878963470459, -190.8656005859375, -266.8721923828125, 90.05261993408203, 0.4755859375, 0.20751953125, -0.55908203125
498, 3207270993, -8.566301345825195, 7.694162368774414, 6.625650882720947, -192.3380126953125, -224.62371826171875, 100.81110382080078, 0.4599609375, 0.221923828125, -0.584716796875
499, 3207287660, -12.401113510131836, 5.528987884521484, 11.638240814208984, -184.83746337890625, -207.9756622314453, 106.9158935546875, 0.444091796875, 0.240478515625, -0.6103515625
500, 3207304327, -13.224124908447266, 4.654256343841553, 11.818487167358398, -182.8634490966797, -229.14744567871094, 100.92680358886719, 0.42333984375, 0.27001953125, -0.634033203125
501, 3207320994, -12.417936325073242, 4.357767581939697, 9.77663803100586, -177.76992797851562, -230.6192626953125, 90.86930847167969, 0.39306640625, 0.299072265625, -0.657470703125
502, 3207337661, -13.634228706359863, 4.259701251983643, 9.26862621307373, -169.31370544433594, -224.61624145507812, 71.98567199707031, 0.362548828125, 0.33251953125, -0.671630859375
503, 3207354328, -13.443440437316895, 3.8628344535827637, 7.245035648345947, -137.28347778320312, -221.56678771972656, 56.698116302490234, 0.326171875, 0.363525390625, -0.684326171875
504, 3207370995, -12.99738883972168, 4.386504173278809, 5.414258003234863, -97.59142303466797, -198.47744750976562, 43.557369232177734, 0.2958984375, 0.387451171875, -0.695068359375
505, 3207387662, -13.07367992401123, 3.3014049530029297, 3.5517005920410156, -64.83759307861328, -171.6269989013672, 28.019569396972656, 0.265625, 0.40869140625, -0.703857421875
506, 3207404329, -13.52451229095459, -0.9157916903495789, 0.3468672037124634, -13.32138729095459, -143.35057067871094, 19.49817657470703, 0.23828125, 0.4150390625, -0.71142578125
507, 3207420996, -12.848917961120605, 0.8490502834320068, -1.3158767223358154, 8.828814506530762, -100.29662322998047, 2.837892532348633, 0.21875, 0.413818359375, -0.723388671875
508, 3207437663, -13.500036239624023, 1.1197258234024048, -1.7761465311050415, -16.73828887939453, -47.83815383911133, -23.685850143432617, 0.20654296875, 0.42236328125, -0.725341796875
509, 3207454330, -13.339656829833984, 0.6758118271827698, -1.570899486541748, 3.630744695663452, -5.4194183349609375, -27.37957763671875, 0.20068359375, 0.420654296875, -0.726318359375
510, 3207470997, -9.683639526367188, 3.2343900203704834, -0.7238004207611084, 31.43610954284668, 34.324951171875, -6.0770440101623535, 0.203369140625, 0.414306640625, -0.728271484375
511, 3207487664, 1.6816400289535522, 3.371253728866577, 9.59295654296875, 14.558039665222168, 58.06293487548828, 31.25008201599121, 0.218505859375, 0.400390625, -0.72998046875
512, 3207504331, 1.164368748664856, -8.885637283325195, 18.420927047729492, -102.2798843383789, 118.57218170166016, 2.205155849456787, 0.2431640625, 0.409423828125, -0.7109375
513, 3207520998, -5.419589519500732, -6.564720630645752, 5.7100911140441895, -101.15788269042969, 144.08106994628906, 12.679478645324707, 0.27294921875, 0.42626953125, -0.686279296875
514, 3207537665, -9.699774742126465, 3.8286850452423096, 11.063401222229004, -114.77970123291016, 150.015380859375, -15.392196655273438, 0.301513671875, 0.444091796875, -0.65869140625
515, 3207554332, -9.026638984680176, -2.8746018409729004, 14.088001251220703, -119.24342346191406, 105.84209442138672, -18.43291664123535, 0.32421875, 0.46337890625, -0.63232421875
516, 3207570999, -8.841132164001465, -10.282063484191895, 9.29140567779541, -71.66893005371094, 80.78649139404297, -18.623016357421875, 0.3369140625, 0.481689453125, -0.610595703125
517, 3207587666, -4.935941696166992, -5.168632507324219, 7.28832483291626, 5.259205341339111, 38.33628845214844, -3.8748252391815186, 0.3466796875, 0.481201171875, -0.60595703125
518, 3207604333, -4.40019416809082, -2.495354413986206, 10.336048126220703, 10.948094367980957, 28.025541305541992, -5.501298904418945, 0.349853515625, 0.478271484375, -0.604736328125
519, 3207621000, -5.466506004333496, -3.1615777015686035, 8.667519569396973, 3.039351463317871, 6.486668586730957, -9.513355255126953, 0.354248046875, 0.476806640625, -0.603271484375
520, 3207637667, -4.278579235076904, -4.495822906494141, 7.595029354095459, 4.366459846496582, 1.7051335573196411, -3.243886947631836, 0.349853515625, 0.4765625, -0.604736328125
521, 3207654334, -4.728724002838135, -3.6065878868103027, 8.214019775390625, 7.9071855545043945, -1.1111047267913818, 0.3474043011665344, 0.350341796875, 0.4765625, -0.603759765625
522, 3207671001, -4.064064979553223, -3.136770009994507, 8.639086723327637, 4.781564712524414, -2.0924553871154785, -1.5257614850997925, 0.352294921875, 0.474609375, -0.607177734375
523, 3207687668, -4.414730548858643, -2.926478624343872, 9.075604438781738, -0.30619990825653076, -6.8855156898498535, -5.730945110321045, 0.351318359375, 0.474609375, -0.606201171875
524, 3207704335, -4.326120376586914, -3.0995781421661377, 9.086770057678223, -3.5764834880828857, -10.945199012756348, -10.32347583770752, 0.347412109375, 0.47705078125, -0.60693359375
525, 3207721002, -4.163407325744629, -3.5472657680511475, 8.305068969726562, -7.838380813598633, -13.963666915893555, -12.747726440429688, 0.34326171875, 0.478515625, -0.60498046875
526, 3207737669, -3.759047031402588, -3.9539783000946045, 7.988497257232666, -9.233226776123047, -15.385586738586426, -11.673941612243652, 0.33984375, 0.47998046875, -0.60595703125
527, 3207754336, -3.5883419513702393, -4.166259765625, 7.568284034729004, -6.758169174194336, -16.371191024780273, -7.1194748878479, 0.338134765625, 0.484619140625, -0.605224609375
528, 3207771003, -3.7396228313446045, -3.91287899017334, 7.949638843536377, -3.3285531997680664, -16.157289505004883, -3.6615185737609863, 0.329833984375, 0.483154296875, -0.607666015625
529, 3207787670, -3.613252639770508, -3.943110466003418, 7.627135753631592, -0.5222944617271423, -13.920703887939453, -1.9475650787353516, 0.330322265625, 0.486083984375, -0.609375
530, 3207804337, -3.64532732963562, -3.7919528484344482, 7.93472146987915, 1.6002626419067383, -10.346457481384277, -0.12437530606985092, 0.327880859375, 0.484619140625, -0.60888671875
531, 3207821004, -3.6298670768737793, -3.6358532905578613, 8.066287994384766, 2.1328537464141846, -11.170049667358398, -0.4016585648059845, 0.32666015625, 0.485107421875, -0.61181640625
532, 3207837671, -2.99599552154541, -3.9835164546966553, 7.203308582305908, 5.906475067138672, -3.885498285293579, 1.5440809726715088, 0.32568359375, 0.48388671875, -0.6123046875
533, 3207854338, -2.3795313835144043, -4.418831825256348, 6.650040626525879, 12.332961082458496, 11.969938278198242, 8.147392272949219, 0.327880859375, 0.4814453125, -0.611328125
534, 3207871005, -3.5720794200897217, -4.1074676513671875, 7.517183303833008, 17.812410354614258, 18.697242736816406, 15.793243408203125, 0.3349609375, 0.47705078125, -0.613525390625
535, 3207887672, -3.497765064239502, -3.769146203994751, 7.616544723510742, 23.255327224731445, 19.71582794189453, 22.399551391601562, 0.340576171875, 0.469970703125, -0.614990234375
536, 3207904339, -3.619676351547241, -3.4252240657806396, 7.5891804695129395, 26.030118942260742, 21.376758575439453, 26.710281372070312, 0.34716796875, 0.4580078125, -0.61767578125
537, 3207921006, -3.762282371520996, -3.16641902923584, 7.927899360656738, 28.53404426574707, 28.22758674621582, 30.439315795898438, 0.357177734375, 0.45068359375, -0.619140625
538, 3207937673, -3.7125329971313477, -3.1177024841308594, 7.578398704528809, 30.888164520263672, 35.27682113647461, 30.987581253051758, 0.365234375, 0.441650390625, -0.620849609375
539, 3207954340, -4.525631904602051, -2.6887388229370117, 8.323591232299805, 31.481130599975586, 38.75244140625, 30.1290340423584, 0.37646484375, 0.431640625, -0.62109375
540, 3207971007, -3.6964714527130127, -3.1680634021759033, 6.893603324890137, 40.379905700683594, 49.20530319213867, 32.68783950805664, 0.3896484375, 0.419677734375, -0.62060546875
541, 3207987674, -4.134157657623291, -3.2613840103149414, 7.532712936401367, 50.690059661865234, 58.89271926879883, 38.36677551269531, 0.40576171875, 0.404296875, -0.6181640625
542, 3208004341, -4.891472816467285, -3.2792348861694336, 9.167478561401367, 48.41473388671875, 47.404876708984375, 39.08972930908203, 0.41943359375, 0.388671875, -0.620849609375
543, 3208021008, -5.627366065979004, -2.276823043823242, 10.061211585998535, 27.676124572753906, 32.972679138183594, 33.82819747924805, 0.43212890625, 0.373291015625, -0.619873046875
544, 3208037675, -5.043773651123047, -2.195556879043579, 8.917831420898438, 14.445926666259766, 23.670480728149414, 26.749576568603516, 0.437255859375, 0.36572265625, -0.619384765625
545, 3208054342, -5.139754295349121, -1.8043948411941528, 8.89720344543457, 8.5496826171875, 27.31869125366211, 23.48098373413086, 0.447265625, 0.36083984375, -0.616943359375
546, 3208071009, -5.342194080352783, -1.3985743522644043, 8.862257957458496, -3.6651742458343506, 37.53437042236328, 17.841588973999023, 0.451416015625, 0.357421875, -0.614501953125
547, 3208087676, -4.203563690185547, -1.2551056146621704, 8.455263137817383, -15.192526817321777, 64.72724914550781, 7.646426677703857, 0.46533203125, 0.357421875, -0.605712890625
548, 3208104343, -4.790276050567627, -1.720969319343567, 8.099998474121094, -24.801891326904297, 99.5094985961914, 1.165542721748352, 0.481689453125, 0.361572265625, -0.59130859375
549, 3208121010, -5.258813858032227, -2.377347707748413, 8.049175262451172, -24.633975982666016, 127.35295104980469, -1.5184236764907837, 0.502685546875, 0.36181640625, -0.5673828125
550, 3208137677, -5.506300926208496, -2.498595714569092, 7.88411283493042, -24.25741958618164, 148.6210479736328, -2.3572351932525635, 0.525634765625, 0.365966796875, -0.542724609375
551, 3208154344, -5.5615410804748535, -2.644069194793701, 7.592491626739502, -22.275890350341797, 170.37933349609375, -1.6121799945831299, 0.55029296875, 0.36767578125, -0.51318359375
552, 3208171011, -5.7083940505981445, -2.3821094036102295, 7.676121234893799, -20.746627807617188, 197.73793029785156, 1.376765489578247, 0.57568359375, 0.37109375, -0.47900390625
553, 3208187678, -5.528886318206787, -2.8253519535064697, 7.709880352020264, -19.281225204467773, 236.02249145507812, 5.325376510620117, 0.607177734375, 0.369873046875, -0.439208984375
554, 3208204345, -5.977868556976318, -3.3513858318328857, 7.499335765838623, -14.886801719665527, 288.700927734375, 12.903247833251953, 0.64306640625, 0.37109375, -0.384765625
555, 3208221012, -6.065136909484863, -3.2286765575408936, 8.026898384094238, -20.369319915771484, 365.5045471191406, 28.763460159301758, 0.677001953125, 0.36474609375, -0.31396484375
556, 3208237679, -7.941850662231445, -2.5701980590820312, 9.358189582824707, -45.041683197021484, 437.0719909667969, 57.7341423034668, 0.716064453125, 0.355712890625, -0.22265625
557, 3208254346, -14.380443572998047, -2.4969868659973145, 9.562150955200195, -73.85726165771484, 458.3433837890625, 59.179683685302734, 0.74853515625, 0.34375, -0.115966796875
558, 3208271013, -16.46646499633789, -2.667656660079956, 10.01604175567627, -100.01902770996094, 446.6472473144531, 48.11420440673828, 0.757568359375, 0.3359375, -0.00634765625
559, 3208287680, -15.653352737426758, -4.793435096740723, 9.322312355041504, -99.0670394897461, 426.21563720703125, 57.35131072998047, 0.756103515625, 0.328125, 0.108154296875
560, 3208304347, -13.105949401855469, -4.225641250610352, 10.501242637634277, -61.04526138305664, 389.6942443847656, 78.2476806640625, 0.7451171875, 0.313720703125, 0.207763671875
561, 3208321014, -8.755924224853516, -4.615972995758057, 11.655314445495605, -45.9661865234375, 332.51312255859375, 71.04328155517578, 0.725830078125, 0.301025390625, 0.293212890625
562, 3208337681, -15.978995323181152, -7.790653705596924, 15.645061492919922, -56.74656295776367, 201.7442169189453, 32.35780334472656, 0.70947265625, 0.296142578125, 0.357177734375
563, 3208354348, -24.312334060668945, -7.249374866485596, 28.095643997192383, -5.049528121948242, -6.453478813171387, 22.345672607421875, 0.70654296875, 0.296630859375, 0.377197265625
564, 3208371015, -3.690666437149048, -3.2361199855804443, 13.865681648254395, 56.10270690917969, -185.0635986328125, 25.140138626098633, 0.735595703125, 0.31103515625, 0.35009765625
565, 3208387682, -1.1347765922546387, -0.28472137451171875, 8.312469482421875, 81.65322875976562, -214.15191650390625, 95.73759460449219, 0.776611328125, 0.310302734375, 0.293701171875
566, 3208404349, -5.419339656829834, -0.36444246768951416, 9.332252502441406, 53.30510711669922, -223.56533813476562, 120.79804229736328, 0.815673828125, 0.302734375, 0.232421875
567, 3208421016, -7.067939281463623, -2.5595762729644775, 8.923986434936523, 4.015565395355225, -294.4930419921875, 79.99127960205078, 0.845458984375, 0.289306640625, 0.14990234375
568, 3208437683, -5.889538764953613, -7.570010185241699, 5.204208850860596, 57.856689453125, -362.5543518066406, 61.622840881347656, 0.857421875, 0.285400390625, 0.045166015625
569, 3208454350, -5.456540107727051, -5.993269443511963, 2.704662322998047, 165.21987915039062, -370.2882995605469, 91.2861099243164, 0.855712890625, 0.275146484375, -0.07421875
570, 3208471017, -4.6132378578186035, -2.6562230587005615, 3.4570348262786865, 181.15013122558594, -349.46514892578125, 113.70955657958984, 0.838623046875, 0.24951171875, -0.181884765625
571, 3208487684, -6.447656631469727, -2.3709874153137207, 4.716653347015381, 114.25309753417969, -324.9613342285156, 99.69664001464844, 0.810791015625, 0.21630859375, -0.267822265625
572, 3208504351, -10.14824104309082, -5.493611812591553, 6.44025993347168, 35.03529739379883, -311.1177062988281, 59.03118133544922, 0.787841796875, 0.201171875, -0.338134765625
573, 3208521018, -11.914962768554688, -8.633086204528809, 6.544244766235352, -4.140717506408691, -317.7112121582031, 0.9587108492851257, 0.760009765625, 0.197021484375, -0.413818359375
574, 3208537685, -11.959640502929688, -9.695173263549805, 5.404940128326416, 20.30989646911621, -321.77410888671875, -38.995399475097656, 0.715576171875, 0.203369140625, -0.4970703125
575, 3208554352, -12.23218059539795, -6.901749134063721, 5.824133396148682, 35.153175354003906, -313.2153015136719, -63.46574783325195, 0.654052734375, 0.211669921875, -0.5771484375
576, 3208571019, -12.162622451782227, -5.075752258300781, 5.630980968475342, 1.3684488534927368, -292.42340087890625, -94.52616119384766, 0.576416015625, 0.230712890625, -0.635009765625
577, 3208587686, -11.414499282836914, -3.327263832092285, 4.985611915588379, -28.73070526123047, -256.00628662109375, -115.11192321777344, 0.498291015625, 0.26171875, -0.657958984375
578, 3208604353, -13.375809669494629, 1.5063942670822144, 8.513229370117188, -50.51477813720703, -224.17132568359375, -101.3839111328125, 0.43701171875, 0.286376953125, -0.65185546875
579, 3208621020, -15.927658081054688, 4.346588134765625, 11.651058197021484, -96.21691131591797, -233.85374450683594, -67.47935485839844, 0.408203125, 0.313232421875, -0.640625
580, 3208637687, -15.765130996704102, 3.403223991394043, 10.4009428024292, -117.94523620605469, -254.30567932128906, -28.544042587280273, 0.394287109375, 0.34326171875, -0.65966796875
581, 3208654354, -15.722646713256836, 3.156913995742798, 9.28647518157959, -111.8543701171875, -258.571533203125, 2.7913999557495117, 0.368896484375, 0.373779296875, -0.693115234375
582, 3208671021, -16.311412811279297, 2.8103747367858887, 8.216255187988281, -110.58183288574219, -254.91448974609375, 22.359323501586914, 0.328125, 0.40576171875, -0.727783203125
583, 3208687688, -16.168498992919922, 2.2630019187927246, 5.622426986694336, -112.62376403808594, -239.20814514160156, 30.519227981567383, 0.2822265625, 0.43408203125, -0.75341796875
584, 3208704355, -15.969550132751465, 1.505260705947876, 2.6930646896362305, -107.61096954345703, -205.27215576171875, 27.737661361694336, 0.236572265625, 0.4609375, -0.76708984375
585, 3208721022, -17.253122329711914, 1.0198160409927368, 0.8161807656288147, -91.88104248046875, -163.294189453125, 8.086682319641113, 0.1982421875, 0.486328125, -0.7724609375
586, 3208737689, -17.838953018188477, 3.0570008754730225, -0.921549379825592, -62.846717834472656, -125.16563415527344, -19.680049896240234, 0.16357421875, 0.505126953125, -0.77099609375
587, 3208754356, -17.053970336914062, 6.32696008682251, -3.83036470413208, -33.63645553588867, -85.7092514038086, -24.17475700378418, 0.1328125, 0.516845703125, -0.77099609375
588, 3208771023, -16.906118392944336, 7.808744430541992, -5.633495330810547, -19.134897232055664, -26.4588680267334, -6.590250015258789, 0.120361328125, 0.521240234375, -0.77490234375
589, 3208787690, -9.109892845153809, 5.132380962371826, -5.22352409362793, 5.39406156539917, 54.46357727050781, 11.83102798461914, 0.12939453125, 0.52685546875, -0.773193359375
590, 3208804357, 4.253983497619629, 4.443802356719971, 16.14229393005371, -26.983304977416992, 111.70210266113281, 29.755983352661133, 0.15478515625, 0.525634765625, -0.76708984375
591, 3208821024, 0.0286562442779541, -8.046700477600098, 11.704102516174316, -102.38760375976562, 188.4054718017578, 20.6026554107666, 0.19873046875, 0.54345703125, -0.747802734375
592, 3208837691, -6.0240960121154785, -0.26755577325820923, 7.71463680267334, -111.48907470703125, 211.2691650390625, 13.810368537902832, 0.243408203125, 0.56494140625, -0.714599609375
593, 3208854358, -8.33362865447998, -4.149363040924072, 11.199012756347656, -149.0790252685547, 216.12210083007812, -1.270634651184082, 0.291259765625, 0.59765625, -0.675048828125
594, 3208871025, -8.672880172729492, -7.604526996612549, 8.997065544128418, -111.94798278808594, 194.4586639404297, 1.8559374809265137, 0.330078125, 0.621826171875, -0.63525390625
595, 3208887692, -12.306262016296387, -13.064800262451172, 11.412154197692871, -25.450773239135742, 140.9093017578125, 17.768583297729492, 0.363525390625, 0.629638671875, -0.608154296875
596, 3208904359, -7.302048683166504, -4.499434471130371, 7.203067779541016, 66.11253356933594, 76.37313079833984, 49.928348541259766, 0.38623046875, 0.61376953125, -0.608642578125
597, 3208921026, -6.17962121963501, -0.6830748319625854, 10.539883613586426, 47.19437026977539, 68.0461654663086, 29.81602668762207, 0.40625, 0.598388671875, -0.612060546875
598, 3208937693, -5.299602508544922, -3.1178767681121826, 8.408101081848145, 39.2408447265625, 49.72200012207031, 23.462608337402344, 0.41943359375, 0.589111328125, -0.61328125
599, 3208954360, -5.044638156890869, -2.2793128490448, 9.47081470489502, 37.226409912109375, 40.504608154296875, 21.84056854248047, 0.431884765625, 0.58251953125, -0.614990234375
600, 3208971027, -5.370392322540283, -2.138526201248169, 9.33153247833252, 26.868728637695312, 27.369239807128906, 16.765159606933594, 0.439697265625, 0.572021484375, -0.61474609375
601, 3208987694, -5.691874980926514, -2.3762295246124268, 9.19298267364502, 16.263736724853516, 17.068939208984375, 10.742701530456543, 0.44921875, 0.566162109375, -0.616455078125
602, 3209004361, -5.1356682777404785, -2.874331474304199, 8.377701759338379, 9.156630516052246, 10.351362228393555, 7.355978965759277, 0.4521484375, 0.565185546875, -0.616943359375
603, 3209021028, -4.926183223724365, -2.8492467403411865, 8.176669120788574, 10.525681495666504, 7.528519630432129, 7.286454200744629, 0.452392578125, 0.560546875, -0.616455078125
604, 3209037695, -4.665947437286377, -2.9642059803009033, 7.943362236022949, 13.138103485107422, 7.003895282745361, 8.744126319885254, 0.455810546875, 0.55810546875, -0.617919921875
605, 3209054362, -4.5835490226745605, -3.22928524017334, 7.438469409942627, 22.321985244750977, 8.825711250305176, 12.45329761505127, 0.4609375, 0.55322265625, -0.62158203125
606, 3209071029, -4.74113130569458, -2.892615795135498, 7.819243431091309, 31.90361976623535, 5.494866371154785, 17.41485595703125, 0.464599609375, 0.546142578125, -0.6259765625
607, 3209087696, -4.557100296020508, -2.928150177001953, 7.959436416625977, 31.963550567626953, -4.1652092933654785, 20.650848388671875, 0.468017578125, 0.53564453125, -0.63134765625
608, 3209104363, -4.842608451843262, -3.4051551818847656, 7.787657260894775, 22.367019653320312, -7.839383125305176, 20.591144561767578, 0.47119140625, 0.527099609375, -0.63427734375
609, 3209121030, -5.481902599334717, -2.2719740867614746, 8.460793495178223, 19.880903244018555, -12.839241981506348, 20.225034713745117, 0.469970703125, 0.5205078125, -0.640869140625
610, 3209137697, -5.28602933883667, -1.47844660282135, 8.660259246826172, 16.73070526123047, -11.613348007202148, 14.984122276306152, 0.470947265625, 0.513427734375, -0.642333984375
611, 3209154364, -5.046237945556641, -1.620209813117981, 8.534600257873535, 8.617825508117676, -4.692901134490967, 6.896356582641602, 0.469482421875, 0.512939453125, -0.64892578125
612, 3209171031, -4.870242118835449, -2.0044212341308594, 8.293326377868652, 2.25775408744812, 0.9080118536949158, 1.6290909051895142, 0.471435546875, 0.510498046875, -0.648681640625
613, 3209187698, -4.716222763061523, -2.439594030380249, 8.038169860839844, 3.07800030708313, 2.608058214187622, 2.233651876449585, 0.47216796875, 0.509033203125, -0.646728515625
614, 3209204365, -4.720794677734375, -2.588860273361206, 7.915504455566406, 7.673631191253662, -0.576298713684082, 6.3846845626831055, 0.4736328125, 0.506591796875, -0.648681640625
615, 3209221032, -4.76568078994751, -2.4338409900665283, 8.023407936096191, 14.39042854309082, -5.627372741699219, 11.395302772521973, 0.474609375, 0.504150390625, -0.649169921875
616, 3209237699, -4.886256694793701, -2.0543346405029297, 8.287629127502441, 14.627400398254395, -5.991484642028809, 12.225284576416016, 0.47509765625, 0.498046875, -0.652099609375
617, 3209254366, -4.8566765785217285, -1.9143716096878052, 8.351268768310547, 8.8170804977417, -1.4314560890197754, 8.8797025680542, 0.474365234375, 0.493896484375, -0.655029296875
618, 3209271033, -4.812821865081787, -1.8340307474136353, 8.2991304397583, 3.78494930267334, 3.452765464782715, 5.679764747619629, 0.475830078125, 0.493408203125, -0.657470703125
619, 3209287700, -4.71437931060791, -2.0638692378997803, 8.224165916442871, 1.7205398082733154, 7.116316795349121, 4.148931503295898, 0.480712890625, 0.490478515625, -0.656494140625
620, 3209304367, -4.616064071655273, -2.2891147136688232, 8.09330940246582, 3.2221367359161377, 9.232901573181152, 6.089684009552002, 0.48388671875, 0.491455078125, -0.65234375
621, 3209321034, -4.58090353012085, -2.4292538166046143, 8.049616813659668, 8.381509780883789, 11.61713981628418, 11.095780372619629, 0.486328125, 0.488037109375, -0.6552734375
622, 3209337701, -4.853923320770264, -2.079303503036499, 8.179888725280762, 9.904586791992188, 16.944059371948242, 15.209399223327637, 0.491455078125, 0.483642578125, -0.651123046875
623, 3209354368, -4.751608848571777, -1.6358596086502075, 8.326391220092773, 6.015295505523682, 25.515649795532227, 15.159555435180664, 0.4970703125, 0.478515625, -0.64892578125
624, 3209371035, -4.721386432647705, -1.5623693466186523, 8.366155624389648, -2.9239516258239746, 40.469940185546875, 13.122422218322754, 0.508056640625, 0.4765625, -0.643798828125
625, 3209387702, -4.7067952156066895, -1.5416333675384521, 8.337019920349121, -7.377561569213867, 58.30756378173828, 10.843316078186035, 0.518310546875, 0.47607421875, -0.634033203125
626, 3209404369, -4.775926113128662, -1.725760579109192, 8.21060562133789, -12.93101692199707, 79.99141693115234, 9.172052383422852, 0.531494140625, 0.476806640625, -0.622314453125
627, 3209421036, -4.89265775680542, -1.8134876489639282, 8.14680290222168, -17.4261417388916, 103.60796356201172, 9.364594459533691, 0.55322265625, 0.478515625, -0.604248046875
628, 3209437703, -5.027154922485352, -1.8663711547851562, 8.157988548278809, -20.703718185424805, 129.75411987304688, 10.395864486694336, 0.57421875, 0.478515625, -0.582763671875
629, 3209454370, -4.889094352722168, -1.8839577436447144, 8.29753303527832, -20.25470733642578, 167.47906494140625, 9.351555824279785, 0.6015625, 0.482177734375, -0.550537109375
630, 3209471037, -4.863767623901367, -1.508406639099121, 8.277586936950684, -20.517026901245117, 217.42762756347656, 10.29151439666748, 0.635009765625, 0.4814453125, -0.51171875
631, 3209487704, -4.873321533203125, -1.0536596775054932, 8.616278648376465, -17.418424606323242, 283.8375244140625, 4.899698257446289, 0.673828125, 0.484130859375, -0.459716796875
632, 3209504371, -5.410911560058594, -2.5528762340545654, 8.610493659973145, -6.533885955810547, 371.7781982421875, 6.371389865875244, 0.717041015625, 0.4853515625, -0.382080078125
633, 3209521038, -7.363582134246826, -2.0614192485809326, 10.5227632522583, -4.772620677947998, 463.45294189453125, 26.407794952392578, 0.763427734375, 0.479736328125, -0.286376953125
634, 3209537705, -13.68740463256836, -1.908327341079712, 12.104252815246582, -24.09510040283203, 501.3526611328125, 36.41876220703125, 0.802734375, 0.4765625, -0.168212890625
635, 3209554372, -15.766376495361328, -4.150918006896973, 11.078213691711426, -36.13456344604492, 481.07171630859375, 44.15041732788086, 0.8232421875, 0.468505859375, -0.044677734375
636, 3209571039, -14.606006622314453, -5.752008438110352, 9.036248207092285, 8.29056167602539, 451.5080871582031, 69.8230209350586, 0.83349609375, 0.453369140625, 0.06103515625
637, 3209587706, -11.94568920135498, -5.806456565856934, 10.020471572875977, 72.9058837890625, 408.63067626953125, 93.74597930908203, 0.8291015625, 0.4345703125, 0.15185546875
638, 3209604373, -10.048351287841797, -5.563574314117432, 15.010154724121094, 107.40384674072266, 327.3108825683594, 75.46736145019531, 0.8232421875, 0.422119140625, 0.2236328125
639, 3209621040, -16.06222152709961, -0.8835228681564331, 19.469768524169922, 76.06182861328125, 146.6318817138672, 75.28046417236328, 0.81884765625, 0.4140625, 0.252197265625
640, 3209637707, -19.027040481567383, -0.5696955919265747, 25.941993713378906, 20.753101348876953, -97.28577423095703, 27.337669372558594, 0.822509765625, 0.41015625, 0.228271484375
641, 3209654374, 0.00739714503288269, -3.7350475788116455, 10.241820335388184, 44.13551330566406, -215.47512817382812, 50.65734100341797, 0.83544921875, 0.408203125, 0.168701171875
642, 3209671041, -0.6212661862373352, -2.582667589187622, 5.140678405761719, 118.40556335449219, -226.77586364746094, 132.4873504638672, 0.853271484375, 0.387451171875, 0.092041015625
643, 3209687708, -3.2286362648010254, -3.7920849323272705, 5.930635452270508, 154.55821228027344, -228.74398803710938, 151.32177734375, 0.865966796875, 0.353515625, 0.017822265625
644, 3209704375, -6.899411201477051, -7.319770336151123, 7.806919097900391, 155.71218872070312, -274.2353210449219, 105.21346282958984, 0.870361328125, 0.32470703125, -0.063232421875
645, 3209721042, -7.395094871520996, -9.779962539672852, 5.5933942794799805, 177.32029724121094, -322.60760498046875, 40.4599494934082, 0.86279296875, 0.300537109375, -0.154052734375
646, 3209737709, -5.970003604888916, -10.564888000488281, 2.7448604106903076, 217.79856872558594, -332.8824768066406, 4.319180965423584, 0.84375, 0.2890625, -0.253173828125
647, 3209754376, -6.459672451019287, -10.633295059204102, 1.8719077110290527, 248.44644165039062, -315.3779602050781, -8.574793815612793, 0.82470703125, 0.26904296875, -0.348388671875
648, 3209771043, -8.261981010437012, -11.314624786376953, 2.993501901626587, 239.92236328125, -294.8022155761719, -29.14266586303711, 0.794677734375, 0.245849609375, -0.442626953125
649, 3209787710, -10.651209831237793, -13.464007377624512, 4.742862701416016, 204.62112426757812, -287.86077880859375, -67.67552185058594, 0.756591796875, 0.22900390625, -0.530029296875
650, 3209804377, -12.694596290588379, -17.453479766845703, 4.462843894958496, 193.06703186035156, -293.81268310546875, -106.31204986572266, 0.698486328125, 0.21826171875, -0.6083984375
651, 3209821044, -13.556833267211914, -20.06509017944336, 3.2289628982543945, 220.06568908691406, -292.72540283203125, -145.08262634277344, 0.63134765625, 0.197509765625, -0.676513671875
652, 3209837711, -14.731856346130371, -21.1168155670166, 2.6644034385681152, 255.89907836914062, -280.2236633300781, -194.0557098388672, 0.563232421875, 0.16748046875, -0.73876953125
653, 3209854378, -16.21745491027832, -20.510910034179688, 3.084527015686035, 266.2994384765625, -257.40252685546875, -254.75616455078125, 0.495361328125, 0.13330078125, -0.7900390625
654, 3209871045, -17.373931884765625, -20.33203887939453, 3.4355242252349854, 253.77084350585938, -232.94322204589844, -307.7815856933594, 0.44091796875, 0.10107421875, -0.835693359375
655, 3209887712, -16.642986297607422, -17.500795364379883, 4.032662391662598, 220.50509643554688, -202.81991577148438, -334.03924560546875, 0.39208984375, 0.072021484375, -0.875
656, 3209904379, -15.318340301513672, -14.68958568572998, 4.881899833679199, 165.52992248535156, -171.03099060058594, -338.25616455078125, 0.347412109375, 0.05810546875, -0.911376953125
