sep=,
DeviceTag:,B,,,,,,,,,,,,,,,,,
FirmwareVersion:,2.2.1,,,,,,,,,,,,,,,,,
AppVersion:,2022.0.1,,,,,,,,,,,,,,,,,
SyncStatus:,Synced,,,,,,,,,,,,,,,,,
OutputRate:,60Hz,,,,,,,,,,,,,,,,,
FilterProfile:,General,,,,,,,,,,,,,,,,,
Measurement Mode:,Inertial Mode - Rate quantities (with mag),,,,,,,,,,,,,,,,,
StartTime:,2022-08-05 16:25:18.732 +0300,,,,,,,,,,,,,,,,,
© Xsens Technologies B. V. 2005-2022,,,,,,,,,,,,,,,,,,,

PacketCounter,SampleTimeFine,Acc_X,Acc_Y,Acc_Z,Gyr_X,Gyr_Y,Gyr_Z,Mag_X,Mag_Y,Mag_Z
1, 2165785432, -5.410515308380127, -2.2150957584381104, 7.729678630828857, -0.09165504574775696, -0.35993528366088867, -0.7263633012771606, 0.04443359375, 0.210205078125, -0.81591796875
2, 2165802099, -5.415196895599365, -2.1932663917541504, 7.733087062835693, -0.2460099756717682, -0.42762961983680725, -0.6743311285972595, 0.044921875, 0.209716796875, -0.814697265625
3, 2165818766, -5.422065734863281, -2.2247588634490967, 7.739838600158691, -0.004776767920702696, -0.5077717304229736, -0.7603641748428345, 0.0439453125, 0.210205078125, -0.814208984375
4, 2165835433, -5.421106338500977, -2.1987967491149902, 7.739428520202637, 0.03562086448073387, -0.693976104259491, -0.8358960747718811, 0.044921875, 0.209228515625, -0.81689453125
5, 2165852100, -5.40872859954834, -2.2169723510742188, 7.702279567718506, 0.01486176997423172, -0.835345447063446, -0.846397340297699, 0.04296875, 0.207275390625, -0.81591796875
6, 2165868767, -5.409583568572998, -2.204829692840576, 7.73616886138916, 0.0020041936077177525, -0.7318316102027893, -0.882844090461731, 0.041748046875, 0.212158203125, -0.8154296875
7, 2165885434, -5.410523891448975, -2.206878900527954, 7.71829891204834, 0.06867404282093048, -0.7040418982505798, -0.9140275716781616, 0.04443359375, 0.211181640625, -0.814697265625
8, 2165902101, -5.423954963684082, -2.1873693466186523, 7.753399848937988, 0.06022185832262039, -0.7667161822319031, -0.9821190237998962, 0.04443359375, 0.207275390625, -0.816162109375
9, 2165918768, -5.410436630249023, -2.2016608715057373, 7.725610256195068, 0.005628390237689018, -0.8767738938331604, -1.0228430032730103, 0.04443359375, 0.210693359375, -0.813720703125
10, 2165935435, -5.4072675704956055, -2.210291862487793, 7.727189540863037, 0.06081094965338707, -0.9018358588218689, -1.004594087600708, 0.0439453125, 0.210205078125, -0.8173828125
11, 2165952102, -5.393240451812744, -2.2030029296875, 7.745421886444092, 0.03886087238788605, -0.8792584538459778, -0.9821958541870117, 0.0419921875, 0.208740234375, -0.814208984375
12, 2165968769, -5.392857551574707, -2.209381341934204, 7.753885746002197, -0.045577794313430786, -0.8195294737815857, -0.9247208833694458, 0.04345703125, 0.208740234375, -0.8154296875
13, 2165985436, -5.3874335289001465, -2.1967179775238037, 7.715671062469482, -0.1541244089603424, -0.7208309173583984, -0.8849443197250366, 0.0439453125, 0.210205078125, -0.814697265625
14, 2166002103, -5.39053201675415, -2.2120180130004883, 7.730704307556152, -0.16183382272720337, -0.698599100112915, -1.0072065591812134, 0.0458984375, 0.205810546875, -0.814697265625
15, 2166018770, -5.405472278594971, -2.1993167400360107, 7.755008220672607, -0.13966605067253113, -0.5852373242378235, -0.9330321550369263, 0.04345703125, 0.209716796875, -0.815185546875
16, 2166035437, -5.390109062194824, -2.225205898284912, 7.742122650146484, -0.198792964220047, -0.5573579668998718, -0.995015025138855, 0.04345703125, 0.207275390625, -0.812744140625
17, 2166052104, -5.400129795074463, -2.2095282077789307, 7.756904125213623, -0.05784628167748451, -0.5744287967681885, -0.8921158909797668, 0.041259765625, 0.210693359375, -0.81396484375
18, 2166068771, -5.414775848388672, -2.19256854057312, 7.739084720611572, -0.07126733660697937, -0.5767980217933655, -0.8740077018737793, 0.04248046875, 0.209716796875, -0.8154296875
19, 2166085438, -5.41271448135376, -2.185309886932373, 7.741944789886475, -0.13149559497833252, -0.5905391573905945, -0.9278967976570129, 0.0419921875, 0.210205078125, -0.81591796875
20, 2166102105, -5.390561580657959, -2.2286038398742676, 7.741741180419922, -0.11833065748214722, -0.5729175806045532, -0.9020920395851135, 0.0439453125, 0.206787109375, -0.813720703125
21, 2166118772, -5.408353805541992, -2.202558994293213, 7.721594333648682, -0.21585100889205933, -0.5129967331886292, -0.8807566165924072, 0.04443359375, 0.209228515625, -0.815185546875
22, 2166135439, -5.408420562744141, -2.199591636657715, 7.764278411865234, -0.09871134907007217, -0.5667579174041748, -0.8501623868942261, 0.0439453125, 0.208251953125, -0.813720703125
23, 2166152106, -5.409797191619873, -2.2083346843719482, 7.7407097816467285, 0.014733705669641495, -0.565387487411499, -0.8778752684593201, 0.04296875, 0.210693359375, -0.81884765625
24, 2166168773, -5.40032958984375, -2.194470167160034, 7.740870475769043, -0.1817733198404312, -0.5519152283668518, -0.8916548490524292, 0.04443359375, 0.209716796875, -0.815673828125
25, 2166185440, -5.392397403717041, -2.197023630142212, 7.749414920806885, -0.12410097569227219, -0.6253460049629211, -0.8997768759727478, 0.04541015625, 0.210205078125, -0.8173828125
26, 2166202107, -5.394903182983398, -2.206383466720581, 7.733861446380615, -0.11542361974716187, -0.5159422159194946, -0.8428114652633667, 0.044921875, 0.209716796875, -0.81640625
27, 2166218774, -5.402150630950928, -2.2078118324279785, 7.753294467926025, -0.1958347111940384, -0.535535991191864, -0.7743872404098511, 0.04345703125, 0.208740234375, -0.81787109375
28, 2166235441, -5.410670280456543, -2.192716598510742, 7.757187366485596, -0.1701451539993286, -0.5506345629692078, -0.8512251377105713, 0.04296875, 0.208740234375, -0.8154296875
29, 2166252108, -5.402732849121094, -2.177478551864624, 7.724320411682129, -0.112913578748703, -0.5981460809707642, -0.9437894821166992, 0.04296875, 0.209228515625, -0.81640625
30, 2166268775, -5.414407730102539, -2.199712038040161, 7.737920761108398, -0.16348586976528168, -0.693271815776825, -0.9962828755378723, 0.0419921875, 0.208740234375, -0.8154296875
31, 2166285442, -5.3958845138549805, -2.198730945587158, 7.736931324005127, -0.02305142767727375, -0.6454528570175171, -0.9741149544715881, 0.04541015625, 0.209716796875, -0.81689453125
32, 2166302109, -5.3975443840026855, -2.2105910778045654, 7.730585098266602, -0.14907871186733246, -0.5565895438194275, -0.9815682172775269, 0.04248046875, 0.208251953125, -0.814697265625
33, 2166318776, -5.398799896240234, -2.191431999206543, 7.740304470062256, -0.1101602166891098, -0.577860951423645, -0.9064590930938721, 0.04248046875, 0.209228515625, -0.8154296875
34, 2166335443, -5.373051166534424, -2.20700740814209, 7.743875503540039, -0.1205589771270752, -0.4494132101535797, -0.8762872219085693, 0.0439453125, 0.207763671875, -0.8173828125
35, 2166352110, -5.415825366973877, -2.2038381099700928, 7.736841201782227, -0.18795879185199738, -0.4926218092441559, -0.8211686611175537, 0.04296875, 0.209716796875, -0.818359375
36, 2166368777, -5.428750991821289, -2.1752769947052, 7.728175163269043, -0.10789348930120468, -0.4737708866596222, -0.9067150950431824, 0.0439453125, 0.209716796875, -0.8173828125
37, 2166385444, -5.40401029586792, -2.2110681533813477, 7.751218795776367, -0.12502840161323547, -0.7047591209411621, -0.899389922618866, 0.0439453125, 0.208740234375, -0.8203125
38, 2166402111, -5.420433521270752, -2.196178674697876, 7.7371745109558105, -0.15500806272029877, -0.7932509779930115, -0.9439944624900818, 0.04345703125, 0.209716796875, -0.8173828125
39, 2166418778, -5.399353504180908, -2.2081217765808105, 7.744556427001953, -0.17292413115501404, -0.8512508869171143, -1.0287084579467773, 0.04248046875, 0.207275390625, -0.814697265625
40, 2166435445, -5.393647193908691, -2.2076427936553955, 7.733366012573242, -0.2417454719543457, -0.6958073973655701, -0.9972561001777649, 0.04345703125, 0.208251953125, -0.813232421875
41, 2166452112, -5.394864559173584, -2.2019741535186768, 7.7595086097717285, -0.11885572224855423, -0.5854422450065613, -0.9628582000732422, 0.04443359375, 0.211181640625, -0.8154296875
42, 2166468779, -5.413925647735596, -2.185784339904785, 7.755392551422119, -0.2407081425189972, -0.5752484202384949, -0.896867036819458, 0.04248046875, 0.210205078125, -0.81689453125
43, 2166485446, -5.400884628295898, -2.1923041343688965, 7.721951007843018, -0.18036462366580963, -0.6261793375015259, -0.9827848076820374, 0.04443359375, 0.207275390625, -0.815185546875
44, 2166502113, -5.411144733428955, -2.205209255218506, 7.760517120361328, -0.22294573485851288, -0.623758852481842, -0.8749426007270813, 0.04541015625, 0.209228515625, -0.816162109375
45, 2166518780, -5.384135723114014, -2.212726354598999, 7.735953330993652, -0.11973936855792999, -0.62856125831604, -0.8644542098045349, 0.04345703125, 0.208251953125, -0.81591796875
46, 2166535447, -5.387939929962158, -2.2022886276245117, 7.739388465881348, -0.14191998541355133, -0.5966222882270813, -0.8066719770431519, 0.0439453125, 0.205810546875, -0.813720703125
47, 2166552114, -5.409684181213379, -2.1942474842071533, 7.747169017791748, -0.16977377235889435, -0.6533799171447754, -0.8779008984565735, 0.04345703125, 0.210693359375, -0.813232421875
48, 2166568781, -5.4015092849731445, -2.191197395324707, 7.758090019226074, -0.14257308840751648, -0.625052273273468, -0.9353885650634766, 0.0419921875, 0.208740234375, -0.81591796875
49, 2166585448, -5.396604061126709, -2.188005208969116, 7.7460198402404785, -0.12436246126890182, -0.6576444506645203, -0.9693382382392883, 0.0419921875, 0.207275390625, -0.81689453125
50, 2166602115, -5.3903093338012695, -2.207350015640259, 7.738129615783691, -0.20394110679626465, -0.5595222115516663, -0.9608219265937805, 0.04296875, 0.209228515625, -0.81787109375
51, 2166618782, -5.407364368438721, -2.2090346813201904, 7.7340312004089355, -0.1401526927947998, -0.5119850039482117, -0.9047045707702637, 0.04345703125, 0.207763671875, -0.815185546875
52, 2166635449, -5.405908107757568, -2.1951382160186768, 7.758432865142822, -0.08553361147642136, -0.6166385412216187, -0.8792583346366882, 0.04541015625, 0.206298828125, -0.814697265625
53, 2166652116, -5.40558385848999, -2.1909143924713135, 7.724562644958496, -0.053812287747859955, -0.6744592785835266, -0.9864475131034851, 0.0439453125, 0.209716796875, -0.8154296875
54, 2166668783, -5.370213508605957, -2.211594581604004, 7.721132755279541, -0.1717715710401535, -0.6787877678871155, -0.8230513334274292, 0.0419921875, 0.210205078125, -0.81640625
55, 2166685450, -5.403959274291992, -2.1834020614624023, 7.755358695983887, -0.27330029010772705, -0.5156348347663879, -0.7958889007568359, 0.04296875, 0.207763671875, -0.815185546875
56, 2166702117, -5.405489444732666, -2.2050328254699707, 7.736629962921143, -0.09319180250167847, -0.3996221125125885, -0.7884997129440308, 0.04248046875, 0.207763671875, -0.814208984375
57, 2166718784, -5.39865255355835, -2.2007105350494385, 7.749428749084473, -0.14946292340755463, -0.5730969905853271, -0.8010244369506836, 0.04150390625, 0.206787109375, -0.814208984375
58, 2166735451, -5.398144245147705, -2.1959688663482666, 7.73953104019165, -0.18816368281841278, -0.5489185452461243, -0.7671003341674805, 0.0419921875, 0.209228515625, -0.81640625
59, 2166752118, -5.39407205581665, -2.1975512504577637, 7.724986553192139, -0.11258736252784729, -0.5816736817359924, -0.7495237588882446, 0.04296875, 0.209716796875, -0.81640625
60, 2166768785, -5.3987135887146, -2.207404375076294, 7.737399578094482, -0.0819094106554985, -0.5995805263519287, -0.8257278203964233, 0.0419921875, 0.211181640625, -0.81494140625
61, 2166785452, -5.395615100860596, -2.188253879547119, 7.753973007202148, -0.08194784075021744, -0.6173045635223389, -0.8436183333396912, 0.04345703125, 0.211181640625, -0.81591796875
62, 2166802119, -5.413112163543701, -2.1925623416900635, 7.74283504486084, -0.16376757621765137, -0.5739933252334595, -0.8335524201393127, 0.04443359375, 0.208740234375, -0.818359375
63, 2166818786, -5.411473751068115, -2.203705072402954, 7.750121116638184, -0.08473961800336838, -0.6765211224555969, -0.8276872634887695, 0.0439453125, 0.209716796875, -0.81640625
64, 2166835453, -5.3857316970825195, -2.213496208190918, 7.750900745391846, -0.14943727850914001, -0.6840255260467529, -0.9540090560913086, 0.04443359375, 0.209716796875, -0.814697265625
65, 2166852120, -5.39871072769165, -2.1898207664489746, 7.745798587799072, -0.08244727551937103, -0.6530213952064514, -0.9164096117019653, 0.04345703125, 0.207275390625, -0.81689453125
66, 2166868787, -5.40557336807251, -2.1970036029815674, 7.7444329261779785, -0.09818627685308456, -0.683782160282135, -1.0016357898712158, 0.04296875, 0.209716796875, -0.81884765625
67, 2166885454, -5.389624118804932, -2.2059690952301025, 7.7201457023620605, -0.1004786267876625, -0.6904671788215637, -0.9604890942573547, 0.040771484375, 0.210693359375, -0.8154296875
68, 2166902121, -5.400113582611084, -2.1895580291748047, 7.767310619354248, -0.14510875940322876, -0.6556723117828369, -0.8654018640518188, 0.04345703125, 0.207763671875, -0.81591796875
69, 2166918788, -5.411829471588135, -2.182570457458496, 7.7411298751831055, -0.14149735867977142, -0.7555106282234192, -1.0126876831054688, 0.041015625, 0.207275390625, -0.814453125
70, 2166935455, -5.411347389221191, -2.178961992263794, 7.757692337036133, -0.19475896656513214, -0.8001535534858704, -1.0942257642745972, 0.0439453125, 0.207763671875, -0.815673828125
71, 2166952122, -5.403131008148193, -2.185828685760498, 7.737276554107666, -0.15325358510017395, -0.8642877340316772, -1.1006288528442383, 0.04052734375, 0.206787109375, -0.8173828125
72, 2166968789, -5.379660606384277, -2.210766315460205, 7.752974033355713, -0.2211272269487381, -0.8880947232246399, -1.0240596532821655, 0.041015625, 0.210205078125, -0.81689453125
73, 2166985456, -5.384764671325684, -2.2094364166259766, 7.755501747131348, -0.14998798072338104, -0.6962171792984009, -0.9950662851333618, 0.04150390625, 0.209228515625, -0.8154296875
74, 2167002123, -5.390753269195557, -2.196657657623291, 7.756190299987793, -0.22477704286575317, -0.6324800252914429, -0.9814401268959045, 0.041015625, 0.207275390625, -0.81591796875
75, 2167018790, -5.400580883026123, -2.1950769424438477, 7.749660015106201, -0.12674443423748016, -0.645260751247406, -0.9782128930091858, 0.04248046875, 0.209716796875, -0.814453125
76, 2167035457, -5.3890767097473145, -2.203794240951538, 7.761253356933594, -0.25291261076927185, -0.5906416773796082, -0.9776623845100403, 0.04150390625, 0.209716796875, -0.81591796875
77, 2167052124, -5.389158248901367, -2.197791337966919, 7.75115966796875, -0.18643483519554138, -0.5438600778579712, -0.8999790549278259, 0.0419921875, 0.209228515625, -0.814453125
78, 2167068791, -5.381158828735352, -2.1964805126190186, 7.761209487915039, -0.15996411442756653, -0.6590787172317505, -0.878028929233551, 0.04296875, 0.209228515625, -0.81494140625
79, 2167085458, -5.391407489776611, -2.1852810382843018, 7.743824481964111, -0.19183911383152008, -0.5376105308532715, -0.9914804100990295, 0.0419921875, 0.208740234375, -0.81640625
80, 2167102125, -5.403357982635498, -2.188270330429077, 7.713171482086182, -0.17316748201847076, -0.6702460050582886, -1.078973412513733, 0.04443359375, 0.208251953125, -0.815185546875
81, 2167118792, -5.4162068367004395, -2.1886041164398193, 7.717187881469727, -0.18831738829612732, -0.7357248067855835, -1.0944050550460815, 0.04150390625, 0.209228515625, -0.818359375
82, 2167135459, -5.378830432891846, -2.1962881088256836, 7.750748157501221, -0.26034030318260193, -0.7576492428779602, -1.0330499410629272, 0.0439453125, 0.207763671875, -0.81591796875
83, 2167152126, -5.395018100738525, -2.2141621112823486, 7.7558393478393555, -0.20823124051094055, -0.7285020351409912, -1.0392353534698486, 0.0419921875, 0.209228515625, -0.81689453125
84, 2167168793, -5.384305953979492, -2.200728416442871, 7.754353046417236, -0.16577821969985962, -0.8012804985046387, -0.9351196885108948, 0.0439453125, 0.206787109375, -0.818359375
85, 2167185460, -5.382235527038574, -2.183311939239502, 7.7593255043029785, -0.18674218654632568, -0.6223373413085938, -0.9741277694702148, 0.041015625, 0.208740234375, -0.8173828125
86, 2167202127, -5.3934326171875, -2.197176456451416, 7.749596118927002, -0.24543370306491852, -0.6731786131858826, -1.0105745792388916, 0.0439453125, 0.207275390625, -0.81640625
87, 2167218794, -5.380316734313965, -2.2128918170928955, 7.746133804321289, -0.21449357271194458, -0.6928619742393494, -1.0252124071121216, 0.04248046875, 0.208740234375, -0.81640625
88, 2167235461, -5.377171993255615, -2.2142810821533203, 7.729653835296631, -0.2168499082326889, -0.5786164402961731, -0.9521905183792114, 0.04248046875, 0.206298828125, -0.81591796875
89, 2167252128, -5.379058361053467, -2.206533908843994, 7.761645317077637, -0.24617645144462585, -0.5781170129776001, -0.9135280847549438, 0.04248046875, 0.207763671875, -0.8154296875
90, 2167268795, -5.3892645835876465, -2.186048984527588, 7.717834949493408, -0.1466583013534546, -0.5733658671379089, -0.8361393213272095, 0.04248046875, 0.208740234375, -0.81689453125
91, 2167285462, -5.381872177124023, -2.18697190284729, 7.740670204162598, -0.18243925273418427, -0.5870173573493958, -0.9501542448997498, 0.039794921875, 0.208740234375, -0.81591796875
92, 2167302129, -5.401815891265869, -2.1935625076293945, 7.72808837890625, -0.21846380829811096, -0.633465588092804, -0.9498014450073242, 0.04248046875, 0.207763671875, -0.814697265625
93, 2167318796, -5.401202201843262, -2.1940596103668213, 7.728699684143066, -0.2856200337409973, -0.6625749468803406, -1.0275558233261108, 0.03955078125, 0.207763671875, -0.814453125
94, 2167335463, -5.38543701171875, -2.1946380138397217, 7.73626184463501, -0.2647840678691864, -0.6218762993812561, -1.0421806573867798, 0.041015625, 0.208251953125, -0.81591796875
95, 2167352130, -5.392516613006592, -2.2044217586517334, 7.7540483474731445, -0.31092533469200134, -0.628868579864502, -0.9551615118980408, 0.0439453125, 0.206787109375, -0.815673828125
96, 2167368797, -5.396021842956543, -2.202597141265869, 7.765398979187012, -0.22496917843818665, -0.4580191373825073, -0.8755829930305481, 0.041015625, 0.208740234375, -0.8154296875
97, 2167385464, -5.408140659332275, -2.1962642669677734, 7.754422187805176, -0.2960315942764282, -0.39011985063552856, -0.9290750026702881, 0.04150390625, 0.208251953125, -0.8173828125
98, 2167402131, -5.405016899108887, -2.190521240234375, 7.732076644897461, -0.3268820643424988, -0.52399742603302, -1.0186939239501953, 0.04443359375, 0.206298828125, -0.814697265625
99, 2167418798, -5.392640590667725, -2.199134349822998, 7.774056434631348, -0.24603557586669922, -0.47309213876724243, -1.00372314453125, 0.0419921875, 0.208251953125, -0.814453125
100, 2167435465, -5.3780083656311035, -2.1998536586761475, 7.764283657073975, -0.3042660653591156, -0.5426050424575806, -1.0033646821975708, 0.04150390625, 0.208740234375, -0.813232421875
101, 2167452132, -5.390758514404297, -2.2104203701019287, 7.758802890777588, -0.24393534660339355, -0.504672646522522, -0.9372199773788452, 0.04296875, 0.206298828125, -0.81640625
102, 2167468799, -5.400291442871094, -2.1810779571533203, 7.74740743637085, -0.2485584318637848, -0.5680512189865112, -0.9694790840148926, 0.0400390625, 0.208740234375, -0.814453125
103, 2167485466, -5.389743328094482, -2.19292950630188, 7.756999492645264, -0.2791656255722046, -0.5362787842750549, -0.9397811889648438, 0.04150390625, 0.209228515625, -0.81689453125
104, 2167502133, -5.385219573974609, -2.193838119506836, 7.743882179260254, -0.20865385234355927, -0.6069185733795166, -0.9330065250396729, 0.04150390625, 0.209716796875, -0.81640625
105, 2167518800, -5.379393100738525, -2.194749116897583, 7.7339630126953125, -0.20504245162010193, -0.5086169838905334, -0.9269492030143738, 0.04248046875, 0.208251953125, -0.8154296875
106, 2167535467, -5.3834547996521, -2.194737672805786, 7.766687393188477, -0.1415742039680481, -0.4500536024570465, -0.8661447167396545, 0.04150390625, 0.208251953125, -0.814453125
107, 2167552134, -5.399993896484375, -2.1925127506256104, 7.770236015319824, -0.38950514793395996, -0.27137941122055054, -0.8232690691947937, 0.04296875, 0.208740234375, -0.815185546875
108, 2167568801, -5.418441295623779, -2.1928505897521973, 7.7361884117126465, -0.39946848154067993, -0.32000505924224854, -0.9367077350616455, 0.0400390625, 0.208251953125, -0.81884765625
109, 2167585468, -5.405002117156982, -2.2147023677825928, 7.750617504119873, -0.2525283992290497, -0.3858552873134613, -0.9840911030769348, 0.041015625, 0.209228515625, -0.81884765625
110, 2167602135, -5.400880813598633, -2.2172117233276367, 7.758062362670898, -0.238274946808815, -0.5646575689315796, -1.0016357898712158, 0.044921875, 0.209228515625, -0.81689453125
111, 2167618802, -5.4020771980285645, -2.200657367706299, 7.752750873565674, -0.27709102630615234, -0.6598215699195862, -0.995732307434082, 0.04248046875, 0.209228515625, -0.8154296875
112, 2167635469, -5.387802600860596, -2.2022464275360107, 7.769811153411865, -0.19719217717647552, -0.6187644004821777, -0.8989288806915283, 0.041015625, 0.207763671875, -0.81689453125
113, 2167652136, -5.394854545593262, -2.210369348526001, 7.752671241760254, -0.20661763846874237, -0.6415596008300781, -0.936400294303894, 0.04345703125, 0.208740234375, -0.814208984375
114, 2167668803, -5.399318218231201, -2.193213939666748, 7.75494909286499, -0.22525088489055634, -0.6047030687332153, -0.9062925577163696, 0.04150390625, 0.209716796875, -0.81494140625
115, 2167685470, -5.3952107429504395, -2.193695068359375, 7.736042499542236, -0.19285081326961517, -0.5238180756568909, -1.0097166299819946, 0.04541015625, 0.208740234375, -0.81689453125
116, 2167702137, -5.391726016998291, -2.205904245376587, 7.736403942108154, -0.12155786156654358, -0.6080839037895203, -0.9373351335525513, 0.0419921875, 0.206298828125, -0.81689453125
117, 2167718804, -5.390819072723389, -2.1958975791931152, 7.76393461227417, -0.12134015560150146, -0.6390111446380615, -0.9527539610862732, 0.0439453125, 0.207763671875, -0.81787109375
118, 2167735471, -5.393524646759033, -2.1867947578430176, 7.757762432098389, -0.23088568449020386, -0.49689921736717224, -0.9540730714797974, 0.04345703125, 0.207275390625, -0.81640625
119, 2167752138, -5.401708126068115, -2.198864459991455, 7.762740612030029, -0.08826136589050293, -0.4987048804759979, -0.8843937516212463, 0.04150390625, 0.209716796875, -0.8173828125
120, 2167768805, -5.396021366119385, -2.2077860832214355, 7.751429080963135, -0.1322767734527588, -0.4620402753353119, -0.8914371132850647, 0.04345703125, 0.208740234375, -0.81640625
121, 2167785472, -5.389900207519531, -2.2013962268829346, 7.734745979309082, -0.2282603681087494, -0.5352030396461487, -0.9443402290344238, 0.04248046875, 0.208740234375, -0.814208984375
122, 2167802139, -5.382630825042725, -2.2114691734313965, 7.718570709228516, -0.16041232645511627, -0.5223326086997986, -0.8676557540893555, 0.04052734375, 0.209228515625, -0.81494140625
123, 2167818806, -5.3998703956604, -2.196835517883301, 7.736372470855713, -0.531873345375061, -0.6345034241676331, -0.8997613191604614, 0.04248046875, 0.208251953125, -0.81494140625
124, 2167835473, -5.385245323181152, -2.237008810043335, 7.764214038848877, 0.21593429148197174, -0.5863387584686279, -0.7017623782157898, 0.04443359375, 0.207275390625, -0.815185546875
125, 2167852140, -5.407064437866211, -2.169722080230713, 7.750759601593018, -0.048536062240600586, -0.6240662336349487, -0.7775246500968933, 0.04052734375, 0.207763671875, -0.81591796875
126, 2167868807, -5.3873748779296875, -2.1878268718719482, 7.765200614929199, -0.22516191005706787, -0.5359522700309753, -0.8484587073326111, 0.04150390625, 0.209716796875, -0.818359375
127, 2167885474, -5.411581516265869, -2.1938343048095703, 7.767825126647949, -0.3895435333251953, -0.44646769762039185, -0.9389102458953857, 0.041015625, 0.209716796875, -0.81591796875
128, 2167902141, -5.394606113433838, -2.1984615325927734, 7.73746919631958, -0.3226560056209564, -0.5276728868484497, -1.0340871810913086, 0.04248046875, 0.207275390625, -0.81787109375
129, 2167918808, -5.398376941680908, -2.2165286540985107, 7.75286340713501, -0.18642203509807587, -0.5511724948883057, -1.0107667446136475, 0.0390625, 0.207275390625, -0.81396484375
130, 2167935475, -5.385804653167725, -2.196768283843994, 7.757136344909668, -0.11561571806669235, -0.5220252871513367, -0.7909842133522034, 0.0400390625, 0.208740234375, -0.81640625
131, 2167952142, -5.386931419372559, -2.1879637241363525, 7.760974407196045, -0.24873775243759155, -0.4309593141078949, -0.9463253021240234, 0.04150390625, 0.207275390625, -0.81494140625
132, 2167968809, -5.389928817749023, -2.183065891265869, 7.771332263946533, -0.22802984714508057, -0.33927860856056213, -0.9738972783088684, 0.0439453125, 0.208740234375, -0.81640625
133, 2167985476, -5.391595363616943, -2.209822177886963, 7.745883941650391, -0.267447829246521, -0.5444619655609131, -1.115151286125183, 0.044921875, 0.210205078125, -0.8173828125
134, 2168002143, -5.388246059417725, -2.2102601528167725, 7.775298595428467, -0.24402500689029694, -0.608083963394165, -1.0423729419708252, 0.04248046875, 0.209228515625, -0.81640625
135, 2168018810, -5.387394905090332, -2.220041513442993, 7.740519046783447, -0.09971024096012115, -0.7077685594558716, -0.936400294303894, 0.04296875, 0.209228515625, -0.81689453125
136, 2168035477, -5.398248195648193, -2.1897671222686768, 7.733501434326172, -0.028250806033611298, -0.6942193508148193, -0.8511227965354919, 0.0400390625, 0.208740234375, -0.81396484375
137, 2168052144, -5.399468421936035, -2.1923842430114746, 7.7480268478393555, -0.09978707879781723, -0.6018471717834473, -0.8461923003196716, 0.0439453125, 0.209716796875, -0.8154296875
138, 2168068811, -5.4021196365356445, -2.1884446144104004, 7.775737285614014, -0.21294400095939636, -0.5095390677452087, -0.897238552570343, 0.0419921875, 0.208740234375, -0.81494140625
139, 2168085478, -5.400106906890869, -2.2039456367492676, 7.747707843780518, -0.32286086678504944, -0.5709326267242432, -1.0287212133407593, 0.04345703125, 0.209716796875, -0.815185546875
140, 2168102145, -5.385740756988525, -2.2272448539733887, 7.758438587188721, -0.25923892855644226, -0.5847122669219971, -0.9464788436889648, 0.0419921875, 0.208740234375, -0.814208984375
141, 2168118812, -5.368552207946777, -2.215576410293579, 7.757981300354004, -0.20474791526794434, -0.4674317240715027, -0.8739436864852905, 0.0419921875, 0.207763671875, -0.81494140625
142, 2168135479, -5.392414569854736, -2.185840368270874, 7.712070941925049, -0.23374147713184357, -0.4507962763309479, -0.8431188464164734, 0.0400390625, 0.207763671875, -0.81591796875
143, 2168152146, -5.427133083343506, -2.172870397567749, 7.7422027587890625, -0.31735414266586304, -0.5345627069473267, -0.8808848261833191, 0.0400390625, 0.207275390625, -0.81640625
144, 2168168813, -5.397489070892334, -2.192809581756592, 7.748690605163574, -0.3140885531902313, -0.5650162100791931, -1.0100111961364746, 0.04296875, 0.208251953125, -0.81787109375
145, 2168185480, -5.389740467071533, -2.2190160751342773, 7.7664408683776855, -0.2349196970462799, -0.5519536733627319, -1.0683441162109375, 0.04345703125, 0.209716796875, -0.81640625
146, 2168202147, -5.373473167419434, -2.20331072807312, 7.748203277587891, -0.18711356818675995, -0.4045909643173218, -0.9014260768890381, 0.0419921875, 0.206787109375, -0.81591796875
147, 2168218814, -5.38515043258667, -2.190595865249634, 7.7375922203063965, -0.23819810152053833, -0.40955987572669983, -0.8561428785324097, 0.04248046875, 0.207275390625, -0.815185546875
148, 2168235481, -5.411847114562988, -2.203063488006592, 7.758049488067627, -0.1456466019153595, -0.424325555562973, -0.8342824578285217, 0.04248046875, 0.210205078125, -0.81689453125
149, 2168252148, -5.423208713531494, -2.167466878890991, 7.77164888381958, -0.10670250654220581, -0.563838005065918, -1.0458177328109741, 0.04248046875, 0.208740234375, -0.8154296875
150, 2168268815, -5.379702091217041, -2.248887300491333, 7.721957206726074, -0.05546429753303528, -0.7363907098770142, -0.8146887421607971, 0.04248046875, 0.208251953125, -0.81640625
151, 2168285482, -5.3885040283203125, -2.196115255355835, 7.745193004608154, -0.10807278752326965, -0.6407913565635681, -0.8972640037536621, 0.04248046875, 0.2119140625, -0.8193359375
152, 2168302149, -5.389547824859619, -2.202622175216675, 7.753556728363037, -0.10697143524885178, -0.5577164888381958, -0.8582943081855774, 0.04541015625, 0.208251953125, -0.816162109375
153, 2168318816, -5.402773857116699, -2.180205821990967, 7.765841960906982, -0.18190138041973114, -0.4887799322605133, -0.9085208177566528, 0.0419921875, 0.208251953125, -0.8173828125
154, 2168335483, -5.389523983001709, -2.19868803024292, 7.760680675506592, -0.2662952244281769, -0.38223108649253845, -0.8892088532447815, 0.0419921875, 0.208740234375, -0.814208984375
155, 2168352150, -5.407406330108643, -2.1899170875549316, 7.721633434295654, -0.2882709801197052, -0.5522610545158386, -0.8677583336830139, 0.04150390625, 0.207275390625, -0.81591796875
156, 2168368817, -5.390841484069824, -2.2025742530822754, 7.767114639282227, -0.1888936460018158, -0.5561797618865967, -0.988394021987915, 0.041015625, 0.209716796875, -0.81640625
157, 2168385484, -5.3964314460754395, -2.2003703117370605, 7.736349105834961, -0.21569733321666718, -0.572072446346283, -0.9390767216682434, 0.04296875, 0.209716796875, -0.814697265625
158, 2168402151, -5.387331962585449, -2.1982693672180176, 7.753311634063721, -0.16803210973739624, -0.6295857429504395, -0.8853798508644104, 0.04248046875, 0.208740234375, -0.81494140625
159, 2168418818, -5.398828983306885, -2.1954617500305176, 7.775543689727783, -0.11827373504638672, -0.5695198178291321, -0.8309515118598938, 0.04345703125, 0.209228515625, -0.814697265625
160, 2168435485, -5.390761852264404, -2.196207284927368, 7.726656436920166, -0.28910332918167114, -0.4833372235298157, -0.8961114287376404, 0.0439453125, 0.209228515625, -0.811767578125
161, 2168452152, -5.377865314483643, -2.2047576904296875, 7.760318279266357, -0.33439943194389343, -0.4100209176540375, -0.8747506141662598, 0.0419921875, 0.210693359375, -0.814453125
162, 2168468819, -5.408930778503418, -2.186161756515503, 7.744115352630615, -0.3845106363296509, -0.40121012926101685, -0.9121449589729309, 0.04248046875, 0.211181640625, -0.81591796875
163, 2168485486, -5.386116981506348, -2.2123353481292725, 7.7273383140563965, -0.35768136382102966, -0.42938414216041565, -0.9609500765800476, 0.044921875, 0.209228515625, -0.814697265625
164, 2168502153, -5.394717216491699, -2.2099108695983887, 7.739020347595215, -0.2406056821346283, -0.5061838030815125, -0.9230175614356995, 0.0439453125, 0.207275390625, -0.813720703125
165, 2168518820, -5.398666858673096, -2.211566209793091, 7.758924961090088, -0.2021482288837433, -0.4835165739059448, -0.94600510597229, 0.04443359375, 0.208251953125, -0.814697265625
166, 2168535487, -5.401331901550293, -2.1981844902038574, 7.768961429595947, -0.179404154419899, -0.4410506784915924, -0.8819348216056824, 0.04345703125, 0.207763671875, -0.812744140625
167, 2168552154, -5.409280300140381, -2.186633348464966, 7.747289657592773, -0.25136300921440125, -0.4111350476741791, -0.9104290008544922, 0.0419921875, 0.209228515625, -0.814453125
168, 2168568821, -5.411181926727295, -2.2013561725616455, 7.756436824798584, -0.23810842633247375, -0.33022451400756836, -0.858409583568573, 0.04248046875, 0.207763671875, -0.81591796875
169, 2168585488, -5.411701202392578, -2.191422700881958, 7.723690509796143, -0.12295375764369965, -0.3641357123851776, -0.8756725192070007, 0.04248046875, 0.208740234375, -0.8173828125
170, 2168602155, -5.411516189575195, -2.1893181800842285, 7.743368148803711, -0.2044917792081833, -0.45605969429016113, -0.9239780902862549, 0.0419921875, 0.208251953125, -0.81591796875
171, 2168618822, -5.402196884155273, -2.1973462104797363, 7.726503849029541, -0.1972561925649643, -0.5945347547531128, -0.9485023021697998, 0.04248046875, 0.206787109375, -0.815185546875
172, 2168635489, -5.407124042510986, -2.2064568996429443, 7.737599849700928, -0.1509612500667572, -0.558536171913147, -0.969210147857666, 0.04248046875, 0.209228515625, -0.813720703125
173, 2168652156, -5.3961100578308105, -2.199441909790039, 7.756242752075195, -0.17812351882457733, -0.47237497568130493, -0.8957528471946716, 0.04443359375, 0.210693359375, -0.812255859375
174, 2168668823, -5.3904128074646, -2.206805944442749, 7.753108501434326, -0.14288045465946198, -0.5285180807113647, -0.9307271838188171, 0.04248046875, 0.208740234375, -0.814208984375
175, 2168685490, -5.402425765991211, -2.187298059463501, 7.751030921936035, -0.30603331327438354, -0.4991786777973175, -0.8882611989974976, 0.04345703125, 0.207763671875, -0.814208984375
176, 2168702157, -5.420706748962402, -2.18203067779541, 7.75258207321167, -0.3034336566925049, -0.4123900830745697, -0.9346587061882019, 0.04296875, 0.209716796875, -0.81689453125
177, 2168718824, -5.395757675170898, -2.194608449935913, 7.756884574890137, -0.21673466265201569, -0.5132016539573669, -0.9551358819007874, 0.04443359375, 0.206787109375, -0.815673828125
178, 2168735491, -5.393117904663086, -2.1978726387023926, 7.754134654998779, -0.269586443901062, -0.561763346195221, -0.9418814182281494, 0.041015625, 0.208740234375, -0.812744140625
179, 2168752158, -5.396163463592529, -2.2117533683776855, 7.735361576080322, -0.26473286747932434, -0.4889592230319977, -0.9067662954330444, 0.04150390625, 0.207275390625, -0.8154296875
180, 2168768825, -5.395559310913086, -2.1928539276123047, 7.756786346435547, -0.13273780047893524, -0.4742831587791443, -0.8603689670562744, 0.04443359375, 0.208251953125, -0.816162109375
181, 2168785492, -5.387269973754883, -2.202065944671631, 7.755104064941406, -0.1493348330259323, -0.26137757301330566, -0.834717869758606, 0.04443359375, 0.209716796875, -0.815673828125
182, 2168802159, -5.403025150299072, -2.2025012969970703, 7.741252422332764, -0.0930253267288208, -0.44065365195274353, -0.8197215795516968, 0.0419921875, 0.208740234375, -0.81494140625
183, 2168818826, -5.405509948730469, -2.1886966228485107, 7.723419189453125, -0.10084999352693558, -0.4718499183654785, -0.8187995553016663, 0.04296875, 0.208740234375, -0.813232421875
184, 2168835493, -5.386332988739014, -2.1921253204345703, 7.710768699645996, -0.054555051028728485, -0.48139068484306335, -0.8805645704269409, 0.0419921875, 0.208251953125, -0.814453125
185, 2168852160, -5.413371562957764, -2.193384885787964, 7.7262468338012695, -0.09306374937295914, -0.6501016020774841, -0.7814947366714478, 0.04052734375, 0.209716796875, -0.81689453125
186, 2168868827, -5.4167280197143555, -2.1914470195770264, 7.741994857788086, -0.030491916462779045, -0.5986071825027466, -0.8075940012931824, 0.04296875, 0.208740234375, -0.81640625
187, 2168885494, -5.401812553405762, -2.202406167984009, 7.765788555145264, -0.1448526233434677, -0.6359633207321167, -0.8015750050544739, 0.04443359375, 0.208740234375, -0.818359375
188, 2168902161, -5.408902645111084, -2.2075629234313965, 7.739790439605713, -0.2193984091281891, -0.5573579668998718, -0.8205284476280212, 0.04345703125, 0.208740234375, -0.8154296875
189, 2168918828, -5.393582344055176, -2.1996607780456543, 7.742062091827393, -0.38709747791290283, -0.48404157161712646, -0.905626654624939, 0.04296875, 0.207763671875, -0.814208984375
190, 2168935495, -5.39483118057251, -2.20949125289917, 7.7335944175720215, -0.29797813296318054, -0.5315531492233276, -0.9206100702285767, 0.04345703125, 0.206787109375, -0.813720703125
191, 2168952162, -5.4097466468811035, -2.191970109939575, 7.735066890716553, -0.22353482246398926, -0.49496540427207947, -0.7891400456428528, 0.04345703125, 0.207763671875, -0.812744140625
192, 2168968829, -5.399361610412598, -2.1984736919403076, 7.733318328857422, -0.2442042976617813, -0.4731050133705139, -0.9120042324066162, 0.04248046875, 0.209228515625, -0.81640625
193, 2168985496, -5.399790287017822, -2.1992361545562744, 7.744454860687256, -0.2195523977279663, -0.4922671616077423, -0.9521963596343994, 0.04248046875, 0.208740234375, -0.81591796875
194, 2169002163, -5.391769886016846, -2.2131001949310303, 7.729059219360352, -0.19830630719661713, -0.5378410816192627, -0.9488480687141418, 0.04296875, 0.209716796875, -0.814208984375
195, 2169018830, -5.397246360778809, -2.1912801265716553, 7.751950740814209, -0.10353933274745941, -0.513099193572998, -0.8201441764831543, 0.0419921875, 0.208251953125, -0.814208984375
196, 2169035497, -5.39146614074707, -2.1964032649993896, 7.738511085510254, -0.10072193294763565, -0.4257470667362213, -0.7799322009086609, 0.04248046875, 0.207275390625, -0.8154296875
197, 2169052164, -5.410513877868652, -2.182070255279541, 7.744528770446777, -0.1659703105688095, -0.4218411445617676, -0.7865147590637207, 0.0419921875, 0.210693359375, -0.81494140625
198, 2169068831, -5.396660804748535, -2.19347882270813, 7.739577770233154, -0.16422860324382782, -0.4551248550415039, -0.8094252943992615, 0.04150390625, 0.207275390625, -0.81787109375
199, 2169085498, -5.406518936157227, -2.1941723823547363, 7.735140800476074, -0.15950307250022888, -0.4715554118156433, -0.8708445429801941, 0.04345703125, 0.209228515625, -0.813720703125
200, 2169102165, -5.405023097991943, -2.1693332195281982, 7.742271423339844, -0.07918166369199753, -0.48200544714927673, -0.8990826606750488, 0.04248046875, 0.206787109375, -0.814208984375
201, 2169118832, -5.385825157165527, -2.2253358364105225, 7.746464252471924, 0.008970847353339195, -0.5307207107543945, -0.7323310971260071, 0.0419921875, 0.208251953125, -0.81494140625
202, 2169135499, -5.420328617095947, -2.169438123703003, 7.75077486038208, -0.05913972854614258, -0.42304497957229614, -0.6502936482429504, 0.04248046875, 0.208251953125, -0.81494140625
203, 2169152166, -5.421006202697754, -2.180159330368042, 7.733066082000732, -0.14754195511341095, -0.4881395995616913, -0.7994491457939148, 0.0458984375, 0.206787109375, -0.81884765625
204, 2169168833, -5.412694454193115, -2.186663866043091, 7.737346649169922, -0.165342777967453, -0.4507450461387634, -0.8014854192733765, 0.04443359375, 0.207763671875, -0.813232421875
205, 2169185500, -5.410158157348633, -2.197291135787964, 7.748650074005127, -0.10085000097751617, -0.5351645350456238, -0.9802364110946655, 0.04248046875, 0.207275390625, -0.8173828125
206, 2169202167, -5.417588233947754, -2.201441526412964, 7.737225532531738, -0.10279656201601028, -0.556218147277832, -0.8226414322853088, 0.044921875, 0.207275390625, -0.815185546875
207, 2169218834, -5.410528659820557, -2.2074694633483887, 7.723605632781982, -0.21325135231018066, -0.5463060736656189, -0.8259967565536499, 0.0439453125, 0.208740234375, -0.81787109375
208, 2169235501, -5.409797668457031, -2.205695152282715, 7.744141101837158, -0.10794473439455032, -0.4134402275085449, -0.7829802632331848, 0.0439453125, 0.210205078125, -0.811279296875
209, 2169252168, -5.414276599884033, -2.1996917724609375, 7.748360633850098, -0.1536249816417694, -0.44884976744651794, -0.7909073829650879, 0.04248046875, 0.209716796875, -0.8173828125
210, 2169268835, -5.424439430236816, -2.1874005794525146, 7.7539591789245605, -0.25126057863235474, -0.4637947082519531, -0.8045076131820679, 0.04736328125, 0.209228515625, -0.814208984375
211, 2169285502, -5.415433883666992, -2.173025131225586, 7.751358509063721, -0.1690181940793991, -0.39763712882995605, -0.8869549036026001, 0.04296875, 0.208251953125, -0.81689453125
212, 2169302169, -5.4084672927856445, -2.199256420135498, 7.74818229675293, -0.16549643874168396, -0.539966881275177, -0.9233889579772949, 0.04296875, 0.207763671875, -0.813720703125
213, 2169318836, -5.415909290313721, -2.1762149333953857, 7.720821857452393, -0.1716691255569458, -0.557947039604187, -0.9762535691261292, 0.04296875, 0.207275390625, -0.814697265625
214, 2169335503, -5.414680004119873, -2.1741998195648193, 7.745746612548828, -0.14526242017745972, -0.6440185308456421, -0.9284602999687195, 0.04248046875, 0.206298828125, -0.815185546875
215, 2169352170, -5.4039225578308105, -2.1801087856292725, 7.734384536743164, -0.13741211593151093, -0.6411243081092834, -0.9261680245399475, 0.04443359375, 0.208251953125, -0.814208984375
216, 2169368837, -5.404201030731201, -2.1893551349639893, 7.751311779022217, -0.18590977787971497, -0.5322446823120117, -0.9430851936340332, 0.04443359375, 0.208251953125, -0.815185546875
217, 2169385504, -5.399552345275879, -2.190025568008423, 7.726856231689453, -0.1264883130788803, -0.40865060687065125, -0.8609580397605896, 0.04296875, 0.209228515625, -0.81689453125
218, 2169402171, -5.419588565826416, -2.185873508453369, 7.721925735473633, -0.2538730800151825, -0.39286038279533386, -0.9911090135574341, 0.04296875, 0.208251953125, -0.8154296875
219, 2169418838, -5.4041008949279785, -2.1917572021484375, 7.754467010498047, -0.22703097760677338, -0.5193487405776978, -0.9535351991653442, 0.04345703125, 0.209228515625, -0.814208984375
220, 2169435505, -5.402663230895996, -2.1926817893981934, 7.722652435302734, -0.14153575897216797, -0.6481805443763733, -0.9497700333595276, 0.04345703125, 0.208251953125, -0.814697265625
221, 2169452172, -5.419735908508301, -2.1924660205841064, 7.735849380493164, -0.24567699432373047, -0.5556930899620056, -0.9740510582923889, 0.04443359375, 0.208251953125, -0.815673828125
222, 2169468839, -5.419925689697266, -2.1903204917907715, 7.746342182159424, -0.2097167670726776, -0.6055482029914856, -0.9001710414886475, 0.0458984375, 0.209716796875, -0.816162109375
223, 2169485506, -5.425628662109375, -2.1832199096679688, 7.717290878295898, -0.27924245595932007, -0.7804830074310303, -1.0144805908203125, 0.04443359375, 0.209228515625, -0.81689453125
224, 2169502173, -5.401047229766846, -2.176348924636841, 7.7262983322143555, -0.22466181218624115, -0.8481517434120178, -1.1521873474121094, 0.0439453125, 0.206298828125, -0.812744140625
225, 2169518840, -5.398036003112793, -2.198122024536133, 7.724674701690674, -0.15161436796188354, -0.8458722233772278, -1.142569661140442, 0.04248046875, 0.207763671875, -0.814208984375
226, 2169535507, -5.400765419006348, -2.1870813369750977, 7.7213239669799805, -0.24533121287822723, -0.7384397387504578, -0.9829512238502502, 0.0419921875, 0.208740234375, -0.81494140625
227, 2169552174, -5.405038356781006, -2.1772732734680176, 7.749868392944336, -0.19369487464427948, -0.6350921988487244, -0.9593299627304077, 0.044921875, 0.207763671875, -0.813232421875
228, 2169568841, -5.405808448791504, -2.1883926391601562, 7.729642868041992, -0.21649135649204254, -0.5145591497421265, -1.0263521671295166, 0.04248046875, 0.207763671875, -0.812744140625
229, 2169585508, -5.423859119415283, -2.1977734565734863, 7.744950294494629, -0.19028955698013306, -0.48966357111930847, -0.930458128452301, 0.0458984375, 0.208251953125, -0.815673828125
230, 2169602175, -5.395763397216797, -2.2083489894866943, 7.744275093078613, -0.24697044491767883, -0.5895402431488037, -1.0751954317092896, 0.04345703125, 0.207275390625, -0.813232421875
231, 2169618842, -5.4183268547058105, -2.1798739433288574, 7.764284610748291, -0.2473546415567398, -0.5675774216651917, -1.0092939138412476, 0.0419921875, 0.205810546875, -0.813720703125
232, 2169635509, -5.4149651527404785, -2.1936843395233154, 7.77234411239624, -0.20579804480075836, -0.6475403308868408, -1.0752084255218506, 0.04296875, 0.208740234375, -0.815185546875
233, 2169652176, -5.409648418426514, -2.186713933944702, 7.744434356689453, -0.329071968793869, -0.6031919121742249, -1.0386847257614136, 0.044921875, 0.207763671875, -0.81689453125
234, 2169668843, -5.406304836273193, -2.201383113861084, 7.758829116821289, -0.2673325538635254, -0.6511900424957275, -1.1108866930007935, 0.0419921875, 0.209716796875, -0.814453125
235, 2169685510, -5.419106960296631, -2.1900417804718018, 7.737538814544678, -0.25594770908355713, -0.8082984089851379, -1.0598535537719727, 0.04248046875, 0.209716796875, -0.81689453125
236, 2169702177, -5.405773639678955, -2.1920554637908936, 7.750513553619385, -0.21130473911762238, -0.818863570690155, -0.9781489372253418, 0.0439453125, 0.207275390625, -0.816162109375
237, 2169718844, -5.382248878479004, -2.196664571762085, 7.7653021812438965, -0.2140965461730957, -0.7259790897369385, -1.0188347101211548, 0.044921875, 0.208251953125, -0.813720703125
238, 2169735511, -5.381807804107666, -2.208341121673584, 7.741131782531738, -0.1245417520403862, -0.6359633207321167, -0.8954839110374451, 0.0419921875, 0.209228515625, -0.814453125
239, 2169752178, -5.389841079711914, -2.200596809387207, 7.735579013824463, -0.16851875185966492, -0.4790215492248535, -0.909699022769928, 0.04345703125, 0.209228515625, -0.813232421875
240, 2169768845, -5.400641918182373, -2.2111806869506836, 7.753239154815674, -0.17753441631793976, -0.4962204098701477, -0.841018557548523, 0.0439453125, 0.207763671875, -0.815673828125
241, 2169785512, -5.414159774780273, -2.1906991004943848, 7.746666431427002, -0.14884819090366364, -0.521922767162323, -0.7966189384460449, 0.040771484375, 0.210205078125, -0.81640625
242, 2169802179, -5.407519340515137, -2.184147357940674, 7.754819393157959, -0.13058635592460632, -0.5025724172592163, -0.8864427804946899, 0.04345703125, 0.21240234375, -0.814453125
243, 2169818846, -5.412628650665283, -2.199828624725342, 7.7441086769104, -0.10494804382324219, -0.5107429027557373, -0.8012677431106567, 0.04443359375, 0.208251953125, -0.814208984375
244, 2169835513, -5.410698890686035, -2.1767921447753906, 7.722002983093262, -0.07576236128807068, -0.6493587493896484, -0.8845473527908325, 0.04345703125, 0.208251953125, -0.813720703125
245, 2169852180, -5.399084091186523, -2.194802761077881, 7.7456560134887695, -0.10966076701879501, -0.607008159160614, -0.8887349963188171, 0.04150390625, 0.206787109375, -0.81494140625
246, 2169868847, -5.398214817047119, -2.2146289348602295, 7.771642684936523, -0.09045123308897018, -0.6105426549911499, -0.8731623888015747, 0.0419921875, 0.209228515625, -0.8154296875
247, 2169885514, -5.400830268859863, -2.19220232963562, 7.751716613769531, -0.19538646936416626, -0.5411195158958435, -0.8938704133033752, 0.0439453125, 0.207763671875, -0.81689453125
248, 2169902181, -5.410738945007324, -2.2010996341705322, 7.7227277755737305, -0.15498241782188416, -0.40386101603507996, -0.8318235874176025, 0.04296875, 0.208251953125, -0.8154296875
249, 2169918848, -5.406447410583496, -2.1928133964538574, 7.729633808135986, -0.060791753232479095, -0.40980321168899536, -0.8623668551445007, 0.04345703125, 0.208251953125, -0.81591796875
250, 2169935515, -5.413127899169922, -2.193661689758301, 7.749882221221924, -0.17994201183319092, -0.4121723771095276, -0.9257581830024719, 0.04638671875, 0.206787109375, -0.816650390625
251, 2169952182, -5.385019779205322, -2.184793710708618, 7.757513523101807, -0.3175974488258362, -0.38068151473999023, -0.8643133044242859, 0.0439453125, 0.209228515625, -0.81640625
252, 2169968849, -5.4163594245910645, -2.1784443855285645, 7.724698066711426, -0.28372466564178467, -0.28820690512657166, -0.9332242608070374, 0.044921875, 0.209228515625, -0.814697265625
253, 2169985516, -5.424690246582031, -2.196319341659546, 7.735534191131592, -0.35765573382377625, -0.3433510661125183, -0.8911939263343811, 0.04638671875, 0.210205078125, -0.815185546875
254, 2170002183, -5.419005393981934, -2.1993255615234375, 7.755651950836182, -0.24799494445323944, -0.49646371603012085, -0.8325920104980469, 0.04736328125, 0.208740234375, -0.817626953125
255, 2170018850, -5.40779972076416, -2.1792991161346436, 7.724430561065674, -0.08609707653522491, -0.4973345696926117, -0.8921287059783936, 0.04443359375, 0.208740234375, -0.815185546875
256, 2170035517, -5.421011924743652, -2.1928980350494385, 7.748652935028076, -0.21518509089946747, -0.4313434362411499, -0.8372150659561157, 0.04248046875, 0.208251953125, -0.814208984375
257, 2170052184, -5.419723033905029, -2.1710572242736816, 7.741673469543457, -0.21104863286018372, -0.43810519576072693, -0.9279224276542664, 0.04345703125, 0.208251953125, -0.812255859375
258, 2170068851, -5.412023544311523, -2.1979146003723145, 7.746301651000977, -0.20526018738746643, -0.47315624356269836, -0.9006449580192566, 0.04296875, 0.207275390625, -0.8154296875
259, 2170085518, -5.398515701293945, -2.19627046585083, 7.752076625823975, -0.21067728102207184, -0.443419873714447, -0.8592548966407776, 0.04248046875, 0.209228515625, -0.81494140625
260, 2170102185, -5.4212212562561035, -2.194736957550049, 7.742059707641602, -0.15013782680034637, -0.4737095832824707, -0.7784037590026855, 0.0458984375, 0.208740234375, -0.813720703125
261, 2170118852, -5.430564880371094, -2.192028045654297, 7.710533142089844, -0.10429491847753525, -0.6591300964355469, -0.7832876443862915, 0.04296875, 0.206298828125, -0.815185546875
262, 2170135519, -5.410529613494873, -2.1828343868255615, 7.732135772705078, -0.12029004096984863, -0.6747921705245972, -0.8568727970123291, 0.04296875, 0.208740234375, -0.815185546875
263, 2170152186, -5.420648097991943, -2.1925108432769775, 7.754231929779053, -0.1496421843767166, -0.5755558013916016, -0.9083287119865417, 0.0419921875, 0.209228515625, -0.813232421875
264, 2170168853, -5.413049221038818, -2.183380365371704, 7.76677942276001, -0.18753618001937866, -0.6063165664672852, -0.907329797744751, 0.04443359375, 0.207275390625, -0.814697265625
265, 2170185520, -5.404345989227295, -2.1787798404693604, 7.754536151885986, -0.18313080072402954, -0.6007330417633057, -0.8937807679176331, 0.0419921875, 0.207275390625, -0.81494140625
266, 2170202187, -5.402465343475342, -2.193084478378296, 7.726698875427246, -0.1308680921792984, -0.6173685789108276, -0.7685730457305908, 0.04443359375, 0.207763671875, -0.81640625
267, 2170218854, -5.4197564125061035, -2.18442964553833, 7.730760097503662, -0.1493220329284668, -0.7454191446304321, -0.8997869491577148, 0.044921875, 0.207763671875, -0.814208984375
268, 2170235521, -5.401828289031982, -2.1968328952789307, 7.762195110321045, -0.17385900020599365, -0.5806910991668701, -0.9714896082878113, 0.04052734375, 0.206787109375, -0.812255859375
269, 2170252188, -5.400671005249023, -2.2039432525634766, 7.730166435241699, -0.2395811825990677, -0.5430404543876648, -0.8498165011405945, 0.04296875, 0.208251953125, -0.812744140625
270, 2170268855, -5.408143043518066, -2.1964197158813477, 7.7428507804870605, -0.2700730860233307, -0.5096030235290527, -0.8109236359596252, 0.041015625, 0.207763671875, -0.81494140625
271, 2170285522, -5.41303014755249, -2.1938583850860596, 7.722500801086426, -0.1995997428894043, -0.43414804339408875, -0.8282890319824219, 0.04296875, 0.207275390625, -0.815185546875
272, 2170302189, -5.406827449798584, -2.179151773452759, 7.720616817474365, -0.058409757912158966, -0.5918582677841187, -0.7471864223480225, 0.04345703125, 0.205810546875, -0.814208984375
273, 2170318856, -5.419070720672607, -2.1859943866729736, 7.750054359436035, -0.07814434170722961, -0.7246984243392944, -0.8714720606803894, 0.044921875, 0.208251953125, -0.816650390625
274, 2170335523, -5.407501220703125, -2.1842200756073, 7.743495464324951, -0.13062477111816406, -0.7067440748214722, -1.000867486000061, 0.0439453125, 0.207275390625, -0.814697265625
275, 2170352190, -5.401081085205078, -2.2039108276367188, 7.7473249435424805, -0.2529510259628296, -0.5350364446640015, -0.9911858439445496, 0.04296875, 0.207763671875, -0.81640625
276, 2170368857, -5.408100128173828, -2.1955113410949707, 7.738286018371582, -0.34164777398109436, -0.4414732754230499, -0.8851748704910278, 0.0439453125, 0.208251953125, -0.812744140625
277, 2170385524, -5.410523414611816, -2.212996244430542, 7.757137775421143, -0.19894662499427795, -0.3637259304523468, -0.8875184059143066, 0.0439453125, 0.208251953125, -0.81787109375
278, 2170402191, -5.415022850036621, -2.1957716941833496, 7.741377353668213, -0.1477852612733841, -0.49420982599258423, -0.7551519870758057, 0.04296875, 0.207763671875, -0.81591796875
279, 2170418858, -5.421442031860352, -2.176962375640869, 7.713812351226807, -0.11123594641685486, -0.5636458396911621, -0.7999230027198792, 0.04443359375, 0.207763671875, -0.815185546875
280, 2170435525, -5.401296615600586, -2.185204267501831, 7.718440532684326, -0.1572875827550888, -0.575491726398468, -0.9576460123062134, 0.0439453125, 0.209716796875, -0.814208984375
281, 2170452192, -5.411388397216797, -2.1848206520080566, 7.757495880126953, -0.09728983789682388, -0.5249835252761841, -0.9048070311546326, 0.04296875, 0.209716796875, -0.812255859375
282, 2170468859, -5.419862270355225, -2.1859824657440186, 7.756258010864258, -0.14092107117176056, -0.5314506888389587, -0.9107747673988342, 0.04345703125, 0.206787109375, -0.815185546875
283, 2170485526, -5.39253044128418, -2.200065851211548, 7.743112564086914, -0.04393858462572098, -0.496847927570343, -0.8460001945495605, 0.04150390625, 0.209228515625, -0.8173828125
284, 2170502193, -5.401508331298828, -2.1824002265930176, 7.7398295402526855, -0.00466151162981987, -0.5692934393882751, -0.8480108380317688, 0.04296875, 0.208251953125, -0.81787109375
285, 2170518860, -5.4041972160339355, -2.1973588466644287, 7.7581939697265625, -0.01052681915462017, -0.447966068983078, -0.7994108200073242, 0.04345703125, 0.208251953125, -0.8154296875
286, 2170535527, -5.418364524841309, -2.169722557067871, 7.736433506011963, -0.09392176568508148, -0.49596425890922546, -0.8153418302536011, 0.04248046875, 0.204833984375, -0.81689453125
287, 2170552194, -5.424305438995361, -2.195303201675415, 7.746644496917725, -0.1485024243593216, -0.46884047985076904, -0.8490481376647949, 0.04345703125, 0.207275390625, -0.813720703125
288, 2170568861, -5.411375522613525, -2.189218282699585, 7.739781856536865, -0.13783474266529083, -0.48965078592300415, -0.8854053616523743, 0.04541015625, 0.208740234375, -0.816650390625
289, 2170585528, -5.413710117340088, -2.177182674407959, 7.753873348236084, -0.1273975670337677, -0.49207115173339844, -0.9072914719581604, 0.04443359375, 0.209228515625, -0.81640625
290, 2170602195, -5.420411109924316, -2.1741957664489746, 7.718409061431885, -0.0875185877084732, -0.4403079152107239, -0.8212199211120605, 0.04296875, 0.207275390625, -0.8154296875
291, 2170618862, -5.411773681640625, -2.167374849319458, 7.743741035461426, -0.18133792281150818, -0.43670937418937683, -0.8363955020904541, 0.04443359375, 0.205810546875, -0.814208984375
292, 2170635529, -5.404221057891846, -2.1884093284606934, 7.733551502227783, -0.17229661345481873, -0.4295249581336975, -0.8104370832443237, 0.04541015625, 0.206298828125, -0.813720703125
293, 2170652196, -5.421877384185791, -2.1798951625823975, 7.73256254196167, -0.04632056877017021, -0.5152122378349304, -0.9201362133026123, 0.0439453125, 0.208251953125, -0.81640625
294, 2170668863, -5.437049865722656, -2.186612367630005, 7.739336967468262, -0.04857739806175232, -0.5440207123756409, -0.8736504316329956, 0.04443359375, 0.207763671875, -0.815673828125
295, 2170685530, -5.429374694824219, -2.1565957069396973, 7.739385604858398, -0.10776542872190475, -0.5105379819869995, -0.9234530329704285, 0.04248046875, 0.208251953125, -0.814208984375
296, 2170702197, -5.403113842010498, -2.205695390701294, 7.730259895324707, -0.04461732134222984, -0.4612462520599365, -0.7931868433952332, 0.04248046875, 0.206787109375, -0.815185546875
297, 2170718864, -5.414034366607666, -2.1736185550689697, 7.747403144836426, -0.12838363647460938, -0.4626806080341339, -0.81257563829422, 0.04443359375, 0.206298828125, -0.813720703125
298, 2170735531, -5.424736976623535, -2.1689321994781494, 7.740163803100586, -0.31787919998168945, -0.3124236762523651, -0.8219882845878601, 0.044921875, 0.206298828125, -0.815185546875
299, 2170752198, -5.424515247344971, -2.1734097003936768, 7.752069473266602, -0.2789991497993469, -0.37329232692718506, -0.9548926949501038, 0.046875, 0.209716796875, -0.814208984375
300, 2170768865, -5.416500568389893, -2.181368827819824, 7.724740982055664, -0.3256654441356659, -0.4490802586078644, -0.893588662147522, 0.046875, 0.206787109375, -0.816162109375
301, 2170785532, -5.425221920013428, -2.1811046600341797, 7.769480228424072, -0.6907105445861816, -0.3274584114551544, -1.0310136079788208, 0.0439453125, 0.208251953125, -0.815673828125
302, 2170802199, -5.408420562744141, -2.19626784324646, 7.731695652008057, -0.5083096623420715, -0.27984437346458435, -1.0449597835540771, 0.04345703125, 0.206787109375, -0.813720703125
303, 2170818866, -5.427167892456055, -2.155869245529175, 7.7236785888671875, -0.33195337653160095, -0.3163039982318878, -0.8354349732398987, 0.04345703125, 0.207275390625, -0.81787109375
304, 2170835533, -5.419705867767334, -2.1883738040924072, 7.738808631896973, -0.0669131726026535, -0.43431445956230164, -0.704131543636322, 0.04541015625, 0.205322265625, -0.816650390625
305, 2170852200, -5.408585071563721, -2.189251661300659, 7.692824840545654, -0.07069104164838791, -0.480622261762619, -0.7876672744750977, 0.04296875, 0.207763671875, -0.814697265625
306, 2170868867, -5.419520854949951, -2.1912317276000977, 7.746239185333252, 0.05015606805682182, -0.5929340124130249, -0.5911155343055725, 0.04541015625, 0.209228515625, -0.814208984375
307, 2170885534, -5.430267333984375, -2.18570613861084, 7.744237899780273, 0.10134304314851761, -0.6159341931343079, -0.6872527599334717, 0.04541015625, 0.205322265625, -0.816650390625
308, 2170902201, -5.431952953338623, -2.152211904525757, 7.717698097229004, 0.05795513466000557, -0.788576602935791, -0.752052903175354, 0.04443359375, 0.209228515625, -0.814697265625
309, 2170918868, -5.413434982299805, -2.1675572395324707, 7.739773273468018, -0.0556948184967041, -0.762157142162323, -0.8996716737747192, 0.0458984375, 0.205810546875, -0.814697265625
310, 2170935535, -5.413898468017578, -2.179347038269043, 7.717416286468506, -0.027930648997426033, -0.6533031463623047, -1.0023658275604248, 0.04541015625, 0.208251953125, -0.815185546875
311, 2170952202, -5.428022384643555, -2.1812171936035156, 7.748839855194092, -0.13465875387191772, -0.6026284098625183, -0.9922358989715576, 0.04443359375, 0.208251953125, -0.816162109375
312, 2170968869, -5.427641868591309, -2.188459873199463, 7.711693286895752, -0.25524336099624634, -0.5967759490013123, -1.0160046815872192, 0.04443359375, 0.208740234375, -0.814697265625
313, 2170985536, -5.409915924072266, -2.192690849304199, 7.743276119232178, -0.12866538763046265, -0.5109477043151855, -0.922082781791687, 0.04541015625, 0.207763671875, -0.817138671875
314, 2171002203, -5.4129319190979, -2.1762819290161133, 7.738461017608643, -0.17667639255523682, -0.40578198432922363, -0.9427650570869446, 0.04443359375, 0.204345703125, -0.814697265625
315, 2171018870, -5.40929651260376, -2.1713829040527344, 7.753704071044922, -0.1347484141588211, -0.4352366328239441, -0.9255788922309875, 0.0458984375, 0.206787109375, -0.815185546875
316, 2171035537, -5.432578086853027, -2.167505979537964, 7.730741024017334, -0.20436374843120575, -0.37703174352645874, -0.8736876845359802, 0.04296875, 0.207275390625, -0.815185546875
317, 2171052204, -5.418920516967773, -2.1616404056549072, 7.718499660491943, -0.15329201519489288, -0.46273186802864075, -1.0173237323760986, 0.04296875, 0.206298828125, -0.814208984375
318, 2171068871, -5.4269819259643555, -2.159059524536133, 7.724017143249512, -0.23197419941425323, -0.5510315895080566, -1.0077828168869019, 0.04345703125, 0.206298828125, -0.81591796875
319, 2171085538, -5.430098533630371, -2.165856122970581, 7.73264217376709, -0.14358478784561157, -0.6479756832122803, -0.9306374192237854, 0.0439453125, 0.206298828125, -0.81640625
320, 2171102205, -5.425312042236328, -2.1739540100097656, 7.7234954833984375, -0.131482794880867, -0.6788774728775024, -0.9768940210342407, 0.0458984375, 0.208740234375, -0.815185546875
321, 2171118872, -5.420149803161621, -2.1701507568359375, 7.764075756072998, -0.13947397470474243, -0.7061677575111389, -0.9601048827171326, 0.0458984375, 0.207275390625, -0.816650390625
322, 2171135539, -5.4123854637146, -2.168038845062256, 7.749521732330322, -0.13294272124767303, -0.7518864274024963, -0.9094942212104797, 0.04345703125, 0.207275390625, -0.813720703125
323, 2171152206, -5.399647235870361, -2.164659023284912, 7.761674404144287, -0.2188861072063446, -0.6077892780303955, -0.934184730052948, 0.044921875, 0.207275390625, -0.81689453125
324, 2171168873, -5.414061069488525, -2.167921304702759, 7.753080368041992, -0.17236065864562988, -0.6250266432762146, -0.9078420996665955, 0.0478515625, 0.206787109375, -0.817626953125
325, 2171185540, -5.4265666007995605, -2.169658660888672, 7.7277750968933105, -0.19415704905986786, -0.6575420498847961, -0.9700682163238525, 0.044921875, 0.209716796875, -0.814208984375
326, 2171202207, -5.415495872497559, -2.173351287841797, 7.7247314453125, -0.18443703651428223, -0.5846354365348816, -0.9367204308509827, 0.04443359375, 0.208251953125, -0.81640625
327, 2171218874, -5.391505718231201, -2.177476644515991, 7.736423969268799, -0.10378888249397278, -0.6777142882347107, -0.9328448176383972, 0.04345703125, 0.206298828125, -0.814697265625
328, 2171235541, -5.410916805267334, -2.1771864891052246, 7.724441051483154, -0.18780510127544403, -0.5476378798484802, -0.9072273373603821, 0.04345703125, 0.204833984375, -0.813720703125
329, 2171252208, -5.421032905578613, -2.1796584129333496, 7.7407145500183105, -0.24885298311710358, -0.4598759412765503, -0.9132462739944458, 0.04296875, 0.208251953125, -0.81591796875
330, 2171268875, -5.420067310333252, -2.179687738418579, 7.730130672454834, -0.25260525941848755, -0.5192462801933289, -0.9122603535652161, 0.04443359375, 0.207275390625, -0.815185546875
331, 2171285542, -5.418246269226074, -2.185532569885254, 7.744755268096924, -0.2746706008911133, -0.4951190948486328, -0.9620001316070557, 0.044921875, 0.209228515625, -0.81884765625
332, 2171302209, -5.409589767456055, -2.1900277137756348, 7.73465633392334, -0.2602250277996063, -0.4863723814487457, -0.9914292097091675, 0.044921875, 0.208251953125, -0.813232421875
333, 2171318876, -5.41901159286499, -2.17494797706604, 7.718645095825195, -0.2754901647567749, -0.4367605447769165, -0.9786484241485596, 0.04443359375, 0.206298828125, -0.815673828125
334, 2171335543, -5.426778793334961, -2.1793365478515625, 7.741382122039795, -0.29604434967041016, -0.320901483297348, -0.868424117565155, 0.04541015625, 0.206787109375, -0.814208984375
335, 2171352210, -5.421545505523682, -2.1646039485931396, 7.733039855957031, -0.27431201934814453, -0.4164624512195587, -0.8468198180198669, 0.0458984375, 0.207275390625, -0.816162109375
336, 2171368877, -5.429503917694092, -2.1592001914978027, 7.738199710845947, -0.28645244240760803, -0.4576477110385895, -0.9354782104492188, 0.04248046875, 0.207763671875, -0.81640625
337, 2171385544, -5.411142349243164, -2.1788649559020996, 7.745728969573975, -0.28145796060562134, -0.6193023324012756, -1.022945761680603, 0.0458984375, 0.209228515625, -0.815673828125
338, 2171402211, -5.429391384124756, -2.1782236099243164, 7.753479957580566, -0.19286362826824188, -0.6297778487205505, -0.8791943788528442, 0.04345703125, 0.206787109375, -0.815673828125
339, 2171418878, -5.414499759674072, -2.180126190185547, 7.743072509765625, -0.21232926845550537, -0.6807982921600342, -0.9767401218414307, 0.04541015625, 0.207763671875, -0.813232421875
340, 2171435545, -5.412886619567871, -2.174288511276245, 7.732435703277588, -0.17966029047966003, -0.6602697372436523, -0.9617183804512024, 0.04638671875, 0.207275390625, -0.814208984375
341, 2171452212, -5.415547847747803, -2.1714305877685547, 7.7373785972595215, -0.20290377736091614, -0.7131855487823486, -0.9844368696212769, 0.0439453125, 0.207275390625, -0.814697265625
342, 2171468879, -5.4095659255981445, -2.178955316543579, 7.729870796203613, -0.12563668191432953, -0.5799418687820435, -0.960597813129425, 0.044921875, 0.208740234375, -0.813720703125
343, 2171485546, -5.409957408905029, -2.173060655593872, 7.75946569442749, -0.21526192128658295, -0.538174033164978, -0.8593316078186035, 0.0439453125, 0.208740234375, -0.815673828125
344, 2171502213, -5.446087837219238, -2.168956756591797, 7.734567165374756, -0.24812300503253937, -0.4878706634044647, -0.8651456832885742, 0.044921875, 0.208740234375, -0.814697265625
345, 2171518880, -5.420828342437744, -2.177002191543579, 7.735316276550293, -0.2822263240814209, -0.6085448861122131, -0.9335059523582458, 0.04638671875, 0.206787109375, -0.815185546875
346, 2171535547, -5.422823429107666, -2.1698949337005615, 7.726212024688721, -0.22267679870128632, -0.6038066148757935, -0.9723604917526245, 0.0458984375, 0.204833984375, -0.812255859375
347, 2171552214, -5.432106971740723, -2.1840338706970215, 7.7194318771362305, -0.2821238934993744, -0.6212103962898254, -1.0978115797042847, 0.0439453125, 0.209228515625, -0.814697265625
348, 2171568881, -5.413612365722656, -2.1870009899139404, 7.748974323272705, -0.15261328220367432, -0.7159646153450012, -0.974742591381073, 0.04541015625, 0.207275390625, -0.814697265625
349, 2171585548, -5.414968013763428, -2.1802358627319336, 7.710825443267822, -0.1757287085056305, -0.6562613248825073, -0.889631450176239, 0.04541015625, 0.207763671875, -0.814208984375
350, 2171602215, -5.415727615356445, -2.1667234897613525, 7.7407331466674805, -0.17626658082008362, -0.7387726902961731, -0.978725254535675, 0.044921875, 0.209228515625, -0.814697265625
351, 2171618882, -5.423668384552002, -2.1844396591186523, 7.741518497467041, -0.17256556451320648, -0.5785268545150757, -0.9896235466003418, 0.044921875, 0.209716796875, -0.813720703125
352, 2171635549, -5.432386875152588, -2.1810812950134277, 7.729461669921875, -0.18551278114318848, -0.7100352048873901, -0.9841551184654236, 0.04443359375, 0.207763671875, -0.815673828125
353, 2171652216, -5.420396327972412, -2.184741973876953, 7.748741149902344, -0.20372341573238373, -0.6660069823265076, -1.0175925493240356, 0.044921875, 0.206787109375, -0.81787109375
354, 2171668883, -5.426229000091553, -2.1687803268432617, 7.736794471740723, -0.18109458684921265, -0.6542124152183533, -0.9723732471466064, 0.0458984375, 0.210205078125, -0.813232421875
355, 2171685550, -5.416341781616211, -2.183910369873047, 7.729918003082275, -0.11368197947740555, -0.7078837752342224, -0.9206869006156921, 0.044921875, 0.207275390625, -0.816650390625
356, 2171702217, -5.415947437286377, -2.1572694778442383, 7.723495006561279, -0.1848212331533432, -0.6483599543571472, -0.8766075372695923, 0.04248046875, 0.207275390625, -0.813720703125
357, 2171718884, -5.4166131019592285, -2.1623482704162598, 7.759045124053955, -0.19395214319229126, -0.6614223122596741, -0.9499621391296387, 0.04638671875, 0.208251953125, -0.813720703125
358, 2171735551, -5.4279465675354, -2.180586099624634, 7.747140407562256, -0.17449933290481567, -0.6725254654884338, -1.0470472574234009, 0.044921875, 0.207763671875, -0.814208984375
359, 2171752218, -5.42197322845459, -2.1924734115600586, 7.747706890106201, -0.2173493653535843, -0.6906080842018127, -0.998357355594635, 0.0439453125, 0.206787109375, -0.815185546875
360, 2171768885, -5.409037113189697, -2.1727983951568604, 7.724709510803223, -0.1623845249414444, -0.6617168188095093, -0.8842656016349792, 0.04296875, 0.209228515625, -0.8154296875
361, 2171785552, -5.403716564178467, -2.1571381092071533, 7.744518280029297, -0.26533788442611694, -0.5177789330482483, -0.8951790928840637, 0.044921875, 0.208740234375, -0.814208984375
362, 2171802219, -5.406439304351807, -2.1956048011779785, 7.748271465301514, -0.23456108570098877, -0.5096414685249329, -0.9714896082878113, 0.0458984375, 0.208740234375, -0.814697265625
363, 2171818886, -5.410694122314453, -2.178903102874756, 7.735114574432373, -0.12166031450033188, -0.5262385010719299, -0.8972640037536621, 0.04443359375, 0.207275390625, -0.813720703125
364, 2171835553, -5.414794921875, -2.1849417686462402, 7.746273994445801, -0.23576492071151733, -0.5594197511672974, -0.8938319683074951, 0.0439453125, 0.207275390625, -0.815185546875
365, 2171852220, -5.417140007019043, -2.165130853652954, 7.744715213775635, -0.22860616445541382, -0.5605595707893372, -0.9809920191764832, 0.04443359375, 0.208740234375, -0.815673828125
366, 2171868887, -5.421140670776367, -2.16739821434021, 7.743037223815918, -0.13231520354747772, -0.5526964068412781, -0.8849955797195435, 0.04443359375, 0.207763671875, -0.815185546875
367, 2171885554, -5.413764476776123, -2.1812663078308105, 7.7421393394470215, -0.2523362934589386, -0.5039170384407043, -0.8387517929077148, 0.04296875, 0.207275390625, -0.814697265625
368, 2171902221, -5.410309791564941, -2.1739559173583984, 7.730966567993164, -0.2495957463979721, -0.48565515875816345, -0.9218138456344604, 0.0458984375, 0.207763671875, -0.814697265625
369, 2171918888, -5.4202399253845215, -2.172985315322876, 7.7242231369018555, -0.18688306212425232, -0.5390832424163818, -0.9669433832168579, 0.04443359375, 0.205810546875, -0.812744140625
370, 2171935555, -5.423710346221924, -2.190200090408325, 7.746379375457764, -0.20342886447906494, -0.5770796537399292, -0.8947924375534058, 0.04345703125, 0.205810546875, -0.813720703125
371, 2171952222, -5.40969181060791, -2.186735153198242, 7.730231285095215, -0.133416548371315, -0.5003568530082703, -0.8295440673828125, 0.044921875, 0.205810546875, -0.814697265625
372, 2171968889, -5.425286769866943, -2.1753368377685547, 7.7325310707092285, -0.20565713942050934, -0.5472537279129028, -0.8688211441040039, 0.04345703125, 0.209228515625, -0.81591796875
373, 2171985556, -5.431088447570801, -2.179172992706299, 7.725405216217041, -0.18058234453201294, -0.6032687425613403, -0.8901822566986084, 0.04345703125, 0.206787109375, -0.815673828125
374, 2172002223, -5.420260429382324, -2.1635098457336426, 7.72920560836792, -0.25278452038764954, -0.589821994304657, -0.9855893850326538, 0.044921875, 0.207763671875, -0.815185546875
375, 2172018890, -5.419451713562012, -2.177218437194824, 7.761922359466553, -0.2867213785648346, -0.5737757086753845, -0.9723989963531494, 0.04248046875, 0.205810546875, -0.813720703125
376, 2172035557, -5.418476104736328, -2.177398204803467, 7.752749919891357, -0.20579804480075836, -0.6055098176002502, -1.0243799686431885, 0.04541015625, 0.205810546875, -0.813232421875
377, 2172052224, -5.414107799530029, -2.176961898803711, 7.738801956176758, -0.25975120067596436, -0.5500326752662659, -0.9984982013702393, 0.0458984375, 0.206787109375, -0.815185546875
378, 2172068891, -5.4138689041137695, -2.1714372634887695, 7.7342753410339355, -0.23073197901248932, -0.6105939745903015, -0.9539321660995483, 0.04443359375, 0.209228515625, -0.815673828125
379, 2172085558, -5.421926021575928, -2.1745333671569824, 7.725732803344727, -0.2264418751001358, -0.598722517490387, -1.0622483491897583, 0.044921875, 0.208251953125, -0.81884765625
380, 2172102225, -5.411744117736816, -2.1878139972686768, 7.733855724334717, -0.18479563295841217, -0.6192253828048706, -0.9607835412025452, 0.0439453125, 0.208251953125, -0.815673828125
381, 2172118892, -5.40686559677124, -2.1819114685058594, 7.741751670837402, -0.1714642196893692, -0.6215689778327942, -0.9395121932029724, 0.04541015625, 0.207275390625, -0.814208984375
382, 2172135559, -5.427159786224365, -2.1627016067504883, 7.75842809677124, -0.2364436239004135, -0.6019880771636963, -0.9648560285568237, 0.04443359375, 0.208740234375, -0.815673828125
383, 2172152226, -5.43268346786499, -2.1725330352783203, 7.731753826141357, -0.2566136419773102, -0.6123356223106384, -1.0394530296325684, 0.04345703125, 0.204345703125, -0.816162109375
384, 2172168893, -5.425901412963867, -2.1837141513824463, 7.739373207092285, -0.2756182551383972, -0.561968207359314, -1.0424624681472778, 0.04248046875, 0.209228515625, -0.813232421875
385, 2172185560, -5.4209489822387695, -2.1715140342712402, 7.744385719299316, -0.33300352096557617, -0.6699129939079285, -1.0652577877044678, 0.0439453125, 0.209228515625, -0.815185546875
386, 2172202227, -5.410716533660889, -2.1855599880218506, 7.731532573699951, -0.21503140032291412, -0.7599031925201416, -1.0131357908248901, 0.044921875, 0.207763671875, -0.814208984375
387, 2172218894, -5.4191813468933105, -2.1899683475494385, 7.762546539306641, -0.14395618438720703, -0.5654387474060059, -0.9826440811157227, 0.04345703125, 0.208251953125, -0.813720703125
388, 2172235561, -5.414607524871826, -2.1783766746520996, 7.7497735023498535, -0.2183866649866104, -0.6579774022102356, -0.8646591305732727, 0.04345703125, 0.207763671875, -0.813232421875
389, 2172252228, -5.417627334594727, -2.164689779281616, 7.746232032775879, -0.27373573184013367, -0.6155372262001038, -0.9890088438987732, 0.04248046875, 0.207275390625, -0.814208984375
390, 2172268895, -5.420280933380127, -2.196044921875, 7.757432460784912, -0.2365332692861557, -0.5545917749404907, -0.937642514705658, 0.044921875, 0.209228515625, -0.81640625
391, 2172285562, -5.403181076049805, -2.1852288246154785, 7.738199234008789, -0.2561141848564148, -0.6468104124069214, -1.0315899848937988, 0.04541015625, 0.208740234375, -0.81787109375
392, 2172302229, -5.422369480133057, -2.1791470050811768, 7.729160785675049, -0.3103106617927551, -0.46700912714004517, -0.9897643327713013, 0.04443359375, 0.208251953125, -0.8173828125
393, 2172318896, -5.414323329925537, -2.1719937324523926, 7.748928070068359, -0.2763354182243347, -0.5353823304176331, -1.0512604713439941, 0.04296875, 0.207275390625, -0.8154296875
394, 2172335563, -5.415287971496582, -2.1654906272888184, 7.712643146514893, -0.20565667748451233, -0.5028714537620544, -0.9908866286277771, 0.04443359375, 0.207275390625, -0.813720703125
395, 2172352230, -5.4160308837890625, -2.184441328048706, 7.733176231384277, -0.17159228026866913, -0.5904239416122437, -0.9624356627464294, 0.04443359375, 0.209716796875, -0.813232421875
396, 2172368897, -5.411070823669434, -2.183652877807617, 7.725834369659424, -0.24128441512584686, -0.552555501461029, -0.9125932455062866, 0.0439453125, 0.207763671875, -0.814697265625
397, 2172385564, -5.423388957977295, -2.186232805252075, 7.719734191894531, -0.14510872960090637, -0.5881956219673157, -0.9221979379653931, 0.04345703125, 0.206787109375, -0.813232421875
398, 2172402231, -5.423249244689941, -2.1840803623199463, 7.742815017700195, -0.15175525844097137, -0.5904752612113953, -0.8910275101661682, 0.04638671875, 0.207275390625, -0.815185546875
399, 2172418898, -5.41873025894165, -2.167344331741333, 7.743134021759033, -0.1683010458946228, -0.5897323489189148, -0.9158716797828674, 0.044921875, 0.206787109375, -0.811767578125
400, 2172435565, -5.417445182800293, -2.1748225688934326, 7.741642475128174, -0.23379270732402802, -0.5278393030166626, -0.9655987024307251, 0.0439453125, 0.206298828125, -0.815185546875
401, 2172452232, -5.433648586273193, -2.189667224884033, 7.73665189743042, -0.20404358208179474, -0.5479068160057068, -0.9314570426940918, 0.04345703125, 0.208740234375, -0.813232421875
402, 2172468899, -5.425144672393799, -2.174079418182373, 7.740931034088135, -0.2485712170600891, -0.6039602160453796, -0.8551311492919922, 0.04443359375, 0.207763671875, -0.813720703125
403, 2172485566, -5.41778564453125, -2.186758041381836, 7.719869613647461, -0.2651810944080353, -0.56102055311203, -0.8991976976394653, 0.044921875, 0.208251953125, -0.816162109375
404, 2172502233, -5.413793563842773, -2.1855392456054688, 7.73431396484375, -0.15830567479133606, -0.6196287870407104, -0.9257646203041077, 0.0458984375, 0.207275390625, -0.815185546875
405, 2172518900, -5.424208641052246, -2.1880812644958496, 7.748593807220459, -0.25548669695854187, -0.6182777285575867, -1.0106515884399414, 0.044921875, 0.208251953125, -0.814697265625
406, 2172535567, -5.4259562492370605, -2.174851655960083, 7.74722146987915, -0.24986469745635986, -0.6523298621177673, -1.032576084136963, 0.0439453125, 0.204833984375, -0.813720703125
407, 2172552234, -5.4148149490356445, -2.1818466186523438, 7.748705863952637, -0.25515368580818176, -0.6274214386940002, -1.0637978315353394, 0.0419921875, 0.206298828125, -0.81640625
408, 2172568901, -5.409521579742432, -2.1863553524017334, 7.745850086212158, -0.25689539313316345, -0.5984535813331604, -0.985640823841095, 0.04345703125, 0.208251953125, -0.81591796875
409, 2172585568, -5.4064040184021, -2.1854491233825684, 7.737234592437744, -0.17297537624835968, -0.587888240814209, -1.0550254583358765, 0.04296875, 0.208251953125, -0.8173828125
410, 2172602235, -5.411787509918213, -2.1649558544158936, 7.744621276855469, -0.1561606228351593, -0.5873631834983826, -0.9857815504074097, 0.04541015625, 0.206298828125, -0.815673828125
411, 2172618902, -5.419980049133301, -2.1864962577819824, 7.756972312927246, -0.2688693404197693, -0.6707710027694702, -0.9918133020401001, 0.04541015625, 0.205322265625, -0.815185546875
412, 2172635569, -5.410511493682861, -2.19083309173584, 7.7386040687561035, -0.24168144166469574, -0.6322367191314697, -0.9268340468406677, 0.04345703125, 0.207275390625, -0.813720703125
413, 2172652236, -5.403526306152344, -2.1943588256835938, 7.747925281524658, -0.16863401234149933, -0.6520096659660339, -0.9352348446846008, 0.04150390625, 0.205810546875, -0.814208984375
414, 2172668903, -5.402034759521484, -2.1829919815063477, 7.735243320465088, -0.16958166658878326, -0.6286764740943909, -0.8380219340324402, 0.0439453125, 0.208740234375, -0.8173828125
415, 2172685570, -5.418405532836914, -2.1772589683532715, 7.747034549713135, -0.2515166997909546, -0.5328850150108337, -0.9158461093902588, 0.0439453125, 0.209228515625, -0.81689453125
416, 2172702237, -5.407138824462891, -2.1715686321258545, 7.7442216873168945, -0.17346198856830597, -0.4619249999523163, -0.9143989682197571, 0.044921875, 0.209228515625, -0.816162109375
417, 2172718904, -5.411881446838379, -2.1809353828430176, 7.723923206329346, -0.27695009112358093, -0.5588434338569641, -0.9001455307006836, 0.0419921875, 0.207763671875, -0.8154296875
418, 2172735571, -5.410971641540527, -2.1864264011383057, 7.718160629272461, -0.2930605411529541, -0.5810241103172302, -0.9435078501701355, 0.04541015625, 0.206298828125, -0.817138671875
419, 2172752238, -5.407374382019043, -2.175374746322632, 7.753639221191406, -0.17224539816379547, -0.5109477043151855, -0.8596518039703369, 0.0439453125, 0.207763671875, -0.815185546875
420, 2172768905, -5.406748294830322, -2.1883668899536133, 7.760468482971191, -0.16991467773914337, -0.5554242134094238, -0.8532871603965759, 0.04248046875, 0.207763671875, -0.814208984375
421, 2172785572, -5.4198384284973145, -2.1847407817840576, 7.747936248779297, -0.20386426150798798, -0.5500070452690125, -0.9688515663146973, 0.0439453125, 0.208251953125, -0.81787109375
422, 2172802239, -5.4252448081970215, -2.1701085567474365, 7.729969501495361, -0.25710028409957886, -0.5713168382644653, -0.9388334155082703, 0.04296875, 0.207763671875, -0.815185546875
423, 2172818906, -5.4233903884887695, -2.182473659515381, 7.724834442138672, -0.16066846251487732, -0.7184233665466309, -1.01490318775177, 0.0419921875, 0.206298828125, -0.81640625
424, 2172835573, -5.4247870445251465, -2.175971508026123, 7.742664337158203, -0.1667642891407013, -0.6993419528007507, -0.9911731481552124, 0.0439453125, 0.209228515625, -0.813232421875
425, 2172852240, -5.412403583526611, -2.191331624984741, 7.711694240570068, -0.1265907734632492, -0.68837970495224, -1.014595866203308, 0.044921875, 0.209228515625, -0.814208984375
426, 2172868907, -5.402500152587891, -2.195042133331299, 7.731569290161133, -0.12559185922145844, -0.670194685459137, -0.9682368636131287, 0.0439453125, 0.208740234375, -0.814208984375
427, 2172885574, -5.41779899597168, -2.184410572052002, 7.733315944671631, -0.11781841516494751, -0.5415420532226562, -0.866285502910614, 0.044921875, 0.208740234375, -0.816162109375
428, 2172902241, -5.422940731048584, -2.1749331951141357, 7.737259864807129, -0.1507013589143753, -0.5412672758102417, -0.9316025972366333, 0.0419921875, 0.206787109375, -0.81689453125
429, 2172918908, -5.409854412078857, -2.1744322776794434, 7.719999313354492, -0.19101949036121368, -0.5539002418518066, -0.9856791496276855, 0.0439453125, 0.206787109375, -0.814208984375
430, 2172935575, -5.409887790679932, -2.170538902282715, 7.746028900146484, -0.21550524234771729, -0.5242919325828552, -1.0052727460861206, 0.0439453125, 0.205322265625, -0.813720703125
431, 2172952242, -5.4264984130859375, -2.1923861503601074, 7.758631229400635, -0.21626083552837372, -0.5804862380027771, -0.9574795961380005, 0.044921875, 0.208251953125, -0.814208984375
432, 2172968909, -5.409753799438477, -2.188138008117676, 7.742225646972656, -0.22361168265342712, -0.5738141536712646, -0.9888295531272888, 0.04541015625, 0.208740234375, -0.81689453125
433, 2172985576, -5.421994209289551, -2.192627429962158, 7.74378776550293, -0.13216152787208557, -0.5947909355163574, -0.9291519522666931, 0.0439453125, 0.209228515625, -0.814697265625
434, 2173002243, -5.421940326690674, -2.180138349533081, 7.729498863220215, -0.1578895002603531, -0.5354207158088684, -0.9347995519638062, 0.044921875, 0.207275390625, -0.816650390625
435, 2173018910, -5.428155422210693, -2.1861209869384766, 7.738165378570557, -0.05036737397313118, -0.7349692583084106, -0.9896748065948486, 0.04443359375, 0.206298828125, -0.816650390625
436, 2173035577, -5.423828601837158, -2.1825578212738037, 7.758729457855225, -0.0838431641459465, -0.6471304297447205, -0.9317003488540649, 0.0439453125, 0.205322265625, -0.812744140625
437, 2173052244, -5.40730094909668, -2.1819818019866943, 7.737380027770996, -0.13976851105690002, -0.6154603958129883, -1.0081671476364136, 0.04248046875, 0.207763671875, -0.8154296875
438, 2173068911, -5.400195121765137, -2.201414108276367, 7.747893333435059, -0.14736264944076538, -0.4460963010787964, -0.979032576084137, 0.0458984375, 0.207763671875, -0.814697265625
439, 2173085578, -5.4135332107543945, -2.173170328140259, 7.7455949783325195, -0.07683809101581573, -0.551159679889679, -0.947797954082489, 0.0419921875, 0.206787109375, -0.8154296875
440, 2173102245, -5.413334846496582, -2.1656670570373535, 7.73077392578125, -0.08763385564088821, -0.6442105770111084, -0.9518064260482788, 0.04541015625, 0.205322265625, -0.815185546875
441, 2173118912, -5.421976566314697, -2.1609933376312256, 7.757970333099365, -0.10489681363105774, -0.7854902148246765, -1.0227408409118652, 0.0439453125, 0.206787109375, -0.81689453125
442, 2173135579, -5.411313533782959, -2.1883816719055176, 7.776834964752197, -0.36713242530822754, -0.7671259641647339, -1.0922023057937622, 0.0439453125, 0.206787109375, -0.815185546875
443, 2173152246, -5.38826322555542, -2.1711490154266357, 7.734261989593506, -0.3848435580730438, -0.7345080971717834, -1.0958391427993774, 0.044921875, 0.207763671875, -0.815673828125
444, 2173168913, -5.402141571044922, -2.196826219558716, 7.738198757171631, -0.12075106054544449, -0.5534775853157043, -0.9169473648071289, 0.04248046875, 0.207763671875, -0.818359375
445, 2173185580, -5.4138360023498535, -2.1821541786193848, 7.74691104888916, -0.26863884925842285, -0.5643246173858643, -0.863288938999176, 0.044921875, 0.208251953125, -0.81689453125
446, 2173202247, -5.406693935394287, -2.172492027282715, 7.730915069580078, -0.18893206119537354, -0.6151018142700195, -0.9783666729927063, 0.04541015625, 0.206298828125, -0.816650390625
447, 2173218914, -5.409102439880371, -2.185307025909424, 7.6864013671875, -0.24344870448112488, -0.5945988297462463, -0.9641004204750061, 0.04345703125, 0.207275390625, -0.81689453125
448, 2173235581, -5.413539409637451, -2.182326316833496, 7.744691371917725, -0.2467527538537979, -0.5655155777931213, -0.955033540725708, 0.044921875, 0.206298828125, -0.814208984375
449, 2173252248, -5.39552116394043, -2.180286407470703, 7.741474628448486, -0.23819810152053833, -0.47129929065704346, -0.948643147945404, 0.04296875, 0.206298828125, -0.81640625
450, 2173268915, -5.385890007019043, -2.1718757152557373, 7.750187397003174, -0.25962311029434204, -0.49382561445236206, -0.8691028952598572, 0.044921875, 0.208740234375, -0.8203125
451, 2173285582, -5.397939205169678, -2.1788220405578613, 7.725826263427734, -0.22261276841163635, -0.503289520740509, -0.8554897308349609, 0.0439453125, 0.208740234375, -0.81591796875
452, 2173302249, -5.4331135749816895, -2.1743555068969727, 7.743368625640869, -0.23955556750297546, -0.4754997491836548, -0.9607579112052917, 0.044921875, 0.206787109375, -0.814697265625
453, 2173318916, -5.404271602630615, -2.1844046115875244, 7.725257873535156, -0.3032415509223938, -0.5064399242401123, -0.9596309065818787, 0.04345703125, 0.207763671875, -0.81640625
454, 2173335583, -5.4189910888671875, -2.182572841644287, 7.750742435455322, -0.22067901492118835, -0.6522529721260071, -1.0437687635421753, 0.0439453125, 0.205322265625, -0.812255859375
455, 2173352250, -5.417298316955566, -2.1869099140167236, 7.721934795379639, -0.13357022404670715, -0.5765162110328674, -0.9394609332084656, 0.04296875, 0.208251953125, -0.815185546875
456, 2173368917, -5.400280475616455, -2.1834614276885986, 7.737181186676025, -0.11623042076826096, -0.5613920092582703, -0.9137715101242065, 0.0419921875, 0.208740234375, -0.81591796875
457, 2173385584, -5.400735855102539, -2.172900438308716, 7.755498886108398, -0.24572822451591492, -0.6134241223335266, -0.9047812819480896, 0.044921875, 0.208251953125, -0.8173828125
458, 2173402251, -5.389591217041016, -2.1906821727752686, 7.731013298034668, -0.16221801936626434, -0.49198150634765625, -0.8847138285636902, 0.0439453125, 0.207763671875, -0.81689453125
459, 2173418918, -5.4105544090271, -2.1955575942993164, 7.727147102355957, -0.16174417734146118, -0.4429076015949249, -0.9489888548851013, 0.044921875, 0.205810546875, -0.817138671875
460, 2173435585, -5.407364368438721, -2.197962999343872, 7.722387790679932, -0.25849616527557373, -0.36797764897346497, -0.8876721262931824, 0.04541015625, 0.205322265625, -0.816650390625
461, 2173452252, -5.4182257652282715, -2.1793527603149414, 7.733128547668457, -0.1686825454235077, -0.4865295886993408, -0.8428363800048828, 0.04443359375, 0.205322265625, -0.81689453125
462, 2173468919, -5.418344020843506, -2.1726512908935547, 7.727488994598389, -0.14847680926322937, -0.5611230134963989, -0.8728679418563843, 0.0439453125, 0.207763671875, -0.813720703125
463, 2173485586, -5.425637245178223, -2.165149688720703, 7.7554755210876465, -0.2026861011981964, -0.5879651308059692, -0.9662007093429565, 0.04345703125, 0.208740234375, -0.81591796875
464, 2173502253, -5.4103007316589355, -2.188399314880371, 7.7416534423828125, -0.27873021364212036, -0.6005153656005859, -0.9975378513336182, 0.04443359375, 0.206787109375, -0.814697265625
465, 2173518920, -5.417942523956299, -2.181688070297241, 7.742815017700195, -0.19221051037311554, -0.6138083934783936, -1.0536937713623047, 0.04345703125, 0.207275390625, -0.813720703125
466, 2173535587, -5.4037909507751465, -2.2033920288085938, 7.733869552612305, -0.25615260004997253, -0.6173557043075562, -0.9023993611335754, 0.04443359375, 0.208740234375, -0.812255859375
467, 2173552254, -5.401051044464111, -2.1900322437286377, 7.725636959075928, -0.16582943499088287, -0.6318525075912476, -0.9426882863044739, 0.0439453125, 0.208251953125, -0.815673828125
468, 2173568921, -5.406023979187012, -2.182445526123047, 7.725958824157715, -0.18190139532089233, -0.6660455465316772, -0.8733162879943848, 0.0458984375, 0.206787109375, -0.814697265625
469, 2173585588, -5.403926372528076, -2.1918532848358154, 7.762082576751709, -0.3271125555038452, -0.4891512989997864, -1.0008546113967896, 0.04443359375, 0.208251953125, -0.815673828125
470, 2173602255, -5.421058177947998, -2.1880831718444824, 7.76940393447876, -0.27720627188682556, -0.4828249514102936, -0.9485791325569153, 0.04296875, 0.209228515625, -0.81494140625
471, 2173618922, -5.427179336547852, -2.175090789794922, 7.74370813369751, -0.30777502059936523, -0.4768572449684143, -0.8815634846687317, 0.04541015625, 0.207275390625, -0.814208984375
472, 2173635589, -5.413021087646484, -2.189268112182617, 7.743716239929199, -0.3065968453884125, -0.575197160243988, -0.9654449820518494, 0.04248046875, 0.204345703125, -0.813232421875
473, 2173652256, -5.403299331665039, -2.1882705688476562, 7.740115642547607, -0.2895515561103821, -0.5852629542350769, -0.9672763347625732, 0.041015625, 0.208740234375, -0.81396484375
474, 2173668923, -5.403051853179932, -2.1835362911224365, 7.732423305511475, -0.3054698407649994, -0.5143285989761353, -0.9822981953620911, 0.04345703125, 0.206787109375, -0.81787109375
475, 2173685590, -5.408535480499268, -2.195446252822876, 7.72503662109375, -0.274209588766098, -0.5388271808624268, -0.9803261756896973, 0.0439453125, 0.208251953125, -0.8193359375
476, 2173702257, -5.410447597503662, -2.176983594894409, 7.694951057434082, -0.34207040071487427, -0.5351260900497437, -0.9584398865699768, 0.04248046875, 0.208251953125, -0.81591796875
477, 2173718924, -5.399785995483398, -2.1766910552978516, 7.730894565582275, -0.28145793080329895, -0.5392881631851196, -0.9738588333129883, 0.04345703125, 0.207763671875, -0.815185546875
478, 2173735591, -5.41199254989624, -2.184340238571167, 7.74003791809082, -0.27217331528663635, -0.5445515513420105, -1.0185145139694214, 0.04248046875, 0.207275390625, -0.813232421875
479, 2173752258, -5.417904376983643, -2.1984095573425293, 7.752990245819092, -0.3362947702407837, -0.5602778196334839, -1.0134177207946777, 0.04443359375, 0.208251953125, -0.813720703125
480, 2173768925, -5.418741703033447, -2.1855475902557373, 7.734664440155029, -0.36467358469963074, -0.5290430784225464, -1.04196298122406, 0.04345703125, 0.205810546875, -0.81640625
481, 2173785592, -5.3854451179504395, -2.2003135681152344, 7.723392009735107, -0.29062730073928833, -0.5380587577819824, -1.063311219215393, 0.04443359375, 0.206787109375, -0.81787109375
482, 2173802259, -5.398029804229736, -2.1877806186676025, 7.757866382598877, -0.27167391777038574, -0.43211182951927185, -0.9267314672470093, 0.04296875, 0.206298828125, -0.815185546875
483, 2173818926, -5.4262166023254395, -2.1846680641174316, 7.702617168426514, -0.3804381787776947, -0.47863730788230896, -0.9371302723884583, 0.04443359375, 0.206298828125, -0.81689453125
484, 2173835593, -5.41331672668457, -2.1968836784362793, 7.759954452514648, -0.25462865829467773, -0.477343887090683, -0.9927610754966736, 0.04248046875, 0.208251953125, -0.81494140625
485, 2173852260, -5.420956611633301, -2.1893646717071533, 7.753307342529297, -0.31004172563552856, -0.510768473148346, -1.0579197406768799, 0.04345703125, 0.207763671875, -0.811767578125
486, 2173868927, -5.416813850402832, -2.204143762588501, 7.727449893951416, -0.29635176062583923, -0.423301100730896, -0.9312650561332703, 0.04345703125, 0.205810546875, -0.815673828125
487, 2173885594, -5.4234137535095215, -2.191023826599121, 7.747813701629639, -0.2577790319919586, -0.595418393611908, -0.9966030716896057, 0.04541015625, 0.206787109375, -0.814208984375
488, 2173902261, -5.400482177734375, -2.1887686252593994, 7.745351791381836, -0.20242998003959656, -0.5375593900680542, -0.9726935625076294, 0.044921875, 0.207275390625, -0.81689453125
489, 2173918928, -5.406681060791016, -2.184414863586426, 7.754025936126709, -0.21036989986896515, -0.4953880310058594, -0.9361825585365295, 0.04443359375, 0.207275390625, -0.814208984375
490, 2173935595, -5.435532093048096, -2.1703221797943115, 7.750024318695068, -0.2587650716304779, -0.4985511600971222, -0.9503079056739807, 0.04541015625, 0.207275390625, -0.815185546875
491, 2173952262, -5.423400402069092, -2.1819252967834473, 7.702083110809326, -0.2759000062942505, -0.6227343678474426, -1.0143524408340454, 0.04345703125, 0.208251953125, -0.81591796875
492, 2173968929, -5.408185005187988, -2.2040467262268066, 7.709616184234619, -0.2807023823261261, -0.569985032081604, -1.026211142539978, 0.0439453125, 0.208740234375, -0.81689453125
493, 2173985596, -5.405730247497559, -2.197349786758423, 7.740525245666504, -0.20477353036403656, -0.6378586888313293, -1.0103312730789185, 0.0439453125, 0.209716796875, -0.814208984375
494, 2174002263, -5.406172752380371, -2.1866700649261475, 7.750742435455322, -0.34847354888916016, -0.5563591122627258, -0.9187019467353821, 0.04443359375, 0.207275390625, -0.815185546875
495, 2174018930, -5.408259391784668, -2.177008628845215, 7.737541675567627, -0.37027937173843384, -0.4672292470932007, -0.997546374797821, 0.04541015625, 0.208740234375, -0.812744140625
496, 2174035597, -5.404562473297119, -2.1791434288024902, 7.718606948852539, -0.5150073766708374, -0.37490588426589966, -1.100014090538025, 0.0439453125, 0.206787109375, -0.813232421875
497, 2174052264, -5.419124126434326, -2.1845695972442627, 7.757575035095215, -0.7972721457481384, -0.2724166810512543, -1.255150318145752, 0.0439453125, 0.206298828125, -0.815185546875
498, 2174068931, -5.4138994216918945, -2.1937403678894043, 7.744593620300293, -1.1186988353729248, -0.2847748100757599, -1.4095182418823242, 0.04248046875, 0.208740234375, -0.813720703125
499, 2174085598, -5.426467418670654, -2.198096752166748, 7.7290167808532715, -0.575145959854126, -0.3151514530181885, -1.2466341257095337, 0.04443359375, 0.206298828125, -0.81787109375
500, 2174102265, -5.39716100692749, -2.236722946166992, 7.7156758308410645, -0.31134799122810364, -0.5826889276504517, -1.0639516115188599, 0.0439453125, 0.207275390625, -0.81689453125
501, 2174118932, -5.411386966705322, -2.2181742191314697, 7.713951587677002, -0.227030947804451, -0.6601929068565369, -0.951819121837616, 0.04443359375, 0.207763671875, -0.816162109375
502, 2174135599, -5.395525932312012, -2.2061221599578857, 7.75847053527832, -0.14633814990520477, -0.5707277059555054, -0.778190553188324, 0.044921875, 0.207763671875, -0.815673828125
503, 2174152266, -5.416656970977783, -2.1892168521881104, 7.7655181884765625, -0.17403827607631683, -0.4701979160308838, -0.7992058396339417, 0.04443359375, 0.209228515625, -0.81787109375
504, 2174168933, -5.414615631103516, -2.18740177154541, 7.748564720153809, -0.2568185329437256, -0.4488113224506378, -0.8843552470207214, 0.04443359375, 0.209228515625, -0.815673828125
505, 2174185600, -5.406664848327637, -2.2038934230804443, 7.720921039581299, -0.24629171192646027, -0.4006209969520569, -0.7897931933403015, 0.04443359375, 0.209716796875, -0.81787109375
506, 2174202267, -5.409114360809326, -2.204681634902954, 7.71113395690918, -0.2670123875141144, -0.4141317307949066, -0.8424656987190247, 0.04345703125, 0.207275390625, -0.81640625
507, 2174218934, -5.411866188049316, -2.2009875774383545, 7.710382461547852, -0.37806904315948486, -0.4260544180870056, -0.756074070930481, 0.0439453125, 0.209228515625, -0.814208984375
508, 2174235601, -5.405233860015869, -2.1949596405029297, 7.716641902923584, -0.31950560212135315, -0.3362562954425812, -0.809143602848053, 0.04541015625, 0.207763671875, -0.817138671875
509, 2174252268, -5.42985725402832, -2.206780195236206, 7.737821578979492, -0.3368198573589325, -0.31442150473594666, -0.7989498376846313, 0.044921875, 0.208740234375, -0.816162109375
510, 2174268935, -5.414714336395264, -2.210573673248291, 7.74091100692749, -0.16061723232269287, -0.28964120149612427, -0.8543755412101746, 0.04443359375, 0.208251953125, -0.818359375
511, 2174285602, -5.402887344360352, -2.1956374645233154, 7.734438896179199, -0.21163775026798248, -0.21149687469005585, -0.7316267490386963, 0.04443359375, 0.209716796875, -0.81591796875
512, 2174302269, -5.426929473876953, -2.190197467803955, 7.728097915649414, -0.147798091173172, -0.25666487216949463, -0.6755093336105347, 0.04541015625, 0.207763671875, -0.817138671875
513, 2174318936, -5.422567367553711, -2.2015132904052734, 7.740793704986572, -0.24467810988426208, -0.15089721977710724, -0.4971424639225006, 0.04443359375, 0.207763671875, -0.815673828125
514, 2174335603, -5.416477203369141, -2.1962740421295166, 7.7526021003723145, -0.25429567694664, -0.013395440764725208, -0.5616993308067322, 0.044921875, 0.206298828125, -0.815673828125
515, 2174352270, -5.416355609893799, -2.1902058124542236, 7.7473955154418945, -0.3242567181587219, 0.0620659701526165, -0.6012580990791321, 0.044921875, 0.209716796875, -0.81640625
516, 2174368937, -5.424330234527588, -2.2139227390289307, 7.732904434204102, -0.24996712803840637, -0.03492291644215584, -0.5717011094093323, 0.0439453125, 0.21142578125, -0.81884765625
517, 2174385604, -5.455572128295898, -2.1773452758789062, 7.715903282165527, -0.2889624834060669, -0.15386828780174255, -0.6682993173599243, 0.0458984375, 0.210693359375, -0.81689453125
518, 2174402271, -5.436547756195068, -2.176987648010254, 7.760491847991943, -0.27716782689094543, -0.22178035974502563, -0.8983398079872131, 0.046875, 0.210205078125, -0.81787109375
519, 2174418938, -5.425297260284424, -2.1941630840301514, 7.735773086547852, -0.4609517455101013, -0.21952642500400543, -0.9428290724754333, 0.0458984375, 0.207275390625, -0.816650390625
520, 2174435605, -5.432426452636719, -2.1997811794281006, 7.7022600173950195, -0.18575608730316162, -0.32074782252311707, -0.867220401763916, 0.0439453125, 0.208740234375, -0.815185546875
521, 2174452272, -5.438118934631348, -2.199920415878296, 7.738998889923096, -0.14965499937534332, -0.37459850311279297, -0.846025824546814, 0.0458984375, 0.208251953125, -0.816162109375
522, 2174468939, -5.432989120483398, -2.2049777507781982, 7.73569393157959, -0.16287115216255188, -0.45566272735595703, -0.916576087474823, 0.046875, 0.207763671875, -0.817626953125
523, 2174485606, -5.441903591156006, -2.1922719478607178, 7.712170600891113, -0.24207842350006104, -0.43692702054977417, -0.9472344517707825, 0.04541015625, 0.210205078125, -0.818359375
524, 2174502273, -5.421274185180664, -2.184649705886841, 7.742899417877197, -0.27198126912117004, -0.3811553716659546, -1.0034799575805664, 0.04638671875, 0.208251953125, -0.816162109375
525, 2174518940, -5.43039083480835, -2.193419933319092, 7.715373516082764, -0.3185451626777649, -0.3028445243835449, -0.9812736511230469, 0.044921875, 0.206787109375, -0.814208984375
526, 2174535607, -5.432179927825928, -2.2070744037628174, 7.722175598144531, -0.2626582086086273, -0.3152666985988617, -0.8575131297111511, 0.04443359375, 0.209228515625, -0.815185546875
527, 2174552274, -5.404865264892578, -2.220177412033081, 7.74570369720459, -0.25405237078666687, -0.1048583909869194, -0.6528933644294739, 0.04541015625, 0.210205078125, -0.813232421875
528, 2174568941, -5.422635078430176, -2.1834466457366943, 7.739910125732422, -0.27605363726615906, 0.03273943066596985, -0.6225678324699402, 0.044921875, 0.209716796875, -0.81640625
529, 2174585608, -5.446378707885742, -2.189732074737549, 7.729569435119629, -0.35292571783065796, 0.03585352376103401, -0.6553785800933838, 0.0458984375, 0.208251953125, -0.815673828125
530, 2174602275, -5.453752040863037, -2.1699137687683105, 7.698948383331299, -0.2687924802303314, -0.02265443280339241, -0.7246856689453125, 0.04736328125, 0.209716796875, -0.815673828125
531, 2174618942, -5.450984001159668, -2.1930091381073, 7.721346378326416, -0.22329150140285492, -0.2815859913825989, -0.7801883816719055, 0.046875, 0.209228515625, -0.817626953125
532, 2174635609, -5.455877780914307, -2.200902223587036, 7.714807033538818, -0.0726248100399971, -0.5391472578048706, -0.7066928148269653, 0.046875, 0.209716796875, -0.815673828125
533, 2174652276, -5.455642223358154, -2.199199676513672, 7.7244791984558105, 0.07494916766881943, -0.630431056022644, -0.7091901302337646, 0.044921875, 0.208740234375, -0.814697265625
534, 2174668943, -5.452571868896484, -2.193615674972534, 7.711792945861816, 0.18420013785362244, -0.8739948868751526, -0.6119130253791809, 0.04736328125, 0.208740234375, -0.814208984375
535, 2174685610, -5.43899393081665, -2.1921849250793457, 7.711052894592285, 0.3289887011051178, -0.8826776146888733, -0.624757707118988, 0.04443359375, 0.208251953125, -0.812744140625
536, 2174702277, -5.436581134796143, -2.1876938343048096, 7.689376354217529, 0.44350308179855347, -0.9894185662269592, -0.6566199064254761, 0.044921875, 0.207275390625, -0.814697265625
537, 2174718944, -5.423036098480225, -2.1882240772247314, 7.742416858673096, 0.18361103534698486, -0.7916116714477539, -0.7507209777832031, 0.0458984375, 0.206298828125, -0.813232421875
538, 2174735611, -5.434831142425537, -2.184140682220459, 7.714835166931152, -0.020976798608899117, -0.4465445876121521, -0.8489328622817993, 0.04443359375, 0.207763671875, -0.81689453125
539, 2174752278, -5.43658971786499, -2.1923491954803467, 7.730914115905762, -0.2099216729402542, -0.35266125202178955, -0.7326128482818604, 0.046875, 0.208251953125, -0.815673828125
540, 2174768945, -5.447795867919922, -2.1750125885009766, 7.7205915451049805, -0.0983271524310112, -0.4413580298423767, -0.7952870726585388, 0.04443359375, 0.208251953125, -0.81689453125
541, 2174785612, -5.457193374633789, -2.187323808670044, 7.7182416915893555, -0.14774684607982635, -0.5430660247802734, -0.8835868239402771, 0.04833984375, 0.208251953125, -0.817138671875
542, 2174802279, -5.435938358306885, -2.190643548965454, 7.71602201461792, -0.0692567378282547, -0.8203362822532654, -0.7916500568389893, 0.04443359375, 0.208251953125, -0.815673828125
543, 2174818946, -5.436238765716553, -2.1848857402801514, 7.717572212219238, -0.07518608123064041, -0.8741230964660645, -0.8574236035346985, 0.04541015625, 0.205810546875, -0.817138671875
544, 2174835613, -5.435763359069824, -2.1862986087799072, 7.722418308258057, -0.1136179268360138, -0.7366980910301208, -0.8480492830276489, 0.0458984375, 0.206298828125, -0.815673828125
545, 2174852280, -5.437764644622803, -2.190178394317627, 7.7385969161987305, -0.1850389540195465, -0.7137875556945801, -0.8373432159423828, 0.046875, 0.208251953125, -0.814697265625
546, 2174868947, -5.460346221923828, -2.164426326751709, 7.734374523162842, -0.19811423122882843, -0.7596726417541504, -0.940421462059021, 0.04541015625, 0.207275390625, -0.81787109375
547, 2174885614, -5.437956809997559, -2.179715394973755, 7.710940361022949, -0.06815540045499802, -0.9647791981697083, -0.9242087006568909, 0.0458984375, 0.208251953125, -0.815185546875
548, 2174902281, -5.4457550048828125, -2.177440881729126, 7.723369598388672, -0.08254973590373993, -1.068613052368164, -1.0402085781097412, 0.04541015625, 0.208251953125, -0.816650390625
549, 2174918948, -5.422256946563721, -2.1891160011291504, 7.713298797607422, -0.20456862449645996, -0.9399861097335815, -1.1031774282455444, 0.048828125, 0.206298828125, -0.816650390625
550, 2174935615, -5.442663192749023, -2.169482707977295, 7.712635040283203, -0.3932574391365051, -0.7793688178062439, -1.1856118440628052, 0.04638671875, 0.205810546875, -0.817626953125
551, 2174952282, -5.417963981628418, -2.1650149822235107, 7.717148780822754, -0.5500327348709106, -0.6419695019721985, -1.3694727420806885, 0.0458984375, 0.207763671875, -0.814208984375
552, 2174968949, -5.429488658905029, -2.167490005493164, 7.729586601257324, -1.2040657997131348, -0.4155404567718506, -1.6393022537231445, 0.04541015625, 0.209716796875, -0.815185546875
553, 2174985616, -5.457155704498291, -2.133517026901245, 7.724035263061523, -2.119028329849243, -0.11961131542921066, -2.3175010681152344, 0.04638671875, 0.210205078125, -0.816162109375
554, 2175002283, -5.4285101890563965, -2.1716084480285645, 7.707456588745117, -2.467412233352661, 0.022891350090503693, -2.7042016983032227, 0.04736328125, 0.210693359375, -0.816650390625
555, 2175018950, -5.439018726348877, -2.1842947006225586, 7.712061405181885, -2.68235445022583, 0.1213337779045105, -2.823659896850586, 0.0458984375, 0.209228515625, -0.812255859375
556, 2175035617, -5.4504547119140625, -2.207784414291382, 7.732215881347656, -2.747077703475952, -0.02230866625905037, -2.7955880165100098, 0.04541015625, 0.211181640625, -0.81640625
557, 2175052284, -5.46259069442749, -2.1740052700042725, 7.7081828117370605, -2.6562163829803467, -0.13020217418670654, -2.9769644737243652, 0.0458984375, 0.209716796875, -0.814208984375
558, 2175068951, -5.427772521972656, -2.2604832649230957, 7.725986480712891, -2.372901439666748, 0.031381960958242416, -2.9426686763763428, 0.044921875, 0.210693359375, -0.81640625
559, 2175085618, -5.443455219268799, -2.268202781677246, 7.731606483459473, -2.6407594680786133, -0.20710432529449463, -2.891174793243408, 0.046875, 0.21240234375, -0.815673828125
560, 2175102285, -5.424928188323975, -2.2873117923736572, 7.736621856689453, -2.3217527866363525, -0.12018758803606033, -2.5881502628326416, 0.046875, 0.21337890625, -0.81689453125
561, 2175118952, -5.429500102996826, -2.278988838195801, 7.6796722412109375, -2.537104368209839, -0.30175599455833435, -2.4668614864349365, 0.0458984375, 0.21142578125, -0.814208984375
562, 2175135619, -5.410261154174805, -2.3085620403289795, 7.715323448181152, -1.9641509056091309, -0.3482511341571808, -2.061805009841919, 0.04541015625, 0.21240234375, -0.815185546875
563, 2175152286, -5.447905540466309, -2.2563018798828125, 7.698652744293213, -1.3688708543777466, -0.6618834137916565, -1.833408236503601, 0.044921875, 0.212890625, -0.815185546875
564, 2175168953, -5.45481014251709, -2.2379379272460938, 7.674642562866211, -1.4136033058166504, -0.993401288986206, -2.063448667526245, 0.044921875, 0.21435546875, -0.8154296875
565, 2175185620, -5.439942359924316, -2.2726032733917236, 7.674724102020264, -1.1614463329315186, -0.9955145120620728, -2.0568408966064453, 0.0458984375, 0.21435546875, -0.814697265625
566, 2175202287, -5.416629791259766, -2.3291196823120117, 7.680374622344971, -0.9515502452850342, -1.0013285875320435, -1.8362513780593872, 0.044921875, 0.2158203125, -0.814697265625
567, 2175218954, -5.418069839477539, -2.344191551208496, 7.66923189163208, -0.5640556216239929, -1.1189290285110474, -1.4679789543151855, 0.04736328125, 0.21533203125, -0.815673828125
568, 2175235621, -5.4046759605407715, -2.299726963043213, 7.668567657470703, -0.3371272087097168, -1.2740014791488647, -1.2200483083724976, 0.04541015625, 0.21435546875, -0.813720703125
569, 2175252288, -5.412790298461914, -2.274123430252075, 7.738184452056885, -0.5575244426727295, -0.9375273585319519, -1.4266273975372314, 0.048828125, 0.21484375, -0.814697265625
570, 2175268955, -5.407127380371094, -2.2960965633392334, 7.704927921295166, -1.0552176237106323, -0.5072851181030273, -1.6112052202224731, 0.044189453125, 0.2158203125, -0.813720703125
571, 2175285622, -5.3857011795043945, -2.323479413986206, 7.699497699737549, -0.9055498838424683, -0.19550172984600067, -1.4283690452575684, 0.0478515625, 0.216796875, -0.812744140625
572, 2175302289, -5.38770866394043, -2.333677053451538, 7.7071380615234375, -0.8273541927337646, 0.0030158956069499254, -1.2066398859024048, 0.044677734375, 0.216796875, -0.81591796875
573, 2175318956, -5.389128684997559, -2.336188793182373, 7.69742488861084, -0.566117525100708, 0.14164462685585022, -0.8520960211753845, 0.042236328125, 0.21435546875, -0.81494140625
574, 2175335623, -5.42909049987793, -2.3156192302703857, 7.693040370941162, -0.1578126698732376, 0.06713729351758957, -0.5607004165649414, 0.046142578125, 0.2177734375, -0.813232421875
575, 2175352290, -5.4411845207214355, -2.3152472972869873, 7.676297187805176, 0.1181577816605568, -0.2556147277355194, -0.38322997093200684, 0.045166015625, 0.21728515625, -0.81494140625
576, 2175368957, -5.441986083984375, -2.297180414199829, 7.715076923370361, 0.23475958406925201, -0.3202483654022217, -0.4275527596473694, 0.043701171875, 0.21630859375, -0.81591796875
577, 2175385624, -5.395792484283447, -2.307082414627075, 7.7083611488342285, 0.30465665459632874, -0.3084537386894226, -0.3060333728790283, 0.04833984375, 0.216796875, -0.815185546875
578, 2175402291, -5.400888442993164, -2.315922975540161, 7.710666656494141, 0.22325949370861053, -0.03136274963617325, -0.08417613059282303, 0.0458984375, 0.21630859375, -0.815185546875
579, 2175418958, -5.427956581115723, -2.308220148086548, 7.699270248413086, -0.0603819414973259, 0.44628211855888367, -0.02406313270330429, 0.04541015625, 0.21435546875, -0.814208984375
580, 2175435625, -5.421158790588379, -2.322978973388672, 7.720193862915039, 0.021341780200600624, 0.6281706094741821, 0.18514780700206757, 0.046875, 0.21630859375, -0.813232421875
581, 2175452292, -5.421824932098389, -2.303846597671509, 7.716698169708252, 0.25162556767463684, 0.7472440600395203, 0.2982790768146515, 0.0458984375, 0.21435546875, -0.813720703125
582, 2175468959, -5.412294387817383, -2.2990899085998535, 7.709320068359375, 0.3847731649875641, 0.8118392825126648, 0.5463124513626099, 0.046875, 0.21435546875, -0.815673828125
583, 2175485626, -5.358776092529297, -2.335265636444092, 7.68039083480835, 0.8810448050498962, 1.098919153213501, 1.2328095436096191, 0.046875, 0.2177734375, -0.815673828125
584, 2175502293, -5.408022880554199, -2.4123001098632812, 7.6798858642578125, 2.5286202430725098, 1.3343640565872192, 2.53200101852417, 0.0478515625, 0.21484375, -0.813232421875
585, 2175518960, -5.473340034484863, -2.323148250579834, 7.688730716705322, 3.0533854961395264, 1.278566598892212, 3.5172574520111084, 0.04931640625, 0.21142578125, -0.814697265625
586, 2175535627, -5.499835014343262, -2.118338108062744, 7.7629780769348145, 0.4770301282405853, 2.849982738494873, 2.4113271236419678, 0.0498046875, 0.21337890625, -0.811767578125
587, 2175552294, -5.469710350036621, -2.098989963531494, 7.763800144195557, -1.6732523441314697, 3.8735756874084473, 2.077958822250366, 0.05224609375, 0.2119140625, -0.813232421875
588, 2175568961, -5.433839797973633, -2.105541229248047, 7.836529731750488, -5.50893497467041, 3.8248419761657715, 3.2317278385162354, 0.05126953125, 0.21337890625, -0.815185546875
589, 2175585628, -5.535306453704834, -2.4663829803466797, 7.545223236083984, -7.232274055480957, 2.807325839996338, 5.979895114898682, 0.05419921875, 0.216796875, -0.814208984375
590, 2175602295, -5.641482353210449, -2.1990556716918945, 7.532863616943359, -5.661599159240723, 1.7107685804367065, 5.499412536621094, 0.05419921875, 0.21630859375, -0.812255859375
591, 2175618962, -5.685891628265381, -2.180586576461792, 7.492002964019775, -2.947906494140625, -0.09032317996025085, 4.174915313720703, 0.05419921875, 0.218994140625, -0.813232421875
592, 2175635629, -5.683945655822754, -2.0951921939849854, 7.495024681091309, -0.2525540292263031, -1.9053288698196411, 1.698294997215271, 0.05615234375, 0.216796875, -0.81201171875
593, 2175652296, -5.616557598114014, -2.007230758666992, 7.608410835266113, 0.494421124458313, -3.1413333415985107, -1.3597140312194824, 0.05419921875, 0.21728515625, -0.81103515625
594, 2175668963, -5.517636775970459, -2.187565565109253, 7.716798305511475, -0.1680833250284195, -3.301809787750244, -2.903660297393799, 0.0556640625, 0.218017578125, -0.813720703125
595, 2175685630, -5.440047264099121, -2.339500904083252, 7.724128723144531, -0.37849169969558716, -2.402855396270752, -2.6831867694854736, 0.05419921875, 0.216796875, -0.812744140625
596, 2175702297, -5.435544013977051, -2.340860605239868, 7.723303318023682, -0.9210623502731323, -1.1304203271865845, -2.0256762504577637, 0.05126953125, 0.21728515625, -0.812744140625
597, 2175718964, -5.394920349121094, -2.382874011993408, 7.66841983795166, -0.7646799683570862, -0.0914885550737381, -0.8673228025436401, 0.05419921875, 0.217529296875, -0.81103515625
598, 2175735631, -5.441467761993408, -2.3301851749420166, 7.6286797523498535, -0.41662898659706116, 0.4734443724155426, -0.12876784801483154, 0.05224609375, 0.2177734375, -0.81005859375
599, 2175752298, -5.47828483581543, -2.257688522338867, 7.6316304206848145, -0.13722003996372223, 0.7152154445648193, 0.19643019139766693, 0.0546875, 0.21630859375, -0.8125
600, 2175768965, -5.5206451416015625, -2.2029366493225098, 7.608284950256348, 0.06976258754730225, 0.653988242149353, -0.01039875578135252, 0.0537109375, 0.21728515625, -0.814208984375
601, 2175785632, -5.557333469390869, -2.175213575363159, 7.62680196762085, 0.014042162336409092, 0.29620444774627686, -0.6498326063156128, 0.056640625, 0.2158203125, -0.81298828125
602, 2175802299, -5.560128211975098, -2.2408852577209473, 7.613941669464111, 0.0934799462556839, -0.39898180961608887, -0.9506024718284607, 0.05224609375, 0.216796875, -0.811767578125
603, 2175818966, -5.555665016174316, -2.2636916637420654, 7.613606929779053, 0.16414539515972137, -1.1777616739273071, -0.9920567274093628, 0.0537109375, 0.21728515625, -0.8115234375
604, 2175835633, -5.543546199798584, -2.241152048110962, 7.627852439880371, 0.3680865168571472, -1.7601046562194824, -0.9012979865074158, 0.0546875, 0.2158203125, -0.8115234375
605, 2175852300, -5.546168804168701, -2.2256205081939697, 7.648426532745361, 0.4935503304004669, -2.0864875316619873, -0.9632169008255005, 0.05322265625, 0.2158203125, -0.80859375
606, 2175868967, -5.502133846282959, -2.2286324501037598, 7.671914577484131, 0.4239862561225891, -2.131027936935425, -1.1172003746032715, 0.0517578125, 0.218505859375, -0.811279296875
607, 2175885634, -5.462558269500732, -2.2389490604400635, 7.666423797607422, 0.327605664730072, -1.8231120109558105, -1.0672427415847778, 0.05126953125, 0.21630859375, -0.810302734375
608, 2175902301, -5.443955421447754, -2.2584986686706543, 7.6883111000061035, 0.22085191309452057, -1.1383180618286133, -0.9537529945373535, 0.05419921875, 0.2158203125, -0.8115234375
609, 2175918968, -5.473715782165527, -2.2500040531158447, 7.681679725646973, -0.04488625377416611, -0.5540154576301575, -0.8062621355056763, 0.05322265625, 0.216796875, -0.81103515625
610, 2175935635, -5.497832298278809, -2.237334966659546, 7.660880088806152, -0.14651745557785034, -0.2058364748954773, -0.9788918495178223, 0.05078125, 0.21435546875, -0.812744140625
611, 2175952302, -5.518024921417236, -2.2213358879089355, 7.659429550170898, -0.1598232388496399, -0.4561493992805481, -0.9584271907806396, 0.0517578125, 0.2158203125, -0.811767578125
612, 2175968969, -5.540291786193848, -2.2089154720306396, 7.642777442932129, -0.1317773312330246, -0.7931869029998779, -1.2041810750961304, 0.05322265625, 0.2158203125, -0.813720703125
613, 2175985636, -5.514733791351318, -2.243623733520508, 7.652285575866699, -0.03031262941658497, -1.2444441318511963, -1.2674700021743774, 0.05224609375, 0.21630859375, -0.812744140625
614, 2176002303, -5.490167140960693, -2.2623870372772217, 7.683279514312744, 0.1038915142416954, -1.4759318828582764, -1.1479098796844482, 0.0537109375, 0.21533203125, -0.813720703125
615, 2176018970, -5.499588966369629, -2.2555856704711914, 7.695855617523193, 0.2797227203845978, -1.3949573040008545, -1.0806127786636353, 0.05517578125, 0.216796875, -0.813720703125
616, 2176035637, -5.472986698150635, -2.2294106483459473, 7.689675331115723, 0.07170915603637695, -1.095019817352295, -1.0000351667404175, 0.05322265625, 0.217529296875, -0.811767578125
617, 2176052304, -5.494169235229492, -2.224825382232666, 7.68875789642334, -0.003905936609953642, -0.9886118173599243, -1.0563445091247559, 0.052734375, 0.21630859375, -0.812255859375
618, 2176068971, -5.479864120483398, -2.2220852375030518, 7.6943793296813965, -0.12247993052005768, -0.7734523415565491, -1.0738763809204102, 0.05126953125, 0.21533203125, -0.812744140625
619, 2176085638, -5.475040912628174, -2.24074125289917, 7.672272205352783, -0.20963996648788452, -0.5824328064918518, -1.0061053037643433, 0.0517578125, 0.21728515625, -0.814208984375
620, 2176102305, -5.491598606109619, -2.236795663833618, 7.653359889984131, -0.18772825598716736, -0.6602953672409058, -0.9474649429321289, 0.05126953125, 0.21728515625, -0.813720703125
621, 2176118972, -5.492417812347412, -2.2407619953155518, 7.661699295043945, -0.11268307268619537, -0.7167713642120361, -0.9178311228752136, 0.05126953125, 0.2158203125, -0.814697265625
622, 2176135639, -5.501461982727051, -2.2467331886291504, 7.634289741516113, 0.0378427654504776, -0.9090203642845154, -0.8318236470222473, 0.0517578125, 0.21435546875, -0.813720703125
623, 2176152306, -5.505139350891113, -2.2026140689849854, 7.675057411193848, 0.04236981272697449, -0.8370102643966675, -0.9725398421287537, 0.05322265625, 0.21630859375, -0.81103515625
624, 2176168973, -5.472755432128906, -2.2425177097320557, 7.67812442779541, -0.18368147313594818, -0.8451551198959351, -1.1532118320465088, 0.0537109375, 0.218505859375, -0.812744140625
625, 2176185640, -5.500135898590088, -2.211150646209717, 7.694598197937012, -0.14936044812202454, -0.7296929955482483, -0.9675197005271912, 0.05322265625, 0.219482421875, -0.813232421875
626, 2176202307, -5.493349552154541, -2.2175047397613525, 7.674230575561523, -0.06287918239831924, -0.6646880507469177, -1.0829689502716064, 0.05224609375, 0.216796875, -0.814697265625
627, 2176218974, -5.490098476409912, -2.2403476238250732, 7.663504123687744, 0.019062252715229988, -0.6852166652679443, -0.9731033444404602, 0.05078125, 0.21630859375, -0.813232421875
628, 2176235641, -5.514937400817871, -2.2106261253356934, 7.656138896942139, -0.05341527983546257, -0.724608838558197, -0.8846498131752014, 0.05078125, 0.21630859375, -0.811279296875
629, 2176252308, -5.490740776062012, -2.2164559364318848, 7.6523518562316895, -0.11032051593065262, -0.7661474347114563, -1.0332527160644531, 0.05224609375, 0.2158203125, -0.812255859375
630, 2176268975, -5.494470596313477, -2.2354297637939453, 7.686795234680176, -0.21126636862754822, -0.8251644372940063, -1.1422368288040161, 0.05322265625, 0.2158203125, -0.813232421875
631, 2176285642, -5.487790584564209, -2.226999044418335, 7.708160877227783, -0.31991544365882874, -0.7799451947212219, -1.1815394163131714, 0.05224609375, 0.21533203125, -0.814208984375
632, 2176302309, -5.492647647857666, -2.2403435707092285, 7.665670394897461, -0.2860041856765747, -0.7998462319374084, -1.2937102317810059, 0.05126953125, 0.2158203125, -0.813720703125
633, 2176318976, -5.4689106941223145, -2.2590172290802, 7.664116382598877, -0.21489053964614868, -0.8306453824043274, -1.1425697803497314, 0.05224609375, 0.21435546875, -0.811279296875
634, 2176335643, -5.4739603996276855, -2.2667365074157715, 7.648730754852295, -0.25962311029434204, -0.9021433591842651, -1.0267876386642456, 0.05078125, 0.216796875, -0.812255859375
635, 2176352310, -5.479601860046387, -2.228510856628418, 7.674481391906738, -0.1679937094449997, -0.9157692790031433, -1.076949954032898, 0.0498046875, 0.21484375, -0.811767578125
636, 2176368977, -5.4871745109558105, -2.2347216606140137, 7.687793254852295, -0.18058235943317413, -1.0051320791244507, -1.0742990970611572, 0.04931640625, 0.21484375, -0.811279296875
637, 2176385644, -5.478480815887451, -2.2377309799194336, 7.694803714752197, -0.30117976665496826, -1.020371437072754, -1.230254888534546, 0.0537109375, 0.21533203125, -0.812744140625
638, 2176402311, -5.461030960083008, -2.2377376556396484, 7.6924614906311035, -0.1721813827753067, -0.9230816960334778, -1.1580142974853516, 0.04931640625, 0.21533203125, -0.814208984375
639, 2176418978, -5.479543209075928, -2.246396064758301, 7.68551778793335, -0.23313960433006287, -1.0300146341323853, -1.1505608558654785, 0.0517578125, 0.21630859375, -0.813720703125
640, 2176435645, -5.469672203063965, -2.2384908199310303, 7.688943386077881, -0.28820690512657166, -0.8572314977645874, -1.1628421545028687, 0.0498046875, 0.21630859375, -0.812255859375
641, 2176452312, -5.4665679931640625, -2.2539827823638916, 7.684943199157715, -0.31503617763519287, -0.7854646444320679, -1.0434613227844238, 0.04931640625, 0.21728515625, -0.812255859375
642, 2176468979, -5.476534843444824, -2.2464349269866943, 7.704509735107422, -0.360242635011673, -0.7174757719039917, -0.9898924827575684, 0.05029296875, 0.216796875, -0.815673828125
643, 2176485646, -5.481579780578613, -2.238306760787964, 7.651425361633301, -0.35938459634780884, -0.6455680727958679, -1.0569592714309692, 0.0517578125, 0.21728515625, -0.811279296875
644, 2176502313, -5.476593971252441, -2.255767583847046, 7.666081428527832, -0.20478631556034088, -0.795876145362854, -1.0788196325302124, 0.05224609375, 0.21337890625, -0.813720703125
645, 2176518980, -5.444092750549316, -2.2486793994903564, 7.664706230163574, -0.2227792739868164, -0.8570137619972229, -0.9727575778961182, 0.04833984375, 0.21630859375, -0.811279296875
646, 2176535647, -5.477019786834717, -2.224491834640503, 7.685506343841553, -0.22151142358779907, -0.5849812030792236, -0.9660341143608093, 0.05078125, 0.2138671875, -0.812255859375
