sep=,
DeviceTag:,B,,,,,,,,,,,,,,,,,
FirmwareVersion:,2.2.1,,,,,,,,,,,,,,,,,
AppVersion:,2022.0.1,,,,,,,,,,,,,,,,,
SyncStatus:,Synced,,,,,,,,,,,,,,,,,
OutputRate:,60Hz,,,,,,,,,,,,,,,,,
FilterProfile:,General,,,,,,,,,,,,,,,,,
Measurement Mode:,Inertial Mode - Rate quantities (with mag),,,,,,,,,,,,,,,,,
StartTime:,2022-08-05 16:43:29.459 +0300,,,,,,,,,,,,,,,,,
© Xsens Technologies B. V. 2005-2022,,,,,,,,,,,,,,,,,,,

PacketCounter,SampleTimeFine,Acc_X,Acc_Y,Acc_Z,Gyr_X,Gyr_Y,Gyr_Z,Mag_X,Mag_Y,Mag_Z
1, 3256507246, -5.3316264152526855, -2.082310914993286, 7.838846206665039, -0.93177729845047, -0.00382909900508821, -1.2028108835220337, 0.04296875, 0.19775390625, -0.817626953125
2, 3256523913, -5.312172889709473, -2.0845277309417725, 7.836382865905762, -0.7787669897079468, -0.22963064908981323, -1.0682929754257202, 0.04443359375, 0.20068359375, -0.816162109375
3, 3256540580, -5.328587532043457, -2.079943895339966, 7.823458671569824, -0.5280441641807556, -0.46068280935287476, -0.9297665357589722, 0.04248046875, 0.19873046875, -0.814697265625
4, 3256557247, -5.313777923583984, -2.065113067626953, 7.842362403869629, -0.3743423819541931, -0.49349263310432434, -0.911491870880127, 0.04248046875, 0.19677734375, -0.813232421875
5, 3256573914, -5.328990459442139, -2.0598888397216797, 7.834159851074219, -0.38743048906326294, -0.4413708448410034, -1.0172467231750488, 0.04296875, 0.19921875, -0.811279296875
6, 3256590581, -5.316255569458008, -2.05111026763916, 7.842134475708008, -0.4716322422027588, -0.40640950202941895, -1.0721091032028198, 0.0439453125, 0.201171875, -0.814697265625
7, 3256607248, -5.31536865234375, -2.0640554428100586, 7.839704513549805, -0.4641149342060089, -0.4915332794189453, -1.0711615085601807, 0.0419921875, 0.1982421875, -0.815673828125
8, 3256623915, -5.303685188293457, -2.0776093006134033, 7.809479713439941, -0.3691302239894867, -0.474295973777771, -0.9496803879737854, 0.044189453125, 0.19775390625, -0.818603515625
9, 3256640582, -5.326368808746338, -2.07444429397583, 7.816152572631836, -0.3145623505115509, -0.4202531576156616, -0.9569928646087646, 0.04541015625, 0.20068359375, -0.816162109375
10, 3256657249, -5.3397111892700195, -2.0695080757141113, 7.7935895919799805, -0.49976783990859985, -0.564337432384491, -0.9388463497161865, 0.04150390625, 0.195068359375, -0.814697265625
11, 3256673916, -5.301667213439941, -2.077362537384033, 7.823189735412598, -0.5357792377471924, -0.585160493850708, -1.0339847803115845, 0.04345703125, 0.1982421875, -0.815673828125
12, 3256690583, -5.306827545166016, -2.0606045722961426, 7.838429927825928, -0.6389601230621338, -0.256523996591568, -1.0414764881134033, 0.04248046875, 0.19873046875, -0.8173828125
13, 3256707250, -5.341117858886719, -2.0657148361206055, 7.813220977783203, -0.6421616673469543, -0.1816817820072174, -1.037632703781128, 0.04345703125, 0.19921875, -0.817138671875
14, 3256723917, -5.340507507324219, -2.0604758262634277, 7.817137718200684, -0.6635867357254028, -0.32494834065437317, -1.0533223152160645, 0.043701171875, 0.197265625, -0.815673828125
15, 3256740584, -5.323643684387207, -2.0547285079956055, 7.8203840255737305, -0.6258335113525391, -0.44402173161506653, -1.1458865404129028, 0.044677734375, 0.19677734375, -0.814208984375
16, 3256757251, -5.304121017456055, -2.0894293785095215, 7.830411911010742, -0.6646366715431213, -0.46136152744293213, -1.1550174951553345, 0.0419921875, 0.19970703125, -0.813232421875
17, 3256773918, -5.305248737335205, -2.074334144592285, 7.80848503112793, -0.7228416204452515, -0.27718067169189453, -1.1232833862304688, 0.045166015625, 0.19775390625, -0.813232421875
18, 3256790585, -5.337269306182861, -2.058574914932251, 7.82349967956543, -0.9653939008712769, -0.15120458602905273, -1.2008001804351807, 0.04443359375, 0.19970703125, -0.816162109375
19, 3256807252, -5.32661771774292, -2.0796234607696533, 7.816936492919922, -1.096428394317627, -0.06846274435520172, -1.2751922607421875, 0.04248046875, 0.20166015625, -0.814208984375
20, 3256823919, -5.326810836791992, -2.080113410949707, 7.815953731536865, -1.1352957487106323, -0.2081671953201294, -1.3017909526824951, 0.045166015625, 0.197265625, -0.815673828125
21, 3256840586, -5.304710865020752, -2.099905014038086, 7.815075397491455, -0.9824774861335754, -0.2955065071582794, -1.3210389614105225, 0.04345703125, 0.19873046875, -0.811279296875
22, 3256857253, -5.321523189544678, -2.078481674194336, 7.807900428771973, -0.9313802719116211, -0.27159708738327026, -1.170935869216919, 0.044189453125, 0.1982421875, -0.812744140625
23, 3256873920, -5.327212333679199, -2.099785327911377, 7.802051544189453, -0.9168962240219116, -0.27310821413993835, -1.2026698589324951, 0.04296875, 0.2001953125, -0.812255859375
24, 3256890587, -5.327882289886475, -2.088505506515503, 7.813086032867432, -0.8554769158363342, -0.3157917857170105, -1.1898890733718872, 0.04443359375, 0.20263671875, -0.815185546875
25, 3256907254, -5.322971820831299, -2.0965189933776855, 7.800325870513916, -0.7652177810668945, -0.18050548434257507, -1.1390351057052612, 0.0439453125, 0.20263671875, -0.814208984375
26, 3256923921, -5.31439208984375, -2.0963938236236572, 7.816106796264648, -0.4448029100894928, -0.29654383659362793, -1.0297456979751587, 0.04541015625, 0.20263671875, -0.815673828125
27, 3256940588, -5.346017837524414, -2.1091856956481934, 7.8077592849731445, -0.3251532316207886, -0.4576733112335205, -0.9385260343551636, 0.04443359375, 0.19970703125, -0.812744140625
28, 3256957255, -5.343325138092041, -2.090920925140381, 7.79842472076416, -0.2488657832145691, -0.48119857907295227, -0.9205076098442078, 0.04296875, 0.201171875, -0.815185546875
29, 3256973922, -5.315572738647461, -2.0888988971710205, 7.811901569366455, -0.17152823507785797, -0.5444107055664062, -0.8545804619789124, 0.04443359375, 0.203125, -0.813720703125
30, 3256990589, -5.325783729553223, -2.0848915576934814, 7.816930770874023, -0.1393458992242813, -0.5227423906326294, -0.9325839877128601, 0.044921875, 0.20068359375, -0.813232421875
31, 3257007256, -5.323200225830078, -2.083987236022949, 7.819936275482178, -0.17658673226833344, -0.4907264709472656, -1.0184632539749146, 0.04345703125, 0.2021484375, -0.815673828125
32, 3257023923, -5.330349445343018, -2.116140365600586, 7.815231800079346, -0.05678335949778557, -0.6785700917243958, -0.8590627908706665, 0.04345703125, 0.20166015625, -0.813232421875
33, 3257040590, -5.338157653808594, -2.0968689918518066, 7.787941932678223, 0.0885879248380661, -0.5787445306777954, -0.8294288516044617, 0.0458984375, 0.2021484375, -0.815185546875
34, 3257057257, -5.320521831512451, -2.079627513885498, 7.8344573974609375, 0.11998908221721649, -0.712814211845398, -0.8357423543930054, 0.0439453125, 0.203125, -0.813720703125
35, 3257073924, -5.333066463470459, -2.092459201812744, 7.830800533294678, -0.005570761393755674, -0.5894762277603149, -0.8444250226020813, 0.04345703125, 0.19921875, -0.811767578125
36, 3257090591, -5.3321685791015625, -2.079355001449585, 7.7937912940979, -0.08576411753892899, -0.6003616452217102, -0.8356142640113831, 0.04345703125, 0.2001953125, -0.815673828125
37, 3257107258, -5.323435306549072, -2.0837578773498535, 7.8057074546813965, -0.12519489228725433, -0.6615248322486877, -0.9466710686683655, 0.04345703125, 0.2001953125, -0.818359375
38, 3257123925, -5.3048529624938965, -2.0743305683135986, 7.8069748878479, -0.14802859723567963, -0.5839695334434509, -0.901900053024292, 0.04541015625, 0.20068359375, -0.814208984375
39, 3257140592, -5.336655616760254, -2.0680577754974365, 7.800030708312988, -0.13082966208457947, -0.5606235265731812, -0.878976583480835, 0.04443359375, 0.20068359375, -0.815673828125
40, 3257157259, -5.324753284454346, -2.081981658935547, 7.78302526473999, -0.18127387762069702, -0.63080233335495, -0.8329120874404907, 0.044677734375, 0.19921875, -0.813720703125
41, 3257173926, -5.330047130584717, -2.0854148864746094, 7.829378604888916, -0.12429842352867126, -0.6119513511657715, -0.9225180149078369, 0.044921875, 0.19970703125, -0.814208984375
42, 3257190593, -5.313268661499023, -2.082366704940796, 7.8092498779296875, -0.17643310129642487, -0.6472457647323608, -1.0653345584869385, 0.0439453125, 0.2021484375, -0.813232421875
43, 3257207260, -5.307643413543701, -2.0898311138153076, 7.830557823181152, -0.3145623803138733, -0.6102482080459595, -1.1060588359832764, 0.048095703125, 0.20068359375, -0.816162109375
44, 3257223927, -5.334179401397705, -2.0869460105895996, 7.801644325256348, -0.16192348301410675, -0.5753380656242371, -0.9491425156593323, 0.04296875, 0.203125, -0.815673828125
45, 3257240594, -5.325912952423096, -2.09751033782959, 7.811668395996094, -0.2033776491880417, -0.6276904344558716, -0.9818628430366516, 0.0439453125, 0.20068359375, -0.813720703125
46, 3257257261, -5.324658393859863, -2.0812294483184814, 7.805088043212891, -0.07872062921524048, -0.694232165813446, -0.8798986673355103, 0.0439453125, 0.19970703125, -0.815185546875
47, 3257273928, -5.312356472015381, -2.0684573650360107, 7.824977874755859, -0.22580227255821228, -0.6636903285980225, -0.9906817078590393, 0.0419921875, 0.20068359375, -0.812744140625
48, 3257290595, -5.334874153137207, -2.0862009525299072, 7.8095269203186035, -0.44567379355430603, -0.40409156680107117, -0.9880611300468445, 0.04248046875, 0.201171875, -0.814208984375
49, 3257307262, -5.326924800872803, -2.094575881958008, 7.807596683502197, -0.36417415738105774, -0.4911491572856903, -1.041809320449829, 0.04150390625, 0.2001953125, -0.814697265625
50, 3257323929, -5.319721698760986, -2.0797362327575684, 7.8258771896362305, -0.4048599302768707, -0.5673341155052185, -1.040259838104248, 0.0439453125, 0.201171875, -0.815185546875
51, 3257340596, -5.303491592407227, -2.0870161056518555, 7.817166805267334, -0.27309542894363403, -0.44722336530685425, -1.0683313608169556, 0.04541015625, 0.2001953125, -0.814697265625
52, 3257357263, -5.325349807739258, -2.0790178775787354, 7.824557304382324, -0.38949230313301086, -0.3527252674102783, -0.994195282459259, 0.0439453125, 0.2001953125, -0.811279296875
53, 3257373930, -5.310160160064697, -2.0879340171813965, 7.802150726318359, -0.3979828953742981, -0.4183065593242645, -1.0074498653411865, 0.0439453125, 0.2001953125, -0.814208984375
54, 3257390597, -5.3185014724731445, -2.0947606563568115, 7.808037757873535, -0.41670581698417664, -0.320555716753006, -1.0386334657669067, 0.04443359375, 0.20068359375, -0.813720703125
55, 3257407264, -5.313117980957031, -2.1005783081054688, 7.7984232902526855, -0.3526356518268585, -0.35103482007980347, -0.8927562236785889, 0.04345703125, 0.201171875, -0.814208984375
56, 3257423931, -5.31730318069458, -2.0848593711853027, 7.824568748474121, -0.3961644470691681, -0.44325339794158936, -0.9324943423271179, 0.04443359375, 0.203125, -0.813720703125
57, 3257440598, -5.323558330535889, -2.094916343688965, 7.810540199279785, -0.40602535009384155, -0.4056795835494995, -0.9825416207313538, 0.04296875, 0.197265625, -0.813720703125
58, 3257457265, -5.340477466583252, -2.06563401222229, 7.824865341186523, -0.5361250042915344, -0.362522155046463, -1.0615181922912598, 0.0439453125, 0.19921875, -0.813720703125
59, 3257473932, -5.333667278289795, -2.104336977005005, 7.812824249267578, -0.5015990734100342, -0.45776301622390747, -1.1827305555343628, 0.04443359375, 0.2001953125, -0.813720703125
60, 3257490599, -5.308318138122559, -2.1139538288116455, 7.818845272064209, -0.40958547592163086, -0.4610286056995392, -0.993695855140686, 0.04443359375, 0.20166015625, -0.816162109375
61, 3257507266, -5.318539619445801, -2.1020328998565674, 7.803480625152588, -0.35172635316848755, -0.4095342457294464, -0.9338773488998413, 0.04345703125, 0.20068359375, -0.815185546875
62, 3257523933, -5.324705600738525, -2.0895354747772217, 7.803933620452881, -0.32327067852020264, -0.5138675570487976, -0.9747297167778015, 0.04296875, 0.201171875, -0.816650390625
63, 3257540600, -5.332812786102295, -2.0730888843536377, 7.8171186447143555, -0.3908754289150238, -0.5350365042686462, -0.9983190298080444, 0.044921875, 0.2021484375, -0.816162109375
64, 3257557267, -5.3197760581970215, -2.0991482734680176, 7.814897537231445, -0.44559696316719055, -0.4181913435459137, -1.059930443763733, 0.0419921875, 0.201171875, -0.812744140625
65, 3257573934, -5.321352005004883, -2.088930368423462, 7.808716297149658, -0.4444059133529663, -0.4427155554294586, -1.0362001657485962, 0.04443359375, 0.201171875, -0.811279296875
66, 3257590601, -5.325259208679199, -2.0966997146606445, 7.80709981918335, -0.46686825156211853, -0.31673943996429443, -0.9952966570854187, 0.04541015625, 0.20068359375, -0.814208984375
67, 3257607268, -5.332643032073975, -2.0850236415863037, 7.823667049407959, -0.5524274706840515, -0.2952888011932373, -0.9547773003578186, 0.0439453125, 0.204345703125, -0.815673828125
68, 3257623935, -5.312211990356445, -2.087289333343506, 7.785715103149414, -0.5530038475990295, -0.3299044072628021, -1.0015591382980347, 0.0419921875, 0.20263671875, -0.815673828125
69, 3257640602, -5.331767559051514, -2.1029107570648193, 7.787205219268799, -0.4136194884777069, -0.39529359340667725, -1.0062589645385742, 0.0439453125, 0.2021484375, -0.812255859375
70, 3257657269, -5.326599597930908, -2.1081643104553223, 7.825103759765625, -0.33277297019958496, -0.3988409638404846, -1.0076547861099243, 0.044921875, 0.20166015625, -0.811279296875
71, 3257673936, -5.344072341918945, -2.111994504928589, 7.822418689727783, -0.37905511260032654, -0.4577501714229584, -0.9052424430847168, 0.04296875, 0.20068359375, -0.815673828125
72, 3257690603, -5.33394193649292, -2.1053688526153564, 7.8192667961120605, -0.3374345004558563, -0.5216410756111145, -0.9505129456520081, 0.04345703125, 0.20166015625, -0.815185546875
73, 3257707270, -5.3181915283203125, -2.098806619644165, 7.797717094421387, -0.3040611743927002, -0.49148210883140564, -1.0133663415908813, 0.04296875, 0.20263671875, -0.814208984375
74, 3257723937, -5.327371120452881, -2.11125111579895, 7.813259601593018, -0.1779954582452774, -0.4758583903312683, -1.0065664052963257, 0.04345703125, 0.201171875, -0.811279296875
75, 3257740604, -5.324947834014893, -2.1055281162261963, 7.78471040725708, -0.2488657832145691, -0.47354039549827576, -1.0130078792572021, 0.0439453125, 0.20068359375, -0.814208984375
76, 3257757271, -5.331035137176514, -2.1139068603515625, 7.79988431930542, -0.23835177719593048, -0.5583440065383911, -1.0431283712387085, 0.04345703125, 0.20166015625, -0.816162109375
77, 3257773938, -5.316934108734131, -2.1088485717773438, 7.807908058166504, -0.26126235723495483, -0.5336533784866333, -1.0130846500396729, 0.04296875, 0.203125, -0.814208984375
78, 3257790605, -5.341768264770508, -2.103440761566162, 7.799314022064209, -0.30951663851737976, -0.4744240343570709, -0.9379754662513733, 0.04345703125, 0.20263671875, -0.812744140625
79, 3257807272, -5.339044094085693, -2.0902881622314453, 7.811194896697998, -0.17403827607631683, -0.45771172642707825, -0.9689410924911499, 0.0458984375, 0.201171875, -0.814697265625
80, 3257823939, -5.323494911193848, -2.112576961517334, 7.804470539093018, -0.22015434503555298, -0.6114373803138733, -0.9365076422691345, 0.044921875, 0.203369140625, -0.814208984375
81, 3257840606, -5.325344085693359, -2.098763942718506, 7.783445358276367, -0.46262937784194946, -0.5416316986083984, -0.98240065574646, 0.0439453125, 0.2001953125, -0.815185546875
82, 3257857273, -5.324476718902588, -2.0953972339630127, 7.806530952453613, -0.3134353756904602, -0.4693014621734619, -0.9333010911941528, 0.04541015625, 0.2021484375, -0.811279296875
83, 3257873940, -5.331489562988281, -2.1018102169036865, 7.8051276206970215, -0.38655969500541687, -0.3770829439163208, -0.9734362363815308, 0.045654296875, 0.19873046875, -0.812744140625
84, 3257890607, -5.325577259063721, -2.095871686935425, 7.813070774078369, -0.29695361852645874, -0.5600216388702393, -1.0521055459976196, 0.0439453125, 0.203369140625, -0.815673828125
85, 3257907274, -5.312084197998047, -2.1036484241485596, 7.817938804626465, -0.3100929260253906, -0.45198729634284973, -1.0118297338485718, 0.044921875, 0.203125, -0.815673828125
86, 3257923941, -5.323314666748047, -2.10933780670166, 7.81477165222168, -0.16480492055416107, -0.5157244801521301, -0.9269876480102539, 0.04248046875, 0.2021484375, -0.8173828125
87, 3257940608, -5.335042476654053, -2.100489377975464, 7.8001227378845215, -0.2507099211215973, -0.49190473556518555, -0.9544828534126282, 0.0439453125, 0.20166015625, -0.814697265625
88, 3257957275, -5.326826572418213, -2.093066692352295, 7.800983428955078, -0.23421533405780792, -0.5259951949119568, -0.9188427329063416, 0.04296875, 0.20361328125, -0.812744140625
89, 3257973942, -5.31501579284668, -2.1041226387023926, 7.812088966369629, -0.2837502956390381, -0.5010612607002258, -0.9922487139701843, 0.04345703125, 0.20361328125, -0.813720703125
90, 3257990609, -5.329702377319336, -2.0953426361083984, 7.8065009117126465, -0.24977505207061768, -0.45659756660461426, -0.9831690192222595, 0.04345703125, 0.2021484375, -0.814697265625
91, 3258007276, -5.32828426361084, -2.109671115875244, 7.790975570678711, -0.20222505927085876, -0.48290181159973145, -0.9524081945419312, 0.0439453125, 0.20263671875, -0.816650390625
92, 3258023943, -5.337317943572998, -2.0993916988372803, 7.809323787689209, -0.1838095337152481, -0.48288899660110474, -0.9371686577796936, 0.04541015625, 0.205322265625, -0.816650390625
93, 3258040610, -5.334366321563721, -2.0974724292755127, 7.791761875152588, -0.2169523537158966, -0.5290046334266663, -0.9517293572425842, 0.04248046875, 0.201171875, -0.815673828125
94, 3258057277, -5.330662727355957, -2.1044750213623047, 7.820242881774902, -0.16792967915534973, -0.5257518291473389, -0.9198928475379944, 0.04541015625, 0.20263671875, -0.813232421875
95, 3258073944, -5.330443382263184, -2.095423936843872, 7.804103851318359, -0.30226829648017883, -0.46344903111457825, -0.9576461315155029, 0.04345703125, 0.2001953125, -0.813720703125
96, 3258090611, -5.3382062911987305, -2.097569704055786, 7.832979202270508, -0.322015643119812, -0.5083991885185242, -1.0111253261566162, 0.04541015625, 0.20263671875, -0.814208984375
97, 3258107278, -5.320594310760498, -2.098097085952759, 7.779541015625, -0.290973037481308, -0.4160654842853546, -0.9690564870834351, 0.044921875, 0.2021484375, -0.815673828125
98, 3258123945, -5.320357799530029, -2.114241600036621, 7.796383857727051, -0.2908065617084503, -0.4441113770008087, -0.9992281794548035, 0.04296875, 0.2021484375, -0.815185546875
99, 3258140612, -5.324014186859131, -2.101694345474243, 7.807663917541504, -0.34685999155044556, -0.564337432384491, -0.9121066927909851, 0.0439453125, 0.20068359375, -0.815673828125
100, 3258157279, -5.331939220428467, -2.0977330207824707, 7.803354263305664, -0.34239059686660767, -0.4731050133705139, -1.0418221950531006, 0.0439453125, 0.20166015625, -0.816162109375
101, 3258173946, -5.320555210113525, -2.100538730621338, 7.805423736572266, -0.40897080302238464, -0.47243908047676086, -1.0534248352050781, 0.0439453125, 0.19970703125, -0.812744140625
102, 3258190613, -5.340108871459961, -2.1145200729370117, 7.808357238769531, -0.42009949684143066, -0.4920327961444855, -1.028401255607605, 0.04443359375, 0.20263671875, -0.813720703125
103, 3258207280, -5.316705703735352, -2.1113510131835938, 7.825008392333984, -0.27543899416923523, -0.4752436578273773, -1.055627465248108, 0.045654296875, 0.2001953125, -0.815185546875
104, 3258223947, -5.3247175216674805, -2.119346857070923, 7.821866035461426, -0.3150489926338196, -0.39242494106292725, -0.8761335611343384, 0.0439453125, 0.20263671875, -0.816162109375
105, 3258240614, -5.341096878051758, -2.076643943786621, 7.799712657928467, -0.7578412890434265, -0.3478972911834717, -1.3299009799957275, 0.04443359375, 0.201171875, -0.816162109375
106, 3258257281, -5.324828624725342, -2.120058536529541, 7.812362194061279, -0.6843329071998596, -0.37672439217567444, -1.281198501586914, 0.04443359375, 0.201171875, -0.815673828125
107, 3258273948, -5.330755233764648, -2.115189552307129, 7.8040995597839355, -0.5214745998382568, -0.34295403957366943, -1.1311336755752563, 0.044921875, 0.201171875, -0.812255859375
108, 3258290615, -5.333805561065674, -2.1316373348236084, 7.795486927032471, -0.3964845836162567, -0.45294779539108276, -1.0360721349716187, 0.04443359375, 0.203125, -0.814697265625
109, 3258307282, -5.337387561798096, -2.114809274673462, 7.792227268218994, -0.21852754056453705, -0.5288509130477905, -0.838982343673706, 0.0439453125, 0.2021484375, -0.815673828125
110, 3258323949, -5.314752578735352, -2.097423791885376, 7.815669059753418, -0.1766507923603058, -0.5773999094963074, -0.9339669942855835, 0.044921875, 0.203369140625, -0.814208984375
111, 3258340616, -5.3418402671813965, -2.103534460067749, 7.796980857849121, -0.15042337775230408, -0.605023205280304, -0.982336699962616, 0.04443359375, 0.201171875, -0.815673828125
112, 3258357283, -5.319619178771973, -2.1192901134490967, 7.802114009857178, -0.24910911917686462, -0.4991530478000641, -1.0537192821502686, 0.0439453125, 0.2021484375, -0.812255859375
113, 3258373950, -5.325988292694092, -2.1278586387634277, 7.808572769165039, -0.2509916424751282, -0.5412347912788391, -0.9269620180130005, 0.04345703125, 0.20068359375, -0.815185546875
114, 3258390617, -5.323853492736816, -2.113922595977783, 7.791970729827881, -0.1552094668149948, -0.5372457504272461, -0.8385332226753235, 0.04296875, 0.20166015625, -0.813232421875
115, 3258407284, -5.333155155181885, -2.1162326335906982, 7.798130512237549, -0.12979236245155334, -0.5466262698173523, -0.8581791520118713, 0.04345703125, 0.2021484375, -0.816650390625
116, 3258423951, -5.337996006011963, -2.1042675971984863, 7.801987648010254, -0.14099791646003723, -0.5524274706840515, -0.907355546951294, 0.04541015625, 0.201171875, -0.814208984375
117, 3258440618, -5.331971168518066, -2.0976903438568115, 7.806581974029541, -0.1775856465101242, -0.5324752330780029, -0.9284602999687195, 0.04345703125, 0.2021484375, -0.813232421875
118, 3258457285, -5.331118106842041, -2.0988030433654785, 7.808385848999023, -0.3178151845932007, -0.4574427902698517, -1.018232822418213, 0.04443359375, 0.20166015625, -0.813232421875
119, 3258473952, -5.3287129402160645, -2.103184700012207, 7.799032211303711, -0.2350093424320221, -0.5011380910873413, -0.8982758522033691, 0.044921875, 0.2021484375, -0.813720703125
120, 3258490619, -5.3217997550964355, -2.1086533069610596, 7.8029398918151855, -0.21798968315124512, -0.5375977158546448, -0.9344280362129211, 0.044921875, 0.20263671875, -0.815185546875
121, 3258507286, -5.33235502243042, -2.096787691116333, 7.809451103210449, -0.2816116213798523, -0.4209190905094147, -0.9383595585823059, 0.04541015625, 0.2021484375, -0.811279296875
122, 3258523953, -5.324347972869873, -2.107666254043579, 7.77057409286499, -0.31950560212135315, -0.49889692664146423, -0.8833819627761841, 0.04345703125, 0.20361328125, -0.815673828125
123, 3258540620, -5.324934482574463, -2.1201953887939453, 7.812849998474121, -0.3538266122341156, -0.4599912464618683, -0.9159101247787476, 0.044921875, 0.203369140625, -0.813720703125
124, 3258557287, -5.326382160186768, -2.112816572189331, 7.824038505554199, -0.27413272857666016, -0.4042452275753021, -0.9400884509086609, 0.04443359375, 0.20166015625, -0.814208984375
125, 3258573954, -5.3387131690979, -2.102229356765747, 7.80124044418335, -0.3709103465080261, -0.45160314440727234, -0.9831435084342957, 0.0439453125, 0.203125, -0.815673828125
126, 3258590621, -5.327401638031006, -2.1090447902679443, 7.805219650268555, -0.42327550053596497, -0.4176791310310364, -1.066026210784912, 0.0458984375, 0.201171875, -0.814208984375
127, 3258607288, -5.330018043518066, -2.1057605743408203, 7.802627086639404, -0.4753076434135437, -0.35460782051086426, -0.9742942452430725, 0.044921875, 0.20263671875, -0.814208984375
128, 3258623955, -5.314271450042725, -2.1168172359466553, 7.814595699310303, -0.4405256509780884, -0.22691570222377777, -0.9339541792869568, 0.0439453125, 0.20361328125, -0.814208984375
129, 3258640622, -5.337468147277832, -2.113246202468872, 7.8132100105285645, -0.272314190864563, -0.33346450328826904, -0.9069200158119202, 0.04443359375, 0.203369140625, -0.813232421875
130, 3258657289, -5.323543071746826, -2.1008119583129883, 7.802967548370361, -0.40145343542099, -0.1865500956773758, -0.9081878662109375, 0.0458984375, 0.203125, -0.812255859375
131, 3258673956, -5.338482856750488, -2.1019997596740723, 7.809275150299072, -0.6194815635681152, -0.22397024929523468, -1.0680367946624756, 0.04248046875, 0.20166015625, -0.813720703125
132, 3258690623, -5.330793380737305, -2.1267032623291016, 7.824724197387695, -0.6235284209251404, -0.10752212256193161, -0.9330194592475891, 0.04345703125, 0.204833984375, -0.815185546875
133, 3258707290, -5.342407703399658, -2.1146512031555176, 7.806952476501465, -0.7683809995651245, -0.3246921896934509, -0.9857047200202942, 0.0439453125, 0.203125, -0.814697265625
134, 3258723957, -5.344094276428223, -2.113389015197754, 7.774345397949219, -0.4368757903575897, -0.3449518382549286, -0.9015925526618958, 0.0439453125, 0.2021484375, -0.815185546875
135, 3258740624, -5.333690643310547, -2.111238718032837, 7.8135857582092285, -0.3154844343662262, -0.41090452671051025, -0.8339238166809082, 0.044921875, 0.203369140625, -0.811767578125
136, 3258757291, -5.33745813369751, -2.103095293045044, 7.832332611083984, -0.30012959241867065, -0.3349885046482086, -0.9633448123931885, 0.044921875, 0.20166015625, -0.812255859375
137, 3258773958, -5.335672378540039, -2.1278131008148193, 7.81381368637085, -0.23973487317562103, -0.41708996891975403, -0.9260014295578003, 0.044921875, 0.203125, -0.813232421875
138, 3258790625, -5.319842338562012, -2.134401798248291, 7.799206733703613, -0.1802365481853485, -0.4990762174129486, -0.8474729657173157, 0.04541015625, 0.203369140625, -0.814208984375
139, 3258807292, -5.320355415344238, -2.1233856678009033, 7.7859039306640625, -0.19168543815612793, -0.4879474937915802, -0.8221675753593445, 0.04345703125, 0.20166015625, -0.814697265625
140, 3258823959, -5.3342204093933105, -2.1225693225860596, 7.806157112121582, -0.17221978306770325, -0.4503992795944214, -0.8879666328430176, 0.044921875, 0.203125, -0.814697265625
141, 3258840626, -5.325464248657227, -2.1066839694976807, 7.799036026000977, -0.19214646518230438, -0.48049426078796387, -0.8616369366645813, 0.0458984375, 0.203369140625, -0.815185546875
142, 3258857293, -5.338008403778076, -2.1179211139678955, 7.7852678298950195, -0.15721075236797333, -0.4043988883495331, -0.7693798542022705, 0.044921875, 0.2021484375, -0.812255859375
143, 3258873960, -5.332010746002197, -2.1255664825439453, 7.794315814971924, -0.20844894647598267, -0.3370887041091919, -0.7812385559082031, 0.04541015625, 0.203369140625, -0.813720703125
144, 3258890627, -5.356060981750488, -2.0970499515533447, 7.812860488891602, -0.18599943816661835, -0.44019266963005066, -0.7071794271469116, 0.044921875, 0.203369140625, -0.813232421875
145, 3258907294, -5.33651876449585, -2.1043317317962646, 7.785254955291748, -0.1387311816215515, -0.4670219421386719, -0.7894474267959595, 0.04443359375, 0.204345703125, -0.812744140625
146, 3258923961, -5.33883810043335, -2.115279197692871, 7.79181432723999, -0.09101472795009613, -0.4026188254356384, -0.8808847069740295, 0.04638671875, 0.202880859375, -0.815185546875
147, 3258940628, -5.334702968597412, -2.1082944869995117, 7.806615352630615, -0.09113544225692749, -0.5180221796035767, -0.8822310566902161, 0.044921875, 0.2021484375, -0.814697265625
148, 3258957295, -5.324840068817139, -2.1197478771209717, 7.777158260345459, -0.17912240326404572, -0.4693911075592041, -0.8939984440803528, 0.044921875, 0.20166015625, -0.812255859375
149, 3258973962, -5.326417922973633, -2.1121509075164795, 7.790879726409912, -0.20559312403202057, -0.45566272735595703, -0.8504184484481812, 0.046142578125, 0.2001953125, -0.814208984375
150, 3258990629, -5.339682102203369, -2.112760066986084, 7.820965766906738, -0.1443403661251068, -0.3727928102016449, -0.8410313725471497, 0.04736328125, 0.203369140625, -0.813232421875
151, 3259007296, -5.332400321960449, -2.1196892261505127, 7.777495861053467, -0.16818580031394958, -0.3860602378845215, -0.8780032992362976, 0.04345703125, 0.2021484375, -0.814208984375
152, 3259023963, -5.336574077606201, -2.103847026824951, 7.811877727508545, -0.1328146606683731, -0.3010901212692261, -0.7103937864303589, 0.04541015625, 0.20263671875, -0.814208984375
153, 3259040630, -5.338566780090332, -2.097682476043701, 7.792266368865967, -0.23454827070236206, -0.4005697965621948, -0.8815762400627136, 0.04443359375, 0.2021484375, -0.814208984375
154, 3259057297, -5.335777282714844, -2.1060166358947754, 7.793652057647705, -0.3239750266075134, -0.3160991072654724, -0.8729191422462463, 0.044921875, 0.20166015625, -0.813720703125
155, 3259073964, -5.339107513427734, -2.111035108566284, 7.790122985839844, -0.2909858226776123, -0.26258140802383423, -0.8181080222129822, 0.047607421875, 0.202880859375, -0.815673828125
156, 3259090631, -5.339609622955322, -2.102569103240967, 7.802174091339111, -0.3321070671081543, -0.28330206871032715, -0.8457697629928589, 0.04541015625, 0.203125, -0.814697265625
157, 3259107298, -5.336648464202881, -2.1060707569122314, 7.791420936584473, -0.41018742322921753, -0.2645151615142822, -0.888018012046814, 0.0458984375, 0.204345703125, -0.814208984375
158, 3259123965, -5.336404323577881, -2.120054244995117, 7.806941032409668, -0.2819189727306366, -0.12674443423748016, -0.8512892723083496, 0.044921875, 0.2021484375, -0.815185546875
159, 3259140632, -5.342544078826904, -2.1032445430755615, 7.786046028137207, -0.32505080103874207, -0.21719568967819214, -0.8601768612861633, 0.04443359375, 0.20263671875, -0.813720703125
160, 3259157299, -5.338342666625977, -2.120433807373047, 7.7899298667907715, -0.2856200039386749, -0.02831484004855156, -0.7975026369094849, 0.044921875, 0.20263671875, -0.812255859375
161, 3259173966, -5.349212646484375, -2.1083388328552246, 7.805798530578613, -0.20131580531597137, -0.08765946328639984, -0.718666672706604, 0.048095703125, 0.201171875, -0.812744140625
162, 3259190633, -5.353160381317139, -2.0820679664611816, 7.81956672668457, -0.3211832642555237, -0.15965676307678223, -0.7563815116882324, 0.04541015625, 0.203125, -0.812744140625
163, 3259207300, -5.365130424499512, -2.124737024307251, 7.756369590759277, -0.4414220452308655, -0.3873536288738251, -0.8479980230331421, 0.04736328125, 0.204833984375, -0.816650390625
164, 3259223967, -5.364652156829834, -2.116908311843872, 7.7942633628845215, -0.15256203711032867, -0.4466598629951477, -0.8881203532218933, 0.0478515625, 0.203369140625, -0.814208984375
165, 3259240634, -5.339745998382568, -2.098844528198242, 7.796986103057861, -0.1848212331533432, -0.37130728363990784, -0.8470503687858582, 0.04638671875, 0.203369140625, -0.815673828125
166, 3259257301, -5.332659721374512, -2.1128196716308594, 7.787313461303711, -0.27739834785461426, -0.3945508301258087, -0.8745840191841125, 0.047607421875, 0.20263671875, -0.811767578125
167, 3259273968, -5.361875057220459, -2.1175789833068848, 7.772447109222412, -0.29494303464889526, -0.3111686706542969, -0.8400965332984924, 0.0439453125, 0.201171875, -0.813720703125
168, 3259290635, -5.350972652435303, -2.1117746829986572, 7.779118061065674, -0.25738200545310974, -0.41781994700431824, -0.833334743976593, 0.04541015625, 0.203125, -0.813232421875
169, 3259307302, -5.353194236755371, -2.120898962020874, 7.781247615814209, -0.1859353929758072, -0.3758535385131836, -0.8615983724594116, 0.046875, 0.204833984375, -0.816162109375
170, 3259323969, -5.340867519378662, -2.118938446044922, 7.79094123840332, -0.2617489695549011, -0.428487628698349, -0.8637882471084595, 0.0458984375, 0.202880859375, -0.813720703125
171, 3259340636, -5.3557963371276855, -2.113806962966919, 7.799533843994141, -0.1824904978275299, -0.44883692264556885, -0.871446430683136, 0.0458984375, 0.20166015625, -0.814697265625
172, 3259357303, -5.3456621170043945, -2.1115810871124268, 7.771302700042725, -0.19463089108467102, -0.4757174551486969, -0.8432725071907043, 0.045654296875, 0.2001953125, -0.812744140625
173, 3259373970, -5.343231201171875, -2.1121225357055664, 7.791186332702637, -0.23640522360801697, -0.40754932165145874, -0.9063566327095032, 0.048583984375, 0.203857421875, -0.814697265625
174, 3259390637, -5.358138561248779, -2.0955679416656494, 7.808699131011963, -0.22701817750930786, -0.4980902075767517, -0.9058699607849121, 0.04638671875, 0.2021484375, -0.813720703125
175, 3259407304, -5.360036849975586, -2.099942684173584, 7.8036699295043945, -0.26643607020378113, -0.5272886157035828, -0.896226704120636, 0.04541015625, 0.204833984375, -0.814208984375
176, 3259423971, -5.360774040222168, -2.1105589866638184, 7.807523250579834, -0.31430622935295105, -0.4555346667766571, -0.9655346274375916, 0.0458984375, 0.203857421875, -0.812744140625
177, 3259440638, -5.34352970123291, -2.111133575439453, 7.794330596923828, -0.2752852737903595, -0.4453023672103882, -0.9313930869102478, 0.048095703125, 0.202392578125, -0.814208984375
178, 3259457305, -5.354846000671387, -2.085597276687622, 7.79517126083374, -0.2791528105735779, -0.3932061791419983, -0.9788405895233154, 0.047119140625, 0.2021484375, -0.810791015625
179, 3259473972, -5.350368499755859, -2.127105951309204, 7.7997846603393555, -0.2306039184331894, -0.46324408054351807, -0.8956632018089294, 0.04541015625, 0.203369140625, -0.80908203125
180, 3259490639, -5.336976528167725, -2.1162710189819336, 7.802809715270996, -0.20647676289081573, -0.4004545211791992, -0.8821525573730469, 0.04638671875, 0.20263671875, -0.813232421875
181, 3259507306, -5.350549697875977, -2.0988950729370117, 7.782729625701904, -0.2768130302429199, -0.37994876503944397, -0.8981503844261169, 0.0458984375, 0.20263671875, -0.812744140625
182, 3259523973, -5.364091873168945, -2.111171007156372, 7.767312526702881, -0.304330050945282, -0.3334517180919647, -0.9802748560905457, 0.04638671875, 0.2021484375, -0.810302734375
183, 3259540640, -5.352108478546143, -2.094325304031372, 7.796824932098389, -0.28759217262268066, -0.31234681606292725, -0.9090074896812439, 0.046142578125, 0.201171875, -0.813720703125
184, 3259557307, -5.359513282775879, -2.1089560985565186, 7.7910027503967285, -0.2821494936943054, -0.33655089139938354, -0.9545469284057617, 0.047119140625, 0.20166015625, -0.81005859375
185, 3259573974, -5.345021724700928, -2.1119542121887207, 7.789439678192139, -0.3151898682117462, -0.41140392422676086, -0.9698120355606079, 0.0458984375, 0.20263671875, -0.812255859375
186, 3259590641, -5.364057540893555, -2.128582715988159, 7.790164947509766, -0.3589363396167755, -0.2929580509662628, -0.8499702215194702, 0.04541015625, 0.201171875, -0.811279296875
187, 3259607308, -5.344569683074951, -2.098236322402954, 7.8012590408325195, -0.3944355547428131, -0.2518240511417389, -0.8647742867469788, 0.049072265625, 0.2021484375, -0.812744140625
188, 3259623975, -5.3688249588012695, -2.0918760299682617, 7.7912373542785645, -0.3989049792289734, -0.2891673743724823, -0.9599127769470215, 0.048583984375, 0.202880859375, -0.812744140625
189, 3259640642, -5.3576178550720215, -2.107480764389038, 7.822932243347168, -0.3360002338886261, -0.49677109718322754, -0.9937598705291748, 0.049560546875, 0.203857421875, -0.814208984375
190, 3259657309, -5.354198455810547, -2.115694761276245, 7.766634464263916, -0.30472713708877563, -0.44723618030548096, -0.8683986663818359, 0.048095703125, 0.20166015625, -0.814697265625
191, 3259673976, -5.340117454528809, -2.109657049179077, 7.800890922546387, -0.2076805830001831, -0.4369654953479767, -0.8903359174728394, 0.047607421875, 0.202880859375, -0.812255859375
192, 3259690643, -5.347412586212158, -2.0963821411132812, 7.7869062423706055, -0.24069534242153168, -0.4447901248931885, -0.8081190586090088, 0.047119140625, 0.2021484375, -0.812744140625
193, 3259707310, -5.3633904457092285, -2.091845989227295, 7.782198429107666, -0.18582014739513397, -0.4083176851272583, -0.8801292777061462, 0.04638671875, 0.2021484375, -0.814697265625
194, 3259723977, -5.3496809005737305, -2.1092541217803955, 7.79264497756958, -0.15931099653244019, -0.3829866647720337, -0.7203315496444702, 0.044921875, 0.203369140625, -0.814697265625
195, 3259740644, -5.357282638549805, -2.111525297164917, 7.784470081329346, -0.3523795008659363, -0.42057329416275024, -0.8456288576126099, 0.0458984375, 0.2021484375, -0.813232421875
196, 3259757311, -5.368235111236572, -2.105738878250122, 7.774542808532715, -0.3402518630027771, -0.3750467002391815, -0.8570649027824402, 0.047607421875, 0.2021484375, -0.81103515625
197, 3259773978, -5.34832239151001, -2.106283187866211, 7.776157379150391, -0.3510732352733612, -0.29819583892822266, -0.9150136709213257, 0.04736328125, 0.204833984375, -0.812744140625
198, 3259790645, -5.3485798835754395, -2.118176221847534, 7.76147985458374, -0.21932153403759003, -0.29055047035217285, -0.8092588186264038, 0.047607421875, 0.2021484375, -0.813232421875
199, 3259807312, -5.34584379196167, -2.117542028427124, 7.7922139167785645, -0.2804718613624573, -0.22389338910579681, -0.7651793956756592, 0.0478515625, 0.203369140625, -0.815185546875
200, 3259823979, -5.316418170928955, -2.1086926460266113, 7.741011619567871, -0.3630984425544739, -0.07991161942481995, -0.726043164730072, 0.04638671875, 0.202880859375, -0.812744140625
201, 3259840646, -5.175562858581543, -2.2976808547973633, 7.817023277282715, 0.04283083602786064, 0.5872671604156494, 0.5145654678344727, 0.048583984375, 0.202392578125, -0.813720703125
202, 3259857313, -5.368374347686768, -1.9498848915100098, 7.850445747375488, -0.28779715299606323, 1.549728512763977, 0.6996045112609863, 0.049560546875, 0.202880859375, -0.812744140625
203, 3259873980, -5.332735538482666, -2.1339969635009766, 7.781694412231445, -0.7436519265174866, 1.9072816371917725, 0.09280120581388474, 0.048095703125, 0.2021484375, -0.810546875
204, 3259890647, -5.388906002044678, -2.1492159366607666, 7.7594804763793945, -0.36061394214630127, 1.8432881832122803, 0.41032177209854126, 0.047607421875, 0.202880859375, -0.812744140625
205, 3259907314, -5.441657066345215, -2.149299383163452, 7.726452350616455, -0.04634618014097214, 1.3508073091506958, 0.6417582035064697, 0.051513671875, 0.202392578125, -0.8125
206, 3259923981, -5.472000598907471, -2.0703601837158203, 7.738814353942871, -0.06336581707000732, 0.7950885891914368, 0.4927178919315338, 0.050048828125, 0.202880859375, -0.8125
207, 3259940648, -5.501294136047363, -2.0388600826263428, 7.757741451263428, -0.1128111258149147, 0.1007155328989029, -0.007350844331085682, 0.050537109375, 0.204345703125, -0.8115234375
208, 3259957315, -5.457281589508057, -2.0446321964263916, 7.734975337982178, -0.12478506565093994, -0.34340226650238037, -0.5993500351905823, 0.051025390625, 0.201904296875, -0.81298828125
209, 3259973982, -5.437276840209961, -2.059464454650879, 7.7621636390686035, -0.3266131579875946, -0.5034688711166382, -1.0356111526489258, 0.050537109375, 0.201171875, -0.8115234375
210, 3259990649, -5.40525484085083, -2.0916078090667725, 7.77193021774292, -0.4494004547595978, -0.5521969795227051, -1.235095739364624, 0.051025390625, 0.203857421875, -0.8125
211, 3260007316, -5.417911052703857, -2.1005940437316895, 7.76250696182251, -0.49464529752731323, -0.5699466466903687, -1.2714656591415405, 0.050048828125, 0.204345703125, -0.815185546875
212, 3260023983, -5.392902851104736, -2.1018521785736084, 7.755090713500977, -0.46148964762687683, -0.8083112239837646, -1.2696598768234253, 0.050537109375, 0.202392578125, -0.814208984375
213, 3260040650, -5.397155284881592, -2.089635133743286, 7.775140762329102, -0.4322527348995209, -0.8106932640075684, -1.1780433654785156, 0.051025390625, 0.203857421875, -0.8125
214, 3260057317, -5.413819313049316, -2.094489812850952, 7.756381988525391, -0.32544776797294617, -1.0789862871170044, -1.3044421672821045, 0.049072265625, 0.20166015625, -0.812255859375
215, 3260073984, -5.403622150421143, -2.09242844581604, 7.760834217071533, -0.24631927907466888, -1.2382689714431763, -1.345720648765564, 0.049072265625, 0.202392578125, -0.81005859375
216, 3260090651, -5.390084743499756, -2.0909264087677, 7.783377647399902, -0.3074932396411896, -1.2460832595825195, -1.439792275428772, 0.051025390625, 0.201171875, -0.81103515625
217, 3260107318, -5.3796491622924805, -2.103860378265381, 7.792810440063477, -0.24422985315322876, -1.244072675704956, -1.3979408740997314, 0.049072265625, 0.204833984375, -0.814208984375
218, 3260123985, -5.383115768432617, -2.0940606594085693, 7.7669501304626465, -0.2145959734916687, -1.3774123191833496, -1.284220576286316, 0.050048828125, 0.201904296875, -0.813232421875
219, 3260140652, -5.384024620056152, -2.0931715965270996, 7.777791976928711, -0.1259760558605194, -1.3229727745056152, -1.3279927968978882, 0.050537109375, 0.20166015625, -0.8134765625
220, 3260157319, -5.363434314727783, -2.1035845279693604, 7.77249002456665, -0.2146984487771988, -1.2320348024368286, -1.3341269493103027, 0.049072265625, 0.202392578125, -0.8115234375
221, 3260173986, -5.375237941741943, -2.111579179763794, 7.7866997718811035, -0.1972561925649643, -1.1519311666488647, -1.278765320777893, 0.048583984375, 0.2021484375, -0.812255859375
222, 3260190653, -5.386875152587891, -2.1090502738952637, 7.783661842346191, -0.2694967985153198, -1.155158281326294, -1.2848867177963257, 0.052001953125, 0.202880859375, -0.8115234375
223, 3260207320, -5.3808207511901855, -2.102619171142578, 7.773040771484375, -0.2573435604572296, -1.1514700651168823, -1.3239203691482544, 0.04638671875, 0.2021484375, -0.812744140625
224, 3260223987, -5.376216888427734, -2.10098934173584, 7.793208599090576, -0.43181735277175903, -1.1408153772354126, -1.2677135467529297, 0.04736328125, 0.204345703125, -0.815185546875
225, 3260240654, -5.355823993682861, -2.1045756340026855, 7.792191505432129, -0.306904137134552, -1.1323758363723755, -1.2679182291030884, 0.048828125, 0.204833984375, -0.812744140625
226, 3260257321, -5.349638938903809, -2.1119444370269775, 7.7906341552734375, -0.2417582869529724, -1.1157021522521973, -1.2319324016571045, 0.04541015625, 0.2021484375, -0.811279296875
227, 3260273988, -5.363287448883057, -2.0998058319091797, 7.8028974533081055, -0.240298330783844, -0.9755493402481079, -1.2292174100875854, 0.048095703125, 0.202880859375, -0.812255859375
228, 3260290655, -5.354447841644287, -2.0954794883728027, 7.774477958679199, -0.27002188563346863, -0.8649023771286011, -1.2367347478866577, 0.048583984375, 0.202392578125, -0.812255859375
229, 3260307322, -5.345606327056885, -2.1016476154327393, 7.783620834350586, -0.2833917438983917, -0.8111413717269897, -1.2529605627059937, 0.049072265625, 0.202880859375, -0.81201171875
230, 3260323989, -5.353976249694824, -2.117403984069824, 7.791611194610596, -0.30594372749328613, -0.8710879683494568, -1.120453119277954, 0.050537109375, 0.202880859375, -0.813232421875
231, 3260340656, -5.360651969909668, -2.1013588905334473, 7.770334720611572, -0.34216007590293884, -0.7552160620689392, -1.1446187496185303, 0.04833984375, 0.203857421875, -0.81103515625
232, 3260357323, -5.3928046226501465, -2.0988917350769043, 7.751981735229492, -0.4140293002128601, -0.7959274649620056, -1.159896731376648, 0.046630859375, 0.201171875, -0.812744140625
233, 3260373990, -5.375922203063965, -2.1187939643859863, 7.772356033325195, -0.44097381830215454, -0.8539401888847351, -1.1708204746246338, 0.046875, 0.205810546875, -0.811767578125
234, 3260390657, -5.349164009094238, -2.1043906211853027, 7.7850165367126465, -0.39124682545661926, -0.8568472862243652, -1.1316202878952026, 0.048583984375, 0.202880859375, -0.812744140625
235, 3260407324, -5.338468074798584, -2.114898681640625, 7.779716491699219, -0.43120262026786804, -0.6796585917472839, -1.1971118450164795, 0.048583984375, 0.202880859375, -0.813232421875
236, 3260423991, -5.362095832824707, -2.1125802993774414, 7.780298233032227, -0.43783631920814514, -0.5848532319068909, -1.0701115131378174, 0.04541015625, 0.2021484375, -0.812744140625
237, 3260440658, -5.364976406097412, -2.1068079471588135, 7.787486553192139, -0.411698579788208, -0.6869198679924011, -1.1785171031951904, 0.048095703125, 0.201171875, -0.814208984375
238, 3260457325, -5.362310886383057, -2.094041347503662, 7.795116424560547, -0.4548943340778351, -0.8481901288032532, -1.201427698135376, 0.046630859375, 0.20166015625, -0.811279296875
239, 3260473992, -5.354499340057373, -2.1124868392944336, 7.769761085510254, -0.4504120945930481, -0.836638867855072, -1.1809502840042114, 0.04736328125, 0.202880859375, -0.810791015625
240, 3260490659, -5.365289688110352, -2.1134908199310303, 7.772087574005127, -0.3951784074306488, -0.817454993724823, -1.2114423513412476, 0.04736328125, 0.203369140625, -0.812744140625
241, 3260507326, -5.33750057220459, -2.116173028945923, 7.811435222625732, -0.30613580346107483, -0.7648591995239258, -1.0998220443725586, 0.04541015625, 0.203125, -0.813232421875
242, 3260523993, -5.342439651489258, -2.1306538581848145, 7.76893949508667, -0.30973437428474426, -0.6662248373031616, -1.048737645149231, 0.0458984375, 0.203857421875, -0.810791015625
243, 3260540660, -5.357686519622803, -2.1094565391540527, 7.769762992858887, -0.24230897426605225, -0.7337526082992554, -0.9949381947517395, 0.04638671875, 0.2021484375, -0.812255859375
244, 3260557327, -5.3632001876831055, -2.1137027740478516, 7.773495197296143, -0.35246914625167847, -0.6820533871650696, -1.1317226886749268, 0.0458984375, 0.20263671875, -0.812744140625
245, 3260573994, -5.345537185668945, -2.1232423782348633, 7.815762042999268, -0.4184090793132782, -0.5581135749816895, -1.0846978425979614, 0.046630859375, 0.20068359375, -0.810546875
246, 3260590661, -5.341407299041748, -2.111207962036133, 7.781447887420654, -0.4025804400444031, -0.48916417360305786, -1.1583600044250488, 0.04638671875, 0.20263671875, -0.812744140625
247, 3260607328, -5.339460372924805, -2.1242291927337646, 7.7817063331604, -0.48178768157958984, -0.486333966255188, -1.1206196546554565, 0.0478515625, 0.204345703125, -0.811767578125
248, 3260623995, -5.341684341430664, -2.1127567291259766, 7.7873711585998535, -0.44416362047195435, -0.46580764651298523, -0.9880690574645996, 0.04736328125, 0.204345703125, -0.813232421875
249, 3260640662, -5.3552703857421875, -2.106416940689087, 7.7632246017456055, -0.5542204976081848, -0.31148889660835266, -1.1206196546554565, 0.04736328125, 0.204833984375, -0.813232421875
250, 3260657329, -5.34831428527832, -2.093818426132202, 7.7886505126953125, -0.6153451204299927, -0.4391297698020935, -1.151175618171692, 0.044921875, 0.201171875, -0.811279296875
251, 3260673996, -5.37847375869751, -2.102496862411499, 7.783520221710205, -0.7868605852127075, -0.4101233184337616, -1.30617094039917, 0.0458984375, 0.204345703125, -0.810302734375
252, 3260690663, -5.336383819580078, -2.0987391471862793, 7.8202009201049805, -1.2426129579544067, -0.37630176544189453, -1.6187481880187988, 0.046875, 0.203369140625, -0.810791015625
253, 3260707330, -5.381895065307617, -2.1248340606689453, 7.782074451446533, -1.095711350440979, -0.08689109236001968, -1.4235284328460693, 0.04736328125, 0.204345703125, -0.814208984375
254, 3260723997, -5.360790729522705, -2.1490519046783447, 7.770552635192871, -1.118775486946106, -0.10585728287696838, -1.5124938488006592, 0.0458984375, 0.205322265625, -0.812744140625
255, 3260740664, -5.373234272003174, -2.150296688079834, 7.762964725494385, -1.1076595783233643, -0.24207845330238342, -1.4526753425598145, 0.0458984375, 0.205322265625, -0.814697265625
256, 3260757331, -5.360870838165283, -2.1310577392578125, 7.772942543029785, -1.0399396419525146, -0.26105746626853943, -1.352709174156189, 0.04638671875, 0.203857421875, -0.810791015625
257, 3260773998, -5.353577136993408, -2.1557552814483643, 7.781191349029541, -0.8989802002906799, -0.3305831551551819, -1.3694599866867065, 0.049560546875, 0.205810546875, -0.81103515625
258, 3260790665, -5.35089635848999, -2.132960557937622, 7.797365665435791, -0.8802956342697144, -0.29788851737976074, -1.347817063331604, 0.04736328125, 0.205322265625, -0.810791015625
259, 3260807332, -5.3445868492126465, -2.137136936187744, 7.7914137840271, -0.8545676469802856, -0.34825581312179565, -1.294376015663147, 0.04736328125, 0.204833984375, -0.811279296875
260, 3260823999, -5.36332368850708, -2.144198417663574, 7.794573783874512, -0.9052937626838684, -0.24635577201843262, -1.3314378261566162, 0.046875, 0.205810546875, -0.811279296875
261, 3260840666, -5.354647636413574, -2.1538519859313965, 7.761982440948486, -0.7990009188652039, -0.23114179074764252, -1.236517071723938, 0.04833984375, 0.207275390625, -0.814697265625
262, 3260857333, -5.356904983520508, -2.1536293029785156, 7.757930278778076, -0.7898316383361816, -0.2725703716278076, -1.2537800073623657, 0.046875, 0.205322265625, -0.811279296875
263, 3260874000, -5.339655876159668, -2.134396553039551, 7.7919440269470215, -0.9250282049179077, -0.248968243598938, -1.2036688327789307, 0.048828125, 0.205810546875, -0.813232421875
264, 3260890667, -5.375599384307861, -2.154179573059082, 7.752100944519043, -0.9384236931800842, -0.15814560651779175, -1.2910208702087402, 0.04638671875, 0.206787109375, -0.810302734375
265, 3260907334, -5.356815338134766, -2.1703896522521973, 7.737914085388184, -0.841069757938385, -0.2761048674583435, -1.2287052869796753, 0.046875, 0.205810546875, -0.810791015625
266, 3260924001, -5.370380878448486, -2.181166172027588, 7.769012928009033, -0.46882766485214233, -0.5473305583000183, -1.108492136001587, 0.0478515625, 0.206787109375, -0.811767578125
267, 3260940668, -5.3616814613342285, -2.1688103675842285, 7.751241683959961, -0.19504070281982422, -0.620621383190155, -1.060468316078186, 0.04638671875, 0.206298828125, -0.813232421875
268, 3260957335, -5.353961944580078, -2.152834177017212, 7.776718616485596, -0.0879155844449997, -0.6827833652496338, -0.9148087501525879, 0.048583984375, 0.203369140625, -0.812744140625
269, 3260974002, -5.365137100219727, -2.150360584259033, 7.797821521759033, -0.11410456895828247, -0.6108244061470032, -0.9624996185302734, 0.0458984375, 0.206787109375, -0.810791015625
270, 3260990669, -5.370609283447266, -2.144566535949707, 7.793026447296143, -0.2404007762670517, -0.4984871745109558, -0.9554817080497742, 0.04736328125, 0.205322265625, -0.814208984375
271, 3261007336, -5.348725318908691, -2.1517765522003174, 7.750216484069824, -0.18242643773555756, -0.4663432240486145, -0.9144373536109924, 0.046875, 0.206787109375, -0.813720703125
272, 3261024003, -5.367152214050293, -2.1662354469299316, 7.752708435058594, -0.18245205283164978, -0.41600146889686584, -0.8566295504570007, 0.0498046875, 0.207275390625, -0.812255859375
273, 3261040670, -5.346137046813965, -2.155095338821411, 7.78144645690918, -0.07665880769491196, -0.4533447325229645, -0.8541578650474548, 0.0458984375, 0.206787109375, -0.813720703125
274, 3261057337, -5.361747741699219, -2.157780170440674, 7.767064571380615, -0.015354812145233154, -0.47802263498306274, -0.7593652606010437, 0.048828125, 0.206787109375, -0.811767578125
275, 3261074004, -5.3628363609313965, -2.1473488807678223, 7.74851655960083, -0.09207765012979507, -0.5168387293815613, -0.8664392828941345, 0.046875, 0.205322265625, -0.814208984375
276, 3261090671, -5.350949764251709, -2.1544227600097656, 7.76364803314209, -0.06690037995576859, -0.5083736777305603, -0.9081239104270935, 0.046875, 0.204833984375, -0.812255859375
277, 3261107338, -5.359551906585693, -2.1481096744537354, 7.785061359405518, -0.18688303232192993, -0.5876064896583557, -0.9519599676132202, 0.0478515625, 0.206298828125, -0.811767578125
278, 3261124005, -5.363736629486084, -2.167287826538086, 7.763307094573975, -0.0724199041724205, -0.5640172362327576, -0.7936222553253174, 0.0478515625, 0.207275390625, -0.810791015625
279, 3261140672, -5.357897758483887, -2.1557936668395996, 7.779378414154053, -0.11255501210689545, -0.5625060796737671, -0.8455392122268677, 0.04833984375, 0.206298828125, -0.811279296875
280, 3261157339, -5.34625768661499, -2.141033887863159, 7.774561405181885, -0.07523731142282486, -0.554527759552002, -0.8520320057868958, 0.048828125, 0.205322265625, -0.80859375
281, 3261174006, -5.357577800750732, -2.138916492462158, 7.760188102722168, -0.08890167623758316, -0.5341399908065796, -0.920994222164154, 0.048828125, 0.205810546875, -0.810546875
282, 3261190673, -5.376642227172852, -2.1451685428619385, 7.799221038818359, -0.17179466784000397, -0.46845871210098267, -0.9539893865585327, 0.04638671875, 0.205322265625, -0.811279296875
283, 3261207340, -5.366097450256348, -2.1589365005493164, 7.7807464599609375, -0.1700170934200287, -0.5269684195518494, -0.8919237852096558, 0.04833984375, 0.206298828125, -0.812744140625
284, 3261224007, -5.346561431884766, -2.1634058952331543, 7.770442962646484, -0.1429060399532318, -0.5737756490707397, -0.9028732180595398, 0.0458984375, 0.203125, -0.809814453125
285, 3261240674, -5.361409664154053, -2.1577553749084473, 7.786816596984863, -0.12773054838180542, -0.49437636137008667, -0.9187019467353821, 0.04833984375, 0.204345703125, -0.810546875
286, 3261257341, -5.3545942306518555, -2.1617326736450195, 7.779348850250244, -0.2161327749490738, -0.45070669054985046, -0.9068432450294495, 0.046875, 0.204345703125, -0.811767578125
287, 3261274008, -5.364755630493164, -2.1451222896575928, 7.741573810577393, -0.2389664649963379, -0.4562133550643921, -0.9821317195892334, 0.04638671875, 0.206298828125, -0.810302734375
288, 3261290675, -5.351032733917236, -2.153676748275757, 7.769762992858887, -0.2264546900987625, -0.41000810265541077, -0.9685827493667603, 0.0478515625, 0.203857421875, -0.811279296875
289, 3261307342, -5.368208885192871, -2.1450536251068115, 7.75930643081665, -0.2609037458896637, -0.4099184274673462, -0.8889142870903015, 0.04638671875, 0.207763671875, -0.809326171875
290, 3261324009, -5.356849193572998, -2.1603522300720215, 7.749373435974121, -0.2158382385969162, -0.4998318552970886, -0.9973201155662537, 0.04541015625, 0.205322265625, -0.811767578125
291, 3261340676, -5.3622636795043945, -2.1369519233703613, 7.760144233703613, -0.2926378846168518, -0.5595990419387817, -1.0030956268310547, 0.0458984375, 0.204833984375, -0.810302734375
292, 3261357343, -5.373809814453125, -2.1298835277557373, 7.752566337585449, -0.44402173161506653, -0.584071934223175, -1.144362449645996, 0.04736328125, 0.204345703125, -0.812255859375
293, 3261374010, -5.329570770263672, -2.1843369007110596, 7.776210308074951, -0.2727368474006653, -0.47885507345199585, -1.0355981588363647, 0.0458984375, 0.204345703125, -0.809326171875
294, 3261390677, -5.360340118408203, -2.1583847999572754, 7.78960657119751, -0.11055722832679749, -0.44954127073287964, -0.8764538168907166, 0.04736328125, 0.206787109375, -0.811767578125
295, 3261407344, -5.362831115722656, -2.1515274047851562, 7.770031452178955, -0.049048323184251785, -0.43754175305366516, -0.7654100060462952, 0.0478515625, 0.207763671875, -0.814697265625
296, 3261424011, -5.363021373748779, -2.1391851902008057, 7.767879962921143, -0.10117016732692719, -0.452909380197525, -0.7694055438041687, 0.046875, 0.206787109375, -0.813232421875
297, 3261440678, -5.370582580566406, -2.147392749786377, 7.774336338043213, -0.1643310934305191, -0.46569013595581055, -0.7829802632331848, 0.04638671875, 0.206298828125, -0.811767578125
298, 3261457345, -5.351753234863281, -2.152890205383301, 7.782773971557617, -0.09501031041145325, -0.4829658269882202, -0.868667483329773, 0.04736328125, 0.205322265625, -0.810791015625
299, 3261474012, -5.351006031036377, -2.1604268550872803, 7.797883033752441, -0.05195535719394684, -0.5303621888160706, -0.737492024898529, 0.04833984375, 0.206298828125, -0.811767578125
300, 3261490679, -5.359429836273193, -2.1615755558013916, 7.771849632263184, -0.004520641639828682, -0.49382561445236206, -0.6948468685150146, 0.048583984375, 0.204345703125, -0.811279296875
301, 3261507346, -5.3650593757629395, -2.147493600845337, 7.757002830505371, 0.06928875297307968, -0.4899197220802307, -0.7329585552215576, 0.04638671875, 0.206787109375, -0.812255859375
302, 3261524013, -5.36644172668457, -2.157471179962158, 7.757452011108398, 0.11049958318471909, -0.45476633310317993, -0.7176806330680847, 0.0478515625, 0.208740234375, -0.812744140625
303, 3261540680, -5.368161678314209, -2.140087604522705, 7.776337146759033, 0.050578683614730835, -0.5655924677848816, -0.6815283894538879, 0.04736328125, 0.204345703125, -0.810302734375
304, 3261557347, -5.369919776916504, -2.155881643295288, 7.798571586608887, 0.10053624957799911, -0.6075076460838318, -0.739810049533844, 0.04541015625, 0.204345703125, -0.810302734375
305, 3261574014, -5.3646440505981445, -2.1478991508483887, 7.781469345092773, 0.08230641484260559, -0.4647424519062042, -0.651407778263092, 0.04736328125, 0.205810546875, -0.812255859375
306, 3261590681, -5.353586196899414, -2.1440863609313965, 7.806412696838379, 0.0781891718506813, -0.5208214521408081, -0.6187900304794312, 0.04736328125, 0.206298828125, -0.812744140625
307, 3261607348, -5.361969947814941, -2.1360392570495605, 7.776114463806152, 0.16664263606071472, -0.6100561022758484, -0.6680817008018494, 0.0478515625, 0.206298828125, -0.812744140625
308, 3261624015, -5.356271266937256, -2.153750419616699, 7.772384166717529, 0.10673452168703079, -0.7214329242706299, -0.6600776314735413, 0.04736328125, 0.206298828125, -0.813720703125
309, 3261640682, -5.375556945800781, -2.1400065422058105, 7.77551794052124, 0.15347768366336823, -0.630943238735199, -0.6777247786521912, 0.049072265625, 0.204833984375, -0.812744140625
310, 3261657349, -5.358564376831055, -2.151301383972168, 7.780410289764404, 0.06101584807038307, -0.7475706338882446, -0.7016854882240295, 0.04736328125, 0.204833984375, -0.812744140625
311, 3261674016, -5.367537021636963, -2.13413143157959, 7.806939601898193, 0.11167777329683304, -0.7543836236000061, -0.7741053104400635, 0.048828125, 0.204833984375, -0.813232421875
312, 3261690683, -5.367837905883789, -2.1247782707214355, 7.800237655639648, -0.02260320633649826, -0.7108036279678345, -0.7642061114311218, 0.0478515625, 0.203369140625, -0.813720703125
313, 3261707350, -5.355522632598877, -2.119290590286255, 7.781250476837158, -0.07665880024433136, -0.6141796708106995, -0.9201105833053589, 0.046875, 0.203857421875, -0.814697265625
314, 3261724017, -5.374457359313965, -2.1233067512512207, 7.800938129425049, -0.28011325001716614, -0.6511516571044922, -0.9992539286613464, 0.0478515625, 0.205810546875, -0.812744140625
315, 3261740684, -5.3507490158081055, -2.1206581592559814, 7.797318935394287, -0.5486440658569336, -0.6666616797447205, -1.1255919933319092, 0.050048828125, 0.203857421875, -0.812744140625
316, 3261757351, -5.349822521209717, -2.135993003845215, 7.768802165985107, -0.2848644554615021, -0.7158622145652771, -1.0202051401138306, 0.047119140625, 0.2021484375, -0.811767578125
317, 3261774018, -5.344997406005859, -2.136741876602173, 7.758819580078125, -0.3018840253353119, -0.6261279582977295, -0.9575051069259644, 0.049072265625, 0.203369140625, -0.81201171875
318, 3261790685, -5.364173412322998, -2.153531551361084, 7.767989158630371, -0.0962909385561943, -0.5496228933334351, -0.9543675184249878, 0.048828125, 0.204833984375, -0.811279296875
319, 3261807352, -5.368528842926025, -2.136202573776245, 7.765078544616699, -0.0875185877084732, -0.5670267939567566, -0.8744431138038635, 0.0478515625, 0.205322265625, -0.812744140625
320, 3261824019, -5.365832805633545, -2.1476218700408936, 7.771296977996826, 0.10724678635597229, -0.7188205122947693, -0.7716978788375854, 0.04736328125, 0.204345703125, -0.813232421875
321, 3261840686, -5.349373817443848, -2.1301138401031494, 7.777784824371338, 0.1724310964345932, -0.7093693017959595, -0.7212023735046387, 0.04736328125, 0.204345703125, -0.811279296875
322, 3261857353, -5.352127552032471, -2.118293285369873, 7.792890548706055, 0.18411047756671906, -0.7517455220222473, -0.7873855233192444, 0.046875, 0.205322265625, -0.812744140625
323, 3261874020, -5.361417293548584, -2.121626853942871, 7.792658805847168, 0.06633048504590988, -0.6517791152000427, -0.8213351964950562, 0.04638671875, 0.2021484375, -0.811767578125
324, 3261890687, -5.349686622619629, -2.1384775638580322, 7.770239353179932, -0.07988600432872772, -0.6472841501235962, -0.8360240459442139, 0.046875, 0.204833984375, -0.812255859375
325, 3261907354, -5.361360549926758, -2.123298406600952, 7.8136091232299805, -0.18264417350292206, -0.5828169584274292, -0.9225949645042419, 0.04833984375, 0.206298828125, -0.812744140625
326, 3261924021, -5.362060070037842, -2.1093504428863525, 7.79072380065918, -0.44639095664024353, -0.5545662045478821, -0.9760359525680542, 0.04736328125, 0.204833984375, -0.816162109375
327, 3261940688, -5.348640441894531, -2.1288695335388184, 7.774386405944824, -0.21968013048171997, -0.5337046980857849, -1.042462706565857, 0.04833984375, 0.206298828125, -0.813232421875
328, 3261957355, -5.367860317230225, -2.1362996101379395, 7.753955841064453, -0.2577405571937561, -0.5881443619728088, -0.9812096357345581, 0.044921875, 0.205322265625, -0.813720703125
329, 3261974022, -5.3519744873046875, -2.1367740631103516, 7.77403450012207, -0.08125629276037216, -0.7067952752113342, -1.0536296367645264, 0.048583984375, 0.2021484375, -0.8115234375
330, 3261990689, -5.344330310821533, -2.1238455772399902, 7.781729221343994, -0.04411787539720535, -0.6963068246841431, -1.0012389421463013, 0.048828125, 0.205810546875, -0.811767578125
331, 3262007356, -5.351568698883057, -2.1398611068725586, 7.782375812530518, -0.20783422887325287, -0.6415084600448608, -1.0664870738983154, 0.0458984375, 0.205322265625, -0.813720703125
332, 3262024023, -5.363220691680908, -2.127838134765625, 7.790062427520752, -0.20888438820838928, -0.7041827440261841, -1.0334852933883667, 0.04443359375, 0.207275390625, -0.813720703125
333, 3262040690, -5.342428684234619, -2.1359429359436035, 7.77419900894165, -0.32389822602272034, -0.638089120388031, -1.0693429708480835, 0.046875, 0.204345703125, -0.813720703125
334, 3262057357, -5.352085590362549, -2.1209909915924072, 7.787530899047852, -0.13898731768131256, -0.655659556388855, -1.1204787492752075, 0.046875, 0.203857421875, -0.811279296875
335, 3262074024, -5.3613972663879395, -2.1324591636657715, 7.765503406524658, 0.11242055147886276, -0.8226544260978699, -0.9396018981933594, 0.0439453125, 0.20361328125, -0.810791015625
336, 3262090691, -5.3918609619140625, -2.104510545730591, 7.7735700607299805, 0.1795642226934433, -1.0598279237747192, -0.8670666813850403, 0.046875, 0.2021484375, -0.812744140625
337, 3262107358, -5.396389484405518, -2.111431360244751, 7.804296016693115, 0.0427924245595932, -1.2924938201904297, -1.152840495109558, 0.04541015625, 0.205810546875, -0.812744140625
338, 3262124025, -5.389594554901123, -2.084120750427246, 7.807847023010254, -0.2996685802936554, -1.3656307458877563, -1.454391360282898, 0.0458984375, 0.205810546875, -0.813720703125
339, 3262140692, -5.370944499969482, -2.0807509422302246, 7.824496746063232, -0.9963340163230896, -1.3233439922332764, -2.0198686122894287, 0.0458984375, 0.204833984375, -0.812744140625
340, 3262157359, -5.356050491333008, -2.124999523162842, 7.804222583770752, -1.1401365995407104, -1.069650411605835, -2.1741342544555664, 0.04638671875, 0.203369140625, -0.812744140625
341, 3262174026, -5.3259453773498535, -2.147627115249634, 7.79854154586792, -0.9266932010650635, -0.7911507487297058, -1.9913235902786255, 0.04638671875, 0.204833984375, -0.811279296875
342, 3262190693, -5.32098388671875, -2.176640033721924, 7.801301956176758, -1.328914761543274, -0.5162495374679565, -2.1107425689697266, 0.04541015625, 0.204833984375, -0.811767578125
343, 3262207360, -5.3646016120910645, -2.1614198684692383, 7.801326274871826, -1.2599272727966309, -0.4760632812976837, -1.970090627670288, 0.046875, 0.204345703125, -0.812255859375
344, 3262224027, -5.392630100250244, -2.102659225463867, 7.800441741943359, -1.4229520559310913, -0.3493572473526001, -2.2904415130615234, 0.04541015625, 0.206298828125, -0.814208984375
345, 3262240694, -5.347683906555176, -2.1400978565216064, 7.803696632385254, -1.5861306190490723, -0.20569561421871185, -2.7012178897857666, 0.0458984375, 0.206298828125, -0.814208984375
346, 3262257361, -5.3342976570129395, -2.1736202239990234, 7.797564506530762, -1.657487392425537, -0.023269133642315865, -2.8542532920837402, 0.044921875, 0.206298828125, -0.812255859375
347, 3262274028, -5.269290924072266, -2.247163772583008, 7.808058261871338, -1.6313239336013794, 0.4723941385746002, -2.6662306785583496, 0.0458984375, 0.205322265625, -0.812744140625
348, 3262290695, -5.262929439544678, -2.2422609329223633, 7.777139186859131, -1.6421968936920166, 1.3070096969604492, -2.1763241291046143, 0.04296875, 0.205322265625, -0.812744140625
349, 3262307362, -5.250223159790039, -2.261453628540039, 7.838855266571045, -2.042402744293213, 2.7917025089263916, -1.7419347763061523, 0.044921875, 0.208740234375, -0.812744140625
350, 3262324029, -5.114406585693359, -2.404327630996704, 7.869819164276123, -3.0015785694122314, 5.549075603485107, -0.5408122539520264, 0.048828125, 0.209716796875, -0.814208984375
351, 3262340696, -4.981444358825684, -2.4759905338287354, 7.937000751495361, -4.61360502243042, 10.643868446350098, 1.7715606689453125, 0.05029296875, 0.21044921875, -0.812744140625
352, 3262357363, -4.956364631652832, -2.294395685195923, 8.064131736755371, -6.898071765899658, 16.787769317626953, 4.5044660568237305, 0.054931640625, 0.2119140625, -0.810546875
353, 3262374030, -4.950608730316162, -2.142768621444702, 8.141751289367676, -12.289006233215332, 24.014127731323242, 8.247471809387207, 0.059814453125, 0.212890625, -0.80908203125
354, 3262390697, -4.689208030700684, -2.4114036560058594, 8.654340744018555, -17.59574317932129, 34.835140228271484, 16.666385650634766, 0.06787109375, 0.214599609375, -0.804443359375
355, 3262407364, -3.932220697402954, -2.54705810546875, 9.009385108947754, -21.414430618286133, 48.841732025146484, 29.94830322265625, 0.08056640625, 0.21875, -0.802490234375
356, 3262424031, -5.0016560554504395, -2.5099589824676514, 9.477964401245117, -28.377389907836914, 68.82410430908203, 42.85224914550781, 0.096435546875, 0.223388671875, -0.796875
357, 3262440698, -4.975947856903076, -3.1574037075042725, 8.869603157043457, -37.9569091796875, 79.72674560546875, 57.94163513183594, 0.121826171875, 0.23046875, -0.790771484375
358, 3262457365, -5.380709648132324, -3.078273296356201, 9.256841659545898, -46.75554275512695, 88.09680938720703, 68.66063690185547, 0.145751953125, 0.23583984375, -0.783447265625
359, 3262474032, -4.43972635269165, -4.059493541717529, 9.967247009277344, -46.42194747924805, 87.69624328613281, 74.85282135009766, 0.1689453125, 0.240478515625, -0.7724609375
360, 3262490699, -0.49880075454711914, -3.7452969551086426, 12.45044994354248, -33.698760986328125, 71.77203369140625, 76.91919708251953, 0.19384765625, 0.24169921875, -0.763916015625
361, 3262507366, -0.07395486533641815, -3.8161706924438477, 14.58189868927002, -33.69419479370117, 40.475955963134766, 65.54624938964844, 0.2119140625, 0.2412109375, -0.75439453125
362, 3262524033, 1.0942564010620117, -5.221759796142578, 14.57148265838623, -32.07646179199219, -3.1137657165527344, 41.06864547729492, 0.218505859375, 0.240478515625, -0.744873046875
363, 3262540700, 2.743075370788574, -4.555098533630371, 13.258340835571289, -20.90460968017578, -34.630859375, 16.837665557861328, 0.218994140625, 0.23974609375, -0.736328125
364, 3262557367, 2.967951536178589, -3.412294387817383, 12.519380569458008, -20.407821655273438, -51.993446350097656, -4.743345260620117, 0.2119140625, 0.23779296875, -0.729248046875
365, 3262574034, 2.0276713371276855, -3.1927051544189453, 12.234128952026367, -19.097728729248047, -63.43828582763672, -19.82935333251953, 0.205078125, 0.237060546875, -0.725341796875
366, 3262590701, 0.8228029012680054, -2.913642406463623, 11.957624435424805, -12.50287914276123, -71.85759735107422, -29.476282119750977, 0.198486328125, 0.237548828125, -0.720947265625
367, 3262607368, -0.1053234338760376, -2.7697393894195557, 11.348567962646484, -5.053277015686035, -74.34223937988281, -35.76657485961914, 0.1904296875, 0.238037109375, -0.71875
368, 3262624035, -1.601530909538269, -2.8936550617218018, 11.144662857055664, -0.1438186913728714, -71.30866241455078, -40.1397819519043, 0.18701171875, 0.236572265625, -0.7197265625
369, 3262640702, -3.7345943450927734, -3.13126277923584, 11.554082870483398, -0.26002657413482666, -70.43148040771484, -45.420589447021484, 0.18017578125, 0.234375, -0.722900390625
370, 3262657369, -6.2533650398254395, -3.548654079437256, 11.91528034210205, -2.427790403366089, -79.52277374267578, -52.92719268798828, 0.177001953125, 0.240966796875, -0.7255859375
371, 3262674036, -7.40203857421875, -4.1847710609436035, 11.280394554138184, 2.4962053298950195, -97.35677337646484, -57.97377395629883, 0.16845703125, 0.248046875, -0.732177734375
372, 3262690703, -7.374009609222412, -3.976229667663574, 10.035224914550781, 14.380852699279785, -109.93866729736328, -57.1097297668457, 0.15087890625, 0.25927734375, -0.747314453125
373, 3262707370, -7.2419633865356445, -3.1306443214416504, 8.874263763427734, 18.475433349609375, -112.53815460205078, -54.565914154052734, 0.13134765625, 0.268798828125, -0.766845703125
374, 3262724037, -7.035959243774414, -2.789213180541992, 7.809832572937012, 14.24888801574707, -107.30069732666016, -50.70778274536133, 0.103759765625, 0.276611328125, -0.779052734375
375, 3262740704, -6.826815605163574, -2.6078622341156006, 7.088212966918945, 8.971580505371094, -96.00789642333984, -44.02665710449219, 0.07568359375, 0.283935546875, -0.793212890625
376, 3262757371, -7.578814506530762, -2.350687265396118, 7.1113691329956055, -1.301316499710083, -82.66767883300781, -37.317935943603516, 0.049560546875, 0.291259765625, -0.80322265625
377, 3262774038, -9.47393798828125, -2.2603061199188232, 7.511146545410156, -17.432540893554688, -80.46990966796875, -33.76593780517578, 0.02294921875, 0.300537109375, -0.808349609375
378, 3262790705, -10.025185585021973, -2.2874972820281982, 6.998659133911133, -29.656206130981445, -90.42217254638672, -30.73503875732422, -0.008056640625, 0.308837890625, -0.80810546875
379, 3262807372, -10.02852725982666, -2.0004031658172607, 5.654848098754883, -33.7838020324707, -99.9991683959961, -24.304126739501953, -0.03759765625, 0.3193359375, -0.80615234375
380, 3262824039, -9.74160099029541, -1.1067339181900024, 3.805750608444214, -33.187294006347656, -100.4778060913086, -12.943116188049316, -0.068603515625, 0.325927734375, -0.805419921875
381, 3262840706, -10.154285430908203, -0.006264806725084782, 2.1957640647888184, -36.52348709106445, -91.59146881103516, 0.4144468307495117, -0.092529296875, 0.333251953125, -0.80029296875
382, 3262857373, -11.169634819030762, 0.6511353850364685, 0.31298592686653137, -42.56147384643555, -76.02975463867188, 14.406681060791016, -0.11181640625, 0.34228515625, -0.7958984375
383, 3262874040, -11.882919311523438, 0.8905904293060303, -1.493760347366333, -43.592708587646484, -50.97765350341797, 29.31949234008789, -0.123779296875, 0.3525390625, -0.7880859375
384, 3262890707, -11.934807777404785, 0.5135383009910583, -2.520670175552368, -36.24663543701172, -17.11640739440918, 43.30004119873047, -0.12548828125, 0.362060546875, -0.7841796875
385, 3262907374, -11.861053466796875, -0.21373477578163147, -2.118389129638672, -25.138500213623047, 19.698575973510742, 53.065956115722656, -0.12109375, 0.371337890625, -0.7822265625
386, 3262924041, -4.80204439163208, -5.136263847351074, 2.649000644683838, 0.3687376081943512, 71.66488647460938, 55.93315887451172, -0.103759765625, 0.37548828125, -0.78125
387, 3262940708, -0.3901621103286743, -6.887001037597656, 12.711165428161621, 46.42954635620117, 91.09757995605469, 60.801116943359375, -0.078125, 0.363525390625, -0.790771484375
388, 3262957375, 1.9487237930297852, -4.649569034576416, 4.720268249511719, 29.83552360534668, 110.64009857177734, 47.168922424316406, -0.05322265625, 0.35791015625, -0.791748046875
389, 3262974042, -4.137422561645508, -2.4531710147857666, 6.590734004974365, 16.212432861328125, 161.3317413330078, 31.4392147064209, -0.01416015625, 0.35205078125, -0.79150390625
390, 3262990709, -10.188889503479004, -3.8164944648742676, 10.434016227722168, 7.898183345794678, 153.01351928710938, 2.6445319652557373, 0.020751953125, 0.350830078125, -0.794189453125
391, 3263007376, -8.60879898071289, -1.8852089643478394, 10.263086318969727, 14.108831405639648, 134.7144012451172, 7.4779534339904785, 0.05517578125, 0.34716796875, -0.79296875
392, 3263024043, -10.026701927185059, 0.286756306886673, 11.626789093017578, 11.89962100982666, 108.75150299072266, 26.25057029724121, 0.081298828125, 0.34228515625, -0.79541015625
393, 3263040710, -9.727831840515137, -2.147864580154419, 9.753939628601074, 4.381739139556885, 75.90868377685547, 31.325645446777344, 0.105224609375, 0.337158203125, -0.7919921875
394, 3263057377, -12.582621574401855, -7.882047653198242, 9.82227897644043, 29.56057357788086, 43.09262466430664, 29.99303436279297, 0.121337890625, 0.33154296875, -0.7900390625
395, 3263074044, -5.518247604370117, -1.5505626201629639, 7.066234111785889, 38.318214416503906, 9.292858123779297, 20.4995174407959, 0.12646484375, 0.32275390625, -0.79248046875
396, 3263090711, -5.582902431488037, -2.861309766769409, 8.082725524902344, 38.093196868896484, 1.4788296222686768, 21.15715980529785, 0.127685546875, 0.31298828125, -0.79638671875
397, 3263107378, -6.821353435516357, -2.4046263694763184, 8.392796516418457, 41.38898849487305, -2.1915156841278076, 20.323936462402344, 0.128173828125, 0.302978515625, -0.79931640625
398, 3263124045, -6.053277492523193, -1.4614020586013794, 8.410361289978027, 28.512863159179688, -10.171608924865723, 13.16903018951416, 0.12890625, 0.29296875, -0.80322265625
399, 3263140712, -5.461012840270996, -1.8464467525482178, 8.312865257263184, 26.16056251525879, -13.443217277526855, 10.961267471313477, 0.1279296875, 0.285888671875, -0.8056640625
400, 3263157379, -5.631505012512207, -2.1042063236236572, 8.165730476379395, 22.93358039855957, -14.51681900024414, 9.529340744018555, 0.127197265625, 0.280517578125, -0.8056640625
401, 3263174046, -5.500215530395508, -1.767577052116394, 8.286099433898926, 15.34060001373291, -10.614762306213379, 5.7552900314331055, 0.125244140625, 0.27685546875, -0.81005859375
402, 3263190713, -5.356469631195068, -1.7773326635360718, 8.19198989868164, 6.787283420562744, -4.979160785675049, 1.3345692157745361, 0.123291015625, 0.27197265625, -0.811767578125
403, 3263207380, -5.26698637008667, -1.9983936548233032, 8.026262283325195, 1.1821093559265137, -1.2512829303741455, -1.4574395418167114, 0.122802734375, 0.27197265625, -0.813232421875
404, 3263224047, -5.273039817810059, -2.1080639362335205, 7.954673767089844, -0.8768764734268188, 0.32323867082595825, -2.0869100093841553, 0.124267578125, 0.2734375, -0.81201171875
405, 3263240714, -5.2029805183410645, -2.1024794578552246, 7.975698471069336, -2.103365898132324, 1.6389374732971191, -2.2941806316375732, 0.124755859375, 0.27392578125, -0.814697265625
406, 3263257381, -5.16879415512085, -2.1809916496276855, 7.839663028717041, -2.329206705093384, 2.2381725311279297, -2.031651020050049, 0.123291015625, 0.27392578125, -0.811279296875
407, 3263274048, -5.204280376434326, -2.157674789428711, 7.784546375274658, -1.3398643732070923, 1.8723589181900024, -1.5037473440170288, 0.125244140625, 0.2734375, -0.8076171875
408, 3263290715, -5.187803268432617, -2.1602728366851807, 7.796683311462402, -0.19446441531181335, 1.5401363372802734, -0.9746912717819214, 0.125244140625, 0.27392578125, -0.81103515625
409, 3263307382, -5.163506031036377, -2.220667600631714, 7.719057083129883, 1.2554640769958496, 1.1247625350952148, -0.3677215278148651, 0.125732421875, 0.275390625, -0.810546875
410, 3263324049, -5.164133071899414, -2.2545852661132812, 7.738589286804199, 2.976138114929199, 0.8389118909835815, 0.6593797206878662, 0.126708984375, 0.2744140625, -0.81201171875
411, 3263340716, -5.211032867431641, -2.1912646293640137, 7.7546162605285645, 4.3057708740234375, -0.34962621331214905, 1.6622196435928345, 0.127685546875, 0.27197265625, -0.81298828125
412, 3263357383, -5.223471641540527, -2.044093370437622, 7.878023624420166, 4.086820602416992, -0.8171988725662231, 2.0012550354003906, 0.128662109375, 0.27294921875, -0.81201171875
413, 3263374050, -5.123229026794434, -2.147787094116211, 7.816619873046875, 3.9281623363494873, -0.9214938282966614, 2.198638916015625, 0.127685546875, 0.270263671875, -0.8125
414, 3263390717, -5.052257537841797, -2.107692241668701, 7.875874996185303, 4.2355146408081055, -1.0445371866226196, 3.304147243499756, 0.124755859375, 0.269287109375, -0.8125
415, 3263407384, -5.131405353546143, -1.966395378112793, 7.823182106018066, 3.29351806640625, -0.062443770468235016, 3.367794990539551, 0.126708984375, 0.268310546875, -0.81494140625
416, 3263424051, -4.99561071395874, -2.0945963859558105, 7.931972980499268, 1.8391470909118652, 1.8564367294311523, 3.910609006881714, 0.127685546875, 0.266845703125, -0.814453125
417, 3263440718, -5.245291233062744, -2.04349422454834, 7.887579917907715, 0.98891282081604, 3.6221420764923096, 4.477631568908691, 0.1298828125, 0.267333984375, -0.8134765625
418, 3263457385, -4.98673152923584, -2.3661484718322754, 7.880324363708496, 1.600313663482666, 5.34526252746582, 6.729065895080566, 0.130859375, 0.264892578125, -0.8134765625
419, 3263474052, -5.3274760246276855, -2.183988571166992, 7.903205871582031, 2.8181095123291016, 8.346563339233398, 9.789429664611816, 0.13232421875, 0.264404296875, -0.811279296875
420, 3263490719, -5.163862705230713, -2.3094825744628906, 7.949724197387695, 3.584596872329712, 12.376036643981934, 11.441364288330078, 0.136962890625, 0.260986328125, -0.811767578125
421, 3263507386, -5.078184604644775, -2.2703359127044678, 8.09334945678711, 2.0862162113189697, 19.603174209594727, 14.267295837402344, 0.141357421875, 0.260009765625, -0.813720703125
422, 3263524053, -4.7148895263671875, -2.246455192565918, 8.529871940612793, 1.2586846351623535, 32.99493408203125, 16.4178524017334, 0.14892578125, 0.260009765625, -0.8125
423, 3263540720, -4.460690975189209, -1.6938016414642334, 9.326986312866211, 2.105048179626465, 54.34455108642578, 15.33864974975586, 0.162841796875, 0.259521484375, -0.80712890625
424, 3263557387, -4.248788356781006, -1.8468987941741943, 9.45967960357666, -3.076674461364746, 82.49485778808594, 17.20275115966797, 0.18017578125, 0.2587890625, -0.802978515625
425, 3263574054, -4.700863838195801, -1.8077597618103027, 9.531316757202148, -9.944052696228027, 118.67839050292969, 20.200231552124023, 0.205810546875, 0.25634765625, -0.794189453125
426, 3263590721, -4.978033542633057, -2.2268176078796387, 9.654194831848145, -14.519879341125488, 159.7476348876953, 27.90778160095215, 0.2421875, 0.25634765625, -0.784423828125
427, 3263607388, -4.00662899017334, -3.0590476989746094, 10.597081184387207, -14.154901504516602, 213.0866241455078, 41.03593444824219, 0.287353515625, 0.258056640625, -0.763671875
428, 3263624055, -4.922028064727783, -3.342409372329712, 11.069037437438965, -6.860244274139404, 285.67047119140625, 63.66492462158203, 0.345703125, 0.256103515625, -0.73583984375
429, 3263640722, -6.707263946533203, -4.546772003173828, 12.393539428710938, 6.879769325256348, 358.6324462890625, 100.94647979736328, 0.42724609375, 0.2431640625, -0.69384765625
430, 3263657389, -7.50289249420166, -4.388182640075684, 11.931780815124512, 4.1093525886535645, 409.9195861816406, 146.75588989257812, 0.50927734375, 0.219970703125, -0.6337890625
431, 3263674056, -15.33663558959961, -5.584081649780273, 14.845531463623047, -14.622047424316406, 421.1649475097656, 169.85842895507812, 0.592529296875, 0.19287109375, -0.560302734375
432, 3263690723, -18.37401008605957, -5.847614288330078, 17.19472312927246, -18.87972640991211, 383.80206298828125, 164.65663146972656, 0.661865234375, 0.1630859375, -0.4833984375
433, 3263707390, -14.001470565795898, -7.194996356964111, 16.047771453857422, -27.959699630737305, 311.16845703125, 153.96990966796875, 0.712646484375, 0.1318359375, -0.409912109375
434, 3263724057, -1.7679774761199951, -12.453231811523438, 15.614889144897461, 11.257906913757324, 267.5743408203125, 147.19691467285156, 0.743408203125, 0.095703125, -0.341064453125
435, 3263740724, -16.907211303710938, -18.091014862060547, 27.3111515045166, 41.556541442871094, 128.60336303710938, 20.469820022583008, 0.7626953125, 0.078125, -0.297607421875
436, 3263757391, -2.2957847118377686, -12.673781394958496, 20.122547149658203, 74.33700561523438, -70.75699615478516, -90.33828735351562, 0.759521484375, 0.08203125, -0.299072265625
437, 3263774058, 7.9902753829956055, -5.594763278961182, 11.35885238647461, 89.9514389038086, -109.60752868652344, -118.62869262695312, 0.751953125, 0.095703125, -0.31298828125
438, 3263790725, 6.174792289733887, -1.6080338954925537, 9.720132827758789, 72.74899291992188, -102.36874389648438, -116.98680877685547, 0.754638671875, 0.111328125, -0.321533203125
439, 3263807392, 2.105290174484253, -0.08843359351158142, 10.457751274108887, 36.890140533447266, -120.38898468017578, -119.41087341308594, 0.75830078125, 0.130615234375, -0.341064453125
440, 3263824059, -0.8041553497314453, -0.22626690566539764, 10.34242057800293, 6.366441249847412, -158.91830444335938, -116.44437408447266, 0.7666015625, 0.15625, -0.377685546875
441, 3263840726, -2.7873432636260986, -0.8323960900306702, 9.7252836227417, -1.4403034448623657, -199.15562438964844, -102.91588592529297, 0.7685546875, 0.18505859375, -0.440673828125
442, 3263857393, -4.879451751708984, -1.0352555513381958, 9.185919761657715, 3.7757794857025146, -234.6045684814453, -86.5447006225586, 0.744384765625, 0.207763671875, -0.527587890625
443, 3263874060, -6.6551055908203125, -0.9938601851463318, 8.911626815795898, 4.38102388381958, -262.37091064453125, -77.43238830566406, 0.678466796875, 0.2236328125, -0.614501953125
444, 3263890727, -8.071466445922852, -1.3032011985778809, 8.995502471923828, -2.816622018814087, -280.7635498046875, -75.41526794433594, 0.596435546875, 0.23193359375, -0.682861328125
445, 3263907394, -9.837352752685547, -1.822575330734253, 9.67317008972168, -14.570480346679688, -293.2947082519531, -76.81598663330078, 0.51611328125, 0.243896484375, -0.71826171875
446, 3263924061, -11.25322437286377, -2.5969676971435547, 10.342048645019531, -28.340320587158203, -304.0939636230469, -82.42565155029297, 0.450927734375, 0.27001953125, -0.748291015625
447, 3263940728, -12.480588912963867, -3.2297613620758057, 10.784479141235352, -41.579341888427734, -307.1903076171875, -86.98947143554688, 0.38818359375, 0.3017578125, -0.791015625
448, 3263957395, -14.291873931884766, -3.3795835971832275, 11.00439739227295, -55.09318542480469, -295.7581481933594, -85.24630737304688, 0.30078125, 0.3359375, -0.841552734375
449, 3263974062, -18.845516204833984, -2.7817180156707764, 11.18405532836914, -78.38086700439453, -274.069580078125, -82.57506561279297, 0.18701171875, 0.3671875, -0.858154296875
450, 3263990729, -25.89381217956543, -3.7052371501922607, 9.078563690185547, -99.24593353271484, -266.66058349609375, -91.70557403564453, 0.08203125, 0.390380859375, -0.844970703125
451, 3264007396, -30.211210250854492, -7.5138092041015625, 4.661563873291016, -70.36109161376953, -276.40631103515625, -96.7786865234375, -0.005859375, 0.404052734375, -0.8193359375
452, 3264024063, -30.237201690673828, -4.971621990203857, -0.6733742952346802, -12.026607513427734, -280.0147705078125, -94.71131896972656, -0.082275390625, 0.4033203125, -0.80126953125
453, 3264040730, -27.93667984008789, 2.365838050842285, -6.758873462677002, -11.617984771728516, -252.11102294921875, -89.29988098144531, -0.1494140625, 0.3935546875, -0.784912109375
454, 3264057397, -29.258512496948242, 10.410648345947266, -13.483468055725098, -57.59746170043945, -184.43441772460938, -79.1780776977539, -0.201904296875, 0.39453125, -0.763427734375
455, 3264074064, -26.14944839477539, 13.738967895507812, -18.970041275024414, -91.30644226074219, -80.93482971191406, -52.320884704589844, -0.2314453125, 0.406494140625, -0.741943359375
456, 3264090731, -19.17283821105957, 5.155331611633301, -19.885271072387695, 18.681283950805664, 84.0635986328125, 72.39360809326172, -0.22412109375, 0.410888671875, -0.73974609375
457, 3264107398, -9.125866889953613, -0.3176104724407196, 4.27924108505249, 82.13606262207031, 178.79896545410156, 150.51219177246094, -0.171630859375, 0.400390625, -0.751220703125
458, 3264124065, -6.003616809844971, -13.244635581970215, 13.709449768066406, 59.672760009765625, 137.30618286132812, 75.67428588867188, -0.1279296875, 0.38525390625, -0.7607421875
459, 3264140732, -0.728888750076294, -1.7768787145614624, 2.974860906600952, 40.343040466308594, 193.5260467529297, 43.6510009765625, -0.0908203125, 0.376953125, -0.7666015625
460, 3264157399, -16.798725128173828, 4.535013198852539, 17.50425910949707, 25.82900619506836, 218.75926208496094, 26.12873649597168, -0.036376953125, 0.365478515625, -0.767333984375
461, 3264174066, -15.846844673156738, 4.1958794593811035, 14.332240104675293, -4.131980895996094, 129.63949584960938, 58.25680923461914, 2.44140625E-4, 0.36181640625, -0.76416015625
462, 3264190733, -17.45122528076172, -16.84635353088379, 9.115535736083984, 33.136837005615234, 71.52448272705078, 55.58579635620117, 0.025634765625, 0.359375, -0.760986328125
463, 3264207400, -5.647126197814941, 1.1375929117202759, 8.129562377929688, 58.88907241821289, 44.319583892822266, 37.05043029785156, 0.038330078125, 0.345947265625, -0.770751953125
464, 3264224067, -8.159948348999023, -3.181579351425171, 7.992913722991943, 34.15625762939453, 9.060211181640625, 22.794174194335938, 0.04345703125, 0.33837890625, -0.77099609375
465, 3264240734, -6.215559005737305, -1.9204635620117188, 9.152328491210938, 31.17987632751465, 7.801645278930664, 16.75450325012207, 0.051025390625, 0.328369140625, -0.77587890625
466, 3264257401, -6.092962741851807, -2.8465945720672607, 7.844881534576416, 23.12181282043457, 2.2865090370178223, 12.127764701843262, 0.050537109375, 0.321044921875, -0.775390625
467, 3264274068, -5.787873268127441, -2.1780731678009033, 8.248305320739746, 17.520050048828125, 0.7850879430770874, 9.823258399963379, 0.05126953125, 0.31591796875, -0.77685546875
468, 3264290735, -5.640735149383545, -2.154862642288208, 8.114349365234375, 11.580193519592285, -0.20143118500709534, 6.395066261291504, 0.0517578125, 0.31494140625, -0.775634765625
469, 3264307402, -5.538283824920654, -2.1809566020965576, 7.972193717956543, 4.97553014755249, 3.211045503616333, 2.8232181072235107, 0.0546875, 0.31298828125, -0.777587890625
470, 3264324069, -5.434919357299805, -2.5007951259613037, 7.69606876373291, 1.5584367513656616, 4.985428810119629, 1.0777249336242676, 0.05517578125, 0.3125, -0.779296875
471, 3264340736, -5.431138515472412, -2.7226786613464355, 7.49950647354126, 2.07610821723938, 4.761996746063232, 1.4581758975982666, 0.0556640625, 0.31201171875, -0.778076171875
472, 3264357403, -5.438941478729248, -2.761705160140991, 7.377439975738525, 4.532724380493164, 2.8316569328308105, 3.083750009536743, 0.055908203125, 0.310546875, -0.778564453125
473, 3264374070, -5.374168872833252, -2.766641855239868, 7.362936973571777, 8.789751052856445, -0.2627735733985901, 4.754621505737305, 0.057373046875, 0.304443359375, -0.779052734375
474, 3264390737, -5.401402950286865, -2.868530750274658, 7.399325370788574, 12.666309356689453, -3.7619709968566895, 6.403500556945801, 0.055908203125, 0.304931640625, -0.780517578125
475, 3264407404, -5.528687477111816, -2.383364677429199, 7.737522602081299, 12.62409496307373, -5.464166641235352, 6.2851762771606445, 0.056884765625, 0.302490234375, -0.781982421875
476, 3264424071, -5.509688377380371, -2.2139415740966797, 7.810887813568115, 11.13325309753418, -5.767318248748779, 5.540306091308594, 0.055419921875, 0.30126953125, -0.78173828125
477, 3264440738, -5.523812294006348, -2.315446615219116, 7.753023147583008, 9.805476188659668, -5.5388007164001465, 4.6891560554504395, 0.057373046875, 0.29736328125, -0.782470703125
478, 3264457405, -5.443665504455566, -2.6471691131591797, 7.575481414794922, 11.481011390686035, -7.722376823425293, 5.322893142700195, 0.051513671875, 0.29541015625, -0.78466796875
479, 3264474072, -5.3529953956604, -2.5304360389709473, 7.6406779289245605, 13.98982048034668, -10.977642059326172, 6.956961631774902, 0.0537109375, 0.291259765625, -0.78466796875
480, 3264490739, -5.2927165031433105, -2.3774781227111816, 7.834524631500244, 13.216097831726074, -11.472864151000977, 7.628476142883301, 0.049072265625, 0.287841796875, -0.78759765625
481, 3264507406, -5.29449987411499, -2.0820705890655518, 7.9115824699401855, 9.481847763061523, -8.31787109375, 6.934393882751465, 0.047607421875, 0.28466796875, -0.78662109375
482, 3264524073, -5.093077182769775, -2.1584813594818115, 8.012999534606934, 5.495827674865723, -4.3639445304870605, 6.766486644744873, 0.0517578125, 0.2822265625, -0.7890625
483, 3264540740, -4.926808834075928, -2.298926830291748, 8.011207580566406, 2.3048908710479736, 0.1914600431919098, 7.696752548217773, 0.0498046875, 0.28173828125, -0.78857421875
484, 3264557407, -4.835061550140381, -2.6471219062805176, 7.870243072509766, 3.3357553482055664, 8.094533920288086, 12.079219818115234, 0.0498046875, 0.2802734375, -0.78857421875
485, 3264574074, -4.944283962249756, -2.5306217670440674, 7.915152072906494, 2.9584224224090576, 21.134614944458008, 18.2093563079834, 0.057373046875, 0.27880859375, -0.786376953125
486, 3264590741, -5.306504249572754, -2.2685487270355225, 7.969058990478516, -1.1992053985595703, 30.508811950683594, 21.903364181518555, 0.062744140625, 0.27880859375, -0.788330078125
487, 3264607408, -4.972427845001221, -2.3021743297576904, 8.507126808166504, 0.051539551466703415, 41.810245513916016, 21.509014129638672, 0.076171875, 0.27783203125, -0.7861328125
488, 3264624075, -4.713703632354736, -1.522829532623291, 9.228816032409668, -1.2618919610977173, 61.881980895996094, 17.231033325195312, 0.08984375, 0.275146484375, -0.7841796875
489, 3264640742, -4.618786811828613, -2.108084201812744, 9.232939720153809, -9.756475448608398, 93.62188720703125, 18.863872528076172, 0.109619140625, 0.276611328125, -0.77880859375
490, 3264657409, -4.780177116394043, -2.412595272064209, 9.28084659576416, -19.10466766357422, 131.99224853515625, 25.8316707611084, 0.1396484375, 0.278564453125, -0.769775390625
491, 3264674076, -4.676822185516357, -2.584090232849121, 10.13769245147705, -23.240211486816406, 180.87559509277344, 38.31029510498047, 0.177490234375, 0.2802734375, -0.759521484375
492, 3264690743, -4.4191436767578125, -3.4616143703460693, 10.269702911376953, -21.205598831176758, 252.57029724121094, 55.77297592163086, 0.232177734375, 0.28125, -0.7421875
493, 3264707410, -4.880486488342285, -4.4098358154296875, 10.24976921081543, -14.190869331359863, 333.387451171875, 94.54637908935547, 0.3056640625, 0.27685546875, -0.708740234375
494, 3264724077, -7.492351055145264, -4.946794509887695, 11.689420700073242, -19.05835723876953, 396.2242431640625, 147.70077514648438, 0.390625, 0.263916015625, -0.6640625
495, 3264740744, -11.118680953979492, -5.462292194366455, 12.736190795898438, -33.7912483215332, 427.5495910644531, 191.12010192871094, 0.483642578125, 0.243896484375, -0.6025390625
496, 3264757411, -20.377883911132812, -7.260639667510986, 15.132549285888672, -51.3382682800293, 395.5704650878906, 186.02056884765625, 0.567138671875, 0.21630859375, -0.529296875
497, 3264774078, -20.939416885375977, -7.197983741760254, 15.597709655761719, -33.95326232910156, 305.4807434082031, 173.16787719726562, 0.62890625, 0.1875, -0.465576171875
498, 3264790745, -7.741888999938965, -7.19758415222168, 13.89288330078125, -4.253742218017578, 246.2007293701172, 175.06764221191406, 0.67138671875, 0.151123046875, -0.40771484375
499, 3264807412, -10.896540641784668, -13.997101783752441, 18.828121185302734, -4.026301383972168, 189.564697265625, 99.64971923828125, 0.706787109375, 0.1201171875, -0.360107421875
500, 3264824079, -8.13671588897705, -15.639446258544922, 20.144546508789062, 10.022138595581055, 26.94859504699707, -14.29775333404541, 0.71533203125, 0.109130859375, -0.341796875
501, 3264840746, 1.631942868232727, -11.162107467651367, 13.111543655395508, 62.42594909667969, -60.2373046875, -71.94510650634766, 0.71337890625, 0.1083984375, -0.347900390625
502, 3264857413, 5.000523567199707, -5.181356906890869, 9.598630905151367, 82.96058654785156, -86.2960433959961, -95.25952911376953, 0.704833984375, 0.110595703125, -0.359619140625
503, 3264874080, 4.050911903381348, -1.968438744544983, 8.693798065185547, 60.7864990234375, -97.29756164550781, -110.31439208984375, 0.69482421875, 0.116455078125, -0.37451171875
504, 3264890747, 1.7520188093185425, -1.0605449676513672, 8.49906063079834, 29.135162353515625, -114.39643859863281, -119.59878540039062, 0.68798828125, 0.131103515625, -0.395263671875
505, 3264907414, -0.40918609499931335, -1.1871036291122437, 8.320621490478516, 12.226000785827637, -137.02621459960938, -118.9860610961914, 0.6748046875, 0.154052734375, -0.4228515625
506, 3264924081, -2.796031951904297, -1.4656336307525635, 8.298110961914062, 12.98603343963623, -162.6551971435547, -111.10977172851562, 0.661376953125, 0.17919921875, -0.46142578125
507, 3264940748, -5.014283657073975, -1.616647720336914, 8.325661659240723, 21.664274215698242, -192.26446533203125, -102.19416809082031, 0.627685546875, 0.203125, -0.510986328125
508, 3264957415, -6.594809532165527, -1.4576948881149292, 8.377286911010742, 27.334686279296875, -221.4362030029297, -96.01368713378906, 0.57470703125, 0.220947265625, -0.565185546875
509, 3264974082, -7.987905502319336, -1.3701248168945312, 8.554494857788086, 23.31004524230957, -246.02511596679688, -92.58441925048828, 0.497314453125, 0.232421875, -0.607177734375
510, 3264990749, -9.32242488861084, -1.9220545291900635, 8.832428932189941, 12.372881889343262, -266.37939453125, -91.30255126953125, 0.41357421875, 0.229736328125, -0.62744140625
511, 3265007416, -10.247454643249512, -2.540187120437622, 8.986000061035156, -0.5512657761573792, -281.20281982421875, -92.27812194824219, 0.33740234375, 0.221923828125, -0.628173828125
512, 3265024083, -11.349743843078613, -2.654674530029297, 9.425762176513672, -16.899539947509766, -286.5828857421875, -92.18632507324219, 0.2822265625, 0.198486328125, -0.619140625
513, 3265040750, -12.568596839904785, -3.049664258956909, 10.367420196533203, -38.445838928222656, -282.20452880859375, -88.73350524902344, 0.26025390625, 0.174072265625, -0.594970703125
514, 3265057417, -15.83464241027832, -4.532280445098877, 11.620782852172852, -60.55305099487305, -271.0357360839844, -84.79190063476562, 0.29541015625, 0.15625, -0.58740234375
515, 3265074084, -21.750635147094727, -6.935135364532471, 12.031940460205078, -71.2471694946289, -273.31805419921875, -94.02465057373047, 0.365234375, 0.18212890625, -0.634521484375
516, 3265090751, -25.197010040283203, -8.413045883178711, 9.042707443237305, -49.65894317626953, -291.43994140625, -116.7939682006836, 0.3828125, 0.25244140625, -0.744140625
517, 3265107418, -25.344932556152344, -6.81662130355835, 3.5313549041748047, -5.662897109985352, -297.4068603515625, -122.83824920654297, 0.303955078125, 0.33251953125, -0.85302734375
518, 3265124085, -24.185850143432617, -1.1305330991744995, -1.8189940452575684, 6.221442222595215, -270.260009765625, -109.3769760131836, 0.177490234375, 0.38525390625, -0.908203125
519, 3265140752, -25.766586303710938, 6.063790798187256, -7.378653526306152, -38.87995910644531, -213.1787872314453, -89.20746612548828, 0.066650390625, 0.423583984375, -0.918701171875
520, 3265157419, -28.6776180267334, 14.577065467834473, -16.31661033630371, -119.55093383789062, -136.0929412841797, -80.34819793701172, -0.013427734375, 0.468994140625, -0.9052734375
521, 3265174086, -18.629432678222656, 7.5605292320251465, -22.778522491455078, -70.22212219238281, 29.56103515625, 3.2724032402038574, -0.039306640625, 0.506103515625, -0.888427734375
522, 3265190753, -21.1466064453125, 6.772196292877197, -12.349159240722656, 68.58495330810547, 165.28253173828125, 130.62559509277344, 0.0, 0.50732421875, -0.900146484375
523, 3265207420, -13.61709213256836, -4.887149810791016, 10.569427490234375, 93.44902801513672, 172.50091552734375, 143.44554138183594, 0.06494140625, 0.495849609375, -0.915771484375
524, 3265224087, -7.050564765930176, -12.464818000793457, 11.226449012756348, 101.07330322265625, 109.41874694824219, 94.9786376953125, 0.11279296875, 0.476318359375, -0.9306640625
525, 3265240754, -3.853163003921509, 0.4964286684989929, 7.1466474533081055, 64.68474578857422, 153.17349243164062, 52.36201858520508, 0.1494140625, 0.463623046875, -0.93798828125
526, 3265257421, -14.11092758178711, 5.7736687660217285, 16.67890739440918, 39.3151969909668, 169.98593139648438, 39.980289459228516, 0.19970703125, 0.45849609375, -0.934326171875
527, 3265274088, -13.70236873626709, 4.5574469566345215, 12.660310745239258, 2.5291762351989746, 106.88978576660156, 59.26677322387695, 0.2412109375, 0.457275390625, -0.93115234375
528, 3265290755, -15.36647891998291, -15.41901969909668, 7.621212482452393, 58.083396911621094, 45.21337127685547, 44.792415618896484, 0.263671875, 0.446044921875, -0.93359375
529, 3265307422, -7.155999660491943, 0.8291011452674866, 10.21542739868164, 61.05915832519531, 33.23612594604492, 34.76586151123047, 0.278076171875, 0.428955078125, -0.937744140625
530, 3265324089, -6.873264789581299, -2.0125675201416016, 8.064674377441406, 38.15542984008789, 4.910491943359375, 18.748727798461914, 0.28076171875, 0.41748046875, -0.944091796875
531, 3265340756, -6.055000305175781, -1.2118358612060547, 9.122625350952148, 23.31752586364746, 1.2937450408935547, 8.265792846679688, 0.28271484375, 0.408935546875, -0.946533203125
532, 3265357423, -5.482274055480957, -2.4492766857147217, 8.134897232055664, 12.907048225402832, 1.8632546663284302, 4.3443450927734375, 0.282958984375, 0.40478515625, -0.947998046875
533, 3265374090, -5.558549404144287, -2.3041677474975586, 8.11410903930664, 7.834805011749268, 1.817240834236145, 2.945493221282959, 0.286376953125, 0.40283203125, -0.950439453125
534, 3265390757, -5.7026262283325195, -2.109307289123535, 8.078929901123047, 2.354006052017212, 4.4813456535339355, 0.25554436445236206, 0.286376953125, 0.400390625, -0.9482421875
535, 3265407424, -5.59446907043457, -2.1756253242492676, 7.989698886871338, -2.0226352214813232, 5.872128486633301, -0.8654660582542419, 0.288818359375, 0.40234375, -0.95166015625
536, 3265424091, -5.452497482299805, -2.361628770828247, 7.860633373260498, -4.071420669555664, 7.954684257507324, -1.2294737100601196, 0.291259765625, 0.404052734375, -0.94921875
537, 3265440758, -5.322659015655518, -2.481353521347046, 7.740164756774902, -4.19570779800415, 9.851794242858887, -0.7489027976989746, 0.291748046875, 0.404052734375, -0.9453125
538, 3265457425, -5.583520889282227, -2.4179306030273438, 7.621624946594238, -3.4072840213775635, 9.51640796661377, 0.1870303899049759, 0.2958984375, 0.403564453125, -0.943603515625
539, 3265474092, -5.645460605621338, -2.242743730545044, 7.685449600219727, -3.0069313049316406, 7.77150297164917, 0.6937392354011536, 0.2998046875, 0.405517578125, -0.945068359375
540, 3265490759, -5.64415168762207, -2.276015281677246, 7.5830979347229, -4.055925369262695, 6.870204448699951, -0.6235028505325317, 0.30224609375, 0.408447265625, -0.943603515625
541, 3265507426, -5.436112403869629, -2.420325517654419, 7.545165061950684, -3.2620084285736084, 5.942576885223389, -0.49875617027282715, 0.302734375, 0.407958984375, -0.943115234375
542, 3265524093, -5.477550983428955, -2.4593920707702637, 7.503838062286377, -2.213693380355835, 5.488552570343018, 0.08016137033700943, 0.3046875, 0.40869140625, -0.943359375
543, 3265540760, -5.500771522521973, -2.5684399604797363, 7.413173675537109, -0.5679488778114319, 4.2944111824035645, 1.0216714143753052, 0.3056640625, 0.41015625, -0.939453125
544, 3265557427, -5.527089595794678, -2.5495214462280273, 7.416019439697266, 1.7271220684051514, 1.8842048645019531, 2.673959493637085, 0.30615234375, 0.4111328125, -0.94189453125
545, 3265574094, -5.52337121963501, -2.501095771789551, 7.41608190536499, 3.3529138565063477, -0.5984023809432983, 3.968540668487549, 0.30712890625, 0.40966796875, -0.9423828125
546, 3265590761, -5.469809532165527, -2.3945398330688477, 7.559263706207275, 3.9049575328826904, -2.4178905487060547, 5.44688081741333, 0.3056640625, 0.406494140625, -0.94287109375
547, 3265607428, -5.441256999969482, -2.2255806922912598, 7.694659233093262, 3.345857620239258, -1.7604506015777588, 5.625772476196289, 0.307861328125, 0.404052734375, -0.943359375
548, 3265624095, -5.309514045715332, -2.252439498901367, 7.844120502471924, 0.7327858805656433, 2.186178684234619, 5.402148246765137, 0.307373046875, 0.4072265625, -0.943359375
549, 3265640762, -5.304835319519043, -2.376882791519165, 7.8344950675964355, -2.2295477390289307, 6.857309341430664, 6.285864353179932, 0.309814453125, 0.402587890625, -0.94189453125
550, 3265657429, -5.328810691833496, -2.4068169593811035, 7.757971286773682, -5.902036666870117, 12.260065078735352, 8.04520034790039, 0.313720703125, 0.405029296875, -0.939697265625
551, 3265674096, -5.019049167633057, -2.4918763637542725, 8.004559516906738, -12.347244262695312, 18.645030975341797, 13.69420051574707, 0.32080078125, 0.40576171875, -0.9375
552, 3265690763, -4.954403877258301, -2.8783299922943115, 8.089303970336914, -15.958578109741211, 26.812313079833984, 19.498918533325195, 0.32763671875, 0.40966796875, -0.932861328125
553, 3265707430, -5.127884864807129, -1.8461096286773682, 8.438618659973145, -9.333345413208008, 48.942989349365234, 16.102237701416016, 0.341064453125, 0.409912109375, -0.9296875
554, 3265724097, -5.280581951141357, -1.8154692649841309, 8.396123886108398, -14.642769813537598, 69.64683532714844, 13.687238693237305, 0.359619140625, 0.4130859375, -0.917724609375
555, 3265740764, -5.455656051635742, -1.6176722049713135, 8.426008224487305, -15.869688987731934, 93.754638671875, 9.112542152404785, 0.384521484375, 0.413818359375, -0.90380859375
556, 3265757431, -5.134586334228516, -2.4329700469970703, 8.437051773071289, -21.5910701751709, 124.10125732421875, 8.217714309692383, 0.413818359375, 0.4189453125, -0.8876953125
557, 3265774098, -5.165301322937012, -3.030125856399536, 8.427470207214355, -30.12982940673828, 160.94049072265625, 17.58203887939453, 0.4560546875, 0.4267578125, -0.86279296875
558, 3265790765, -5.134054660797119, -3.4253902435302734, 8.918773651123047, -37.887550354003906, 206.17535400390625, 33.46369552612305, 0.50439453125, 0.4326171875, -0.828125
559, 3265807432, -4.525651454925537, -4.4026713371276855, 9.450338363647461, -29.389755249023438, 266.2825012207031, 56.574241638183594, 0.565673828125, 0.43017578125, -0.7822265625
560, 3265824099, -5.469682693481445, -5.2070393562316895, 9.247356414794922, -22.115978240966797, 339.187744140625, 95.67959594726562, 0.6435546875, 0.42529296875, -0.717529296875
561, 3265840766, -8.633676528930664, -5.1253557205200195, 10.992622375488281, -5.912856578826904, 394.93939208984375, 148.5272674560547, 0.733154296875, 0.398681640625, -0.63525390625
562, 3265857433, -15.167998313903809, -4.422544002532959, 12.955534934997559, -20.364450454711914, 435.196044921875, 167.77212524414062, 0.82177734375, 0.363525390625, -0.52734375
563, 3265874100, -21.957494735717773, -7.511196136474609, 14.278225898742676, -26.38621711730957, 394.33697509765625, 154.33673095703125, 0.88916015625, 0.324462890625, -0.420166015625
564, 3265890767, -19.32193946838379, -7.2724928855896, 14.457412719726562, -21.451086044311523, 307.6087341308594, 154.26834106445312, 0.9306640625, 0.284912109375, -0.3271484375
565, 3265907434, -9.729493141174316, -8.403464317321777, 14.088720321655273, 2.2203941345214844, 252.11488342285156, 161.43429565429688, 0.953125, 0.2392578125, -0.254638671875
566, 3265924101, -9.463689804077148, -17.670169830322266, 16.337627410888672, 68.03324127197266, 201.15353393554688, 111.4923095703125, 0.966552734375, 0.201416015625, -0.201416015625
567, 3265940768, -12.520263671875, -14.620467185974121, 23.109066009521484, 105.55762481689453, 21.606407165527344, -4.712621688842773, 0.959228515625, 0.19189453125, -0.1923828125
568, 3265957435, 0.5898202657699585, -7.848911762237549, 15.43432331085205, 123.8798828125, -98.50916290283203, -60.55059051513672, 0.938232421875, 0.203369140625, -0.2275390625
569, 3265974102, 5.225114345550537, -2.9178109169006348, 9.86003303527832, 114.42192840576172, -118.89469146728516, -67.20005798339844, 0.91552734375, 0.2197265625, -0.271728515625
570, 3265990769, 4.119392395019531, -0.0416421964764595, 8.549786567687988, 74.31602478027344, -120.54821014404297, -67.07332611083984, 0.893798828125, 0.2373046875, -0.3115234375
571, 3266007436, 1.5966904163360596, 0.43476974964141846, 8.391846656799316, 20.588085174560547, -132.3399200439453, -68.424072265625, 0.87060546875, 0.2607421875, -0.35693359375
572, 3266024103, -0.7601723670959473, -0.6753750443458557, 8.18517017364502, -14.50713062286377, -155.4684600830078, -63.912628173828125, 0.84326171875, 0.287841796875, -0.40234375
573, 3266040770, -3.3434882164001465, -1.6649950742721558, 8.296408653259277, -24.323699951171875, -184.50784301757812, -56.148216247558594, 0.8076171875, 0.311279296875, -0.452880859375
574, 3266057437, -5.912023067474365, -2.2349750995635986, 8.527053833007812, -21.76216697692871, -218.90231323242188, -50.888973236083984, 0.76123046875, 0.335693359375, -0.51220703125
575, 3266074104, -7.702907085418701, -2.3752169609069824, 8.388188362121582, -19.54574203491211, -254.337646484375, -52.827728271484375, 0.6923828125, 0.348388671875, -0.573486328125
576, 3266090771, -8.462837219238281, -2.608289957046509, 7.939594745635986, -21.009580612182617, -281.9925231933594, -59.307098388671875, 0.615966796875, 0.353759765625, -0.626220703125
577, 3266107438, -9.273448944091797, -2.8310887813568115, 8.001667022705078, -26.271894454956055, -297.67462158203125, -65.68585205078125, 0.53076171875, 0.355712890625, -0.676025390625
578, 3266124105, -10.258811950683594, -3.0845484733581543, 7.987063407897949, -38.45814514160156, -306.1148376464844, -74.2509536743164, 0.43798828125, 0.357421875, -0.7099609375
579, 3266140772, -10.472586631774902, -2.903646469116211, 7.77286958694458, -55.41023254394531, -301.8436584472656, -80.7379150390625, 0.346435546875, 0.35302734375, -0.723388671875
580, 3266157439, -11.143086433410645, -3.2369461059570312, 8.329851150512695, -73.35826110839844, -278.45123291015625, -81.28944396972656, 0.271728515625, 0.347412109375, -0.71875
581, 3266174106, -15.37140941619873, -4.431098461151123, 10.81876277923584, -95.28163146972656, -248.51864624023438, -79.76293182373047, 0.21630859375, 0.34326171875, -0.705322265625
582, 3266190773, -22.10026741027832, -6.07244348526001, 11.54529094696045, -118.13668823242188, -248.6024169921875, -100.68863677978516, 0.17431640625, 0.35302734375, -0.6943359375
583, 3266207440, -25.591197967529297, -6.942033290863037, 7.470179080963135, -105.53834533691406, -259.64886474609375, -129.14273071289062, 0.129638671875, 0.365234375, -0.686767578125
584, 3266224107, -27.825349807739258, -6.632837772369385, 2.166271448135376, -52.230377197265625, -269.52728271484375, -133.06605529785156, 0.08154296875, 0.37890625, -0.693359375
585, 3266240774, -26.56317710876465, -0.42360731959342957, -1.6940611600875854, -21.901256561279297, -257.5263977050781, -126.38555908203125, 0.03564453125, 0.380615234375, -0.709716796875
586, 3266257441, -23.66440200805664, 4.683785915374756, -6.306212902069092, -40.49796676635742, -212.40621948242188, -115.33684539794922, -0.013671875, 0.38818359375, -0.7177734375
587, 3266274108, -24.989450454711914, 8.947189331054688, -11.450850486755371, -56.07970428466797, -145.40020751953125, -96.0407943725586, -0.055908203125, 0.40087890625, -0.722900390625
588, 3266290775, -26.862178802490234, 10.015443801879883, -14.536688804626465, -48.0242805480957, -79.1900405883789, -59.34947967529297, -0.08447265625, 0.41162109375, -0.722900390625
589, 3266307442, -18.701608657836914, 5.546275615692139, -17.171236038208008, 51.83401870727539, 49.01665496826172, 42.29435729980469, -0.080810546875, 0.41015625, -0.73291015625
590, 3266324109, -10.376818656921387, 5.285365104675293, -3.183803081512451, 114.62973022460938, 166.39251708984375, 120.41744995117188, -0.037109375, 0.384033203125, -0.74951171875
591, 3266340776, -8.797307968139648, -12.20070743560791, 16.68967628479004, 100.15894317626953, 138.52784729003906, 68.92982482910156, 0.01123046875, 0.36083984375, -0.763916015625
592, 3266357443, -1.0022120475769043, -0.11343054473400116, 5.295754909515381, 79.2567138671875, 143.73057556152344, 53.13649368286133, 0.0498046875, 0.33740234375, -0.7724609375
593, 3266374110, -12.96738052368164, 6.454169273376465, 14.978086471557617, 47.49674987792969, 210.16412353515625, 37.042240142822266, 0.10302734375, 0.321533203125, -0.77734375
594, 3266390777, -16.84290885925293, 4.84728479385376, 15.590880393981934, 17.708152770996094, 135.18524169921875, 61.396453857421875, 0.14453125, 0.316162109375, -0.77685546875
595, 3266407444, -16.781015396118164, -12.365077018737793, 10.688138961791992, 33.64952850341797, 79.70459747314453, 62.2814826965332, 0.174560546875, 0.307861328125, -0.776123046875
596, 3266424111, -7.5007500648498535, -0.6542189717292786, 7.705166816711426, 56.36970138549805, 40.505699157714844, 32.54116439819336, 0.188720703125, 0.29345703125, -0.77978515625
597, 3266440778, -7.041476249694824, -2.828965425491333, 8.169581413269043, 35.182674407958984, 11.909268379211426, 20.046871185302734, 0.19580078125, 0.281005859375, -0.78076171875
598, 3266457445, -6.436118125915527, -1.609283208847046, 9.204586029052734, 28.897249221801758, 9.671591758728027, 12.270572662353516, 0.200439453125, 0.27392578125, -0.782470703125
599, 3266474112, -6.310463905334473, -2.8979976177215576, 7.950344085693359, 16.817886352539062, 3.5952775478363037, 6.984468936920166, 0.2041015625, 0.26904296875, -0.781982421875
600, 3266490779, -5.897650241851807, -2.4702649116516113, 7.973573684692383, 9.285932540893555, 2.275759696960449, 3.869767189025879, 0.20654296875, 0.264892578125, -0.784912109375
601, 3266507446, -5.677879333496094, -2.102215051651001, 8.25942325592041, 1.5814114809036255, 5.095871448516846, 0.8134786486625671, 0.2080078125, 0.263427734375, -0.786865234375
602, 3266524113, -5.626288414001465, -2.332787275314331, 7.8920722007751465, -4.354442119598389, 8.074668884277344, -2.0231733322143555, 0.20849609375, 0.265380859375, -0.785888671875
603, 3266540780, -5.56712532043457, -2.552457809448242, 7.747358798980713, -6.905993461608887, 9.470063209533691, -2.5501039028167725, 0.21044921875, 0.2685546875, -0.788330078125
604, 3266557447, -5.381415367126465, -2.9213812351226807, 7.534888744354248, -7.2536115646362305, 11.036628723144531, -2.121654987335205, 0.213134765625, 0.26806640625, -0.78369140625
605, 3266574114, -5.481199741363525, -2.8957607746124268, 7.385439872741699, -5.160552501678467, 11.054760932922363, 0.3452273905277252, 0.215087890625, 0.27001953125, -0.78173828125
606, 3266590781, -5.615969657897949, -2.6272287368774414, 7.435352802276611, -3.256540536880493, 9.581541061401367, 1.7555654048919678, 0.218994140625, 0.27099609375, -0.779541015625
607, 3266607448, -5.687848091125488, -2.5690793991088867, 7.40428352355957, -2.7681572437286377, 8.437101364135742, 1.4730316400527954, 0.220458984375, 0.27001953125, -0.777099609375
608, 3266624115, -5.5057759284973145, -2.658212184906006, 7.517983913421631, -2.3671517372131348, 8.327170372009277, 1.2809360027313232, 0.223876953125, 0.272705078125, -0.780029296875
609, 3266640782, -5.597885608673096, -2.62492036819458, 7.418675422668457, -2.5829899311065674, 8.955142974853516, 1.6818262338638306, 0.22607421875, 0.269775390625, -0.780029296875
610, 3266657449, -5.6342997550964355, -2.845482587814331, 7.241608619689941, -1.909286379814148, 8.679255485534668, 2.382154703140259, 0.226318359375, 0.272705078125, -0.778076171875
611, 3266674116, -5.632742881774902, -2.9570541381835938, 7.128477096557617, 0.6851077675819397, 6.867488861083984, 4.405506610870361, 0.22998046875, 0.270751953125, -0.7763671875
612, 3266690783, -5.7391676902771, -2.7689902782440186, 7.214597702026367, 3.040208578109741, 4.580531120300293, 5.65895414352417, 0.2314453125, 0.269287109375, -0.7763671875
613, 3266707450, -5.665149688720703, -2.69278621673584, 7.352858543395996, 4.128044605255127, 3.670844554901123, 6.534563064575195, 0.23291015625, 0.270263671875, -0.77587890625
614, 3266724117, -5.660990238189697, -2.575321674346924, 7.440628528594971, 3.6746230125427246, 4.368458271026611, 7.07501745223999, 0.23388671875, 0.2666015625, -0.774658203125
615, 3266740784, -5.667162895202637, -2.407357931137085, 7.50299072265625, 1.3762731552124023, 6.689821243286133, 7.262867450714111, 0.237548828125, 0.266845703125, -0.776611328125
616, 3266757451, -5.590601921081543, -2.470698595046997, 7.647228717803955, -4.22887659072876, 9.753276824951172, 8.615817070007324, 0.241455078125, 0.265869140625, -0.775146484375
617, 3266774118, -5.4424567222595215, -2.636484384536743, 7.669278144836426, -10.988471031188965, 12.924788475036621, 11.454516410827637, 0.243408203125, 0.265380859375, -0.775634765625
618, 3266790785, -5.492626667022705, -2.7017552852630615, 7.6616597175598145, -14.787466049194336, 18.03212547302246, 14.17412281036377, 0.248046875, 0.268310546875, -0.771484375
619, 3266807452, -5.238022327423096, -2.584369659423828, 7.987963676452637, -8.138520240783691, 30.882715225219727, 13.534543991088867, 0.25390625, 0.268798828125, -0.769287109375
620, 3266824119, -5.452111721038818, -2.4149422645568848, 7.953691005706787, -11.407843589782715, 47.275630950927734, 11.840221405029297, 0.266845703125, 0.2724609375, -0.76806640625
621, 3266840786, -5.589122772216797, -2.111227035522461, 7.959062099456787, -15.466994285583496, 66.0273666381836, 9.81395435333252, 0.27978515625, 0.275146484375, -0.764404296875
622, 3266857453, -5.305543422698975, -2.3668813705444336, 8.2095308303833, -16.077136993408203, 88.07926177978516, 8.121256828308105, 0.299072265625, 0.27685546875, -0.7548828125
623, 3266874120, -5.303625583648682, -2.6414637565612793, 8.238774299621582, -20.26991081237793, 116.83280181884766, 10.168037414550781, 0.322021484375, 0.279541015625, -0.743896484375
624, 3266890787, -5.335453033447266, -2.9430124759674072, 8.385257720947266, -29.19290542602539, 153.91534423828125, 17.5457763671875, 0.35400390625, 0.28271484375, -0.723876953125
625, 3266907454, -5.082545757293701, -3.8013336658477783, 9.023103713989258, -39.55994415283203, 202.53433227539062, 32.05577850341797, 0.395263671875, 0.28759765625, -0.700439453125
626, 3266924121, -4.455447673797607, -6.22343111038208, 9.81084156036377, -29.963783264160156, 265.23699951171875, 63.510562896728516, 0.446533203125, 0.28955078125, -0.669189453125
627, 3266940788, -6.262972354888916, -6.358347415924072, 9.318397521972656, -16.952495574951172, 340.9230041503906, 115.54487609863281, 0.511474609375, 0.2783203125, -0.623291015625
628, 3266957455, -9.644646644592285, -5.569606304168701, 11.767363548278809, -2.3691720962524414, 384.5882263183594, 176.58172607421875, 0.587158203125, 0.252197265625, -0.561279296875
629, 3266974122, -19.385854721069336, -6.137603759765625, 13.777959823608398, -26.711105346679688, 388.3827209472656, 181.9457244873047, 0.658447265625, 0.220458984375, -0.48876953125
630, 3266990789, -21.22170639038086, -7.835715293884277, 15.927186965942383, -25.564096450805664, 314.85040283203125, 175.05996704101562, 0.710205078125, 0.190185546875, -0.421875
631, 3267007456, -13.0172119140625, -8.338248252868652, 13.258330345153809, 7.170700550079346, 243.29579162597656, 182.5845947265625, 0.7421875, 0.153564453125, -0.371337890625
632, 3267024123, -3.945000410079956, -11.593897819519043, 14.87975788116455, 44.06846618652344, 217.24024963378906, 174.87875366210938, 0.76220703125, 0.109375, -0.325927734375
633, 3267040790, -13.665971755981445, -13.175686836242676, 25.44746208190918, 37.76370620727539, 97.36177825927734, 80.6312484741211, 0.767578125, 0.081298828125, -0.2958984375
634, 3267057457, -3.0323290824890137, -10.973895072937012, 19.366437911987305, 32.5804557800293, -57.41558074951172, -13.598255157470703, 0.7568359375, 0.07421875, -0.30712890625
635, 3267074124, 4.587469100952148, -7.28682804107666, 11.739734649658203, 45.66792297363281, -112.6526107788086, -50.03901672363281, 0.7353515625, 0.074951171875, -0.326171875
636, 3267090791, 4.929624557495117, -3.971872568130493, 8.84788703918457, 49.83839797973633, -120.28372955322266, -58.686729431152344, 0.712890625, 0.077392578125, -0.3466796875
637, 3267107458, 2.5208325386047363, -2.134930372238159, 8.47185230255127, 33.792728424072266, -129.28622436523438, -66.6937484741211, 0.69287109375, 0.0791015625, -0.361083984375
638, 3267124125, -0.00621698796749115, -1.6307777166366577, 8.443525314331055, 11.646556854248047, -148.4764862060547, -73.92631530761719, 0.67578125, 0.08349609375, -0.37451171875
639, 3267140792, -2.378697395324707, -1.8665573596954346, 8.469451904296875, -2.4135618209838867, -173.77838134765625, -77.33394622802734, 0.661865234375, 0.087646484375, -0.390869140625
640, 3267157459, -4.806842803955078, -2.2081549167633057, 8.476473808288574, -7.102517604827881, -204.14752197265625, -79.75733184814453, 0.65625, 0.099609375, -0.416259765625
641, 3267174126, -6.466535568237305, -2.441272020339966, 8.00158977508545, -6.807798385620117, -235.41445922851562, -84.90789794921875, 0.657470703125, 0.11572265625, -0.45556640625
642, 3267190793, -7.124637126922607, -2.7115771770477295, 7.33147668838501, -3.9163784980773926, -257.07208251953125, -91.7039566040039, 0.649658203125, 0.1416015625, -0.523681640625
643, 3267207460, -7.8410868644714355, -2.955688714981079, 7.378171920776367, -3.6599326133728027, -265.1003112792969, -97.96028900146484, 0.6220703125, 0.181640625, -0.61083984375
644, 3267224127, -9.011946678161621, -2.7029972076416016, 7.427749156951904, -12.767173767089844, -266.47265625, -106.35072326660156, 0.547607421875, 0.234130859375, -0.697509765625
645, 3267240794, -9.575488090515137, -2.036280632019043, 7.810072898864746, -31.605127334594727, -253.99417114257812, -111.0343246459961, 0.435791015625, 0.27294921875, -0.74072265625
646, 3267257461, -11.606588363647461, -2.321808338165283, 9.64653491973877, -54.5846061706543, -231.8505859375, -108.50243377685547, 0.333740234375, 0.295166015625, -0.7353515625
647, 3267274128, -16.267009735107422, -3.6455349922180176, 12.240240097045898, -82.05513763427734, -222.4598846435547, -109.1500244140625, 0.272705078125, 0.3056640625, -0.70703125
648, 3267290795, -20.375078201293945, -5.207208156585693, 11.200448036193848, -93.87044525146484, -236.0977020263672, -116.35311889648438, 0.2431640625, 0.3193359375, -0.697265625
649, 3267307462, -22.61644744873047, -6.133768081665039, 8.107650756835938, -73.88407135009766, -241.08633422851562, -117.10369110107422, 0.21337890625, 0.33642578125, -0.716064453125
650, 3267324129, -26.324981689453125, -5.378612041473389, 5.6559367179870605, -41.4281120300293, -253.92733764648438, -112.36006164550781, 0.173828125, 0.3505859375, -0.75
651, 3267340796, -26.00541877746582, -2.099353075027466, 0.982708752155304, -23.20964241027832, -265.7217102050781, -107.56373596191406, 0.11181640625, 0.359619140625, -0.77978515625
652, 3267357463, -23.006345748901367, 2.460458278656006, -3.889416456222534, -30.587053298950195, -239.36947631835938, -92.6422348022461, 0.0439453125, 0.369140625, -0.806884765625
653, 3267374130, -24.664730072021484, 6.756490707397461, -9.014626502990723, -56.375125885009766, -185.4615020751953, -72.99909973144531, -0.01904296875, 0.38134765625, -0.8154296875
