sep=,
DeviceTag:,B,,,,,,,,,,,,,,,,,
FirmwareVersion:,2.2.1,,,,,,,,,,,,,,,,,
AppVersion:,2022.0.1,,,,,,,,,,,,,,,,,
SyncStatus:,Synced,,,,,,,,,,,,,,,,,
OutputRate:,60Hz,,,,,,,,,,,,,,,,,
FilterProfile:,General,,,,,,,,,,,,,,,,,
Measurement Mode:,Inertial Mode - Rate quantities (with mag),,,,,,,,,,,,,,,,,
StartTime:,2022-08-05 16:39:43.273 +0300,,,,,,,,,,,,,,,,,
© Xsens Technologies B. V. 2005-2022,,,,,,,,,,,,,,,,,,,

PacketCounter,SampleTimeFine,Acc_X,Acc_Y,Acc_Z,Gyr_X,Gyr_Y,Gyr_Z,Mag_X,Mag_Y,Mag_Z
1, 3030302722, -5.439723491668701, -2.128509521484375, 7.708957195281982, -1.143005132675171, -0.02119450829923153, -1.2536137104034424, 0.060546875, 0.1953125, -0.812744140625
2, 3030319389, -5.4591546058654785, -2.1153972148895264, 7.706608772277832, -0.7375816702842712, -0.24680395424365997, -1.0615054368972778, 0.06005859375, 0.19580078125, -0.811279296875
3, 3030336056, -5.46023416519165, -2.1255578994750977, 7.713202476501465, -0.3997630178928375, -0.45576512813568115, -0.8918853402137756, 0.05908203125, 0.197265625, -0.811767578125
4, 3030352723, -5.4519500732421875, -2.11630916595459, 7.7116570472717285, -0.272429496049881, -0.5623396635055542, -0.9799418449401855, 0.0595703125, 0.1962890625, -0.811767578125
5, 3030369390, -5.443004608154297, -2.1222763061523438, 7.722150802612305, -0.13273781538009644, -0.5719444155693054, -0.9022713899612427, 0.0595703125, 0.197265625, -0.81298828125
6, 3030386057, -5.433974266052246, -2.10868763923645, 7.745433807373047, -0.040480878204107285, -0.4008643925189972, -0.78673255443573, 0.06005859375, 0.19482421875, -0.81396484375
7, 3030402724, -5.46511697769165, -2.093912363052368, 7.701233863830566, 0.01242856215685606, -0.37450891733169556, -0.7269651889801025, 0.06005859375, 0.19677734375, -0.81298828125
8, 3030419391, -5.463401794433594, -2.099083662033081, 7.7296247482299805, 0.00616625789552927, -0.475909560918808, -0.7551136016845703, 0.060546875, 0.19482421875, -0.811279296875
9, 3030436058, -5.452232360839844, -2.111722469329834, 7.719753265380859, 0.014797736890614033, -0.6135649681091309, -0.8025482892990112, 0.06005859375, 0.1962890625, -0.81298828125
10, 3030452725, -5.4525041580200195, -2.127774953842163, 7.723158836364746, 0.06373079866170883, -0.6630487442016602, -0.7806238532066345, 0.0595703125, 0.197265625, -0.81396484375
11, 3030469392, -5.44049596786499, -2.104339122772217, 7.7345733642578125, 0.1293761432170868, -0.7700202465057373, -0.7378378510475159, 0.0595703125, 0.197265625, -0.81298828125
12, 3030486059, -5.45477294921875, -2.0918054580688477, 7.728653907775879, 0.12955543398857117, -0.7671130895614624, -0.7401557564735413, 0.060546875, 0.19482421875, -0.812255859375
13, 3030502726, -5.456314563751221, -2.089381694793701, 7.717942237854004, 0.01240294799208641, -0.725197970867157, -0.8606507182121277, 0.06005859375, 0.193359375, -0.811767578125
14, 3030519393, -5.438815116882324, -2.09230899810791, 7.743844985961914, 0.07283610850572586, -0.7556514143943787, -0.8129726648330688, 0.0595703125, 0.19482421875, -0.811767578125
15, 3030536060, -5.450169086456299, -2.1081416606903076, 7.736664772033691, -0.003982774447649717, -0.6793128252029419, -0.879168689250946, 0.06005859375, 0.19580078125, -0.8134765625
16, 3030552727, -5.4533371925354, -2.0907461643218994, 7.720402240753174, 0.05217947065830231, -0.6338118314743042, -0.9343512058258057, 0.06103515625, 0.19677734375, -0.813232421875
17, 3030569394, -5.4534149169921875, -2.106726884841919, 7.721033096313477, -0.004802381154149771, -0.7561765313148499, -0.8684881925582886, 0.06005859375, 0.19580078125, -0.812255859375
18, 3030586061, -5.443714141845703, -2.1160037517547607, 7.707733631134033, 0.031663697212934494, -0.8499189615249634, -0.8236787915229797, 0.0595703125, 0.1943359375, -0.8154296875
19, 3030602728, -5.431313514709473, -2.080540418624878, 7.7321624755859375, -0.027136657387018204, -0.7101761698722839, -0.8876081705093384, 0.05859375, 0.1943359375, -0.814453125
20, 3030619395, -5.459620475769043, -2.095919132232666, 7.736394882202148, -0.11585906147956848, -0.6525475978851318, -0.8647232055664062, 0.05908203125, 0.19482421875, -0.81494140625
21, 3030636062, -5.439754009246826, -2.108133316040039, 7.738649368286133, -0.20811599493026733, -0.5552577376365662, -1.0586241483688354, 0.05908203125, 0.19482421875, -0.81298828125
22, 3030652729, -5.4487481117248535, -2.100327253341675, 7.737932205200195, -0.3030238151550293, -0.5390832424163818, -1.0345224142074585, 0.05908203125, 0.19384765625, -0.8125
23, 3030669396, -5.4417805671691895, -2.0956804752349854, 7.729094505310059, -0.4640636444091797, -0.4823639690876007, -1.0434356927871704, 0.0595703125, 0.19580078125, -0.8134765625
24, 3030686063, -5.434783458709717, -2.0761618614196777, 7.734452247619629, -0.4826585352420807, -0.27034205198287964, -1.1328113079071045, 0.05810546875, 0.19677734375, -0.81298828125
25, 3030702730, -5.444591045379639, -2.086500644683838, 7.721944332122803, -0.6419438719749451, -0.12919045984745026, -1.0793832540512085, 0.05810546875, 0.193359375, -0.8154296875
26, 3030719397, -5.4674248695373535, -2.0858395099639893, 7.751826286315918, -0.7854646444320679, -0.10656163096427917, -1.210853099822998, 0.0595703125, 0.19482421875, -0.8154296875
27, 3030736064, -5.469715595245361, -2.1017796993255615, 7.720658779144287, -0.7311784625053406, -0.2004193812608719, -1.220445156097412, 0.05859375, 0.19287109375, -0.81298828125
28, 3030752731, -5.455411434173584, -2.1071693897247314, 7.730985641479492, -0.4688917398452759, -0.4685971438884735, -1.2400901317596436, 0.05859375, 0.19482421875, -0.81494140625
29, 3030769398, -5.447438716888428, -2.127403497695923, 7.7215895652771, -0.3261844515800476, -0.5798678398132324, -1.1334043741226196, 0.0595703125, 0.1943359375, -0.81298828125
30, 3030786065, -5.441455364227295, -2.1184613704681396, 7.761658191680908, -0.33091607689857483, -0.5339735746383667, -1.0432181358337402, 0.05908203125, 0.19580078125, -0.814453125
31, 3030802732, -5.452354907989502, -2.0947093963623047, 7.722417831420898, -0.3616641163825989, -0.46000412106513977, -1.0681391954421997, 0.06005859375, 0.19580078125, -0.814453125
32, 3030819399, -5.4469170570373535, -2.1064770221710205, 7.712452411651611, -0.24544645845890045, -0.49625882506370544, -1.0339462757110596, 0.05859375, 0.19580078125, -0.811279296875
33, 3030836066, -5.448212146759033, -2.116987466812134, 7.738678455352783, -0.2514142096042633, -0.4880755543708801, -1.0082180500030518, 0.06103515625, 0.19677734375, -0.812744140625
34, 3030852733, -5.446481227874756, -2.097425937652588, 7.743750095367432, -0.22349640727043152, -0.5681792497634888, -0.9571081399917603, 0.0615234375, 0.19775390625, -0.81396484375
35, 3030869400, -5.4485673904418945, -2.104494333267212, 7.739510536193848, -0.18415531516075134, -0.54590904712677, -0.9386156797409058, 0.06005859375, 0.19384765625, -0.8154296875
36, 3030886067, -5.4561238288879395, -2.105015754699707, 7.739966869354248, -0.24914756417274475, -0.4439321458339691, -0.9109926223754883, 0.06201171875, 0.19580078125, -0.812255859375
37, 3030902734, -5.445754051208496, -2.105886936187744, 7.721706867218018, -0.21094617247581482, -0.41264620423316956, -0.9290621876716614, 0.06103515625, 0.19580078125, -0.811767578125
38, 3030919401, -5.459702491760254, -2.103750705718994, 7.731377124786377, -0.14460931718349457, -0.46453750133514404, -0.8639675378799438, 0.06201171875, 0.197265625, -0.811279296875
39, 3030936068, -5.461543560028076, -2.103097915649414, 7.713263988494873, -0.2356112152338028, -0.5542844533920288, -0.9313289523124695, 0.06005859375, 0.19287109375, -0.811279296875
40, 3030952735, -5.445899486541748, -2.100937843322754, 7.732438087463379, -0.1759464293718338, -0.5593172907829285, -0.9638826847076416, 0.05908203125, 0.1943359375, -0.811279296875
41, 3030969402, -5.436069965362549, -2.0928337574005127, 7.7252044677734375, -0.18112020194530487, -0.5442313551902771, -0.972936749458313, 0.05908203125, 0.1962890625, -0.8134765625
42, 3030986069, -5.425323009490967, -2.1010875701904297, 7.711029529571533, -0.22860613465309143, -0.5038273930549622, -0.9599254727363586, 0.06005859375, 0.19677734375, -0.81494140625
43, 3031002736, -5.435432434082031, -2.099503993988037, 7.743941307067871, -0.25679290294647217, -0.4754869341850281, -0.9766889810562134, 0.05908203125, 0.19775390625, -0.8125
44, 3031019403, -5.4515581130981445, -2.096999406814575, 7.7688140869140625, -0.31143760681152344, -0.4543948769569397, -0.9926329255104065, 0.05859375, 0.1953125, -0.81201171875
45, 3031036070, -5.4604644775390625, -2.0939950942993164, 7.7383503913879395, -0.3553762137889862, -0.49149492383003235, -1.0669481754302979, 0.0615234375, 0.19677734375, -0.812744140625
46, 3031052737, -5.451916694641113, -2.113081693649292, 7.740622043609619, -0.28136828541755676, -0.5931645035743713, -1.0397858619689941, 0.05859375, 0.1962890625, -0.8125
47, 3031069404, -5.432713031768799, -2.089855432510376, 7.73077917098999, -0.2991434931755066, -0.6100944876670837, -0.8853926062583923, 0.06005859375, 0.1953125, -0.81494140625
48, 3031086071, -5.455414295196533, -2.0946547985076904, 7.726499080657959, -0.27766725420951843, -0.5854166150093079, -0.9405623078346252, 0.05908203125, 0.19580078125, -0.81298828125
49, 3031102738, -5.4628448486328125, -2.1143271923065186, 7.734487533569336, -0.20474793016910553, -0.5614175796508789, -1.0482637882232666, 0.05810546875, 0.19580078125, -0.8115234375
50, 3031119405, -5.461304187774658, -2.1092424392700195, 7.741605281829834, -0.22973309457302094, -0.5407993197441101, -1.0201025009155273, 0.06005859375, 0.1943359375, -0.810302734375
51, 3031136072, -5.448408603668213, -2.099536418914795, 7.731009483337402, -0.31198832392692566, -0.6021161675453186, -1.0831098556518555, 0.060546875, 0.1953125, -0.812255859375
52, 3031152739, -5.44258451461792, -2.1114883422851562, 7.710813999176025, -0.21423740684986115, -0.4593893587589264, -1.0530403852462769, 0.0595703125, 0.19677734375, -0.812255859375
53, 3031169406, -5.444106101989746, -2.1127002239227295, 7.752466201782227, -0.2135971188545227, -0.4293840825557709, -0.9463124871253967, 0.06005859375, 0.19873046875, -0.81298828125
54, 3031186073, -5.453003883361816, -2.1037182807922363, 7.73274564743042, -0.250082403421402, -0.40774136781692505, -0.9121193885803223, 0.0576171875, 0.1982421875, -0.81201171875
55, 3031202740, -5.460814952850342, -2.0965168476104736, 7.71051025390625, -0.25137585401535034, -0.569139838218689, -0.9604890942573547, 0.05810546875, 0.19580078125, -0.8115234375
56, 3031219407, -5.451644420623779, -2.1104624271392822, 7.709043025970459, -0.148118257522583, -0.6977539658546448, -1.0525155067443848, 0.0615234375, 0.1943359375, -0.81494140625
57, 3031236074, -5.4500579833984375, -2.111177444458008, 7.703709602355957, -0.07687651365995407, -0.6924905180931091, -1.0619536638259888, 0.05810546875, 0.1943359375, -0.81298828125
58, 3031252741, -5.431358337402344, -2.1082849502563477, 7.720499515533447, -0.08514940738677979, -0.6908384561538696, -0.8645566701889038, 0.05908203125, 0.1943359375, -0.8125
59, 3031269408, -5.452752590179443, -2.103504180908203, 7.720401287078857, -0.0499831847846508, -0.7345337867736816, -0.8879539370536804, 0.0595703125, 0.1953125, -0.81298828125
60, 3031286075, -5.4486260414123535, -2.106853485107422, 7.743753910064697, -0.025433409959077835, -0.6618449687957764, -0.9363234043121338, 0.056640625, 0.19384765625, -0.8125
61, 3031302742, -5.446804523468018, -2.1058273315429688, 7.730571269989014, -0.04780609905719757, -0.599490761756897, -0.9010162353515625, 0.05810546875, 0.1953125, -0.8134765625
62, 3031319409, -5.446129322052002, -2.1135756969451904, 7.728917121887207, -0.07919446378946304, -0.5642349720001221, -0.9120425581932068, 0.060546875, 0.19384765625, -0.8134765625
63, 3031336076, -5.44838285446167, -2.118945360183716, 7.737710952758789, -0.11066629737615585, -0.4828283190727234, -0.8639552593231201, 0.05712890625, 0.19580078125, -0.8115234375
64, 3031352743, -5.444048881530762, -2.087967872619629, 7.7238874435424805, -0.042862847447395325, -0.6079942584037781, -0.8988392353057861, 0.06103515625, 0.19384765625, -0.813232421875
65, 3031369410, -5.447852611541748, -2.1011269092559814, 7.736617088317871, -0.17137457430362701, -0.628650963306427, -1.0424240827560425, 0.0595703125, 0.1962890625, -0.8125
66, 3031386077, -5.445343494415283, -2.09879994392395, 7.728824615478516, -0.1003633663058281, -0.6462979912757874, -1.014788031578064, 0.060546875, 0.1953125, -0.8154296875
67, 3031402744, -5.438063621520996, -2.104929208755493, 7.745021820068359, -0.14358480274677277, -0.6549039483070374, -1.0436536073684692, 0.05859375, 0.1943359375, -0.811767578125
68, 3031419411, -5.430996894836426, -2.1044363975524902, 7.722996711730957, -0.059062886983156204, -0.575082004070282, -0.9245927929878235, 0.05859375, 0.193359375, -0.81298828125
69, 3031436078, -5.442409038543701, -2.100120782852173, 7.737264633178711, -0.10631830245256424, -0.5432453155517578, -0.8875440359115601, 0.05859375, 0.1953125, -0.810791015625
70, 3031452745, -5.464060306549072, -2.1019437313079834, 7.723440170288086, -0.11418140679597855, -0.6472072601318359, -0.8982757329940796, 0.05908203125, 0.19580078125, -0.810791015625
71, 3031469412, -5.434807777404785, -2.100151777267456, 7.71970796585083, -0.0744561180472374, -0.6088650822639465, -0.8213352560997009, 0.05859375, 0.19580078125, -0.8125
72, 3031486079, -5.4404144287109375, -2.085545301437378, 7.731453895568848, -0.021886050701141357, -0.5693190693855286, -0.8415436148643494, 0.0576171875, 0.1953125, -0.81494140625
73, 3031502746, -5.4440388679504395, -2.085336446762085, 7.739160060882568, 0.020509367808699608, -0.5703692436218262, -0.9108261466026306, 0.0615234375, 0.19482421875, -0.813720703125
74, 3031519413, -5.438505172729492, -2.1153926849365234, 7.732112884521484, 0.115404412150383, -0.6121434569358826, -0.7702506184577942, 0.060546875, 0.1943359375, -0.811279296875
75, 3031536080, -5.445761203765869, -2.09763765335083, 7.731380462646484, 0.0908290296792984, -0.6169074773788452, -0.7681760787963867, 0.06103515625, 0.1943359375, -0.811279296875
76, 3031552747, -5.4563446044921875, -2.0945043563842773, 7.731750011444092, -0.03717682883143425, -0.627370297908783, -0.800115168094635, 0.0576171875, 0.1923828125, -0.81201171875
77, 3031569414, -5.449717044830322, -2.1071653366088867, 7.728060722351074, -0.0024075936526060104, -0.619251012802124, -0.8732649087905884, 0.05859375, 0.19580078125, -0.81396484375
78, 3031586081, -5.437926292419434, -2.08124041557312, 7.740256309509277, 0.03304678201675415, -0.6612430810928345, -0.7631815671920776, 0.0576171875, 0.1943359375, -0.8125
79, 3031602748, -5.433387279510498, -2.1018872261047363, 7.717355728149414, 0.01852438412606716, -0.5672316551208496, -0.7461235523223877, 0.05908203125, 0.19384765625, -0.81298828125
80, 3031619415, -5.4455413818359375, -2.107980728149414, 7.745201587677002, -0.07423841208219528, -0.49710410833358765, -0.7610813975334167, 0.05859375, 0.19482421875, -0.81298828125
81, 3031636082, -5.452467918395996, -2.0936155319213867, 7.7401533126831055, -0.13672061264514923, -0.4311642050743103, -0.7544477581977844, 0.0595703125, 0.19482421875, -0.811767578125
82, 3031652749, -5.437626838684082, -2.092305898666382, 7.728246688842773, -0.10376983880996704, -0.42240461707115173, -0.917638897895813, 0.05908203125, 0.19580078125, -0.8154296875
83, 3031669416, -5.450750827789307, -2.0926928520202637, 7.741086006164551, -0.20515771210193634, -0.4707357883453369, -0.9230688214302063, 0.06005859375, 0.1962890625, -0.81396484375
84, 3031686083, -5.44692850112915, -2.092601776123047, 7.7471747398376465, -0.18178613483905792, -0.6191741824150085, -0.9642668962478638, 0.05615234375, 0.19580078125, -0.8134765625
85, 3031702750, -5.451430320739746, -2.0870087146759033, 7.730225086212158, -0.21376357972621918, -0.5159037113189697, -0.8121657967567444, 0.06103515625, 0.19482421875, -0.811279296875
86, 3031719417, -5.429628372192383, -2.091346502304077, 7.741430759429932, -0.0839456170797348, -0.5716754198074341, -0.8686290383338928, 0.06103515625, 0.19384765625, -0.81396484375
87, 3031736084, -5.4531965255737305, -2.091479539871216, 7.745110034942627, -0.08776190131902695, -0.5366500616073608, -0.8675276637077332, 0.0615234375, 0.19482421875, -0.813720703125
88, 3031752751, -5.434182167053223, -2.0805513858795166, 7.728915691375732, -0.011090298183262348, -0.5374312996864319, -0.7811105251312256, 0.05859375, 0.197265625, -0.81494140625
89, 3031769418, -5.443369388580322, -2.0963003635406494, 7.739981174468994, -0.09590674936771393, -0.5719955563545227, -0.8491121530532837, 0.0615234375, 0.19482421875, -0.813232421875
90, 3031786085, -5.447373390197754, -2.1177430152893066, 7.754364013671875, -0.039213042706251144, -0.5704332590103149, -0.8910914063453674, 0.05908203125, 0.1943359375, -0.81640625
91, 3031802752, -5.444484233856201, -2.0973758697509766, 7.712491035461426, 0.06589508056640625, -0.595559298992157, -0.7395411133766174, 0.0615234375, 0.1943359375, -0.812744140625
92, 3031819419, -5.454629898071289, -2.0911619663238525, 7.750405311584473, -0.036459676921367645, -0.5528372526168823, -0.7387855052947998, 0.06005859375, 0.1953125, -0.809814453125
93, 3031836086, -5.437808036804199, -2.087952136993408, 7.731941223144531, -0.07846450805664062, -0.42969146370887756, -0.7871167063713074, 0.05859375, 0.19482421875, -0.8134765625
94, 3031852753, -5.438088417053223, -2.0845746994018555, 7.731022834777832, -0.08881204575300217, -0.6153963804244995, -0.8806030750274658, 0.05908203125, 0.197265625, -0.81396484375
95, 3031869420, -5.4424052238464355, -2.099043130874634, 7.727515697479248, -0.06512028723955154, -0.6017703413963318, -0.9389742612838745, 0.0595703125, 0.1962890625, -0.814453125
96, 3031886087, -5.440237522125244, -2.0816426277160645, 7.719628810882568, 0.09354397654533386, -0.79294353723526, -0.8853157162666321, 0.0595703125, 0.19482421875, -0.81494140625
97, 3031902754, -5.442974090576172, -2.09415602684021, 7.75636100769043, 0.04037443920969963, -0.6976805925369263, -0.8146223425865173, 0.05859375, 0.19287109375, -0.81591796875
98, 3031919421, -5.437649726867676, -2.0762250423431396, 7.736953258514404, -0.004712736699730158, -0.6464261412620544, -0.7557027339935303, 0.0595703125, 0.193359375, -0.812255859375
99, 3031936088, -5.424803733825684, -2.0763304233551025, 7.740696907043457, -0.09955655783414841, -0.6757270097732544, -0.8280329704284668, 0.0595703125, 0.19189453125, -0.813232421875
100, 3031952755, -5.447628021240234, -2.0846047401428223, 7.734301567077637, -0.07407192140817642, -0.669605553150177, -0.8403398394584656, 0.0576171875, 0.1943359375, -0.81201171875
101, 3031969422, -5.443336009979248, -2.0833377838134766, 7.741475582122803, -0.04177431762218475, -0.5731098055839539, -0.8016006946563721, 0.05859375, 0.19482421875, -0.8134765625
102, 3031986089, -5.446152687072754, -2.0912303924560547, 7.741128444671631, -0.04309336468577385, -0.6448893547058105, -0.8834716081619263, 0.060546875, 0.1943359375, -0.81494140625
103, 3032002756, -5.431271076202393, -2.0654053688049316, 7.7329277992248535, 0.08329889178276062, -0.7553313374519348, -0.7586480975151062, 0.0595703125, 0.193359375, -0.812255859375
104, 3032019423, -5.448763370513916, -2.0915231704711914, 7.723983287811279, 0.05899244546890259, -0.766818642616272, -0.8268675804138184, 0.05810546875, 0.1953125, -0.8125
105, 3032036090, -5.427773475646973, -2.0900018215179443, 7.722453594207764, 0.16696277260780334, -0.7671387195587158, -0.7773453593254089, 0.060546875, 0.1943359375, -0.812744140625
106, 3032052757, -5.426393032073975, -2.087111234664917, 7.772470951080322, 0.16327455639839172, -0.5919607281684875, -0.7264273166656494, 0.05712890625, 0.193359375, -0.81396484375
107, 3032069424, -5.427415370941162, -2.068162202835083, 7.726356506347656, 0.19005264341831207, -0.6592196822166443, -0.722111701965332, 0.05859375, 0.19580078125, -0.81396484375
108, 3032086091, -5.448974609375, -2.0811514854431152, 7.758944034576416, 0.10873231291770935, -0.663740336894989, -0.7703659534454346, 0.0576171875, 0.19580078125, -0.8154296875
109, 3032102758, -5.434636116027832, -2.0783777236938477, 7.755521774291992, 0.06131039932370186, -0.6009635925292969, -0.8136130571365356, 0.0595703125, 0.19287109375, -0.812744140625
110, 3032119425, -5.4354567527771, -2.0821433067321777, 7.751541614532471, 0.042689964175224304, -0.5923832654953003, -0.7794455885887146, 0.0595703125, 0.190673828125, -0.812255859375
111, 3032136092, -5.428343772888184, -2.075922966003418, 7.717194557189941, -0.05942145735025406, -0.609300434589386, -0.8352813124656677, 0.05810546875, 0.193359375, -0.811279296875
112, 3032152759, -5.442461967468262, -2.0608394145965576, 7.737490177154541, 0.10376344621181488, -0.6865741014480591, -0.9375272393226624, 0.0576171875, 0.193359375, -0.81201171875
113, 3032169426, -5.441253662109375, -2.08697247505188, 7.7370452880859375, 0.026016101241111755, -0.9046406149864197, -0.7845298647880554, 0.0595703125, 0.19482421875, -0.81494140625
114, 3032186093, -5.432949542999268, -2.0824530124664307, 7.757521629333496, 0.1884390413761139, -0.8446427583694458, -0.7748097777366638, 0.05859375, 0.19384765625, -0.81640625
115, 3032202760, -5.432013988494873, -2.0680649280548096, 7.7453789710998535, 0.09899947792291641, -0.7675997018814087, -0.695820152759552, 0.05712890625, 0.19287109375, -0.81298828125
116, 3032219427, -5.444655895233154, -2.0660526752471924, 7.770885467529297, 0.09700170904397964, -0.6856648325920105, -0.7397972345352173, 0.06103515625, 0.193359375, -0.813232421875
117, 3032236094, -5.43483304977417, -2.0670228004455566, 7.754938125610352, 0.029064008966088295, -0.7219707369804382, -0.8162127137184143, 0.0595703125, 0.19287109375, -0.812744140625
118, 3032252761, -5.4353766441345215, -2.0608057975769043, 7.730169773101807, 0.1070546805858612, -0.7424224615097046, -0.77268385887146, 0.05908203125, 0.193359375, -0.8134765625
119, 3032269428, -5.415804862976074, -2.0788040161132812, 7.746899604797363, 0.1769389510154724, -0.7849652767181396, -0.8693719506263733, 0.05712890625, 0.1923828125, -0.814453125
120, 3032286095, -5.447004318237305, -2.064939498901367, 7.727923393249512, 0.07588402181863785, -0.7781137824058533, -0.8321822285652161, 0.06103515625, 0.19140625, -0.81591796875
121, 3032302762, -5.42028284072876, -2.052032232284546, 7.73755407333374, 0.004706333391368389, -0.7020312547683716, -0.9118120074272156, 0.05810546875, 0.19287109375, -0.811279296875
122, 3032319429, -5.443474292755127, -2.0704221725463867, 7.717660427093506, -0.061572927981615067, -0.6395235061645508, -0.8499317765235901, 0.05810546875, 0.193359375, -0.81201171875
123, 3032336096, -5.4405388832092285, -2.067727565765381, 7.740447998046875, -0.0010757333366200328, -0.6496788859367371, -0.9126060009002686, 0.05908203125, 0.19287109375, -0.812255859375
124, 3032352763, -5.428041934967041, -2.0950992107391357, 7.739018440246582, 0.07776015251874924, -0.6981636881828308, -0.7764489054679871, 0.05712890625, 0.19287109375, -0.81494140625
125, 3032369430, -5.415379524230957, -2.0628821849823, 7.731637477874756, 0.1372520625591278, -0.8694487810134888, -0.8105908036231995, 0.0556640625, 0.1923828125, -0.8154296875
126, 3032386097, -5.437669277191162, -2.065185308456421, 7.777535438537598, 0.23500290513038635, -0.809348464012146, -0.7653331160545349, 0.06005859375, 0.193359375, -0.8154296875
127, 3032402764, -5.433548927307129, -2.053961992263794, 7.773312091827393, 0.11543002724647522, -0.8023690581321716, -0.7733242511749268, 0.05859375, 0.19189453125, -0.814453125
128, 3032419431, -5.425667762756348, -2.0556652545928955, 7.749618053436279, 0.13556161522865295, -0.687739372253418, -0.7679967880249023, 0.05859375, 0.19189453125, -0.81298828125
129, 3032436098, -5.412942886352539, -2.0732903480529785, 7.753503322601318, 0.2629207372665405, -0.6102481484413147, -0.666877806186676, 0.06005859375, 0.19140625, -0.814453125
130, 3032452765, -5.433817386627197, -2.0389721393585205, 7.764272212982178, 0.08499443531036377, -0.549553394317627, -0.6862309575080872, 0.05859375, 0.19189453125, -0.814453125
131, 3032469432, -5.43807315826416, -2.0376827716827393, 7.759278774261475, -0.11753667145967484, -0.5383405089378357, -0.7184489965438843, 0.05712890625, 0.193359375, -0.81396484375
132, 3032486099, -5.429009914398193, -2.059783458709717, 7.738178253173828, -0.045488156378269196, -0.7291935682296753, -0.7647184133529663, 0.05859375, 0.19384765625, -0.8134765625
133, 3032502766, -5.43870210647583, -2.0534017086029053, 7.769442081451416, -0.16069407761096954, -0.6063550114631653, -0.9024633169174194, 0.0595703125, 0.19091796875, -0.812744140625
134, 3032519433, -5.430680751800537, -2.055410146713257, 7.744856357574463, -0.14305973052978516, -0.6000670790672302, -0.8983269929885864, 0.05859375, 0.19189453125, -0.812744140625
135, 3032536100, -5.440344333648682, -2.0473451614379883, 7.7394938468933105, -0.10246361047029495, -0.6688756942749023, -0.8622643947601318, 0.05615234375, 0.190673828125, -0.8125
136, 3032552767, -5.417112827301025, -2.0580382347106934, 7.73673152923584, -0.06460803747177124, -0.5754917860031128, -0.8682833909988403, 0.05712890625, 0.19140625, -0.81298828125
137, 3032569434, -5.447296619415283, -2.0663740634918213, 7.744617938995361, -0.025638310238718987, -0.5388911366462708, -0.852313756942749, 0.05859375, 0.19189453125, -0.81494140625
138, 3032586101, -5.426453590393066, -2.050542116165161, 7.757944583892822, -0.07778576016426086, -0.5064014792442322, -0.8441945314407349, 0.05908203125, 0.19189453125, -0.8154296875
139, 3032602768, -5.437418460845947, -2.0492329597473145, 7.735494136810303, -0.05748770013451576, -0.5923832654953003, -0.8580766320228577, 0.0576171875, 0.19140625, -0.814453125
140, 3032619435, -5.420414447784424, -2.0582590103149414, 7.7417311668396, 0.004770365078002214, -0.6310712099075317, -0.9365283250808716, 0.05615234375, 0.19189453125, -0.8125
141, 3032636102, -5.434530735015869, -2.0488061904907227, 7.771730422973633, 0.066548191010952, -0.5501735806465149, -0.8236404061317444, 0.05615234375, 0.191650390625, -0.8115234375
142, 3032652769, -5.419191837310791, -2.061089277267456, 7.7331109046936035, -0.0018825334263965487, -0.6416621208190918, -0.8306965827941895, 0.05810546875, 0.19189453125, -0.8125
143, 3032669436, -5.413219451904297, -2.0573368072509766, 7.780313491821289, 0.10843776166439056, -0.6343241333961487, -0.8065054416656494, 0.05908203125, 0.19091796875, -0.813232421875
144, 3032686103, -5.421017169952393, -2.0437612533569336, 7.753530025482178, 0.1267252266407013, -0.6074692010879517, -0.8005121350288391, 0.05712890625, 0.1923828125, -0.81298828125
145, 3032702770, -5.4264984130859375, -2.0502517223358154, 7.744232177734375, 0.12150023877620697, -0.545473575592041, -0.8105394244194031, 0.05615234375, 0.191650390625, -0.814453125
146, 3032719437, -5.417816638946533, -2.043952226638794, 7.783544540405273, 0.04924681782722473, -0.48436179757118225, -0.8273798823356628, 0.05859375, 0.1923828125, -0.81396484375
147, 3032736104, -5.4361443519592285, -2.0456392765045166, 7.776074409484863, -0.07677407562732697, -0.49273720383644104, -0.7613887786865234, 0.0576171875, 0.189208984375, -0.810302734375
148, 3032752771, -5.426938056945801, -2.023092746734619, 7.766406059265137, -0.11457841098308563, -0.5439112782478333, -0.818863570690155, 0.05859375, 0.190673828125, -0.812255859375
149, 3032769438, -5.4333882331848145, -2.048985242843628, 7.745670318603516, -0.19464370608329773, -0.6531493663787842, -0.9150905013084412, 0.0595703125, 0.19287109375, -0.812744140625
150, 3032786105, -5.431140899658203, -2.0428504943847656, 7.736287593841553, -0.11365634948015213, -0.5641837120056152, -0.9149110913276672, 0.05908203125, 0.190673828125, -0.8154296875
151, 3032802772, -5.423196792602539, -2.0490148067474365, 7.750877380371094, -0.08475243300199509, -0.629150390625, -0.8469735980033875, 0.06005859375, 0.19091796875, -0.814453125
152, 3032819439, -5.426360607147217, -2.0489654541015625, 7.756402015686035, -0.06296882033348083, -0.6534439921379089, -0.8755060434341431, 0.0576171875, 0.189697265625, -0.809326171875
153, 3032836106, -5.423409938812256, -2.0439276695251465, 7.765195846557617, -0.0640573650598526, -0.6892761588096619, -0.7668699026107788, 0.05712890625, 0.189697265625, -0.810791015625
154, 3032852773, -5.434396266937256, -2.0367653369903564, 7.743350505828857, -0.0022667236626148224, -0.6677742600440979, -0.8377656936645508, 0.05810546875, 0.191162109375, -0.8125
155, 3032869440, -5.424076557159424, -2.038442850112915, 7.760100841522217, 0.054266903549432755, -0.6218762993812561, -0.8946388363838196, 0.05810546875, 0.19140625, -0.8134765625
156, 3032886107, -5.424323558807373, -2.048860788345337, 7.7422871589660645, -0.012178837321698666, -0.4867565333843231, -0.8584992289543152, 0.056640625, 0.189208984375, -0.8125
157, 3032902774, -5.430904388427734, -2.059913396835327, 7.762388229370117, -0.07419999688863754, -0.4871664047241211, -0.8554002046585083, 0.05908203125, 0.19287109375, -0.810791015625
158, 3032919441, -5.436398029327393, -2.058075189590454, 7.757233619689941, -0.008580254390835762, -0.5190926194190979, -0.8013828992843628, 0.0556640625, 0.190673828125, -0.81396484375
159, 3032936108, -5.431203842163086, -2.033672571182251, 7.744515895843506, -0.058396950364112854, -0.5763112902641296, -0.8436694741249084, 0.0595703125, 0.190673828125, -0.812744140625
160, 3032952775, -5.426833629608154, -2.046229124069214, 7.754268646240234, -0.06071490794420242, -0.6009636521339417, -0.9265139102935791, 0.056640625, 0.189697265625, -0.810791015625
161, 3032969442, -5.420706748962402, -2.0346100330352783, 7.7911176681518555, -0.12579676508903503, -0.39560094475746155, -0.853696882724762, 0.05810546875, 0.190673828125, -0.811767578125
162, 3032986109, -5.412132263183594, -2.0430827140808105, 7.774770736694336, -0.26401570439338684, -0.2775648236274719, -0.8803725242614746, 0.05810546875, 0.19140625, -0.8134765625
163, 3033002776, -5.429917812347412, -2.055556058883667, 7.774657726287842, -0.29188233613967896, -0.2285677194595337, -0.8560276031494141, 0.05908203125, 0.19140625, -0.81396484375
164, 3033019443, -5.436770915985107, -2.050062894821167, 7.755273342132568, -0.3219837546348572, -0.26946181058883667, -0.7694132328033447, 0.05908203125, 0.188232421875, -0.813720703125
165, 3033036110, -5.4528961181640625, -2.031492233276367, 7.75031042098999, -0.28491565585136414, -0.2710847854614258, -0.7687779068946838, 0.05859375, 0.190673828125, -0.811279296875
166, 3033052777, -5.431866645812988, -2.0259828567504883, 7.71727991104126, -0.3349244296550751, -0.5309256315231323, -0.8334628343582153, 0.05712890625, 0.190673828125, -0.81494140625
167, 3033069444, -5.428646564483643, -2.0313801765441895, 7.733619213104248, -0.2108309417963028, -0.5227680206298828, -0.919073224067688, 0.0576171875, 0.19287109375, -0.8154296875
168, 3033086111, -5.436076641082764, -2.045257091522217, 7.770083904266357, -0.14796458184719086, -0.62885582447052, -0.9447757005691528, 0.05908203125, 0.189208984375, -0.81396484375
169, 3033102778, -5.416905879974365, -2.039588212966919, 7.7571916580200195, -0.19822949171066284, -0.5992475748062134, -0.8871855735778809, 0.0576171875, 0.1923828125, -0.8125
170, 3033119445, -5.434730052947998, -2.0409867763519287, 7.766827583312988, -0.21619680523872375, -0.5324496626853943, -0.8818965554237366, 0.05859375, 0.190185546875, -0.811279296875
171, 3033136112, -5.437023162841797, -2.041865825653076, 7.7308220863342285, -0.238774374127388, -0.34329983592033386, -0.8770812749862671, 0.05908203125, 0.189208984375, -0.812744140625
172, 3033152779, -5.4362993240356445, -2.046588897705078, 7.734933853149414, -0.23613625764846802, -0.3646351993083954, -0.8481901288032532, 0.0595703125, 0.19091796875, -0.813232421875
173, 3033169446, -5.434436798095703, -2.0444176197052, 7.739387512207031, -0.1403447985649109, -0.43127942085266113, -0.7762953042984009, 0.0595703125, 0.19091796875, -0.81396484375
174, 3033186113, -5.438421249389648, -2.051354169845581, 7.74666690826416, -0.14765720069408417, -0.4070369601249695, -0.8250362277030945, 0.05908203125, 0.19091796875, -0.811767578125
175, 3033202780, -5.428079128265381, -2.041165590286255, 7.761006832122803, -0.11163294315338135, -0.4704540967941284, -0.8681424260139465, 0.05859375, 0.189208984375, -0.81396484375
176, 3033219447, -5.449820518493652, -2.0343809127807617, 7.756157875061035, -0.19976623356342316, -0.4106612205505371, -0.8525826930999756, 0.05615234375, 0.191650390625, -0.81103515625
177, 3033236114, -5.4316792488098145, -2.02874755859375, 7.750274181365967, -0.12456737458705902, -0.36326491832733154, -0.856706440448761, 0.06005859375, 0.190185546875, -0.812744140625
178, 3033252781, -5.423123359680176, -2.035409450531006, 7.761657238006592, -0.21407093107700348, -0.47473135590553284, -0.8516862392425537, 0.0595703125, 0.190673828125, -0.812255859375
179, 3033269448, -5.446774005889893, -2.0406787395477295, 7.758190155029297, -0.23447145521640778, -0.5042756199836731, -0.8244088292121887, 0.0576171875, 0.190673828125, -0.811767578125
180, 3033286115, -5.442702293395996, -2.0361955165863037, 7.750476837158203, -0.16183383762836456, -0.3927066922187805, -0.8369717597961426, 0.05908203125, 0.19287109375, -0.81494140625
181, 3033302782, -5.454113960266113, -2.0364322662353516, 7.75383186340332, -0.31889086961746216, -0.41922861337661743, -0.7802523970603943, 0.0615234375, 0.189697265625, -0.810791015625
182, 3033319449, -5.440946102142334, -2.0320894718170166, 7.74379301071167, -0.3032415509223938, -0.36868199706077576, -0.8851492404937744, 0.05859375, 0.189208984375, -0.810302734375
183, 3033336116, -5.430234909057617, -2.0351457595825195, 7.733325958251953, -0.35957664251327515, -0.4068833291530609, -0.9064716696739197, 0.0595703125, 0.189208984375, -0.812255859375
184, 3033352783, -5.449712753295898, -2.0367183685302734, 7.728398323059082, -0.24223212897777557, -0.5337045788764954, -0.9878562688827515, 0.05908203125, 0.190185546875, -0.8134765625
185, 3033369450, -5.439389705657959, -2.049375295639038, 7.761345386505127, -0.15987446904182434, -0.581446647644043, -0.9368870258331299, 0.056640625, 0.190185546875, -0.81494140625
186, 3033386117, -5.424322128295898, -2.0413246154785156, 7.741580963134766, -0.23778828978538513, -0.5461907982826233, -0.9313545823097229, 0.056640625, 0.191650390625, -0.811279296875
187, 3033402784, -5.437203407287598, -2.0324180126190186, 7.736302375793457, -0.11231168359518051, -0.6871246695518494, -1.0069119930267334, 0.05810546875, 0.19140625, -0.81298828125
188, 3033419451, -5.438649654388428, -2.0379228591918945, 7.737310886383057, -0.22485388815402985, -0.6203139424324036, -0.9545724391937256, 0.05810546875, 0.189208984375, -0.811767578125
189, 3033436118, -5.435852527618408, -2.0141890048980713, 7.765458106994629, -0.20504245162010193, -0.5957769155502319, -0.9325968027114868, 0.0595703125, 0.190673828125, -0.813232421875
190, 3033452785, -5.453062534332275, -2.036773920059204, 7.737517833709717, -0.26883089542388916, -0.5367525219917297, -0.9822981953620911, 0.0576171875, 0.191162109375, -0.811279296875
191, 3033469452, -5.437668800354004, -2.047192335128784, 7.754719257354736, -0.22222857177257538, -0.5139316916465759, -0.9023609757423401, 0.0576171875, 0.19189453125, -0.81396484375
192, 3033486119, -5.4337005615234375, -2.0363919734954834, 7.735976696014404, -0.24339747428894043, -0.4026828110218048, -0.9451597929000854, 0.05908203125, 0.19140625, -0.812255859375
193, 3033502786, -5.436249732971191, -2.0181798934936523, 7.754664897918701, -0.23251207172870636, -0.4816211760044098, -1.0205763578414917, 0.0576171875, 0.189697265625, -0.812255859375
194, 3033519453, -5.443172931671143, -2.0306520462036133, 7.754568576812744, -0.27148181200027466, -0.5911539196968079, -1.0102033615112305, 0.05810546875, 0.188720703125, -0.810791015625
195, 3033536120, -5.429324150085449, -2.043731212615967, 7.755751609802246, -0.2149161696434021, -0.6261409521102905, -1.0672812461853027, 0.05859375, 0.190185546875, -0.813232421875
196, 3033552787, -5.427268981933594, -2.0283799171447754, 7.747678279876709, -0.1678912341594696, -0.6109268665313721, -1.0036591291427612, 0.05712890625, 0.190673828125, -0.81201171875
197, 3033569454, -5.432336330413818, -2.040773868560791, 7.746138572692871, -0.21396850049495697, -0.6213885545730591, -0.9810380339622498, 0.05908203125, 0.19189453125, -0.812255859375
198, 3033586121, -5.440268039703369, -2.0351648330688477, 7.752581596374512, -0.177470400929451, -0.6128350496292114, -0.9709517359733582, 0.05908203125, 0.19091796875, -0.81591796875
199, 3033602788, -5.425992488861084, -2.0514092445373535, 7.752218723297119, -0.12114806473255157, -0.5487264394760132, -0.968416154384613, 0.05859375, 0.19091796875, -0.8134765625
200, 3033619455, -5.4322309494018555, -2.0418288707733154, 7.755859851837158, -0.015303587540984154, -0.6685298681259155, -0.8481773138046265, 0.05810546875, 0.188232421875, -0.808837890625
201, 3033636122, -5.425002574920654, -2.041025400161743, 7.738940238952637, -0.014317500405013561, -0.7093949913978577, -0.9217755794525146, 0.06005859375, 0.189208984375, -0.808837890625
202, 3033652789, -5.419761657714844, -2.0379598140716553, 7.7645416259765625, -0.18141475319862366, -0.579807460308075, -0.9971150755882263, 0.056640625, 0.191162109375, -0.8125
203, 3033669456, -5.42956018447876, -2.025151014328003, 7.733108997344971, -0.2186940312385559, -0.5533367395401001, -1.0075267553329468, 0.05712890625, 0.190673828125, -0.8125
204, 3033686123, -5.438117980957031, -2.0303587913513184, 7.761343479156494, -0.2927403450012207, -0.5213720798492432, -1.056190848350525, 0.05908203125, 0.19140625, -0.813232421875
205, 3033702790, -5.442869186401367, -2.0462491512298584, 7.759711265563965, -0.2574716806411743, -0.5198737978935242, -1.0718274116516113, 0.056640625, 0.189697265625, -0.81396484375
206, 3033719457, -5.437672138214111, -2.047037124633789, 7.7396345138549805, -0.29025593400001526, -0.6682738065719604, -1.047892451286316, 0.05859375, 0.190185546875, -0.810791015625
207, 3033736124, -5.439309120178223, -2.048980712890625, 7.7425150871276855, -0.28139394521713257, -0.7005842328071594, -1.0460866689682007, 0.05810546875, 0.190185546875, -0.811767578125
208, 3033752791, -5.4358038902282715, -2.0308949947357178, 7.751522541046143, -0.24598439037799835, -0.6409578323364258, -1.0003681182861328, 0.05859375, 0.19189453125, -0.81396484375
209, 3033769458, -5.4360151290893555, -2.0382254123687744, 7.747430324554443, -0.264399915933609, -0.6972929239273071, -1.0265185832977295, 0.05859375, 0.19189453125, -0.812255859375
210, 3033786125, -5.43325662612915, -2.0374631881713867, 7.740898609161377, -0.24027274549007416, -0.6832188367843628, -1.004632592201233, 0.05810546875, 0.19287109375, -0.8125
211, 3033802792, -5.448319435119629, -2.0425469875335693, 7.76674222946167, -0.22080707550048828, -0.6304309368133545, -1.0337541103363037, 0.056640625, 0.190185546875, -0.81201171875
212, 3033819459, -5.415283203125, -2.051968574523926, 7.743597984313965, -0.24767480790615082, -0.7103937864303589, -1.0129951238632202, 0.05810546875, 0.19189453125, -0.811279296875
213, 3033836126, -5.419472694396973, -2.039008140563965, 7.769522190093994, -0.31515148282051086, -0.5536697506904602, -1.013929843902588, 0.0595703125, 0.190673828125, -0.81494140625
214, 3033852793, -5.431328773498535, -2.0289299488067627, 7.741462230682373, -0.35544025897979736, -0.45353683829307556, -1.0267233848571777, 0.0576171875, 0.19189453125, -0.81298828125
215, 3033869460, -5.42360782623291, -2.0449042320251465, 7.774623394012451, -0.37502118945121765, -0.4811345934867859, -1.13498854637146, 0.05712890625, 0.190673828125, -0.8125
216, 3033886127, -5.418334007263184, -2.043828010559082, 7.769792079925537, -0.3940386176109314, -0.5583056211471558, -1.1328753232955933, 0.05908203125, 0.19140625, -0.813232421875
217, 3033902794, -5.417187213897705, -2.051894187927246, 7.741603374481201, -0.3147800862789154, -0.5205397009849548, -1.0276199579238892, 0.056640625, 0.190185546875, -0.811279296875
218, 3033919461, -5.4146952629089355, -2.0627195835113525, 7.763356685638428, -0.22708217799663544, -0.4916229248046875, -1.0136609077453613, 0.05712890625, 0.1923828125, -0.814453125
219, 3033936128, -5.42931604385376, -2.033503293991089, 7.747781276702881, -0.2723270058631897, -0.49088016152381897, -0.8804749250411987, 0.05712890625, 0.191162109375, -0.81201171875
220, 3033952795, -5.445352077484131, -2.01957106590271, 7.784476280212402, -0.3465142548084259, -0.46296238899230957, -1.040131688117981, 0.05810546875, 0.1923828125, -0.81298828125
221, 3033969462, -5.436121463775635, -2.0508627891540527, 7.7444305419921875, -0.3569001853466034, -0.5336534380912781, -1.1159837245941162, 0.056640625, 0.1923828125, -0.81494140625
222, 3033986129, -5.428508758544922, -2.0348758697509766, 7.73462438583374, -0.3467063009738922, -0.5706509351730347, -1.146424412727356, 0.05908203125, 0.19189453125, -0.811279296875
223, 3034002796, -5.422256946563721, -2.0427792072296143, 7.765247821807861, -0.30349767208099365, -0.6575548052787781, -1.0254043340682983, 0.05859375, 0.190185546875, -0.811767578125
224, 3034019463, -5.42638635635376, -2.0516197681427, 7.740121841430664, -0.28924423456192017, -0.6506138443946838, -0.9971280097961426, 0.05712890625, 0.190673828125, -0.810791015625
225, 3034036130, -5.414811611175537, -2.054072380065918, 7.735452175140381, -0.27167391777038574, -0.698829710483551, -1.0921127796173096, 0.05712890625, 0.189208984375, -0.812255859375
226, 3034052797, -5.425885200500488, -2.040660858154297, 7.745756149291992, -0.2563191056251526, -0.692183256149292, -0.9946947693824768, 0.05859375, 0.19091796875, -0.8134765625
227, 3034069464, -5.425873756408691, -2.0447096824645996, 7.779621124267578, -0.12578396499156952, -0.6727175116539001, -1.1037920713424683, 0.05712890625, 0.191162109375, -0.814453125
228, 3034086131, -5.412225723266602, -2.0385451316833496, 7.762551784515381, -0.26383641362190247, -0.6076740622520447, -0.9705035090446472, 0.056640625, 0.1923828125, -0.8125
229, 3034102798, -5.431074142456055, -2.0352323055267334, 7.755417823791504, -0.28391677141189575, -0.5563846826553345, -0.9952326416969299, 0.0576171875, 0.190673828125, -0.8134765625
230, 3034119465, -5.427006244659424, -2.047248601913452, 7.746402740478516, -0.3003600835800171, -0.450309693813324, -1.0384540557861328, 0.05810546875, 0.190185546875, -0.810302734375
231, 3034136132, -5.436845302581787, -2.052290439605713, 7.744593143463135, -0.2594081461429596, -0.5401657819747925, -0.9406827092170715, 0.06005859375, 0.19091796875, -0.812255859375
232, 3034152799, -5.435916423797607, -2.0280890464782715, 7.743775844573975, -0.288680762052536, -0.6520736813545227, -1.0238932371139526, 0.056640625, 0.19189453125, -0.81396484375
233, 3034169466, -5.421358585357666, -2.04707932472229, 7.7413153648376465, -0.21215000748634338, -0.6440057158470154, -1.0858761072158813, 0.056640625, 0.19140625, -0.81396484375
234, 3034186133, -5.427417755126953, -2.0319607257843018, 7.7770867347717285, -0.2409258782863617, -0.5685635805130005, -1.1562854051589966, 0.056640625, 0.19189453125, -0.81396484375
235, 3034202800, -5.422434329986572, -2.0362637042999268, 7.736332416534424, -0.25751009583473206, -0.6929900646209717, -1.070534110069275, 0.0556640625, 0.189697265625, -0.81298828125
236, 3034219467, -5.4321208000183105, -2.0372047424316406, 7.759060382843018, -0.40664005279541016, -0.6553265452384949, -1.0989258289337158, 0.056640625, 0.191650390625, -0.811279296875
237, 3034236134, -5.407808780670166, -2.038698434829712, 7.763829231262207, -0.29195916652679443, -0.6035248637199402, -1.114037275314331, 0.05810546875, 0.190673828125, -0.809814453125
238, 3034252801, -5.422451496124268, -2.056549072265625, 7.766990661621094, -0.3162015676498413, -0.5437576770782471, -1.030245304107666, 0.056640625, 0.19189453125, -0.8115234375
239, 3034269468, -5.437596797943115, -2.0423941612243652, 7.759421348571777, -0.3261137008666992, -0.5255213379859924, -1.0080646276474, 0.0576171875, 0.19384765625, -0.81298828125
240, 3034286135, -5.42663049697876, -2.046067237854004, 7.751804828643799, -0.41132718324661255, -0.5144566893577576, -1.0668842792510986, 0.05810546875, 0.190673828125, -0.81396484375
241, 3034302802, -5.4283857345581055, -2.0419137477874756, 7.754140377044678, -0.3765707015991211, -0.40507760643959045, -1.0626708269119263, 0.05615234375, 0.19189453125, -0.8125
242, 3034319469, -5.415977954864502, -2.0502119064331055, 7.748138904571533, -0.42672038078308105, -0.40648630261421204, -1.1462451219558716, 0.0556640625, 0.190673828125, -0.809326171875
243, 3034336136, -5.430447101593018, -2.0446643829345703, 7.765401363372803, -0.8147911429405212, -0.45821118354797363, -1.1952037811279297, 0.05712890625, 0.1923828125, -0.811279296875
244, 3034352803, -5.424796104431152, -2.064836025238037, 7.725583553314209, -0.43681177496910095, -0.2802925705909729, -1.0507737398147583, 0.05712890625, 0.1923828125, -0.8125
245, 3034369470, -5.438770771026611, -2.0609359741210938, 7.78203010559082, -0.3544413447380066, -0.419753760099411, -0.9181385040283203, 0.0576171875, 0.19140625, -0.8125
246, 3034386137, -5.426942348480225, -2.0619072914123535, 7.768441200256348, -0.4270789325237274, -0.388595849275589, -1.0506328344345093, 0.05810546875, 0.191162109375, -0.8125
247, 3034402804, -5.413871765136719, -2.050123929977417, 7.7640557289123535, -0.5054922699928284, -0.27688610553741455, -1.0413227081298828, 0.0576171875, 0.190673828125, -0.811767578125
248, 3034419471, -5.434299468994141, -2.0647964477539062, 7.774386882781982, -0.5965966582298279, -0.11569257080554962, -1.0506842136383057, 0.05810546875, 0.19140625, -0.81298828125
249, 3034436138, -5.433122634887695, -2.053510904312134, 7.737072467803955, -0.708793044090271, -0.20997293293476105, -1.0668329000473022, 0.05712890625, 0.190185546875, -0.810302734375
250, 3034452805, -5.430707931518555, -2.0741336345672607, 7.723941802978516, -0.5053001642227173, -0.3310825526714325, -1.0899229049682617, 0.0576171875, 0.19140625, -0.811767578125
251, 3034469472, -5.428381443023682, -2.0651133060455322, 7.751914024353027, -0.37671157717704773, -0.5103842616081238, -1.0829178094863892, 0.056640625, 0.1923828125, -0.8125
252, 3034486139, -5.430400371551514, -2.0792055130004883, 7.729580402374268, -0.3605371415615082, -0.5567432641983032, -0.9760358333587646, 0.05810546875, 0.1943359375, -0.81201171875
253, 3034502806, -5.4171624183654785, -2.0662004947662354, 7.769976615905762, -0.35682329535484314, -0.46812328696250916, -0.9058059453964233, 0.05859375, 0.191162109375, -0.812744140625
254, 3034519473, -5.421662330627441, -2.041654348373413, 7.739731788635254, -0.2413484752178192, -0.31634244322776794, -1.0036464929580688, 0.056640625, 0.191162109375, -0.810791015625
255, 3034536140, -5.413917064666748, -2.050422191619873, 7.767764091491699, -0.3578350245952606, -0.3047527074813843, -0.9501159191131592, 0.05810546875, 0.19189453125, -0.8125
256, 3034552807, -5.435938358306885, -2.0533511638641357, 7.74850606918335, -0.36145922541618347, -0.26237648725509644, -0.9692741632461548, 0.05712890625, 0.19189453125, -0.8115234375
257, 3034569474, -5.438693046569824, -2.064072370529175, 7.720477104187012, -0.32488423585891724, -0.30531615018844604, -1.043679118156433, 0.056640625, 0.19189453125, -0.8125
258, 3034586141, -5.429412841796875, -2.059616804122925, 7.756900310516357, -0.2676655352115631, -0.44149890542030334, -0.9679680466651917, 0.05859375, 0.193359375, -0.8134765625
259, 3034602808, -5.438414096832275, -2.0556061267852783, 7.743474960327148, -0.24799494445323944, -0.42862850427627563, -0.9508073925971985, 0.05859375, 0.1943359375, -0.8134765625
260, 3034619475, -5.436356544494629, -2.0653157234191895, 7.7514190673828125, -0.253796249628067, -0.4400646388530731, -0.9777136445045471, 0.0576171875, 0.191162109375, -0.811279296875
261, 3034636142, -5.444092273712158, -2.0589141845703125, 7.728976249694824, -0.2734539806842804, -0.5740702748298645, -0.9799547791481018, 0.05615234375, 0.190673828125, -0.810791015625
262, 3034652809, -5.4320149421691895, -2.0646698474884033, 7.7299418449401855, -0.2442939132452011, -0.5425666570663452, -0.9986647963523865, 0.05859375, 0.19140625, -0.809814453125
263, 3034669476, -5.420620918273926, -2.064929485321045, 7.764284610748291, -0.24786686897277832, -0.5694343447685242, -1.005605697631836, 0.05908203125, 0.1923828125, -0.812255859375
264, 3034686143, -5.432159423828125, -2.0313570499420166, 7.736858367919922, -0.5728623270988464, -0.49270254373550415, -1.1821866035461426, 0.05810546875, 0.1923828125, -0.81298828125
265, 3034702810, -5.4162187576293945, -2.0570425987243652, 7.771720886230469, -0.7719283699989319, -0.3081335723400116, -1.2477995157241821, 0.05859375, 0.19189453125, -0.812744140625
266, 3034719477, -5.418853759765625, -2.049006462097168, 7.759471893310547, -0.7661911249160767, -0.1843089908361435, -1.2443034648895264, 0.0546875, 0.1923828125, -0.8125
267, 3034736144, -5.434417724609375, -2.0599358081817627, 7.741669178009033, -0.9354141354560852, 0.037119198590517044, -1.3622881174087524, 0.056640625, 0.19189453125, -0.809326171875
268, 3034752811, -5.4302873611450195, -2.0739893913269043, 7.728456974029541, -0.9897516369819641, -0.05602777376770973, -1.3176453113555908, 0.05712890625, 0.1923828125, -0.811279296875
269, 3034769478, -5.4353532791137695, -2.071502923965454, 7.768619060516357, -0.9802492260932922, -0.11477049440145493, -1.268340826034546, 0.05810546875, 0.19287109375, -0.8134765625
270, 3034786145, -5.43333101272583, -2.0531439781188965, 7.75555944442749, -1.1086713075637817, -0.1876642405986786, -1.4421740770339966, 0.05908203125, 0.19384765625, -0.8134765625
271, 3034802812, -5.443157196044922, -2.089916944503784, 7.742612361907959, -1.091536521911621, -0.07467383146286011, -1.3616352081298828, 0.05859375, 0.1953125, -0.8125
272, 3034819479, -5.42526388168335, -2.0693466663360596, 7.734162330627441, -1.103869080543518, -0.09566343575716019, -1.3657971620559692, 0.05908203125, 0.19580078125, -0.81201171875
273, 3034836146, -5.4306640625, -2.0762808322906494, 7.746968746185303, -1.1280215978622437, -0.055899713188409805, -1.336227297782898, 0.05908203125, 0.19189453125, -0.810791015625
274, 3034852813, -5.427308082580566, -2.0830211639404297, 7.73674201965332, -1.2376823425292969, -0.0908866599202156, -1.4027947187423706, 0.0556640625, 0.19287109375, -0.809326171875
275, 3034869480, -5.44950532913208, -2.066157579421997, 7.706868648529053, -1.2128124237060547, -0.07535255700349808, -1.4071232080459595, 0.0576171875, 0.19384765625, -0.8115234375
276, 3034886147, -5.428246021270752, -2.0789663791656494, 7.736733913421631, -1.1786322593688965, -0.04707613214850426, -1.5366977453231812, 0.0576171875, 0.19677734375, -0.810302734375
277, 3034902814, -5.439294815063477, -2.0946764945983887, 7.729029178619385, -1.1754564046859741, -0.046576689928770065, -1.4471687078475952, 0.05859375, 0.19482421875, -0.811279296875
278, 3034919481, -5.447941780090332, -2.094184637069702, 7.733963966369629, -1.1898506879806519, 0.0017480666283518076, -1.535878300666809, 0.0595703125, 0.19384765625, -0.810302734375
279, 3034936148, -5.447517395019531, -2.0712056159973145, 7.721930980682373, -1.2075107097625732, -0.21133039891719818, -1.7048070430755615, 0.05908203125, 0.1953125, -0.808837890625
280, 3034952815, -5.448149681091309, -2.0852227210998535, 7.740213871002197, -1.2043219804763794, -0.37938812375068665, -1.7555584907531738, 0.05908203125, 0.19384765625, -0.81396484375
281, 3034969482, -5.434277534484863, -2.096275806427002, 7.728121280670166, -1.2825175523757935, -0.35264846682548523, -1.8667048215866089, 0.05908203125, 0.19775390625, -0.814453125
282, 3034986149, -5.4488325119018555, -2.0966105461120605, 7.730471611022949, -1.2068321704864502, -0.42122650146484375, -2.017845392227173, 0.05908203125, 0.19677734375, -0.811767578125
283, 3035002816, -5.442743301391602, -2.118910551071167, 7.729928493499756, -1.1519184112548828, -0.48610344529151917, -1.9595253467559814, 0.05859375, 0.19580078125, -0.811767578125
284, 3035019483, -5.427126407623291, -2.0952870845794678, 7.7260236740112305, -1.2900861501693726, -0.643186092376709, -1.8510299921035767, 0.0595703125, 0.1982421875, -0.811279296875
285, 3035036150, -5.4465012550354, -2.101862907409668, 7.737061023712158, -1.284630537033081, -0.6371671557426453, -1.9075313806533813, 0.056640625, 0.1953125, -0.8115234375
286, 3035052817, -5.417783737182617, -2.1561172008514404, 7.704953193664551, -1.2293071746826172, -0.6212104558944702, -1.633181095123291, 0.05859375, 0.19921875, -0.81103515625
287, 3035069484, -5.423473358154297, -2.1636128425598145, 7.701614856719971, -0.8200929164886475, -0.6500246524810791, -1.16932213306427, 0.06005859375, 0.19873046875, -0.811279296875
288, 3035086151, -5.435399532318115, -2.1455392837524414, 7.719093322753906, -0.5792759656906128, -0.7793111205101013, -1.1725943088531494, 0.0595703125, 0.19873046875, -0.81201171875
289, 3035102818, -5.440942764282227, -2.1028501987457275, 7.736135482788086, -0.3517264425754547, -0.9936063289642334, -1.2695831060409546, 0.0576171875, 0.19677734375, -0.81201171875
290, 3035119485, -5.426476001739502, -2.1500403881073, 7.724066734313965, -0.35788625478744507, -0.9633576273918152, -1.3487777709960938, 0.05908203125, 0.1962890625, -0.811279296875
291, 3035136152, -5.4236159324646, -2.1687400341033936, 7.7258782386779785, -0.25004398822784424, -1.0129694938659668, -1.1538009643554688, 0.05859375, 0.19580078125, -0.811279296875
292, 3035152819, -5.435772895812988, -2.169097661972046, 7.711165428161621, 0.02683570608496666, -1.0347145795822144, -0.8468838334083557, 0.05810546875, 0.19677734375, -0.810791015625
293, 3035169486, -5.427064895629883, -2.132613182067871, 7.749878883361816, 0.007088313810527325, -0.9402293562889099, -0.6956536769866943, 0.05712890625, 0.19873046875, -0.81201171875
294, 3035186153, -5.407275199890137, -2.1157588958740234, 7.773184776306152, -0.06666985899209976, -0.5876193642616272, -0.7141717672348022, 0.05712890625, 0.19921875, -0.81298828125
295, 3035202820, -5.428557872772217, -2.1136677265167236, 7.763009071350098, -0.21323855221271515, -0.1764458864927292, -0.704784631729126, 0.05810546875, 0.19775390625, -0.8115234375
296, 3035219487, -5.44316291809082, -2.1159956455230713, 7.748595237731934, -0.3730105459690094, -0.1563527137041092, -0.9119656682014465, 0.0595703125, 0.19580078125, -0.809814453125
297, 3035236154, -5.463027477264404, -2.1235644817352295, 7.71875, -0.28624749183654785, -0.597044825553894, -0.8398531079292297, 0.0595703125, 0.19677734375, -0.81298828125
298, 3035252821, -5.472311496734619, -2.1057400703430176, 7.696713447570801, -0.18841831386089325, -1.0062423944473267, -0.9569734334945679, 0.0576171875, 0.1982421875, -0.809326171875
299, 3035269488, -5.478812217712402, -2.0902764797210693, 7.737807750701904, -0.22699253261089325, -1.4279593229293823, -1.227655053138733, 0.05712890625, 0.1982421875, -0.808837890625
300, 3035286155, -5.4735894203186035, -2.1143527030944824, 7.737232685089111, -0.31926229596138, -1.6535816192626953, -1.6280968189239502, 0.05615234375, 0.19873046875, -0.8095703125
301, 3035302822, -5.518694877624512, -2.080012559890747, 7.734687805175781, -0.5427971482276917, -2.097846746444702, -2.1665399074554443, 0.05810546875, 0.19775390625, -0.81103515625
302, 3035319489, -5.555274963378906, -2.059492349624634, 7.733275890350342, -0.5649905800819397, -2.5205459594726562, -2.9499940872192383, 0.05712890625, 0.19775390625, -0.81103515625
303, 3035336156, -5.509994983673096, -2.0765795707702637, 7.714379787445068, -1.3975313901901245, -2.8025801181793213, -3.9288089275360107, 0.05712890625, 0.197265625, -0.810302734375
304, 3035352823, -5.34414529800415, -2.1582508087158203, 7.787169456481934, -1.41102933883667, -2.462763786315918, -4.075249671936035, 0.055419921875, 0.2001953125, -0.8095703125
305, 3035369490, -5.289811134338379, -2.2058026790618896, 7.734583854675293, -1.8023656606674194, -1.457413911819458, -3.874753952026367, 0.054443359375, 0.2001953125, -0.81396484375
306, 3035386157, -4.763511657714844, -2.5085809230804443, 7.735256671905518, -1.017797589302063, -0.11806174367666245, -2.166616678237915, 0.052490234375, 0.19970703125, -0.81396484375
307, 3035402824, -5.028168678283691, -2.444774627685547, 7.759181976318359, -0.33950918912887573, 3.6249589920043945, 0.45858898758888245, 0.055908203125, 0.201416015625, -0.81201171875
308, 3035419491, -5.088579177856445, -2.4348666667938232, 7.874973297119141, -2.6514017581939697, 8.679665565490723, 2.6384096145629883, 0.0576171875, 0.19873046875, -0.81103515625
309, 3035436158, -5.250823974609375, -2.134573459625244, 7.829038143157959, -3.5091986656188965, 12.164517402648926, 4.56400728225708, 0.05810546875, 0.199951171875, -0.808349609375
310, 3035452825, -5.1831746101379395, -2.1233067512512207, 7.895218849182129, -6.8777594566345215, 15.839234352111816, 5.594235420227051, 0.06494140625, 0.199462890625, -0.810791015625
311, 3035469492, -5.0911407470703125, -2.3848876953125, 8.034625053405762, -11.766146659851074, 23.450685501098633, 9.711304664611816, 0.0712890625, 0.203369140625, -0.80859375
312, 3035486159, -4.458813667297363, -2.546344518661499, 8.713848114013672, -14.085039138793945, 33.30886459350586, 17.051332473754883, 0.077880859375, 0.20556640625, -0.8076171875
313, 3035502826, -4.721723556518555, -2.29044771194458, 8.8673677444458, -13.84683895111084, 55.69910430908203, 19.623506546020508, 0.09130859375, 0.207763671875, -0.8017578125
314, 3035519493, -4.714530944824219, -1.9716980457305908, 9.12961483001709, -22.701459884643555, 82.15306854248047, 24.042402267456055, 0.110595703125, 0.2099609375, -0.7998046875
315, 3035536160, -4.980301380157471, -2.372405767440796, 9.457839012145996, -36.95111846923828, 113.5970458984375, 34.039241790771484, 0.135498046875, 0.216064453125, -0.789794921875
316, 3035552827, -5.664978981018066, -2.63769268989563, 9.617289543151855, -47.37963104248047, 139.70114135742188, 49.97309494018555, 0.16943359375, 0.222900390625, -0.779296875
317, 3035569494, -7.075172424316406, -3.547271966934204, 10.491382598876953, -71.20832061767578, 145.7589111328125, 62.58200454711914, 0.2041015625, 0.234130859375, -0.761962890625
318, 3035586161, -7.523463726043701, -4.93698787689209, 9.235645294189453, -68.9239501953125, 128.59527587890625, 81.44309997558594, 0.243896484375, 0.2421875, -0.745849609375
319, 3035602828, -5.38814115524292, -2.870288372039795, 10.27917766571045, -72.22700500488281, 103.5029067993164, 89.10357666015625, 0.273681640625, 0.248291015625, -0.7275390625
320, 3035619495, -4.610480785369873, -4.431002616882324, 15.2833251953125, -68.47111511230469, 52.266090393066406, 87.31585693359375, 0.29345703125, 0.25244140625, -0.711669921875
321, 3035636162, -0.2368755042552948, -6.138156414031982, 14.974458694458008, -38.05120086669922, -14.531898498535156, 69.20653533935547, 0.308349609375, 0.252197265625, -0.701416015625
322, 3035652829, 3.872413396835327, -4.073027610778809, 12.909586906433105, -8.695406913757324, -49.59340286254883, 49.4316520690918, 0.304931640625, 0.2490234375, -0.700439453125
323, 3035669496, 4.619103908538818, -2.4361186027526855, 12.64018726348877, -15.828392028808594, -68.28028106689453, 24.113677978515625, 0.301513671875, 0.242431640625, -0.699462890625
324, 3035686163, 3.853721857070923, -3.1312522888183594, 12.489200592041016, -27.371822357177734, -87.55374145507812, -0.8161728382110596, 0.2880859375, 0.240966796875, -0.693603515625
325, 3035702830, 2.6546990871429443, -3.4195220470428467, 12.026789665222168, -19.89623260498047, -106.51859283447266, -20.09929656982422, 0.276123046875, 0.24169921875, -0.697509765625
326, 3035719497, 1.2763292789459229, -3.001703977584839, 11.512222290039062, -11.3279447555542, -118.65638732910156, -38.308956146240234, 0.2587890625, 0.240478515625, -0.69873046875
327, 3035736164, -0.15698252618312836, -3.0565192699432373, 10.794940948486328, -4.49990177154541, -120.76639556884766, -52.68519592285156, 0.24169921875, 0.240966796875, -0.70068359375
328, 3035752831, -2.370018720626831, -3.240847110748291, 10.631808280944824, 2.4683384895324707, -115.75493621826172, -63.31051254272461, 0.227294921875, 0.243408203125, -0.708984375
329, 3035769498, -4.714642524719238, -3.499621868133545, 10.55487060546875, 9.760202407836914, -110.50399017333984, -70.05838012695312, 0.213623046875, 0.250732421875, -0.716796875
330, 3035786165, -6.859348297119141, -3.511414051055908, 10.424684524536133, 15.107144355773926, -107.3768081665039, -72.69908142089844, 0.19970703125, 0.2568359375, -0.730712890625
331, 3035802832, -8.158580780029297, -3.432861804962158, 9.941401481628418, 17.411611557006836, -106.51219177246094, -72.06434631347656, 0.181640625, 0.26611328125, -0.74462890625
332, 3035819499, -8.654574394226074, -3.175509452819824, 9.157764434814453, 17.6096248626709, -102.99028015136719, -66.57258605957031, 0.161865234375, 0.278564453125, -0.75927734375
333, 3035836166, -9.119887351989746, -2.7605581283569336, 8.83834457397461, 12.228103637695312, -95.3043441772461, -58.36001205444336, 0.133544921875, 0.2880859375, -0.77880859375
334, 3035852833, -10.519972801208496, -2.553593635559082, 8.894253730773926, -0.9221705198287964, -92.18285369873047, -52.02733612060547, 0.10595703125, 0.29736328125, -0.793701171875
335, 3035869500, -11.289095878601074, -2.6740801334381104, 8.374460220336914, -14.639266014099121, -100.11702728271484, -48.08183670043945, 0.074951171875, 0.3037109375, -0.80224609375
336, 3035886167, -10.629544258117676, -2.7625997066497803, 7.014004707336426, -18.59901237487793, -111.0406265258789, -40.60965347290039, 0.036865234375, 0.31396484375, -0.806640625
337, 3035902834, -9.679879188537598, -1.6423786878585815, 5.8019585609436035, -20.216392517089844, -113.57952117919922, -29.223609924316406, 0.003173828125, 0.321533203125, -0.809814453125
338, 3035919501, -9.824856758117676, -0.4426504969596863, 4.487483024597168, -30.670780181884766, -109.12726593017578, -17.048383712768555, -0.03076171875, 0.32470703125, -0.80712890625
339, 3035936168, -10.418721199035645, 0.6636605858802795, 3.3582515716552734, -46.455955505371094, -101.48365783691406, 1.4277081489562988, -0.058349609375, 0.337646484375, -0.79931640625
340, 3035952835, -11.286478042602539, 1.646498680114746, 1.5450533628463745, -68.86048126220703, -92.44364166259766, 23.52189826965332, -0.0810546875, 0.35107421875, -0.795654296875
341, 3035969502, -11.286458015441895, 1.117388367652893, -0.8330415487289429, -81.56227111816406, -75.73683166503906, 48.49477767944336, -0.0986328125, 0.369384765625, -0.78466796875
342, 3035986169, -10.034214973449707, -0.21405306458473206, -1.9204554557800293, -73.20987701416016, -42.46786117553711, 71.79454040527344, -0.1044921875, 0.386474609375, -0.7734375
343, 3036002836, -9.770540237426758, -1.8709145784378052, -1.1154268980026245, -58.558013916015625, -1.425282597541809, 82.3998794555664, -0.09814453125, 0.401611328125, -0.765380859375
344, 3036019503, -11.267497062683105, -3.6972615718841553, 0.47206568717956543, -47.878448486328125, 27.731473922729492, 72.49335479736328, -0.08447265625, 0.413330078125, -0.76123046875
345, 3036036170, -8.522028923034668, -7.021539211273193, -2.249631404876709, 23.42469596862793, 90.6224136352539, 62.750274658203125, -0.0654296875, 0.41455078125, -0.76123046875
346, 3036052837, -4.025603294372559, -7.296677112579346, 8.660584449768066, 32.42306137084961, 127.46570587158203, 29.119173049926758, -0.034912109375, 0.4052734375, -0.76708984375
347, 3036069504, -2.9303009510040283, -8.077766418457031, 7.608278751373291, 44.469974517822266, 123.80023956298828, 9.608661651611328, -0.00537109375, 0.396484375, -0.7705078125
348, 3036086171, -4.666816711425781, -2.74098539352417, 7.134411334991455, 45.981056213378906, 142.43531799316406, 9.713700294494629, 0.025634765625, 0.384033203125, -0.772705078125
349, 3036102838, -9.86784553527832, -2.730349063873291, 10.343894958496094, 40.003822326660156, 141.84266662597656, -12.263435363769531, 0.05419921875, 0.373779296875, -0.774169921875
350, 3036119505, -11.104883193969727, 3.0073513984680176, 12.9932279586792, 41.320892333984375, 103.74150848388672, 14.330438613891602, 0.082275390625, 0.363525390625, -0.77490234375
351, 3036136172, -8.304163932800293, 3.7080743312835693, 11.361413955688477, 13.792742729187012, 66.23344421386719, 35.6357536315918, 0.103515625, 0.3544921875, -0.7744140625
352, 3036152839, -10.157814025878906, -6.917481422424316, 9.552839279174805, 18.670446395874023, 44.36540985107422, 42.423519134521484, 0.118896484375, 0.352783203125, -0.776123046875
353, 3036169506, -7.000652313232422, -4.911972999572754, 5.537822723388672, 50.65828323364258, 15.604644775390625, 25.430910110473633, 0.124267578125, 0.338134765625, -0.779052734375
354, 3036186173, -7.385515213012695, -1.8435171842575073, 9.55634593963623, 43.73118209838867, 4.689271926879883, 23.293384552001953, 0.1298828125, 0.3271484375, -0.78369140625
355, 3036202840, -6.23090124130249, -2.3593075275421143, 8.366425514221191, 39.14611053466797, 0.02299395203590393, 18.076786041259766, 0.130615234375, 0.316650390625, -0.78662109375
356, 3036219507, -6.346248149871826, -2.1346802711486816, 8.31035327911377, 25.541316986083984, -4.633606433868408, 11.395883560180664, 0.131103515625, 0.30810546875, -0.790283203125
357, 3036236174, -5.4044036865234375, -2.147315740585327, 8.189414024353027, 20.14689064025879, -5.646368503570557, 9.029651641845703, 0.13134765625, 0.301513671875, -0.791015625
358, 3036252841, -5.464757442474365, -1.9126315116882324, 8.080124855041504, 13.41515827178955, -4.209105491638184, 6.1590986251831055, 0.1318359375, 0.299560546875, -0.794677734375
359, 3036269508, -5.256417274475098, -1.9591654539108276, 8.057089805603027, 5.768717288970947, -1.177364706993103, 2.4787397384643555, 0.13134765625, 0.298095703125, -0.795654296875
360, 3036286175, -5.432351589202881, -2.1761865615844727, 7.951333045959473, 1.6178839206695557, 1.175847053527832, 0.7644047141075134, 0.1318359375, 0.297119140625, -0.794189453125
361, 3036302842, -5.447838306427002, -2.610377550125122, 7.73365592956543, 1.3439304828643799, 2.170682907104492, 1.0581309795379639, 0.13330078125, 0.2939453125, -0.795166015625
362, 3036319509, -5.443006992340088, -2.669468641281128, 7.618593215942383, 4.052781105041504, 1.236626148223877, 2.959118604660034, 0.1328125, 0.29248046875, -0.795166015625
363, 3036336176, -5.413501739501953, -2.449338912963867, 7.643653392791748, 7.201389312744141, -0.909801721572876, 5.051766395568848, 0.1328125, 0.29345703125, -0.795654296875
364, 3036352843, -5.309119701385498, -2.3187649250030518, 7.703147888183594, 11.120010375976562, -3.1420528888702393, 6.924122333526611, 0.13330078125, 0.2900390625, -0.797119140625
365, 3036369510, -5.39509916305542, -2.314892292022705, 7.726752281188965, 14.560153007507324, -5.892753601074219, 8.198786735534668, 0.13134765625, 0.287109375, -0.799560546875
366, 3036386177, -5.479062080383301, -2.28423810005188, 7.729227542877197, 16.80510139465332, -9.768519401550293, 9.067582130432129, 0.132568359375, 0.283447265625, -0.801025390625
367, 3036402844, -5.453195571899414, -2.0093576908111572, 7.8339433670043945, 15.147942543029785, -9.955683708190918, 7.634714603424072, 0.131103515625, 0.279541015625, -0.799072265625
368, 3036419511, -5.23652982711792, -1.9736359119415283, 7.857424259185791, 13.5435152053833, -9.103107452392578, 7.481328964233398, 0.128662109375, 0.2763671875, -0.804443359375
369, 3036436178, -5.246952533721924, -1.7517783641815186, 7.9965081214904785, 9.646676063537598, -5.383420467376709, 6.39433479309082, 0.129150390625, 0.2724609375, -0.806396484375
370, 3036452845, -5.116295337677002, -1.710439920425415, 8.07565689086914, 5.64174222946167, -0.4059741497039795, 4.99862003326416, 0.127197265625, 0.27099609375, -0.804443359375
371, 3036469512, -5.081239700317383, -2.2056782245635986, 7.915175437927246, 3.523507595062256, 3.9104387760162354, 5.694760322570801, 0.13037109375, 0.268798828125, -0.806884765625
372, 3036486179, -5.1044840812683105, -2.3502025604248047, 7.8416523933410645, 5.0064849853515625, 6.528199672698975, 8.912206649780273, 0.1328125, 0.265380859375, -0.805419921875
373, 3036502846, -5.217865943908691, -2.3056559562683105, 7.819474220275879, 6.001323223114014, 8.276028633117676, 12.2756986618042, 0.13720703125, 0.263916015625, -0.8056640625
374, 3036519513, -5.245645046234131, -2.225325584411621, 7.999505519866943, 5.916625499725342, 10.663830757141113, 15.61055850982666, 0.13818359375, 0.263427734375, -0.80224609375
375, 3036536180, -4.934822082519531, -2.1318273544311523, 8.201932907104492, 6.188522815704346, 16.612314224243164, 17.453989028930664, 0.142822265625, 0.260986328125, -0.8037109375
376, 3036552847, -4.992471694946289, -2.0327670574188232, 8.465753555297852, 5.31540584564209, 26.95201301574707, 19.44915199279785, 0.150390625, 0.258056640625, -0.802978515625
377, 3036569514, -4.559910297393799, -1.4979912042617798, 9.05774974822998, 4.027215957641602, 45.519718170166016, 19.455955505371094, 0.161865234375, 0.256103515625, -0.80419921875
378, 3036586181, -4.903875350952148, -1.712649941444397, 8.996797561645508, 2.6308906078338623, 71.20265197753906, 17.806652069091797, 0.17626953125, 0.253173828125, -0.798828125
379, 3036602848, -4.79095983505249, -2.376271963119507, 9.193016052246094, 6.461224555969238, 101.84542083740234, 21.994041442871094, 0.19873046875, 0.249755859375, -0.79296875
380, 3036619515, -4.89569616317749, -3.3312957286834717, 9.939831733703613, 11.21391487121582, 138.1283721923828, 35.5986328125, 0.230712890625, 0.2451171875, -0.78564453125
381, 3036636182, -4.5191755294799805, -3.0267531871795654, 10.330735206604004, 17.854522705078125, 185.21482849121094, 61.00905227661133, 0.272216796875, 0.23828125, -0.772216796875
382, 3036652849, -5.035244941711426, -3.4931015968322754, 11.290423393249512, 15.490365028381348, 257.6111755371094, 94.82445526123047, 0.328369140625, 0.224853515625, -0.74951171875
383, 3036669516, -5.623381614685059, -4.90334415435791, 11.583168983459473, 28.172555923461914, 326.13665771484375, 140.48915100097656, 0.400390625, 0.203125, -0.712158203125
384, 3036686183, -6.738378047943115, -3.5205018520355225, 13.260443687438965, 14.448887825012207, 379.89117431640625, 179.76441955566406, 0.482666015625, 0.17919921875, -0.6591796875
385, 3036702850, -13.052858352661133, -4.38878870010376, 16.401092529296875, 3.544858932495117, 413.76873779296875, 205.59947204589844, 0.56689453125, 0.139404296875, -0.591064453125
386, 3036719517, -16.56917381286621, -5.952363967895508, 16.14249038696289, 19.098264694213867, 396.4742431640625, 210.75477600097656, 0.637939453125, 0.09814453125, -0.512451171875
387, 3036736184, -15.394585609436035, -5.885826110839844, 16.756155014038086, 9.760143280029297, 327.98931884765625, 194.1975555419922, 0.69384765625, 0.05419921875, -0.439208984375
388, 3036752851, -2.4159135818481445, -7.849246978759766, 15.326595306396484, 16.056133270263672, 278.398193359375, 172.77503967285156, 0.728759765625, 0.01123046875, -0.373046875
389, 3036769518, -16.971942901611328, -16.829254150390625, 25.533594131469727, -42.6514892578125, 160.34762573242188, 11.612482070922852, 0.751953125, -0.0029296875, -0.318115234375
390, 3036786185, -6.167223930358887, -17.215980529785156, 19.433238983154297, 2.1811230182647705, -37.81867980957031, -118.20669555664062, 0.758544921875, 0.01416015625, -0.3076171875
391, 3036802852, 4.526681423187256, -10.221978187561035, 10.971305847167969, 89.33135986328125, -95.79875183105469, -168.59072875976562, 0.7587890625, 0.037353515625, -0.314208984375
392, 3036819519, 5.304174423217773, -3.049046277999878, 8.756510734558105, 121.9984359741211, -94.85653686523438, -183.47015380859375, 0.759521484375, 0.06298828125, -0.328125
393, 3036836186, 2.7065579891204834, 0.4425296485424042, 9.071442604064941, 101.3814926147461, -103.85585021972656, -186.47940063476562, 0.77099609375, 0.09130859375, -0.349609375
394, 3036852853, 0.0902576670050621, 1.7011982202529907, 9.236407279968262, 74.65348052978516, -132.81524658203125, -174.18211364746094, 0.781982421875, 0.126953125, -0.392333984375
395, 3036869520, -2.353396415710449, 2.556844472885132, 9.416577339172363, 51.69461441040039, -170.96328735351562, -145.5534210205078, 0.778076171875, 0.1572265625, -0.453857421875
396, 3036886187, -4.920697212219238, 2.3628227710723877, 9.482219696044922, 28.803112030029297, -213.38754272460938, -114.2380142211914, 0.746337890625, 0.17919921875, -0.535400390625
397, 3036902854, -7.04425573348999, 1.4608941078186035, 9.123905181884766, 10.135229110717773, -254.37509155273438, -90.44511413574219, 0.681396484375, 0.19580078125, -0.6181640625
398, 3036919521, -8.277667999267578, 0.37041541934013367, 8.73571491241455, -5.593830585479736, -286.669189453125, -75.57096099853516, 0.600830078125, 0.208251953125, -0.677490234375
399, 3036936188, -9.350778579711914, -0.8686233758926392, 8.797477722167969, -20.247182846069336, -305.4851989746094, -70.46680450439453, 0.52392578125, 0.225830078125, -0.718505859375
400, 3036952855, -10.964554786682129, -1.8796228170394897, 9.790292739868164, -36.76594161987305, -316.1152648925781, -74.40154266357422, 0.459716796875, 0.25146484375, -0.75439453125
401, 3036969522, -13.121246337890625, -2.757197380065918, 10.476423263549805, -57.15152359008789, -321.03326416015625, -82.17521667480469, 0.391357421875, 0.28271484375, -0.802734375
402, 3036986189, -16.818918228149414, -2.4380722045898438, 9.38834285736084, -74.01490020751953, -312.059814453125, -82.95137023925781, 0.29345703125, 0.32275390625, -0.850830078125
403, 3037002856, -22.860721588134766, -1.2805579900741577, 7.675060272216797, -96.38835144042969, -292.4747009277344, -82.49008178710938, 0.183837890625, 0.35595703125, -0.861328125
404, 3037019523, -29.522186279296875, -2.075235605239868, 5.0841546058654785, -113.00736999511719, -287.96356201171875, -89.18040466308594, 0.07275390625, 0.38330078125, -0.8486328125
405, 3037036190, -32.18384552001953, -4.093807220458984, -0.4511169195175171, -87.2972412109375, -288.0636291503906, -91.13229370117188, -0.015380859375, 0.39892578125, -0.822998046875
406, 3037052857, -29.442092895507812, -2.1848225593566895, -7.492488861083984, -30.2197322845459, -263.2023620605469, -71.16021728515625, -0.0908203125, 0.40283203125, -0.80224609375
407, 3037069524, -28.04718780517578, 5.083168983459473, -11.988371849060059, -21.246376037597656, -196.13558959960938, -54.7040901184082, -0.146484375, 0.400634765625, -0.787841796875
408, 3037086191, -25.471616744995117, 9.977925300598145, -18.673465728759766, -50.89352798461914, -63.6431770324707, -55.78630065917969, -0.18017578125, 0.406005859375, -0.77099609375
409, 3037102858, -21.924623489379883, 12.094242095947266, -25.431758880615234, 12.148368835449219, 128.83261108398438, 21.097999572753906, -0.16015625, 0.405029296875, -0.771728515625
410, 3037119525, -10.879402160644531, -2.030841112136841, 7.2476277351379395, 66.31759643554688, 217.5299072265625, 90.09760284423828, -0.109130859375, 0.392578125, -0.780029296875
411, 3037136192, -10.33189868927002, -9.29651165008545, 19.13386344909668, 68.66593933105469, 119.00047302246094, 67.60127258300781, -0.06982421875, 0.374267578125, -0.787109375
412, 3037152859, -2.2147278785705566, 1.6788535118103027, 3.6690046787261963, 42.16481399536133, 153.99171447753906, 72.88147735595703, -0.035888671875, 0.365966796875, -0.787353515625
413, 3037169526, -16.802120208740234, -0.7644603252410889, 15.297420501708984, 27.855403900146484, 157.20167541503906, 50.635616302490234, 0.0087890625, 0.35693359375, -0.79052734375
414, 3037186193, -20.801284790039062, -3.812657356262207, 13.374842643737793, 58.52153396606445, 55.11375045776367, 52.30995559692383, 0.033447265625, 0.345458984375, -0.79345703125
415, 3037202860, -6.189307689666748, -2.5744218826293945, 8.118284225463867, 46.358280181884766, 13.42910385131836, 25.982032775878906, 0.0361328125, 0.33203125, -0.79638671875
416, 3037219527, -6.130341529846191, -1.8927065134048462, 8.695292472839355, 41.506900787353516, 2.3464934825897217, 22.222640991210938, 0.039306640625, 0.3212890625, -0.799072265625
417, 3037236194, -6.684872150421143, -1.668367862701416, 8.700321197509766, 23.598735809326172, -2.945518970489502, 11.276627540588379, 0.043701171875, 0.31396484375, -0.800537109375
418, 3037252861, -5.4702348709106445, -2.461743116378784, 8.199987411499023, 16.507766723632812, -2.5697124004364014, 7.99936056137085, 0.041259765625, 0.309326171875, -0.802490234375
419, 3037269528, -5.700966835021973, -2.163085460662842, 8.014189720153809, 10.606050491333008, -2.6903207302093506, 5.062960147857666, 0.04150390625, 0.304931640625, -0.805419921875
420, 3037286195, -5.2704949378967285, -2.5389320850372314, 7.75909423828125, 10.53276252746582, -4.982543468475342, 6.019058704376221, 0.03857421875, 0.3017578125, -0.8076171875
421, 3037302862, -5.346358776092529, -2.477764129638672, 7.850423336029053, 12.531440734863281, -5.488448143005371, 7.429423809051514, 0.04150390625, 0.3037109375, -0.80810546875
422, 3037319529, -5.220370769500732, -2.554504871368408, 7.922116279602051, 13.4984769821167, -4.757922649383545, 8.400545120239258, 0.041015625, 0.295166015625, -0.807861328125
423, 3037336196, -5.4416279792785645, -2.0234079360961914, 7.988028049468994, 10.482048988342285, -2.491528272628784, 7.7548322677612305, 0.0390625, 0.291748046875, -0.807861328125
424, 3037352863, -5.42229700088501, -1.682948112487793, 8.033743858337402, 5.747099876403809, 0.5341721773147583, 5.213664531707764, 0.04052734375, 0.291259765625, -0.81005859375
425, 3037369530, -5.255002498626709, -1.7212475538253784, 8.092439651489258, 1.2776318788528442, 4.119668960571289, 2.720600128173828, 0.043212890625, 0.292236328125, -0.8115234375
426, 3037386197, -5.376440525054932, -2.0639395713806152, 7.954684734344482, -0.8141510486602783, 7.531869888305664, 0.7433127164840698, 0.043701171875, 0.291748046875, -0.809814453125
427, 3037402864, -5.372435092926025, -2.3094429969787598, 7.790703773498535, -1.433120608329773, 8.479720115661621, -0.43868163228034973, 0.047119140625, 0.289794921875, -0.809326171875
428, 3037419531, -5.363518238067627, -2.48032283782959, 7.718385219573975, -1.7249518632888794, 8.420464515686035, 0.5422786474227905, 0.048095703125, 0.290771484375, -0.807373046875
429, 3037436198, -5.530757427215576, -2.3779995441436768, 7.5537919998168945, 0.3073204755783081, 7.213057041168213, 1.7934465408325195, 0.052001953125, 0.292724609375, -0.8056640625
430, 3037452865, -5.409155368804932, -2.2732503414154053, 7.700530529022217, 2.6364243030548096, 5.97498893737793, 3.4508957862854004, 0.051025390625, 0.2939453125, -0.80712890625
431, 3037469532, -5.2575602531433105, -2.3837170600891113, 7.689598083496094, 3.650277614593506, 6.886174201965332, 5.015281677246094, 0.0537109375, 0.289794921875, -0.80908203125
432, 3037486199, -5.121109485626221, -2.695972204208374, 7.687287330627441, 5.038329601287842, 7.576996326446533, 10.121670722961426, 0.05517578125, 0.288330078125, -0.80810546875
433, 3037502866, -5.41480827331543, -2.355522394180298, 7.685357093811035, 4.457710266113281, 8.300209045410156, 15.437836647033691, 0.05712890625, 0.285400390625, -0.80810546875
434, 3037519533, -5.139961242675781, -2.3008217811584473, 7.970626354217529, 3.9708521366119385, 11.970978736877441, 17.73867416381836, 0.063720703125, 0.284423828125, -0.810546875
435, 3037536200, -4.926550388336182, -2.251540184020996, 8.385724067687988, 2.395197629928589, 19.807296752929688, 19.661190032958984, 0.068115234375, 0.284423828125, -0.806884765625
436, 3037552867, -4.88547420501709, -1.7583820819854736, 8.646835327148438, 0.010021026246249676, 36.52933883666992, 18.192466735839844, 0.07861328125, 0.283935546875, -0.80517578125
437, 3037569534, -4.707507133483887, -1.7034486532211304, 8.963752746582031, -3.8234405517578125, 61.04536437988281, 15.317523956298828, 0.093017578125, 0.28515625, -0.8037109375
438, 3037586201, -4.90172815322876, -1.7448397874832153, 9.021516799926758, -9.788952827453613, 90.39378356933594, 14.681809425354004, 0.112548828125, 0.285400390625, -0.7998046875
439, 3037602868, -5.183490753173828, -1.8254024982452393, 9.044905662536621, -13.648947715759277, 124.00749206542969, 15.973270416259766, 0.138916015625, 0.28662109375, -0.790771484375
440, 3037619535, -4.823655128479004, -2.2664871215820312, 9.265180587768555, -11.764714241027832, 163.5684051513672, 23.225507736206055, 0.17529296875, 0.287353515625, -0.781494140625
441, 3037636202, -4.9137067794799805, -2.86008358001709, 9.277766227722168, -13.64329719543457, 216.50039672851562, 37.40446090698242, 0.22119140625, 0.288818359375, -0.7646484375
442, 3037652869, -4.931710720062256, -4.989546298980713, 10.123174667358398, -3.6366803646087646, 283.0694885253906, 67.50580596923828, 0.28466796875, 0.283203125, -0.73828125
443, 3037669536, -6.238860130310059, -5.282542705535889, 11.246845245361328, 5.715726852416992, 353.0200500488281, 116.0179214477539, 0.364013671875, 0.271728515625, -0.705810546875
444, 3037686203, -7.0351691246032715, -4.5615410804748535, 11.118491172790527, -6.2267608642578125, 413.7149353027344, 169.1850128173828, 0.45166015625, 0.249267578125, -0.64990234375
445, 3037702870, -16.33595848083496, -6.416907787322998, 15.778533935546875, -29.935165405273438, 436.8934020996094, 197.06170654296875, 0.546630859375, 0.22216796875, -0.577880859375
446, 3037719537, -17.76729965209961, -4.521892547607422, 15.760791778564453, -54.0981330871582, 414.8471374511719, 183.94102478027344, 0.624267578125, 0.193115234375, -0.497314453125
447, 3037736204, -17.071582794189453, -6.70906400680542, 16.534713745117188, -79.66958618164062, 352.7572937011719, 170.70831298828125, 0.68408203125, 0.16064453125, -0.4150390625
448, 3037752871, -6.719933986663818, -7.85282039642334, 15.641623497009277, -58.67991638183594, 283.7127380371094, 193.5386199951172, 0.728515625, 0.125244140625, -0.3447265625
449, 3037769538, -10.810625076293945, -18.922908782958984, 21.861370086669922, -23.493783950805664, 208.33560180664062, 126.4056167602539, 0.754150390625, 0.086181640625, -0.28564453125
450, 3037786205, -14.771484375, -20.20671844482422, 26.008567810058594, 4.914961338043213, -51.579933166503906, -36.83335494995117, 0.752685546875, 0.08154296875, -0.277099609375
451, 3037802872, 1.6890993118286133, -13.521313667297363, 13.708449363708496, 80.73294830322266, -177.15567016601562, -112.03126525878906, 0.736083984375, 0.087890625, -0.30615234375
452, 3037819539, 4.962386131286621, -5.464108467102051, 8.77839183807373, 114.97071838378906, -181.35690307617188, -132.7300567626953, 0.714111328125, 0.095947265625, -0.3408203125
453, 3037836206, 3.0842108726501465, -0.9830219745635986, 8.204109191894531, 89.47693634033203, -166.89984130859375, -143.56900024414062, 0.697021484375, 0.1064453125, -0.370849609375
454, 3037852873, 0.32695555686950684, 0.6270288825035095, 8.586893081665039, 47.0946044921875, -163.389892578125, -152.48529052734375, 0.68115234375, 0.123046875, -0.39990234375
455, 3037869540, -2.290679931640625, 0.5324660539627075, 8.635146141052246, 26.419260025024414, -175.66334533691406, -140.96389770507812, 0.67041015625, 0.148193359375, -0.436767578125
456, 3037886207, -5.252241611480713, 0.5370791554450989, 9.279176712036133, 22.07335090637207, -202.61865234375, -115.3350830078125, 0.651123046875, 0.173583984375, -0.484619140625
457, 3037902874, -7.722677230834961, 0.5336658954620361, 9.718481063842773, 15.426352500915527, -239.83779907226562, -95.12559509277344, 0.607421875, 0.198486328125, -0.544921875
458, 3037919541, -8.920753479003906, -0.05043311417102814, 9.789994239807129, 3.3462393283843994, -274.8464050292969, -82.27884674072266, 0.5302734375, 0.217041015625, -0.604248046875
459, 3037936208, -10.318931579589844, -0.933620810508728, 9.989006042480469, -13.647505760192871, -302.0632019042969, -76.98401641845703, 0.4345703125, 0.225341796875, -0.638427734375
460, 3037952875, -12.256680488586426, -1.8667550086975098, 10.52933406829834, -37.03337097167969, -325.186279296875, -82.00349426269531, 0.33935546875, 0.218505859375, -0.643798828125
461, 3037969542, -13.552550315856934, -2.8419158458709717, 10.483122825622559, -63.12800979614258, -345.6658630371094, -92.70940399169922, 0.269287109375, 0.205322265625, -0.633544921875
462, 3037986209, -14.755769729614258, -3.4974701404571533, 9.174468994140625, -84.70398712158203, -346.1186828613281, -98.44206237792969, 0.233154296875, 0.186279296875, -0.609130859375
463, 3038002876, -16.919368743896484, -4.127402305603027, 7.692982196807861, -95.45321655273438, -314.07623291015625, -99.11734008789062, 0.25537109375, 0.17138671875, -0.60693359375
464, 3038019543, -24.06583595275879, -4.54485559463501, 8.215987205505371, -101.48624420166016, -274.738037109375, -114.95144653320312, 0.315673828125, 0.19580078125, -0.65625
465, 3038036210, -32.33711624145508, -6.221837520599365, 6.495452404022217, -91.47808074951172, -282.5803527832031, -146.18504333496094, 0.3271484375, 0.276123046875, -0.75927734375
466, 3038052877, -31.923677444458008, -3.29724383354187, 0.012432694435119629, -46.21741485595703, -295.6741638183594, -151.15170288085938, 0.240966796875, 0.364013671875, -0.84619140625
467, 3038069544, -29.179306030273438, 4.705397605895996, -8.332849502563477, -31.497270584106445, -256.7413330078125, -134.07525634765625, 0.120361328125, 0.425048828125, -0.883544921875
468, 3038086211, -31.74907684326172, 12.793973922729492, -16.867511749267578, -43.0185661315918, -171.77114868164062, -104.25041198730469, 0.023193359375, 0.46337890625, -0.889892578125
469, 3038102878, -30.21441078186035, 14.788289070129395, -25.182519912719727, -45.040523529052734, -29.323850631713867, -39.434329986572266, -0.025634765625, 0.4931640625, -0.883056640625
470, 3038119545, -16.73309898376465, 9.948698043823242, -20.808032989501953, 76.23542785644531, 159.5270233154297, 125.90836334228516, 0.004638671875, 0.492919921875, -0.89599609375
471, 3038136212, -12.317181587219238, -12.9065580368042, 18.491769790649414, 114.05303955078125, 178.55479431152344, 141.20237731933594, 0.080322265625, 0.47900390625, -0.9228515625
472, 3038152879, -4.687077522277832, -11.387086868286133, 7.301233768463135, 106.27627563476562, 120.68637084960938, 84.6329116821289, 0.12158203125, 0.456787109375, -0.93896484375
473, 3038169546, -4.896811485290527, 1.9407209157943726, 7.084133148193359, 68.06456756591797, 200.1373291015625, 33.981178283691406, 0.17041015625, 0.45068359375, -0.946533203125
474, 3038186213, -15.262605667114258, 7.023838996887207, 18.221418380737305, 46.782867431640625, 181.5850067138672, 30.918838500976562, 0.224365234375, 0.445556640625, -0.9462890625
475, 3038202880, -12.239505767822266, 6.411490440368652, 12.585895538330078, 3.512028932571411, 110.2850341796875, 71.39349365234375, 0.262939453125, 0.44384765625, -0.943603515625
476, 3038219547, -18.09003257751465, -16.761287689208984, 8.424697875976562, 56.46377944946289, 47.040061950683594, 52.927093505859375, 0.29345703125, 0.4306640625, -0.9453125
477, 3038236214, -7.125385761260986, 2.379025459289551, 10.870226860046387, 54.11492919921875, 31.222509384155273, 32.777957916259766, 0.30810546875, 0.412109375, -0.950927734375
478, 3038252881, -6.160794734954834, -3.6352391242980957, 7.3935723304748535, 34.5587272644043, 6.995410442352295, 17.313631057739258, 0.308349609375, 0.404052734375, -0.958984375
479, 3038269548, -6.151534080505371, -1.0809837579727173, 9.096482276916504, 25.166730880737305, 4.256439208984375, 11.925901412963867, 0.3115234375, 0.3955078125, -0.960693359375
480, 3038286215, -5.688981533050537, -2.455325126647949, 7.966338157653809, 15.112051963806152, 1.309213399887085, 6.640565872192383, 0.314453125, 0.3896484375, -0.964599609375
481, 3038302882, -5.521914005279541, -2.390638589859009, 7.937165260314941, 10.656943321228027, 1.604962944984436, 4.348519802093506, 0.314208984375, 0.385986328125, -0.963623046875
482, 3038319549, -5.672889232635498, -2.1375184059143066, 8.27174186706543, 5.3767523765563965, 1.7211159467697144, 0.8789446353912354, 0.314697265625, 0.383544921875, -0.963623046875
483, 3038336216, -5.514094352722168, -2.1728920936584473, 7.955888271331787, 1.3690952062606812, 4.559580326080322, 0.19445806741714478, 0.318603515625, 0.384521484375, -0.967041015625
484, 3038352883, -5.280062198638916, -2.5060272216796875, 7.782816410064697, 0.5550336241722107, 5.585111618041992, 0.7240005135536194, 0.317138671875, 0.385009765625, -0.966064453125
485, 3038369550, -5.201513290405273, -2.5667600631713867, 7.64251184463501, 2.6768155097961426, 5.167637825012207, 3.2083685398101807, 0.319091796875, 0.383056640625, -0.964599609375
486, 3038386217, -5.596582412719727, -2.221266269683838, 7.686992645263672, 3.329568386077881, 4.414560317993164, 3.7440202236175537, 0.322998046875, 0.383056640625, -0.966064453125
487, 3038402884, -5.646350383758545, -2.198133707046509, 7.716877460479736, 3.1670303344726562, 3.570955276489258, 2.4381823539733887, 0.322021484375, 0.381103515625, -0.962890625
488, 3038419551, -5.631996154785156, -2.2095067501068115, 7.697591304779053, 1.9987319707870483, 2.7599925994873047, 1.4180792570114136, 0.3251953125, 0.383056640625, -0.966064453125
489, 3038436218, -5.344252586364746, -2.40042781829834, 7.589191913604736, 2.1385133266448975, 1.9997690916061401, 1.4748879671096802, 0.32568359375, 0.382080078125, -0.962890625
490, 3038452885, -5.348827362060547, -2.4708151817321777, 7.644415378570557, 3.308027505874634, 1.166524052619934, 3.228436231613159, 0.32763671875, 0.379638671875, -0.96533203125
491, 3038469552, -5.524232864379883, -2.38181209564209, 7.582793235778809, 3.5071024894714355, 1.2719331979751587, 3.505539894104004, 0.3271484375, 0.379150390625, -0.96533203125
492, 3038486219, -5.35370397567749, -2.5743136405944824, 7.504533767700195, 4.079059600830078, 1.1298468112945557, 4.625699043273926, 0.3291015625, 0.378662109375, -0.96630859375
493, 3038502886, -5.253271102905273, -2.3901925086975098, 7.689662456512451, 4.6720194816589355, 1.5208886861801147, 6.891603946685791, 0.329345703125, 0.374267578125, -0.9658203125
494, 3038519553, -5.046846866607666, -2.591357707977295, 7.685559272766113, 7.207629680633545, 2.5597922801971436, 10.844442367553711, 0.329833984375, 0.3720703125, -0.966796875
495, 3038536220, -5.173187255859375, -2.6042840480804443, 7.75349760055542, 8.698803901672363, 3.086249828338623, 14.81778621673584, 0.331787109375, 0.3701171875, -0.96630859375
496, 3038552887, -5.22883415222168, -2.396122455596924, 7.850783348083496, 6.915445327758789, 7.821495532989502, 17.725582122802734, 0.3349609375, 0.363525390625, -0.967529296875
497, 3038569554, -4.943269729614258, -2.432393789291382, 8.500855445861816, -0.2027251422405243, 17.56955337524414, 23.73760986328125, 0.34228515625, 0.3623046875, -0.96435546875
498, 3038586221, -4.813295364379883, -1.8415496349334717, 8.849933624267578, 2.2130351066589355, 37.52387619018555, 21.982521057128906, 0.353759765625, 0.36279296875, -0.963623046875
499, 3038602888, -4.814653396606445, -1.59445321559906, 8.93067455291748, -3.809844493865967, 64.17359924316406, 19.356760025024414, 0.366943359375, 0.35986328125, -0.955810546875
500, 3038619555, -5.115504264831543, -1.070193886756897, 9.047625541687012, -10.825429916381836, 94.20397186279297, 14.458843231201172, 0.392822265625, 0.361083984375, -0.9423828125
501, 3038636222, -5.019116401672363, -1.7741036415100098, 9.09306812286377, -19.225101470947266, 129.26368713378906, 12.194659233093262, 0.427490234375, 0.36474609375, -0.923095703125
502, 3038652889, -4.959108352661133, -2.9393532276153564, 9.29158878326416, -21.090147018432617, 168.66139221191406, 22.39900779724121, 0.468505859375, 0.369140625, -0.897216796875
503, 3038669556, -4.8227620124816895, -3.42655086517334, 9.213483810424805, -19.598588943481445, 219.22360229492188, 41.248291015625, 0.521240234375, 0.3720703125, -0.862548828125
504, 3038686223, -4.783594131469727, -5.415463447570801, 10.127511024475098, -17.24216079711914, 292.3550720214844, 76.70870208740234, 0.590087890625, 0.364501953125, -0.810302734375
505, 3038702890, -6.896743297576904, -6.003771781921387, 11.782073974609375, -3.739015817642212, 365.6639099121094, 136.40928649902344, 0.678955078125, 0.345947265625, -0.740234375
506, 3038719557, -8.350203514099121, -5.157952785491943, 12.027137756347656, -18.162294387817383, 428.2230224609375, 192.54598999023438, 0.774169921875, 0.310546875, -0.644287109375
507, 3038736224, -17.591167449951172, -6.108560562133789, 15.839614868164062, -55.730010986328125, 439.24169921875, 201.9046630859375, 0.859619140625, 0.272705078125, -0.5263671875
508, 3038752891, -20.068754196166992, -7.244466781616211, 17.075828552246094, -69.96446228027344, 389.218994140625, 194.10536193847656, 0.92236328125, 0.231201171875, -0.410400390625
509, 3038769558, -14.20114517211914, -7.283735275268555, 15.457746505737305, -68.60595703125, 311.17425537109375, 198.29563903808594, 0.95703125, 0.18798828125, -0.3154296875
510, 3038786225, -1.9566903114318848, -12.62976360321045, 14.015735626220703, -21.181949615478516, 269.47705078125, 208.41265869140625, 0.976318359375, 0.13134765625, -0.23828125
511, 3038802892, -19.659408569335938, -22.221012115478516, 25.72977066040039, 7.329002380371094, 153.35475158691406, 64.45563507080078, 0.978515625, 0.10693359375, -0.183349609375
512, 3038819559, -7.535935878753662, -18.23419952392578, 21.04547882080078, 67.748291015625, -77.0695571899414, -79.94458770751953, 0.96435546875, 0.130126953125, -0.201904296875
513, 3038836226, 4.33830451965332, -8.959162712097168, 11.772415161132812, 126.3573226928711, -149.1710968017578, -129.49732971191406, 0.936279296875, 0.167236328125, -0.25439453125
514, 3038852893, 5.10707426071167, -2.351982355117798, 8.713194847106934, 123.80720520019531, -149.4779510498047, -139.55673217773438, 0.907958984375, 0.203857421875, -0.3076171875
515, 3038869560, 2.3764984607696533, 0.2554630637168884, 8.392529487609863, 82.61102294921875, -150.79263305664062, -145.08013916015625, 0.873291015625, 0.243896484375, -0.354736328125
516, 3038886227, -0.3578834533691406, 0.6886752247810364, 8.127735137939453, 43.11121368408203, -165.862060546875, -140.75845336914062, 0.834716796875, 0.287353515625, -0.406494140625
517, 3038902894, -2.7729227542877197, 0.19055724143981934, 7.88861083984375, 25.02918243408203, -189.0933837890625, -120.12770080566406, 0.79345703125, 0.3251953125, -0.461181640625
518, 3038919561, -5.969090938568115, -0.3170742988586426, 8.191390037536621, 19.875686645507812, -218.43601989746094, -99.68314361572266, 0.735595703125, 0.354736328125, -0.520751953125
519, 3038936228, -8.275224685668945, -0.8044848442077637, 8.240497589111328, 16.851356506347656, -253.7711944580078, -89.2018814086914, 0.667236328125, 0.369140625, -0.583984375
520, 3038952895, -8.911170959472656, -1.2941228151321411, 7.959765434265137, 12.008459091186523, -283.36865234375, -85.82926177978516, 0.582763671875, 0.374267578125, -0.64013671875
521, 3038969562, -9.920119285583496, -1.9165213108062744, 8.311224937438965, 1.7946524620056152, -299.754638671875, -87.94356536865234, 0.49951171875, 0.37451171875, -0.687744140625
522, 3038986229, -12.38061237335205, -2.2694344520568848, 9.460434913635254, -20.84950828552246, -314.81939697265625, -97.01657104492188, 0.4033203125, 0.371826171875, -0.722412109375
523, 3039002896, -15.912044525146484, -1.623315691947937, 11.02989673614502, -64.8698959350586, -333.7227783203125, -115.39420318603516, 0.3037109375, 0.369384765625, -0.732421875
524, 3039019563, -15.082606315612793, -2.6095240116119385, 10.007272720336914, -104.3702392578125, -347.65362548828125, -126.51535034179688, 0.21240234375, 0.3701171875, -0.725830078125
525, 3039036230, -16.850337982177734, -4.81451940536499, 9.50714111328125, -108.34725952148438, -332.86297607421875, -110.27969360351562, 0.14111328125, 0.3759765625, -0.716796875
526, 3039052897, -22.725629806518555, -6.334451198577881, 8.984635353088379, -96.40489196777344, -321.24481201171875, -105.19080352783203, 0.07958984375, 0.3818359375, -0.7060546875
527, 3039069564, -25.08538246154785, -5.747459888458252, 6.183417320251465, -81.78218841552734, -314.4826965332031, -115.33139038085938, 0.024658203125, 0.389404296875, -0.7021484375
528, 3039086231, -24.81388282775879, -1.2145122289657593, 1.6251351833343506, -79.49200439453125, -290.0913391113281, -120.54472351074219, -0.030517578125, 0.399658203125, -0.7001953125
529, 3039102898, -24.772226333618164, 4.202653884887695, -3.2825002670288086, -102.34230041503906, -238.35923767089844, -99.67948150634766, -0.0810546875, 0.414794921875, -0.6982421875
530, 3039119565, -28.16660499572754, 8.40748405456543, -8.978870391845703, -130.35830688476562, -179.0321502685547, -60.164520263671875, -0.121337890625, 0.43701171875, -0.689697265625
531, 3039136232, -28.537826538085938, 10.082050323486328, -15.80571174621582, -121.0548324584961, -102.83342742919922, -0.46220946311950684, -0.14599609375, 0.4619140625, -0.676513671875
532, 3039152899, -23.93447494506836, 7.901972770690918, -14.163407325744629, -70.99772644042969, 1.6043181419372559, 74.98770141601562, -0.141845703125, 0.4814453125, -0.66845703125
533, 3039169566, -18.490758895874023, -8.187299728393555, -7.222867965698242, -4.499521255493164, 94.5549087524414, 97.03209686279297, -0.114990234375, 0.48876953125, -0.66845703125
534, 3039186233, -6.814587593078613, -10.964072227478027, 10.192845344543457, 156.35787963867188, 147.44647216796875, 72.3470687866211, -0.06787109375, 0.461669921875, -0.69287109375
535, 3039202900, 2.761121988296509, -10.97898006439209, 1.2773581743240356, 140.7750701904297, 165.8665771484375, 5.838845729827881, -0.032470703125, 0.43115234375, -0.714111328125
536, 3039219567, -3.0959255695343018, 2.6063473224639893, 8.347965240478516, 124.21488952636719, 222.46859741210938, 13.684823036193848, 0.016845703125, 0.402099609375, -0.7333984375
537, 3039236234, -13.151876449584961, 7.691473960876465, 16.30967903137207, 97.66255950927734, 192.45120239257812, 37.61482620239258, 0.0732421875, 0.37939453125, -0.7470703125
538, 3039252901, -15.645768165588379, 7.440000534057617, 17.355113983154297, 58.9480094909668, 132.27732849121094, 87.08811950683594, 0.115478515625, 0.359619140625, -0.750732421875
539, 3039269568, -10.855155944824219, -1.456296682357788, 11.830530166625977, 17.811521530151367, 97.43022155761719, 81.43095397949219, 0.150390625, 0.350830078125, -0.751953125
540, 3039286235, -16.882843017578125, -9.8560152053833, 9.014806747436523, 73.27253723144531, 51.939964294433594, 56.900203704833984, 0.174072265625, 0.3330078125, -0.755859375
541, 3039302902, -5.467162132263184, -1.0507811307907104, 9.977869987487793, 45.97373580932617, 37.80964279174805, 36.11309051513672, 0.185302734375, 0.320068359375, -0.757568359375
542, 3039319569, -6.70780086517334, -4.284246921539307, 7.010351181030273, 44.323917388916016, 27.00054168701172, 29.924728393554688, 0.194580078125, 0.306640625, -0.7626953125
543, 3039336236, -6.592234134674072, -2.93338942527771, 8.07722282409668, 38.098854064941406, 12.90497875213623, 24.921871185302734, 0.2041015625, 0.294677734375, -0.763427734375
544, 3039352903, -6.040580749511719, -2.5173966884613037, 8.170412063598633, 34.32593536376953, 4.995638847351074, 21.927934646606445, 0.206787109375, 0.2880859375, -0.767333984375
545, 3039369570, -5.696681022644043, -2.0051157474517822, 8.454176902770996, 23.215042114257812, 3.822558879852295, 16.98326301574707, 0.212890625, 0.280029296875, -0.768798828125
546, 3039386237, -5.793347358703613, -2.1721177101135254, 8.196937561035156, 13.299586296081543, 8.697386741638184, 11.813753128051758, 0.21533203125, 0.276611328125, -0.76806640625
547, 3039402904, -5.495364665985107, -2.5338187217712402, 7.886226654052734, 9.758160591125488, 10.794196128845215, 9.755011558532715, 0.218505859375, 0.2705078125, -0.77099609375
548, 3039419571, -5.832030296325684, -2.641145706176758, 7.555175304412842, 7.689023017883301, 10.84133529663086, 9.128585815429688, 0.219482421875, 0.26806640625, -0.7705078125
549, 3039436238, -5.925215721130371, -2.549470901489258, 7.486044406890869, 7.408329963684082, 6.52539587020874, 8.448451042175293, 0.223388671875, 0.26708984375, -0.76806640625
550, 3039452905, -5.584234237670898, -2.8360674381256104, 7.313589096069336, 10.201949119567871, 0.801991879940033, 9.869200706481934, 0.2236328125, 0.26318359375, -0.77099609375
551, 3039469572, -5.8033366203308105, -2.478574514389038, 7.4643235206604, 13.89225959777832, -3.1549885272979736, 11.570569038391113, 0.2255859375, 0.26171875, -0.771240234375
552, 3039486239, -5.631685733795166, -2.5606603622436523, 7.569668769836426, 13.677753448486328, -3.3654613494873047, 10.167170524597168, 0.2265625, 0.259521484375, -0.77392578125
553, 3039502906, -5.489377498626709, -2.580380439758301, 7.680944442749023, 12.39958667755127, -1.814686894416809, 10.891022682189941, 0.22509765625, 0.257080078125, -0.77490234375
554, 3039519573, -5.411416530609131, -2.86954665184021, 7.684920310974121, 11.454148292541504, 0.49284660816192627, 15.907408714294434, 0.225341796875, 0.24951171875, -0.77734375
555, 3039536240, -5.55342960357666, -2.1525256633758545, 7.765955448150635, 6.011072158813477, 3.5569112300872803, 18.877269744873047, 0.230224609375, 0.24560546875, -0.776611328125
556, 3039552907, -5.2245049476623535, -2.552675247192383, 7.837756633758545, -0.6713743805885315, 6.312577724456787, 24.53702735900879, 0.23486328125, 0.2451171875, -0.776123046875
557, 3039569574, -5.32367467880249, -2.063920736312866, 8.036532402038574, 2.9176268577575684, 13.388151168823242, 23.980003356933594, 0.23681640625, 0.24169921875, -0.776123046875
558, 3039586241, -5.509465217590332, -1.4385520219802856, 8.112895965576172, 3.803006172180176, 26.885534286499023, 16.425399780273438, 0.243896484375, 0.240234375, -0.77587890625
559, 3039602908, -5.267368316650391, -1.4566339254379272, 8.428640365600586, 2.2579097747802734, 43.48637771606445, 10.21844482421875, 0.25341796875, 0.235107421875, -0.774169921875
560, 3039619575, -5.219707012176514, -1.7770065069198608, 8.458147048950195, -3.1224143505096436, 64.96040344238281, 6.490298271179199, 0.267822265625, 0.23779296875, -0.770263671875
561, 3039636242, -5.284360408782959, -2.2356181144714355, 8.420957565307617, -9.13730239868164, 88.05268096923828, 8.102872848510742, 0.285888671875, 0.236083984375, -0.760986328125
562, 3039652909, -5.26076078414917, -2.4903130531311035, 8.650909423828125, -9.389737129211426, 114.21269989013672, 14.223830223083496, 0.30810546875, 0.23876953125, -0.75341796875
563, 3039669576, -5.00809383392334, -2.6811134815216064, 8.954477310180664, -6.140085697174072, 150.4165802001953, 24.863229751586914, 0.343994140625, 0.239013671875, -0.73779296875
564, 3039686243, -5.181070804595947, -2.8650381565093994, 9.07528018951416, -11.00352954864502, 203.07196044921875, 41.328365325927734, 0.382080078125, 0.2373046875, -0.7177734375
565, 3039702910, -5.032169342041016, -4.324991703033447, 10.072121620178223, -9.601716995239258, 268.322998046875, 71.67259216308594, 0.436279296875, 0.234619140625, -0.68603515625
566, 3039719577, -6.399931907653809, -5.63008451461792, 11.520012855529785, -5.702916145324707, 343.2848205566406, 120.23995971679688, 0.50341796875, 0.218017578125, -0.641357421875
567, 3039736244, -7.266159534454346, -5.096259593963623, 11.514911651611328, -15.850934982299805, 402.25177001953125, 176.135986328125, 0.58203125, 0.19580078125, -0.577392578125
568, 3039752911, -17.442657470703125, -6.5977373123168945, 15.852275848388672, -46.820152282714844, 425.49285888671875, 192.88650512695312, 0.65771484375, 0.165771484375, -0.4990234375
569, 3039769578, -19.6801815032959, -4.900385856628418, 16.19757080078125, -61.39564895629883, 381.1957702636719, 175.29554748535156, 0.7158203125, 0.137939453125, -0.4208984375
570, 3039786245, -16.011579513549805, -7.337466239929199, 15.50872802734375, -57.43661880493164, 297.6876525878906, 171.60165405273438, 0.754638671875, 0.11181640625, -0.3544921875
571, 3039802912, -1.8578516244888306, -9.440792083740234, 13.961944580078125, -12.13401985168457, 248.00115966796875, 189.77870178222656, 0.777587890625, 0.072265625, -0.3017578125
572, 3039819579, -16.821136474609375, -16.272912979125977, 25.35326385498047, -24.68363380432129, 147.60948181152344, 91.169921875, 0.7880859375, 0.044677734375, -0.263671875
573, 3039836246, -6.781428813934326, -16.50794219970703, 21.30103874206543, -1.344507098197937, -59.91743087768555, -23.711814880371094, 0.776123046875, 0.04541015625, -0.271484375
574, 3039852913, 3.6736414432525635, -11.160554885864258, 12.333986282348633, 55.79121780395508, -134.84120178222656, -73.94386291503906, 0.75244140625, 0.053955078125, -0.297607421875
575, 3039869580, 5.056026458740234, -5.508170127868652, 8.984227180480957, 77.87071228027344, -142.63800048828125, -94.36463165283203, 0.7275390625, 0.059814453125, -0.32470703125
576, 3039886247, 3.035220146179199, -2.5596930980682373, 8.226067543029785, 57.80829620361328, -142.9617156982422, -110.6419906616211, 0.703369140625, 0.068603515625, -0.347900390625
577, 3039902914, 0.4435727894306183, -1.6175874471664429, 8.040634155273438, 30.450647354125977, -152.63031005859375, -120.9639663696289, 0.684814453125, 0.078125, -0.3642578125
578, 3039919581, -2.310654640197754, -1.4537349939346313, 8.100605964660645, 15.496356964111328, -171.87619018554688, -121.6797103881836, 0.670654296875, 0.090087890625, -0.376708984375
579, 3039936248, -5.909815311431885, -1.3975783586502075, 8.498278617858887, 9.416473388671875, -204.35887145996094, -119.784912109375, 0.66552734375, 0.102783203125, -0.401611328125
580, 3039952915, -8.04965591430664, -1.6372426748275757, 8.2454195022583, 7.819812774658203, -244.81654357910156, -122.54071044921875, 0.666259765625, 0.123046875, -0.451904296875
581, 3039969582, -8.522933959960938, -2.1469430923461914, 7.617562294006348, 12.882671356201172, -274.7380676269531, -125.63090515136719, 0.65869140625, 0.166259765625, -0.526611328125
582, 3039986249, -9.186140060424805, -2.4126055240631104, 7.955907344818115, 15.785510063171387, -290.30792236328125, -128.45721435546875, 0.613525390625, 0.217529296875, -0.625244140625
583, 3040002916, -10.658263206481934, -1.8646910190582275, 8.823859214782715, 3.2461135387420654, -299.2485656738281, -135.0688018798828, 0.51708984375, 0.26708984375, -0.706298828125
584, 3040019583, -12.266166687011719, -0.9422076344490051, 8.393401145935059, -23.73164176940918, -297.9559631347656, -131.84585571289062, 0.38916015625, 0.29931640625, -0.735107421875
585, 3040036250, -15.142967224121094, -0.7998827695846558, 7.17962121963501, -55.271915435791016, -276.0177307128906, -111.24256896972656, 0.2919921875, 0.31494140625, -0.72119140625
586, 3040052917, -22.330129623413086, -0.8741570711135864, 7.948275566101074, -95.23746490478516, -252.35838317871094, -95.09672546386719, 0.244140625, 0.323974609375, -0.70263671875
587, 3040069584, -31.374469757080078, -3.836560010910034, 5.624343395233154, -124.09881591796875, -275.4953918457031, -101.50251007080078, 0.21240234375, 0.34375, -0.70703125
588, 3040086251, -34.57481384277344, -6.332574844360352, -1.4921857118606567, -79.1007308959961, -309.5874938964844, -101.37510681152344, 0.1611328125, 0.363525390625, -0.728271484375
589, 3040102918, -31.29185676574707, 0.36328500509262085, -8.353832244873047, -27.406307220458984, -292.4148864746094, -84.10594177246094, 0.095703125, 0.37255859375, -0.76171875
590, 3040119585, -27.28095817565918, 7.794719696044922, -13.573427200317383, -47.353023529052734, -205.5443572998047, -69.06757354736328, 0.042236328125, 0.3828125, -0.780029296875
591, 3040136252, -25.30581283569336, 9.945149421691895, -17.06713104248047, -88.56783294677734, -84.17658996582031, -52.32963180541992, 0.009033203125, 0.399658203125, -0.7802734375
592, 3040152919, -26.418704986572266, 5.702797889709473, -23.068401336669922, 10.83616828918457, 81.50872802734375, 15.042838096618652, 0.018310546875, 0.408203125, -0.7822265625
593, 3040169586, -15.904809951782227, -1.5167737007141113, 2.374936580657959, 127.30693054199219, 165.2242889404297, 49.169677734375, 0.065185546875, 0.382568359375, -0.7900390625
594, 3040186253, -6.660694599151611, -14.255845069885254, 17.709428787231445, 128.6971893310547, 102.80850982666016, -19.472930908203125, 0.09423828125, 0.3486328125, -0.80078125
595, 3040202920, 4.797160625457764, 9.621255874633789, 4.876277923583984, 85.82586669921875, 133.0607147216797, 11.368188858032227, 0.125244140625, 0.328125, -0.80810546875
596, 3040219587, -9.121110916137695, 9.747496604919434, 15.088103294372559, 41.61552429199219, 178.86441040039062, 44.02326583862305, 0.175048828125, 0.310546875, -0.8017578125
597, 3040236254, -16.384048461914062, 3.1229665279388428, 14.109344482421875, 6.751115798950195, 101.2241439819336, 76.53081512451172, 0.216064453125, 0.303955078125, -0.7958984375
598, 3040252921, -16.427078247070312, -13.971768379211426, 6.945343017578125, 62.97814178466797, 33.05207443237305, 48.78498840332031, 0.233642578125, 0.289794921875, -0.797607421875
599, 3040269588, -6.276175498962402, 0.7769734859466553, 11.518933296203613, 61.179420471191406, 26.01934051513672, 35.91579055786133, 0.246826171875, 0.2724609375, -0.798583984375
600, 3040286255, -6.54340124130249, -4.890340805053711, 6.72597599029541, 46.79100799560547, 6.317732334136963, 25.5760440826416, 0.25, 0.25830078125, -0.803955078125
601, 3040302922, -6.01788330078125, -1.7763725519180298, 8.473638534545898, 33.13740921020508, -2.2267673015594482, 20.525545120239258, 0.252685546875, 0.249755859375, -0.808349609375
602, 3040319589, -5.681355953216553, -1.9498506784439087, 8.432638168334961, 27.015716552734375, -4.275838375091553, 17.73130989074707, 0.25634765625, 0.2392578125, -0.8056640625
603, 3040336256, -5.8134284019470215, -2.5671863555908203, 8.190248489379883, 26.499183654785156, -8.882365226745605, 17.306482315063477, 0.257080078125, 0.229736328125, -0.81005859375
604, 3040352923, -5.783536434173584, -2.2972898483276367, 8.072460174560547, 20.653629302978516, -11.183329582214355, 15.426589012145996, 0.253662109375, 0.225830078125, -0.810791015625
605, 3040369590, -5.333061695098877, -1.7651827335357666, 8.166264533996582, 13.60373306274414, -4.160762310028076, 11.562923431396484, 0.254150390625, 0.22021484375, -0.812744140625
606, 3040386257, -5.554548263549805, -1.7891051769256592, 8.040562629699707, 8.295886993408203, 1.2089135646820068, 8.6587553024292, 0.255615234375, 0.21826171875, -0.813720703125
607, 3040402924, -5.68353271484375, -2.1059398651123047, 7.7610182762146, 6.084318161010742, 2.5828940868377686, 7.752294063568115, 0.25634765625, 0.214599609375, -0.816650390625
608, 3040419591, -5.7295355796813965, -1.857264518737793, 7.724669933319092, 5.223640441894531, 2.197909355163574, 4.93443489074707, 0.2587890625, 0.212646484375, -0.81640625
609, 3040436258, -5.543793201446533, -2.026272773742676, 7.726198673248291, 3.7038981914520264, 2.7364420890808105, 2.5817155838012695, 0.25927734375, 0.210693359375, -0.81494140625
610, 3040452925, -5.429844856262207, -2.0603792667388916, 7.8392181396484375, 1.9309478998184204, 4.340564727783203, 1.7795895338058472, 0.26025390625, 0.211181640625, -0.81591796875
611, 3040469592, -5.379648208618164, -2.1538121700286865, 7.857205390930176, 1.593206524848938, 6.43769645690918, 2.0475375652313232, 0.263671875, 0.211181640625, -0.8193359375
612, 3040486259, -5.337532043457031, -2.229541301727295, 7.752798557281494, 0.024850724264979362, 8.251625061035156, 3.2499892711639404, 0.263916015625, 0.211181640625, -0.8154296875
613, 3040502926, -5.408299446105957, -2.303858518600464, 7.652624607086182, -1.8952637910842896, 9.966092109680176, 5.511209487915039, 0.265869140625, 0.208251953125, -0.812255859375
614, 3040519593, -5.332670211791992, -2.3857765197753906, 7.616375923156738, -1.225145936012268, 11.277490615844727, 7.5846357345581055, 0.268798828125, 0.206787109375, -0.813232421875
615, 3040536260, -5.2225260734558105, -2.4806160926818848, 7.765863418579102, -0.18557703495025635, 14.80677604675293, 11.48376750946045, 0.273681640625, 0.208251953125, -0.81103515625
616, 3040552927, -4.929821491241455, -2.300565481185913, 8.30243968963623, -0.14450722932815552, 22.769779205322266, 14.742996215820312, 0.2802734375, 0.205322265625, -0.8095703125
617, 3040569594, -5.005026340484619, -1.9297491312026978, 8.466974258422852, -0.42103689908981323, 38.283180236816406, 14.536337852478027, 0.288818359375, 0.204833984375, -0.805908203125
618, 3040586261, -4.93544864654541, -1.7943565845489502, 8.686100006103516, -3.9402832984924316, 58.963932037353516, 13.423487663269043, 0.30224609375, 0.20458984375, -0.801513671875
619, 3040602928, -5.180868148803711, -1.7051585912704468, 8.67721939086914, -8.326608657836914, 83.99933624267578, 12.764793395996094, 0.31982421875, 0.205078125, -0.796630859375
620, 3040619595, -5.323214054107666, -1.8569525480270386, 8.78598690032959, -9.380184173583984, 114.2274398803711, 13.975543022155762, 0.3447265625, 0.203857421875, -0.78515625
621, 3040636262, -4.972778797149658, -2.4376749992370605, 9.074434280395508, -5.400908470153809, 149.17208862304688, 20.587385177612305, 0.379638671875, 0.203125, -0.77294921875
622, 3040652929, -4.948256015777588, -3.098634719848633, 9.12820816040039, -6.863252639770508, 196.96527099609375, 35.513824462890625, 0.42138671875, 0.201904296875, -0.74853515625
623, 3040669596, -5.123988628387451, -4.0573344230651855, 9.976953506469727, -5.379099369049072, 261.67779541015625, 65.43766021728516, 0.474853515625, 0.193359375, -0.71826171875
624, 3040686263, -5.903568744659424, -5.389461517333984, 11.132455825805664, -4.775799751281738, 338.3549499511719, 113.17874908447266, 0.5458984375, 0.17919921875, -0.66748046875
625, 3040702930, -6.923904895782471, -5.2793989181518555, 11.341938018798828, -19.274106979370117, 399.2843933105469, 168.9735870361328, 0.62451171875, 0.155517578125, -0.60302734375
626, 3040719597, -14.714831352233887, -5.939594268798828, 15.555856704711914, -52.62552261352539, 433.48785400390625, 197.01708984375, 0.703857421875, 0.119384765625, -0.516845703125
627, 3040736264, -16.520490646362305, -3.974165916442871, 16.226579666137695, -66.72513580322266, 422.6439514160156, 187.50762939453125, 0.774169921875, 0.085693359375, -0.42919921875
628, 3040752931, -19.558931350708008, -7.263706684112549, 17.48247718811035, -74.2524642944336, 361.85125732421875, 175.00523376464844, 0.823486328125, 0.05322265625, -0.351806640625
629, 3040769598, -9.186980247497559, -7.169861793518066, 16.709400177001953, -62.673160552978516, 285.98162841796875, 187.83480834960938, 0.854248046875, 0.015625, -0.2890625
630, 3040786265, -7.213947772979736, -15.91234016418457, 18.665115356445312, -28.475971221923828, 233.6083221435547, 149.9161834716797, 0.874755859375, -0.022705078125, -0.23974609375
631, 3040802932, -15.671256065368652, -19.663333892822266, 27.326208114624023, -17.307971954345703, -0.5607907772064209, -6.345247745513916, 0.8779296875, -0.024169921875, -0.2431640625
632, 3040819599, 0.8873924016952515, -14.743440628051758, 15.16309928894043, 54.602935791015625, -144.94664001464844, -91.37877655029297, 0.863037109375, 9.765625E-4, -0.294921875
633, 3040836266, 5.093611717224121, -7.039607048034668, 9.332490921020508, 105.24304962158203, -164.37960815429688, -116.01681518554688, 0.834228515625, 0.026123046875, -0.35498046875
634, 3040852933, 3.3766326904296875, -2.2510435581207275, 8.106894493103027, 95.17245483398438, -160.9501190185547, -129.14208984375, 0.7939453125, 0.054443359375, -0.404541015625
635, 3040869600, 0.6168383955955505, -0.1970823109149933, 8.048360824584961, 56.11634826660156, -166.5081787109375, -142.42364501953125, 0.755126953125, 0.080322265625, -0.45166015625
636, 3040886267, -1.83897864818573, -0.06606560200452805, 7.697793483734131, 27.825180053710938, -181.5167694091797, -142.4209747314453, 0.70654296875, 0.11083984375, -0.489013671875
637, 3040902934, -4.672729969024658, -0.4059493839740753, 8.217367172241211, 20.59032440185547, -204.05087280273438, -127.05850219726562, 0.651611328125, 0.134521484375, -0.52392578125
638, 3040919601, -8.751978874206543, -0.5991548895835876, 9.170391082763672, 16.891258239746094, -241.32763671875, -114.19087219238281, 0.59228515625, 0.147705078125, -0.552734375
639, 3040936268, -10.120208740234375, -1.3729199171066284, 8.585519790649414, 14.379018783569336, -287.473876953125, -109.48493194580078, 0.5302734375, 0.149169921875, -0.5732421875
640, 3040952935, -9.195956230163574, -2.2306933403015137, 7.530458927154541, 17.025054931640625, -313.5394592285156, -105.72822570800781, 0.489501953125, 0.146728515625, -0.595458984375
641, 3040969602, -9.266979217529297, -2.676884174346924, 7.563419818878174, 15.50386905670166, -311.45294189453125, -104.69215393066406, 0.467529296875, 0.143798828125, -0.631103515625
642, 3040986269, -10.821081161499023, -2.4641671180725098, 8.82315444946289, -1.9894654750823975, -297.855224609375, -107.70407104492188, 0.448486328125, 0.154296875, -0.6943359375
643, 3041002936, -13.202263832092285, -2.4751269817352295, 10.171785354614258, -35.34489059448242, -283.0714111328125, -112.58287048339844, 0.4013671875, 0.1796875, -0.76416015625
644, 3041019603, -16.797277450561523, -4.2196478843688965, 11.46206283569336, -65.57696533203125, -266.97467041015625, -107.5811538696289, 0.337158203125, 0.208740234375, -0.818359375
645, 3041036270, -24.043638229370117, -6.280799865722656, 12.391446113586426, -83.34247589111328, -270.9150695800781, -115.42890167236328, 0.2587890625, 0.242431640625, -0.85693359375
646, 3041052937, -29.403833389282227, -6.852661609649658, 8.612547874450684, -74.16015625, -300.1658935546875, -138.92562866210938, 0.1640625, 0.281005859375, -0.884765625
647, 3041069604, -30.398908615112305, -5.594395160675049, 0.9833009839057922, -33.8240852355957, -321.9137878417969, -129.97695922851562, 0.050537109375, 0.3076171875, -0.88916015625
648, 3041086271, -27.96072769165039, 1.2155303955078125, -5.59561824798584, -19.03171730041504, -292.5784912109375, -102.7969741821289, -0.050537109375, 0.31982421875, -0.880859375
649, 3041102938, -27.646690368652344, 8.244937896728516, -12.56201171875, -58.092830657958984, -212.0054931640625, -85.14814758300781, -0.1279296875, 0.333251953125, -0.86083984375
650, 3041119605, -31.306962966918945, 14.33560848236084, -19.66753387451172, -112.1183090209961, -105.3215560913086, -75.69940185546875, -0.168212890625, 0.354248046875, -0.839111328125
651, 3041136272, -23.87744140625, 6.797886371612549, -21.483915328979492, -62.4974479675293, 49.76944351196289, -1.526679277420044, -0.175048828125, 0.3779296875, -0.824951171875
652, 3041152939, -16.207693099975586, 3.929489850997925, -7.0862836837768555, 77.54388427734375, 182.0637969970703, 119.35906982421875, -0.129150390625, 0.370361328125, -0.8310546875
653, 3041169606, -14.088752746582031, -15.192205429077148, 18.51520347595215, 102.64927673339844, 120.47026062011719, 93.5683364868164, -0.083984375, 0.35302734375, -0.842529296875
654, 3041186273, 1.5860066413879395, -6.557454586029053, 3.7775230407714844, 98.16954803466797, 93.75468444824219, 69.63973999023438, -0.06005859375, 0.3291015625, -0.853271484375
655, 3041202940, -5.055957317352295, 3.8092188835144043, 10.936506271362305, 35.213191986083984, 188.62432861328125, 13.883337020874023, -0.017578125, 0.320556640625, -0.853515625
656, 3041219607, -17.91803741455078, 8.893961906433105, 18.861661911010742, 1.1665228605270386, 145.00390625, 23.396947860717773, 0.022216796875, 0.3232421875, -0.84912109375
