sep=,
DeviceTag:,B,,,,,,,,,,,,,,,,,
FirmwareVersion:,2.2.1,,,,,,,,,,,,,,,,,
AppVersion:,2022.0.1,,,,,,,,,,,,,,,,,
SyncStatus:,Synced,,,,,,,,,,,,,,,,,
OutputRate:,60Hz,,,,,,,,,,,,,,,,,
FilterProfile:,General,,,,,,,,,,,,,,,,,
Measurement Mode:,Inertial Mode - Rate quantities (with mag),,,,,,,,,,,,,,,,,
StartTime:,2022-08-05 16:33:08.192 +0300,,,,,,,,,,,,,,,,,
© Xsens Technologies B. V. 2005-2022,,,,,,,,,,,,,,,,,,,

PacketCounter,SampleTimeFine,Acc_X,Acc_Y,Acc_Z,Gyr_X,Gyr_Y,Gyr_Z,Mag_X,Mag_Y,Mag_Z
1, 2635228154, -5.366427898406982, -2.2672832012176514, 7.734767913818359, -0.31000328063964844, -0.18128667771816254, -0.7183977365493774, 0.04345703125, 0.20263671875, -0.806640625
2, 2635244821, -5.359035491943359, -2.2658238410949707, 7.752101421356201, -0.3009876310825348, -0.1238245964050293, -0.7001999616622925, 0.041015625, 0.20068359375, -0.80615234375
3, 2635261488, -5.366517543792725, -2.284703016281128, 7.711830139160156, -0.3839600086212158, 0.09301891922950745, -0.6071362495422363, 0.0439453125, 0.2001953125, -0.806640625
4, 2635278155, -5.394773483276367, -2.2580528259277344, 7.726911544799805, -0.35723310708999634, 0.16999788582324982, -0.5732890367507935, 0.0419921875, 0.19921875, -0.80517578125
5, 2635294822, -5.370186805725098, -2.271907091140747, 7.730866432189941, -0.378312349319458, 0.10239316523075104, -0.559086799621582, 0.04345703125, 0.20068359375, -0.8056640625
6, 2635311489, -5.412697792053223, -2.2554891109466553, 7.718356609344482, -0.3827049434185028, 0.10010082274675369, -0.6844737529754639, 0.04345703125, 0.201171875, -0.806640625
7, 2635328156, -5.407529354095459, -2.2621121406555176, 7.74308967590332, -0.42079102993011475, -0.07194606959819794, -0.7131855487823486, 0.04296875, 0.201171875, -0.80419921875
8, 2635344823, -5.4242024421691895, -2.258742094039917, 7.72919225692749, -0.37379172444343567, -0.28615787625312805, -0.9702346920967102, 0.04248046875, 0.20166015625, -0.80712890625
9, 2635361490, -5.382143974304199, -2.2943081855773926, 7.714266300201416, -0.2753749191761017, -0.4085225462913513, -0.9067280292510986, 0.04345703125, 0.19873046875, -0.8076171875
10, 2635378157, -5.346773624420166, -2.3061535358428955, 7.718964576721191, -0.109135702252388, -0.2675502598285675, -0.695026159286499, 0.04638671875, 0.20166015625, -0.806640625
11, 2635394824, -5.384241580963135, -2.2597975730895996, 7.744894504547119, -0.1700657308101654, -0.07246267050504684, -0.5985919237136841, 0.04443359375, 0.2001953125, -0.806640625
12, 2635411491, -5.415085792541504, -2.25423002243042, 7.747488498687744, -0.18918821215629578, -0.04009667783975601, -0.7448300719261169, 0.0419921875, 0.19970703125, -0.80517578125
13, 2635428158, -5.403510093688965, -2.2662534713745117, 7.7240071296691895, -0.2497878074645996, -0.10333441942930222, -0.7220603227615356, 0.04541015625, 0.201171875, -0.80419921875
14, 2635444825, -5.411477565765381, -2.276799440383911, 7.734410285949707, -0.21016499400138855, -0.2048119455575943, -0.7777936458587646, 0.04345703125, 0.201171875, -0.8076171875
15, 2635461492, -5.3989105224609375, -2.261747360229492, 7.7286057472229, -0.1903407722711563, -0.16917186975479126, -0.740667998790741, 0.04541015625, 0.20068359375, -0.80810546875
16, 2635478159, -5.400884628295898, -2.259197473526001, 7.734134674072266, -0.24871210753917694, -0.2689717710018158, -0.6803629398345947, 0.044921875, 0.19970703125, -0.8056640625
17, 2635494826, -5.390857219696045, -2.2683560848236084, 7.726606845855713, -0.23708395659923553, -0.24627891182899475, -0.7321518063545227, 0.04541015625, 0.19970703125, -0.806640625
18, 2635511493, -5.394050598144531, -2.27306866645813, 7.726612567901611, -0.2970048487186432, -0.22416232526302338, -0.7739260792732239, 0.046630859375, 0.19873046875, -0.802001953125
19, 2635528160, -5.395270347595215, -2.272064685821533, 7.7235026359558105, -0.24242421984672546, -0.1966671198606491, -0.7749762535095215, 0.04541015625, 0.2021484375, -0.80517578125
20, 2635544827, -5.405590534210205, -2.254662275314331, 7.716089248657227, -0.2285677194595337, -0.202570840716362, -0.6444411873817444, 0.044921875, 0.201171875, -0.80615234375
21, 2635561494, -5.417052745819092, -2.240068197250366, 7.714376449584961, -0.18801002204418182, -0.45484307408332825, -0.6753171682357788, 0.04443359375, 0.20166015625, -0.80810546875
22, 2635578161, -5.400571823120117, -2.263812780380249, 7.695093154907227, -0.13123948872089386, -0.6152299642562866, -0.8592548966407776, 0.046630859375, 0.20166015625, -0.806640625
23, 2635594828, -5.392872333526611, -2.2775580883026123, 7.7382588386535645, -0.1552513837814331, -0.6758294701576233, -0.9043843746185303, 0.04345703125, 0.19970703125, -0.8046875
24, 2635611495, -5.395198822021484, -2.2589540481567383, 7.7195587158203125, -0.06138082966208458, -0.47660109400749207, -0.8278152346611023, 0.046630859375, 0.19970703125, -0.802734375
25, 2635628162, -5.412941932678223, -2.268577814102173, 7.7116169929504395, -0.14119000732898712, -0.6744592189788818, -0.8677838444709778, 0.04443359375, 0.19921875, -0.8076171875
26, 2635644829, -5.382786750793457, -2.290985345840454, 7.71764612197876, -0.2716226577758789, -0.5371623039245605, -0.9335187673568726, 0.046630859375, 0.201171875, -0.80859375
27, 2635661496, -5.393167972564697, -2.2771196365356445, 7.737971782684326, -0.1655604988336563, -0.45954301953315735, -1.0089482069015503, 0.04345703125, 0.19873046875, -0.8076171875
28, 2635678163, -5.388543605804443, -2.26527738571167, 7.7300004959106445, -0.13212309777736664, -0.4256446361541748, -0.7975281476974487, 0.0458984375, 0.20166015625, -0.80712890625
29, 2635694830, -5.400543689727783, -2.2755026817321777, 7.703126430511475, -0.19487421214580536, -0.4748978316783905, -0.8484718799591064, 0.044921875, 0.201171875, -0.8056640625
30, 2635711497, -5.40037727355957, -2.2641735076904297, 7.734297752380371, -0.17311623692512512, -0.5059148669242859, -0.8710366487503052, 0.044921875, 0.20068359375, -0.80517578125
31, 2635728164, -5.387762069702148, -2.2679386138916016, 7.719640254974365, -0.23293469846248627, -0.36354660987854004, -0.8493682742118835, 0.046630859375, 0.2001953125, -0.80615234375
32, 2635744831, -5.3855791091918945, -2.273735523223877, 7.706384181976318, -0.15335604548454285, -0.42796263098716736, -0.8465638160705566, 0.044921875, 0.201171875, -0.806640625
33, 2635761498, -5.395063400268555, -2.245974063873291, 7.7430291175842285, -0.17070865631103516, -0.34358158707618713, -0.8089643716812134, 0.04638671875, 0.201171875, -0.80615234375
34, 2635778165, -5.413422107696533, -2.263021469116211, 7.707205772399902, -0.2164400815963745, -0.4320478141307831, -0.9088793992996216, 0.04345703125, 0.20166015625, -0.80615234375
35, 2635794832, -5.407162666320801, -2.2548747062683105, 7.717831134796143, -0.1414589285850525, -0.5016247034072876, -0.9226846098899841, 0.048095703125, 0.201171875, -0.80712890625
36, 2635811499, -5.382906913757324, -2.2582240104675293, 7.730528831481934, -0.16896694898605347, -0.5600216388702393, -0.8671690225601196, 0.044921875, 0.20068359375, -0.80615234375
37, 2635828166, -5.3950114250183105, -2.2735886573791504, 7.702500820159912, -0.03818853199481964, -0.5118057727813721, -0.9103778004646301, 0.0458984375, 0.20361328125, -0.8046875
38, 2635844833, -5.409366607666016, -2.2845981121063232, 7.714904308319092, -0.07186923921108246, -0.5702283978462219, -0.9179847836494446, 0.046142578125, 0.20068359375, -0.80908203125
39, 2635861500, -5.384579181671143, -2.272484302520752, 7.708963871002197, -0.14176629483699799, -0.44558411836624146, -0.8327328562736511, 0.046630859375, 0.20068359375, -0.810546875
40, 2635878167, -5.384276866912842, -2.2700231075286865, 7.759657382965088, -0.09575308114290237, -0.286132276058197, -0.7948390245437622, 0.04541015625, 0.2001953125, -0.8076171875
41, 2635894834, -5.393007278442383, -2.259927749633789, 7.717309951782227, -0.21382763981819153, -0.1529078334569931, -0.8043156862258911, 0.04443359375, 0.19970703125, -0.806640625
42, 2635911501, -5.422135353088379, -2.235165596008301, 7.713233947753906, -0.193491131067276, -0.1635114550590515, -0.841850996017456, 0.045654296875, 0.19775390625, -0.80615234375
43, 2635928168, -5.416501045227051, -2.242745876312256, 7.717807769775391, -0.2867981791496277, -0.15192171931266785, -0.8853926062583923, 0.045654296875, 0.19921875, -0.80712890625
44, 2635944835, -5.3962788581848145, -2.2710230350494385, 7.693008899688721, -0.3009416460990906, -0.31451717019081116, -0.9394020438194275, 0.044677734375, 0.19873046875, -0.8076171875
45, 2635961502, -5.411736965179443, -2.2642343044281006, 7.722706317901611, -0.19842155277729034, -0.47176027297973633, -0.8752627372741699, 0.045654296875, 0.2001953125, -0.80615234375
46, 2635978169, -5.409399032592773, -2.2681174278259277, 7.711047172546387, -0.16475367546081543, -0.5992475748062134, -0.8553617000579834, 0.045654296875, 0.19873046875, -0.80615234375
47, 2635994836, -5.395869731903076, -2.2693967819213867, 7.720308780670166, -0.023973487317562103, -0.5120747089385986, -0.7360833883285522, 0.044189453125, 0.1982421875, -0.8095703125
48, 2636011503, -5.415691375732422, -2.245239496231079, 7.724765300750732, -0.2043124884366989, -0.2897820770740509, -0.767074704170227, 0.046630859375, 0.1982421875, -0.8056640625
49, 2636028170, -5.4166975021362305, -2.2600901126861572, 7.700071334838867, -0.24189913272857666, -0.280484676361084, -0.856975257396698, 0.046630859375, 0.19970703125, -0.8046875
50, 2636044837, -5.429305076599121, -2.257718563079834, 7.7287092208862305, -0.3863675594329834, -0.3491395115852356, -0.8824727535247803, 0.046142578125, 0.2001953125, -0.80810546875
51, 2636061504, -5.39788293838501, -2.2736897468566895, 7.731611251831055, -0.2609165608882904, -0.4604010581970215, -0.8531973958015442, 0.044921875, 0.201171875, -0.80908203125
52, 2636078171, -5.3946404457092285, -2.2633373737335205, 7.707832336425781, -0.15101245045661926, -0.5554369688034058, -0.7793559432029724, 0.046142578125, 0.20068359375, -0.80615234375
53, 2636094838, -5.4050612449646, -2.245269298553467, 7.715059280395508, -0.21678587794303894, -0.48270970582962036, -0.832848072052002, 0.044677734375, 0.1982421875, -0.80615234375
54, 2636111505, -5.421265602111816, -2.2410144805908203, 7.69810152053833, -0.20942223072052002, -0.5775150656700134, -0.9848595261573792, 0.0439453125, 0.20068359375, -0.80517578125
55, 2636128172, -5.420559406280518, -2.276230573654175, 7.687426567077637, -0.2093198001384735, -0.6717699766159058, -0.9758694767951965, 0.048095703125, 0.19873046875, -0.80517578125
56, 2636144839, -5.423267841339111, -2.2582590579986572, 7.71674919128418, -0.08716001361608505, -0.8084392547607422, -0.9497188329696655, 0.046630859375, 0.19921875, -0.80615234375
57, 2636161506, -5.385027885437012, -2.2714085578918457, 7.711350440979004, -0.10779105126857758, -0.8169810771942139, -0.9477852582931519, 0.04541015625, 0.19970703125, -0.8076171875
58, 2636178173, -5.409335136413574, -2.261744499206543, 7.703862190246582, -0.2493908554315567, -0.6579774618148804, -0.9988697171211243, 0.0458984375, 0.203125, -0.80712890625
59, 2636194840, -5.409664154052734, -2.260176420211792, 7.733356475830078, -0.26906144618988037, -0.5358176827430725, -1.0299891233444214, 0.04443359375, 0.19970703125, -0.80615234375
60, 2636211507, -5.396286487579346, -2.2660837173461914, 7.735023498535156, -0.2944948375225067, -0.591333270072937, -0.9467094540596008, 0.046142578125, 0.2001953125, -0.80517578125
61, 2636228174, -5.387898921966553, -2.262477159500122, 7.719655513763428, -0.36294475197792053, -0.4029773771762848, -0.880961537361145, 0.04345703125, 0.19921875, -0.80517578125
62, 2636244841, -5.414987564086914, -2.238680362701416, 7.704727649688721, -0.4264514446258545, -0.3739069402217865, -0.9132335782051086, 0.046142578125, 0.19921875, -0.8076171875
63, 2636261508, -5.3864946365356445, -2.2793729305267334, 7.709598064422607, -0.35441574454307556, -0.5051592588424683, -0.9388206005096436, 0.04443359375, 0.201171875, -0.8076171875
64, 2636278175, -5.402464866638184, -2.257296085357666, 7.723642826080322, -0.31234684586524963, -0.35724592208862305, -0.9058059453964233, 0.045654296875, 0.19873046875, -0.80517578125
65, 2636294842, -5.396580219268799, -2.2647342681884766, 7.6811442375183105, -0.342582643032074, -0.33542385697364807, -0.9378858208656311, 0.046630859375, 0.201171875, -0.806640625
66, 2636311509, -5.39367151260376, -2.2658302783966064, 7.692982196807861, -0.23079602420330048, -0.2865932881832123, -0.9116583466529846, 0.0439453125, 0.20068359375, -0.80615234375
67, 2636328176, -5.379743576049805, -2.265038013458252, 7.728626251220703, -0.26726850867271423, -0.3069938123226166, -0.8335397243499756, 0.048095703125, 0.19921875, -0.8056640625
68, 2636344843, -5.3590497970581055, -2.286179542541504, 7.723145008087158, -0.08176854252815247, -0.10338565707206726, -0.6847811937332153, 0.04443359375, 0.20263671875, -0.8056640625
69, 2636361510, -5.373966693878174, -2.2797963619232178, 7.740958213806152, 0.45756450295448303, 0.06460163742303848, -0.30463746190071106, 0.04541015625, 0.20068359375, -0.80517578125
70, 2636378177, -5.411777973175049, -2.259384870529175, 7.731597423553467, 0.813913881778717, 0.0033872793428599834, -0.30276769399642944, 0.046630859375, 0.20068359375, -0.8046875
71, 2636394844, -5.421755790710449, -2.2677266597747803, 7.709412574768066, 0.6791527271270752, 0.04363763704895973, -0.19484859704971313, 0.046142578125, 0.19970703125, -0.8037109375
72, 2636411511, -5.434866428375244, -2.2363882064819336, 7.717466354370117, 0.5270901322364807, 0.0302421934902668, -0.3939233124256134, 0.046142578125, 0.20068359375, -0.806640625
73, 2636428178, -5.427334308624268, -2.2123632431030273, 7.726120948791504, 0.3713393211364746, -0.07308582961559296, -0.5140596628189087, 0.046630859375, 0.19775390625, -0.80859375
74, 2636444845, -5.466429710388184, -2.2262141704559326, 7.707091331481934, 0.21625441312789917, -0.1290239691734314, -0.6838077902793884, 0.0458984375, 0.20068359375, -0.80419921875
75, 2636461512, -5.4735941886901855, -2.2382707595825195, 7.6942949295043945, -0.04665353149175644, -0.5010228157043457, -0.9188811779022217, 0.046142578125, 0.19921875, -0.80859375
76, 2636478179, -5.431975364685059, -2.2547385692596436, 7.704329013824463, -0.008964444510638714, -0.7060397863388062, -0.9712206721305847, 0.046142578125, 0.19775390625, -0.8095703125
77, 2636494846, -5.420544624328613, -2.245964765548706, 7.712368488311768, -0.037509799003601074, -0.7743871808052063, -0.9215578436851501, 0.048095703125, 0.197265625, -0.80712890625
78, 2636511513, -5.420017719268799, -2.231689929962158, 7.730433940887451, -0.006736543495208025, -0.7063124775886536, -0.9323452711105347, 0.044677734375, 0.19677734375, -0.8056640625
79, 2636528180, -5.416845321655273, -2.234445810317993, 7.729554176330566, -0.22902876138687134, -0.6308279633522034, -0.9726166129112244, 0.047119140625, 0.197265625, -0.80908203125
80, 2636544847, -5.421858310699463, -2.2290666103363037, 7.694616317749023, -0.32428237795829773, -0.5880675315856934, -1.061454176902771, 0.04541015625, 0.201171875, -0.80712890625
81, 2636561514, -5.399724960327148, -2.2555015087127686, 7.718536376953125, -0.3266003727912903, -0.6828985810279846, -1.0773085355758667, 0.044921875, 0.201171875, -0.8076171875
82, 2636578181, -5.408257484436035, -2.2460296154022217, 7.719173431396484, -0.20454303920269012, -0.7931356430053711, -0.986895740032196, 0.047119140625, 0.19970703125, -0.80517578125
83, 2636594848, -5.414400100708008, -2.254249334335327, 7.695035934448242, -0.2677423655986786, -0.72691410779953, -1.0305397510528564, 0.044677734375, 0.1962890625, -0.8076171875
84, 2636611515, -5.397958755493164, -2.250051736831665, 7.713558673858643, -0.14650464057922363, -0.6844865679740906, -0.8853029012680054, 0.048095703125, 0.19921875, -0.8076171875
85, 2636628182, -5.380233287811279, -2.2530574798583984, 7.703556060791016, -0.24741870164871216, -0.4939921498298645, -0.9910578727722168, 0.047607421875, 0.2001953125, -0.80712890625
86, 2636644849, -5.416257858276367, -2.2320923805236816, 7.716807842254639, -0.37101271748542786, -0.2636314928531647, -0.9311240315437317, 0.04638671875, 0.20166015625, -0.806640625
87, 2636661516, -5.435308456420898, -2.236100673675537, 7.714752674102783, -0.5253420472145081, -0.16375479102134705, -0.9822725653648376, 0.0458984375, 0.20068359375, -0.80908203125
88, 2636678183, -5.398553371429443, -2.261303186416626, 7.6933817863464355, -0.47006985545158386, -0.3943074941635132, -0.9708237051963806, 0.046142578125, 0.19873046875, -0.8046875
89, 2636694850, -5.428364276885986, -2.2578530311584473, 7.703855514526367, -0.36927109956741333, -0.4226095378398895, -0.9105314612388611, 0.048583984375, 0.1982421875, -0.80615234375
90, 2636711517, -5.427494525909424, -2.240839958190918, 7.697353363037109, -0.4439961314201355, -0.45741719007492065, -0.9615519046783447, 0.046630859375, 0.19873046875, -0.8095703125
91, 2636728184, -5.419839382171631, -2.2323899269104004, 7.70753288269043, -0.3369222581386566, -0.43902724981307983, -0.8788613080978394, 0.045166015625, 0.19873046875, -0.8095703125
92, 2636744851, -5.41209602355957, -2.2357113361358643, 7.7408905029296875, -0.23803161084651947, -0.38460028171539307, -0.8364338874816895, 0.047119140625, 0.2001953125, -0.80712890625
93, 2636761518, -5.422052383422852, -2.241037368774414, 7.704923152923584, -0.245510533452034, -0.3086971044540405, -1.021767497062683, 0.04541015625, 0.19970703125, -0.806640625
94, 2636778185, -5.388010025024414, -2.2435545921325684, 7.706702709197998, -0.306225448846817, -0.32539650797843933, -0.9734874367713928, 0.047607421875, 0.201171875, -0.80712890625
95, 2636794852, -5.413487434387207, -2.2376179695129395, 7.72153902053833, -0.3701803684234619, -0.26566773653030396, -0.9252332448959351, 0.047119140625, 0.19970703125, -0.80712890625
96, 2636811519, -5.423480033874512, -2.2447054386138916, 7.717376232147217, -0.36724770069122314, -0.2966462969779968, -0.9076500535011292, 0.048095703125, 0.1982421875, -0.80517578125
97, 2636828186, -5.406147480010986, -2.2821083068847656, 7.679043292999268, -0.2923049330711365, -0.30076995491981506, -0.8881588578224182, 0.047119140625, 0.19921875, -0.80712890625
98, 2636844853, -5.418489933013916, -2.2523670196533203, 7.727226734161377, -0.266807496547699, -0.28259772062301636, -0.9429956674575806, 0.049560546875, 0.202392578125, -0.8076171875
99, 2636861520, -5.407456398010254, -2.23443603515625, 7.719325542449951, -0.1798395812511444, -0.34849920868873596, -0.9129005670547485, 0.046630859375, 0.201171875, -0.80908203125
100, 2636878187, -5.435260772705078, -2.2414257526397705, 7.722079277038574, -0.26840826869010925, -0.31799444556236267, -0.9322766661643982, 0.048095703125, 0.19873046875, -0.8076171875
101, 2636894854, -5.434718608856201, -2.227099895477295, 7.694969654083252, -0.20280136168003082, -0.4007619321346283, -1.006207823753357, 0.048095703125, 0.1982421875, -0.8037109375
102, 2636911521, -5.432132720947266, -2.2436630725860596, 7.704309940338135, -0.2548975944519043, -0.5955464839935303, -1.021677851676941, 0.049072265625, 0.19921875, -0.8056640625
103, 2636928188, -5.417044639587402, -2.265172243118286, 7.705349922180176, -0.18742091953754425, -0.5298883318901062, -0.9909936785697937, 0.047607421875, 0.19873046875, -0.80615234375
104, 2636944855, -5.4110894203186035, -2.2592437267303467, 7.690227031707764, -0.1936960369348526, -0.5664248466491699, -0.9859480857849121, 0.046630859375, 0.1982421875, -0.80712890625
105, 2636961522, -5.410151958465576, -2.2645514011383057, 7.72518253326416, -0.16914626955986023, -0.5687812566757202, -0.9312266111373901, 0.047119140625, 0.2001953125, -0.80419921875
106, 2636978189, -5.4308366775512695, -2.255601406097412, 7.700296878814697, -0.11415579169988632, -0.4899709224700928, -0.8716513514518738, 0.046630859375, 0.19921875, -0.806640625
107, 2636994856, -5.433769702911377, -2.244384288787842, 7.724592208862305, -0.19466930627822876, -0.6152938604354858, -0.8558739423751831, 0.047119140625, 0.19873046875, -0.80322265625
108, 2637011523, -5.420023441314697, -2.260404348373413, 7.702826976776123, -0.26425901055336, -0.6339142918586731, -0.9558274745941162, 0.047607421875, 0.19677734375, -0.8046875
109, 2637028190, -5.41697359085083, -2.254652976989746, 7.674975872039795, -0.06814258545637131, -0.5526707768440247, -0.8695767521858215, 0.046630859375, 0.19921875, -0.8056640625
110, 2637044857, -5.41663122177124, -2.2457332611083984, 7.710506916046143, -0.20433810353279114, -0.5236772298812866, -0.7927258014678955, 0.047607421875, 0.201171875, -0.80810546875
111, 2637061524, -5.426049709320068, -2.246389150619507, 7.702662467956543, -0.20584926009178162, -0.4867565333843231, -0.8605866432189941, 0.048095703125, 0.20068359375, -0.8046875
112, 2637078191, -5.427319526672363, -2.252588987350464, 7.701213836669922, -0.12562501430511475, -0.5851956009864807, -0.8751358985900879, 0.047607421875, 0.19921875, -0.8095703125
113, 2637094858, -5.416680812835693, -2.2494165897369385, 7.704644680023193, -0.1465814709663391, -0.6187132000923157, -0.8714976906776428, 0.045654296875, 0.19775390625, -0.8056640625
114, 2637111525, -5.419902801513672, -2.236733913421631, 7.731031894683838, -0.16098862886428833, -0.4463140666484833, -0.8248953223228455, 0.047607421875, 0.1982421875, -0.80517578125
115, 2637128192, -5.414142608642578, -2.250725507736206, 7.708330154418945, -0.14072895050048828, -0.40132537484169006, -0.8343976140022278, 0.045654296875, 0.19873046875, -0.80322265625
116, 2637144859, -5.423776626586914, -2.2435786724090576, 7.68469762802124, -0.10875152796506882, -0.5858520865440369, -0.8497397899627686, 0.045654296875, 0.19775390625, -0.806640625
117, 2637161526, -5.431473255157471, -2.2201597690582275, 7.709068298339844, -0.16944080591201782, -0.5494179725646973, -0.8776319622993469, 0.048095703125, 0.201171875, -0.80859375
118, 2637178193, -5.421955108642578, -2.246250867843628, 7.703308582305908, -0.20893560349941254, -0.5146616101264954, -0.942086398601532, 0.047119140625, 0.19921875, -0.80859375
119, 2637194860, -5.423915863037109, -2.251525402069092, 7.7126145362854, -0.2653091251850128, -0.6137442588806152, -1.0479179620742798, 0.048095703125, 0.19873046875, -0.80615234375
120, 2637211527, -5.422301769256592, -2.2139744758605957, 7.710738182067871, -0.23595696687698364, -0.6941937208175659, -1.1330289840698242, 0.046142578125, 0.19873046875, -0.806640625
121, 2637228194, -5.422475337982178, -2.248823881149292, 7.719858646392822, -0.18916258215904236, -0.8199392557144165, -1.2904702425003052, 0.049072265625, 0.19921875, -0.8046875
122, 2637244861, -5.430593490600586, -2.2744646072387695, 7.7058939933776855, -0.1402423232793808, -0.9378089904785156, -1.2687122821807861, 0.048095703125, 0.19970703125, -0.80712890625
123, 2637261528, -5.394249439239502, -2.2831637859344482, 7.698574066162109, -0.07952743768692017, -0.8443867564201355, -1.0638619661331177, 0.045654296875, 0.197265625, -0.81005859375
124, 2637278195, -5.4368815422058105, -2.2244486808776855, 7.714005947113037, -0.17683009803295135, -0.8070818185806274, -1.0467398166656494, 0.046142578125, 0.1982421875, -0.8076171875
125, 2637294862, -5.417641639709473, -2.2296876907348633, 7.7143940925598145, -0.29688960313796997, -0.7251723408699036, -1.1916308403015137, 0.048095703125, 0.1962890625, -0.8046875
126, 2637311529, -5.403493404388428, -2.256160259246826, 7.7010979652404785, -0.282418429851532, -0.7646415829658508, -1.2156299352645874, 0.046142578125, 0.19970703125, -0.8046875
127, 2637328196, -5.409814834594727, -2.251115083694458, 7.702881336212158, -0.19565540552139282, -0.9382315278053284, -1.0961722135543823, 0.047119140625, 0.19873046875, -0.8046875
128, 2637344863, -5.40597677230835, -2.2312891483306885, 7.725982189178467, -0.17781616747379303, -0.8023690581321716, -1.103446364402771, 0.045654296875, 0.19970703125, -0.806640625
129, 2637361530, -5.419797420501709, -2.238696336746216, 7.7202630043029785, -0.2620563507080078, -0.739374577999115, -1.2110836505889893, 0.045654296875, 0.19873046875, -0.806640625
130, 2637378197, -5.4337263107299805, -2.2503747940063477, 7.708723545074463, -0.329071968793869, -0.7426530122756958, -1.1867130994796753, 0.047119140625, 0.19970703125, -0.80712890625
131, 2637394864, -5.404214382171631, -2.244246482849121, 7.726820468902588, -0.33290109038352966, -0.6394723653793335, -1.2268483638763428, 0.047119140625, 0.2001953125, -0.80712890625
132, 2637411531, -5.418867588043213, -2.2624905109405518, 7.725038528442383, -0.28880882263183594, -0.7294369339942932, -1.2048598527908325, 0.048095703125, 0.197265625, -0.80517578125
133, 2637428198, -5.417230129241943, -2.2488574981689453, 7.7078471183776855, -0.2646560072898865, -0.8143685460090637, -1.217166781425476, 0.0458984375, 0.20068359375, -0.8056640625
134, 2637444865, -5.397752285003662, -2.2645630836486816, 7.722415924072266, -0.1980886161327362, -0.8536456823348999, -1.08755362033844, 0.04541015625, 0.2001953125, -0.80859375
135, 2637461532, -5.419154644012451, -2.2565970420837402, 7.702270984649658, -0.13988377153873444, -0.8618929982185364, -1.0359312295913696, 0.045166015625, 0.19921875, -0.80810546875
136, 2637478199, -5.401607990264893, -2.2627317905426025, 7.72335958480835, -0.1727960705757141, -0.7383756637573242, -1.0765913724899292, 0.047119140625, 0.20068359375, -0.806640625
137, 2637494866, -5.405268669128418, -2.2621991634368896, 7.728455066680908, -0.1486176997423172, -0.7872063517570496, -0.9931964874267578, 0.046142578125, 0.19873046875, -0.806640625
138, 2637511533, -5.4188432693481445, -2.2464523315429688, 7.696547031402588, -0.1836046278476715, -0.7760775685310364, -1.1070448160171509, 0.046630859375, 0.19775390625, -0.80712890625
139, 2637528200, -5.4076337814331055, -2.261373281478882, 7.699909210205078, -0.2751316428184509, -0.8342568874359131, -1.0986182689666748, 0.046630859375, 0.20068359375, -0.80615234375
140, 2637544867, -5.406827449798584, -2.2424328327178955, 7.727441787719727, -0.29053765535354614, -0.9173828959465027, -1.1688611507415771, 0.047119140625, 0.2001953125, -0.8076171875
141, 2637561534, -5.391602039337158, -2.2688066959381104, 7.7289557456970215, -0.2893722653388977, -0.8258943557739258, -1.172908067703247, 0.04541015625, 0.20068359375, -0.8076171875
142, 2637578201, -5.381767272949219, -2.2561559677124023, 7.727581977844238, -0.23742970824241638, -0.6940785050392151, -1.050184726715088, 0.04296875, 0.19970703125, -0.80712890625
143, 2637594868, -5.409183979034424, -2.243234157562256, 7.728261470794678, -0.2316412776708603, -0.6121307611465454, -1.0416812896728516, 0.045654296875, 0.1982421875, -0.80615234375
144, 2637611535, -5.401162147521973, -2.265897035598755, 7.723420143127441, -0.3268820345401764, -0.5365475416183472, -1.0467524528503418, 0.045166015625, 0.197265625, -0.8076171875
145, 2637628202, -5.388279914855957, -2.2574541568756104, 7.714430809020996, -0.5386673808097839, -0.40775302052497864, -1.1145522594451904, 0.047119140625, 0.19873046875, -0.806640625
146, 2637644869, -5.401247978210449, -2.2718687057495117, 7.710299015045166, -0.36551883816719055, -0.4154508113861084, -1.0570745468139648, 0.046142578125, 0.19970703125, -0.80712890625
147, 2637661536, -5.408168315887451, -2.256730318069458, 7.731568813323975, -0.3602553904056549, -0.4355183243751526, -0.995719313621521, 0.044677734375, 0.1982421875, -0.80712890625
148, 2637678203, -5.402853965759277, -2.2489430904388428, 7.721979141235352, -0.2859273850917816, -0.42132890224456787, -0.9543803334236145, 0.047607421875, 0.1982421875, -0.80810546875
149, 2637694870, -5.402310848236084, -2.2614965438842773, 7.711525917053223, -0.3722934126853943, -0.5275960564613342, -1.0026347637176514, 0.0458984375, 0.20166015625, -0.8056640625
150, 2637711537, -5.407527446746826, -2.2586724758148193, 7.710414409637451, -0.35450536012649536, -0.40915006399154663, -1.0049141645431519, 0.0458984375, 0.20166015625, -0.80712890625
151, 2637728204, -5.392043590545654, -2.2604598999023438, 7.711383819580078, -0.2687540650367737, -0.49290359020233154, -1.0162991285324097, 0.0439453125, 0.19921875, -0.80615234375
152, 2637744871, -5.409482479095459, -2.261141061782837, 7.722952842712402, -0.2581503987312317, -0.5224094390869141, -0.9329296946525574, 0.046142578125, 0.2001953125, -0.80615234375
153, 2637761538, -5.398580074310303, -2.270364284515381, 7.714745998382568, -0.29134440422058105, -0.42948654294013977, -0.9109925031661987, 0.047607421875, 0.19775390625, -0.8076171875
154, 2637778205, -5.404022216796875, -2.2602427005767822, 7.723318576812744, -0.1157694011926651, -0.5175301432609558, -0.8544780015945435, 0.0439453125, 0.19921875, -0.8056640625
155, 2637794872, -5.408526420593262, -2.2604353427886963, 7.713067054748535, -0.16189788281917572, -0.5967887043952942, -0.865696370601654, 0.046142578125, 0.19921875, -0.80615234375
156, 2637811539, -5.411912441253662, -2.260560989379883, 7.741892337799072, -0.181248277425766, -0.5276216864585876, -0.9140787720680237, 0.045166015625, 0.1982421875, -0.8076171875
157, 2637828206, -5.4137139320373535, -2.260852336883545, 7.7036590576171875, -0.17529332637786865, -0.5603674054145813, -0.9334931969642639, 0.046142578125, 0.1982421875, -0.80517578125
158, 2637844873, -5.391961574554443, -2.2881875038146973, 7.7038164138793945, -0.13592658936977386, -0.646759033203125, -0.8348586559295654, 0.04345703125, 0.2001953125, -0.80712890625
159, 2637861540, -5.421669960021973, -2.2376620769500732, 7.717105865478516, -0.022487947717308998, -0.7181928753852844, -0.808759331703186, 0.045166015625, 0.1982421875, -0.806640625
160, 2637878207, -5.39667272567749, -2.258612871170044, 7.721650123596191, -0.004098032135516405, -0.7318316698074341, -0.9127342104911804, 0.045654296875, 0.19970703125, -0.8056640625
161, 2637894874, -5.407242774963379, -2.245619535446167, 7.715994834899902, -0.09110436588525772, -0.672819972038269, -0.9340182542800903, 0.045166015625, 0.19921875, -0.8076171875
162, 2637911541, -5.391617774963379, -2.2578654289245605, 7.706941604614258, -0.12176278233528137, -0.7068721055984497, -0.9095710515975952, 0.044921875, 0.2001953125, -0.8056640625
163, 2637928208, -5.398862838745117, -2.252241849899292, 7.728524208068848, -0.1257583498954773, -0.6366676688194275, -0.8326432108879089, 0.04443359375, 0.1982421875, -0.8037109375
164, 2637944875, -5.392685890197754, -2.2635715007781982, 7.726341724395752, -0.08029581606388092, -0.6709630489349365, -0.9028988480567932, 0.0439453125, 0.20166015625, -0.8076171875
165, 2637961542, -5.3990302085876465, -2.267893075942993, 7.73202657699585, -0.2566136121749878, -0.6640732884407043, -0.8954710960388184, 0.046142578125, 0.19873046875, -0.80615234375
166, 2637978209, -5.405648231506348, -2.2586333751678467, 7.708915710449219, -0.16929994523525238, -0.49047034978866577, -0.7877954244613647, 0.046630859375, 0.201171875, -0.80810546875
167, 2637994876, -5.410403251647949, -2.2502102851867676, 7.717045307159424, -0.23742973804473877, -0.561456024646759, -0.8492146134376526, 0.04443359375, 0.1982421875, -0.8076171875
168, 2638011543, -5.420755863189697, -2.246273994445801, 7.723474025726318, -0.1508459895849228, -0.7342520356178284, -0.9207765460014343, 0.045166015625, 0.19873046875, -0.80615234375
169, 2638028210, -5.395299434661865, -2.2617995738983154, 7.7339863777160645, -0.21921908855438232, -0.7105475068092346, -1.0369045734405518, 0.046142578125, 0.19775390625, -0.80615234375
170, 2638044877, -5.3896918296813965, -2.260357141494751, 7.713919162750244, -0.16612395644187927, -0.5980693697929382, -0.8869549036026001, 0.045654296875, 0.1982421875, -0.8076171875
171, 2638061544, -5.401946544647217, -2.26288104057312, 7.730541706085205, -0.14970622956752777, -0.613257646560669, -0.9084055423736572, 0.04443359375, 0.201171875, -0.809326171875
172, 2638078211, -5.406721591949463, -2.252049446105957, 7.7106523513793945, -0.037010349333286285, -0.6637146472930908, -0.9165889024734497, 0.044921875, 0.20068359375, -0.80859375
173, 2638094878, -5.397897720336914, -2.2378766536712646, 7.711627960205078, -0.12694935500621796, -0.6820022463798523, -0.9460179209709167, 0.044189453125, 0.19775390625, -0.8046875
174, 2638111545, -5.413750171661377, -2.2412617206573486, 7.7043681144714355, -0.26516827940940857, -0.5866972208023071, -1.0355085134506226, 0.04248046875, 0.197265625, -0.80419921875
175, 2638128212, -5.412130832672119, -2.2472991943359375, 7.7176513671875, -0.24649661779403687, -0.5676286816596985, -1.0241366624832153, 0.047119140625, 0.19775390625, -0.806640625
176, 2638144879, -5.407286643981934, -2.254159688949585, 7.71438455581665, -0.21896298229694366, -0.48463067412376404, -0.9713743329048157, 0.04345703125, 0.201171875, -0.80810546875
177, 2638161546, -5.410303115844727, -2.2511699199676514, 7.713964462280273, -0.16456159949302673, -0.4850277006626129, -0.8466918468475342, 0.04443359375, 0.20068359375, -0.809814453125
178, 2638178213, -5.3960041999816895, -2.244982957839966, 7.738989353179932, -0.11364354193210602, -0.6477323770523071, -0.9237987995147705, 0.04638671875, 0.201171875, -0.8095703125
179, 2638194880, -5.40831184387207, -2.240952730178833, 7.716781139373779, -0.09499038010835648, -0.6489878296852112, -0.9472911953926086, 0.045166015625, 0.19921875, -0.8056640625
180, 2638211547, -5.3865437507629395, -2.247692584991455, 7.731231689453125, -0.17946816980838776, -0.5621347427368164, -0.8789253234863281, 0.044189453125, 0.19775390625, -0.8037109375
181, 2638228214, -5.395599842071533, -2.254417896270752, 7.71319055557251, -0.19361919164657593, -0.5189260840415955, -0.9589778780937195, 0.0439453125, 0.19970703125, -0.8056640625
182, 2638244881, -5.401480674743652, -2.2606940269470215, 7.694430351257324, -0.1410747766494751, -0.49464529752731323, -0.8901438117027283, 0.04443359375, 0.1982421875, -0.80712890625
183, 2638261548, -5.399796485900879, -2.25807785987854, 7.724661350250244, -0.1093406230211258, -0.5678336024284363, -0.8923336863517761, 0.048095703125, 0.19970703125, -0.80712890625
184, 2638278215, -5.384276866912842, -2.254115581512451, 7.700334072113037, -0.11652497947216034, -0.5419902801513672, -0.8728679418563843, 0.04541015625, 0.2001953125, -0.806640625
185, 2638294882, -5.402830123901367, -2.2450900077819824, 7.734116554260254, -0.10197696834802628, -0.4946965277194977, -0.8681424856185913, 0.04248046875, 0.1982421875, -0.8037109375
186, 2638311549, -5.400347709655762, -2.2433531284332275, 7.740126609802246, -0.09702090173959732, -0.5666168928146362, -0.919508695602417, 0.046142578125, 0.19873046875, -0.806640625
187, 2638328216, -5.401191711425781, -2.2584829330444336, 7.710928916931152, -0.1321871280670166, -0.4679696261882782, -0.9346201419830322, 0.044677734375, 0.19775390625, -0.80419921875
188, 2638344883, -5.3888115882873535, -2.2538247108459473, 7.712246894836426, -0.13864153623580933, -0.5878370404243469, -0.8668745756149292, 0.046142578125, 0.19873046875, -0.80712890625
189, 2638361550, -5.397624969482422, -2.2502355575561523, 7.708052158355713, -0.10608779639005661, -0.5267892479896545, -0.8704731464385986, 0.046630859375, 0.19970703125, -0.80615234375
190, 2638378217, -5.406077861785889, -2.2361249923706055, 7.7204084396362305, -0.14642781019210815, -0.5509291291236877, -0.8912963271141052, 0.04443359375, 0.201171875, -0.8056640625
191, 2638394884, -5.404505252838135, -2.24748158454895, 7.721724510192871, -0.2032751888036728, -0.5011892318725586, -0.901528537273407, 0.045654296875, 0.19921875, -0.80712890625
192, 2638411551, -5.392881393432617, -2.274503231048584, 7.726174354553223, -0.056770551949739456, -0.5665017366409302, -0.9163969159126282, 0.046630859375, 0.19970703125, -0.80712890625
193, 2638428218, -5.397796630859375, -2.261270761489868, 7.694771766662598, -0.08237043768167496, -0.5596631169319153, -0.8223596811294556, 0.044921875, 0.201171875, -0.80712890625
194, 2638444885, -5.41129732131958, -2.247318983078003, 7.72929048538208, -0.05618145316839218, -0.5764521956443787, -0.8301844000816345, 0.045654296875, 0.2001953125, -0.806640625
195, 2638461552, -5.394368648529053, -2.2470781803131104, 7.725770473480225, -0.12190365791320801, -0.5086170434951782, -0.844809353351593, 0.045166015625, 0.19677734375, -0.806640625
196, 2638478219, -5.40239953994751, -2.247201442718506, 7.727052211761475, -0.16781441867351532, -0.48874154686927795, -0.8849572539329529, 0.045654296875, 0.2001953125, -0.80615234375
197, 2638494886, -5.407240390777588, -2.2356014251708984, 7.720933437347412, -0.12328671663999557, -0.5244584083557129, -0.8680399656295776, 0.044677734375, 0.1962890625, -0.80615234375
198, 2638511553, -5.389697551727295, -2.2643754482269287, 7.73879337310791, -0.16285833716392517, -0.5476763248443604, -0.77103191614151, 0.04248046875, 0.1982421875, -0.8046875
199, 2638528220, -5.40731143951416, -2.244234561920166, 7.720473766326904, -0.09265393763780594, -0.37143537402153015, -0.7256333827972412, 0.044189453125, 0.197265625, -0.80517578125
200, 2638544887, -5.397690773010254, -2.2427220344543457, 7.732590198516846, -0.24349993467330933, -0.361907422542572, -0.7552544474601746, 0.047119140625, 0.19921875, -0.80712890625
201, 2638561554, -5.412528991699219, -2.242351770401001, 7.722466945648193, -0.21801529824733734, -0.4140036404132843, -0.8306581974029541, 0.047119140625, 0.19921875, -0.80908203125
202, 2638578221, -5.40610933303833, -2.2607340812683105, 7.720105171203613, -0.16066846251487732, -0.4609517455101013, -0.7689316868782043, 0.045654296875, 0.19921875, -0.806640625
203, 2638594888, -5.4011101722717285, -2.250056743621826, 7.7145514488220215, -0.10156715661287308, -0.4138755798339844, -0.6911073923110962, 0.045654296875, 0.1962890625, -0.8076171875
204, 2638611555, -5.403262138366699, -2.2465550899505615, 7.722343921661377, -0.10634392499923706, -0.38681578636169434, -0.6588098406791687, 0.046630859375, 0.1982421875, -0.80517578125
205, 2638628222, -5.399561405181885, -2.2385377883911133, 7.714529991149902, -0.12182680517435074, -0.3459891378879547, -0.7253900766372681, 0.046142578125, 0.1982421875, -0.80517578125
206, 2638644889, -5.391943454742432, -2.2600350379943848, 7.734314441680908, -0.05036737024784088, -0.4801740050315857, -0.7414748072624207, 0.043701171875, 0.19580078125, -0.8056640625
207, 2638661556, -5.417393207550049, -2.2444944381713867, 7.716046333312988, -0.06437753140926361, -0.3913748860359192, -0.7539610862731934, 0.046630859375, 0.19921875, -0.8076171875
208, 2638678223, -5.391976356506348, -2.2348010540008545, 7.738898754119873, -0.1324944943189621, -0.3571819067001343, -0.7791382670402527, 0.046630859375, 0.201171875, -0.80712890625
209, 2638694890, -5.403631687164307, -2.2383556365966797, 7.741945266723633, -0.1754341870546341, -0.30749326944351196, -0.75246262550354, 0.046142578125, 0.1982421875, -0.80712890625
210, 2638711557, -5.401878356933594, -2.2402267456054688, 7.7178754806518555, -0.250927597284317, -0.2792808711528778, -0.7657556533813477, 0.047119140625, 0.19775390625, -0.80322265625
211, 2638728224, -5.423304080963135, -2.2532029151916504, 7.7284321784973145, -0.14323903620243073, -0.3659926652908325, -0.8098992705345154, 0.048095703125, 0.19970703125, -0.80615234375
212, 2638744891, -5.418222904205322, -2.2375805377960205, 7.707413196563721, -0.1905698925256729, -0.31482452154159546, -0.7736651301383972, 0.045166015625, 0.19921875, -0.8076171875
213, 2638761558, -5.427655220031738, -2.227756977081299, 7.722486972808838, -0.20322397351264954, -0.4724646806716919, -0.8127166628837585, 0.045654296875, 0.19677734375, -0.80615234375
214, 2638778225, -5.406685829162598, -2.239408493041992, 7.714759826660156, -0.2448958158493042, -0.5434374213218689, -0.9183047413825989, 0.04443359375, 0.19921875, -0.806640625
215, 2638794892, -5.424182415008545, -2.2371058464050293, 7.712950706481934, -0.2381724864244461, -0.531296968460083, -0.9617824554443359, 0.0439453125, 0.19775390625, -0.80517578125
216, 2638811559, -5.429483890533447, -2.2464308738708496, 7.729735374450684, -0.18158122897148132, -0.5880547761917114, -0.859843909740448, 0.046630859375, 0.19775390625, -0.80810546875
217, 2638828226, -5.410516738891602, -2.2443461418151855, 7.731105804443359, -0.09393458068370819, -0.6592580080032349, -0.888338029384613, 0.045654296875, 0.1982421875, -0.80712890625
218, 2638844893, -5.406542778015137, -2.2448813915252686, 7.704446315765381, -0.08858153223991394, -0.7058476805686951, -0.8306198716163635, 0.046142578125, 0.19873046875, -0.8056640625
219, 2638861560, -5.409193515777588, -2.2388176918029785, 7.719340801239014, -0.08603305369615555, -0.6801195740699768, -0.8555281758308411, 0.045654296875, 0.19775390625, -0.81005859375
220, 2638878227, -5.407258987426758, -2.247019052505493, 7.737590789794922, -0.11292638629674911, -0.5278009176254272, -0.8572057485580444, 0.04541015625, 0.19970703125, -0.80712890625
221, 2638894894, -5.388743877410889, -2.229185104370117, 7.73655366897583, -0.11660181730985641, -0.5686787962913513, -0.7778192758560181, 0.047119140625, 0.19873046875, -0.8056640625
222, 2638911561, -5.414350509643555, -2.2288119792938232, 7.7157182693481445, -0.08367668837308884, -0.49575942754745483, -0.9288316965103149, 0.044677734375, 0.1982421875, -0.80712890625
223, 2638928228, -5.41254186630249, -2.2180824279785156, 7.72012996673584, -0.15211381018161774, -0.509334146976471, -0.8460130095481873, 0.047607421875, 0.19775390625, -0.8046875
224, 2638944895, -5.413658142089844, -2.2330734729766846, 7.698399543762207, -0.14329025149345398, -0.4915076792240143, -0.893153190612793, 0.047119140625, 0.1982421875, -0.80615234375
225, 2638961562, -5.4168925285339355, -2.2419300079345703, 7.705183982849121, -0.013216152787208557, -0.6294448375701904, -0.8546572923660278, 0.045654296875, 0.2001953125, -0.8076171875
226, 2638978229, -5.407658100128174, -2.2549397945404053, 7.717596530914307, 0.0030671206768602133, -0.706475019454956, -0.8705884218215942, 0.048095703125, 0.19873046875, -0.8076171875
227, 2638994896, -5.395952224731445, -2.2384254932403564, 7.739807605743408, 0.03019097074866295, -0.6957946419715881, -0.8129598498344421, 0.046142578125, 0.19580078125, -0.806640625
228, 2639011563, -5.404661655426025, -2.232887029647827, 7.718001842498779, -0.04795977845788002, -0.6185082793235779, -0.9189963936805725, 0.046142578125, 0.19677734375, -0.8076171875
229, 2639028230, -5.409610748291016, -2.2386653423309326, 7.72294282913208, -0.09817346930503845, -0.5196048617362976, -0.8572953939437866, 0.044189453125, 0.197265625, -0.8046875
230, 2639044897, -5.409710884094238, -2.246068000793457, 7.715333938598633, -0.0016007935628294945, -0.5886310338973999, -0.708703339099884, 0.045654296875, 0.19775390625, -0.80712890625
231, 2639061564, -5.420168876647949, -2.231489419937134, 7.722329616546631, -0.18630675971508026, -0.49227607250213623, -0.7716209888458252, 0.048583984375, 0.19921875, -0.80810546875
232, 2639078231, -5.411190509796143, -2.228611707687378, 7.7128987312316895, -0.0402887724339962, -0.5453327894210815, -0.87530118227005, 0.0458984375, 0.20068359375, -0.8095703125
233, 2639094898, -5.413290500640869, -2.236523389816284, 7.723058700561523, -0.14806699752807617, -0.5940224528312683, -0.9226974248886108, 0.044189453125, 0.19677734375, -0.806640625
234, 2639111565, -5.414931774139404, -2.2472498416900635, 7.725824356079102, -0.13368548452854156, -0.6809135675430298, -0.891065776348114, 0.046142578125, 0.19873046875, -0.80419921875
235, 2639128232, -5.404645919799805, -2.231783390045166, 7.733023643493652, -0.13377514481544495, -0.599362850189209, -0.8376633524894714, 0.046630859375, 0.1982421875, -0.80810546875
236, 2639144899, -5.397493839263916, -2.2440900802612305, 7.718405246734619, -0.15316393971443176, -0.6527139544487, -0.8533895015716553, 0.043701171875, 0.19677734375, -0.8037109375
237, 2639161566, -5.40524959564209, -2.225175380706787, 7.736445426940918, 0.025926455855369568, -0.6637275218963623, -0.7996413707733154, 0.046142578125, 0.19921875, -0.80615234375
238, 2639178233, -5.4122796058654785, -2.234485149383545, 7.7150139808654785, -0.10551150888204575, -0.5868765115737915, -0.8377401828765869, 0.046142578125, 0.1982421875, -0.80810546875
239, 2639194900, -5.404964923858643, -2.2374837398529053, 7.706147193908691, -0.032246388494968414, -0.4384765923023224, -0.9464020133018494, 0.045654296875, 0.1982421875, -0.80712890625
240, 2639211567, -5.4042277336120605, -2.2418246269226074, 7.729034900665283, -0.14307251572608948, -0.4642813801765442, -0.7971184253692627, 0.047119140625, 0.19677734375, -0.8095703125
241, 2639228234, -5.40179443359375, -2.243183135986328, 7.7324419021606445, -0.17877663671970367, -0.456431120634079, -0.7793176770210266, 0.044677734375, 0.197265625, -0.8037109375
242, 2639244901, -5.435788154602051, -2.2301697731018066, 7.71333646774292, -0.13339094817638397, -0.48327329754829407, -0.687675416469574, 0.045654296875, 0.19775390625, -0.8076171875
243, 2639261568, -5.412777423858643, -2.216909885406494, 7.7205610275268555, -0.20923013985157013, -0.5132144689559937, -0.7941601872444153, 0.046630859375, 0.19775390625, -0.8056640625
244, 2639278235, -5.4170660972595215, -2.2308008670806885, 7.703327178955078, -0.17120811343193054, -0.5077589750289917, -0.8870446681976318, 0.047607421875, 0.1982421875, -0.80712890625
245, 2639294902, -5.415421009063721, -2.246959924697876, 7.705717086791992, -0.16641850769519806, -0.6021161675453186, -0.9101344347000122, 0.045654296875, 0.197265625, -0.8056640625
246, 2639311569, -5.419750690460205, -2.2372379302978516, 7.73887300491333, -0.07788007706403732, -0.6163040995597839, -0.8885961771011353, 0.047119140625, 0.19677734375, -0.80517578125
247, 2639328236, -5.400681972503662, -2.2336199283599854, 7.70665168762207, 0.015489280223846436, -0.6303413510322571, -0.717462956905365, 0.046630859375, 0.197265625, -0.80859375
248, 2639344903, -5.395912170410156, -2.2249019145965576, 7.742870330810547, -0.06774558871984482, -0.6355919241905212, -0.7766538262367249, 0.044677734375, 0.1962890625, -0.8076171875
249, 2639361570, -5.400117874145508, -2.242685556411743, 7.712430953979492, 0.07085112482309341, -0.5846354365348816, -0.8271621465682983, 0.045654296875, 0.19775390625, -0.80859375
250, 2639378237, -5.387711524963379, -2.2215676307678223, 7.7578606605529785, -0.0018953398102894425, -0.6450559496879578, -0.828698992729187, 0.045166015625, 0.1982421875, -0.8095703125
251, 2639394904, -5.404029369354248, -2.2340402603149414, 7.7124481201171875, -0.001703244517557323, -0.6362322568893433, -0.8057242631912231, 0.044189453125, 0.19775390625, -0.80810546875
252, 2639411571, -5.4181928634643555, -2.240365505218506, 7.743948936462402, -0.0933326706290245, -0.6018728017807007, -0.8100656270980835, 0.045166015625, 0.1953125, -0.806640625
253, 2639428238, -5.41091251373291, -2.2286128997802734, 7.731281280517578, -0.12518206238746643, -0.5153787136077881, -0.8719074726104736, 0.045654296875, 0.19775390625, -0.8056640625
254, 2639444905, -5.416473865509033, -2.2231106758117676, 7.728222370147705, -0.1055627390742302, -0.43455785512924194, -0.8376632928848267, 0.045166015625, 0.1982421875, -0.80712890625
255, 2639461572, -5.399537563323975, -2.224879741668701, 7.716824531555176, -0.12706461548805237, -0.4569946229457855, -0.9011444449424744, 0.045166015625, 0.197265625, -0.8076171875
256, 2639478239, -5.411778450012207, -2.2376720905303955, 7.718604564666748, -0.1809280961751938, -0.5135217905044556, -0.8742894530296326, 0.048095703125, 0.19873046875, -0.80810546875
257, 2639494906, -5.398318290710449, -2.233471393585205, 7.722776889801025, -0.1804414838552475, -0.5097311735153198, -0.8906688690185547, 0.045654296875, 0.19580078125, -0.8056640625
258, 2639511573, -5.404309272766113, -2.2309913635253906, 7.71157169342041, -0.19290205836296082, -0.6083272695541382, -0.8840736150741577, 0.046630859375, 0.19580078125, -0.8056640625
259, 2639528240, -5.40471076965332, -2.242685317993164, 7.73238468170166, -0.09590674191713333, -0.5688708424568176, -0.803457498550415, 0.046630859375, 0.1953125, -0.8076171875
260, 2639544907, -5.41358757019043, -2.21885085105896, 7.730973243713379, -0.21526192128658295, -0.459683895111084, -0.828980565071106, 0.047119140625, 0.19775390625, -0.8076171875
261, 2639561574, -5.400425434112549, -2.2384724617004395, 7.730676174163818, -0.2399013191461563, -0.46068280935287476, -0.8327968716621399, 0.045654296875, 0.19677734375, -0.80615234375
262, 2639578241, -5.424594879150391, -2.2367215156555176, 7.704324245452881, -0.32419273257255554, -0.45691773295402527, -0.9155259132385254, 0.047119140625, 0.19775390625, -0.80615234375
263, 2639594908, -5.412120819091797, -2.236510753631592, 7.707500457763672, -0.13020214438438416, -0.4426770806312561, -0.8265986442565918, 0.045166015625, 0.19775390625, -0.80908203125
264, 2639611575, -5.415434837341309, -2.223088026046753, 7.707906723022461, -0.1198546290397644, -0.5532727241516113, -0.8488175868988037, 0.046630859375, 0.19677734375, -0.8056640625
265, 2639628242, -5.406624794006348, -2.2195050716400146, 7.728876113891602, -0.12755124270915985, -0.599273145198822, -0.8754675984382629, 0.047119140625, 0.1962890625, -0.8056640625
266, 2639644909, -5.40055513381958, -2.2219369411468506, 7.735593795776367, -0.07011475414037704, -0.6121050715446472, -0.8101680874824524, 0.044189453125, 0.19580078125, -0.80517578125
267, 2639661576, -5.395201683044434, -2.2170841693878174, 7.736507892608643, -0.13722003996372223, -0.6064062118530273, -0.8662983179092407, 0.046630859375, 0.1962890625, -0.8037109375
268, 2639678243, -5.399031162261963, -2.2233991622924805, 7.733950614929199, -0.04477100074291229, -0.4580703675746918, -0.8537097573280334, 0.045654296875, 0.197265625, -0.80712890625
269, 2639694910, -5.3942461013793945, -2.207310914993286, 7.727230548858643, -0.16700758039951324, -0.4413580298423767, -0.7732345461845398, 0.046630859375, 0.1962890625, -0.81005859375
270, 2639711577, -5.411068916320801, -2.2137396335601807, 7.724928379058838, -0.049381282180547714, -0.44567376375198364, -0.8212839365005493, 0.044677734375, 0.1982421875, -0.8046875
271, 2639728244, -5.392571449279785, -2.2148232460021973, 7.722409725189209, -0.04570585861802101, -0.45384418964385986, -0.7593908905982971, 0.045166015625, 0.197265625, -0.80615234375
272, 2639744911, -5.423018455505371, -2.2176055908203125, 7.708304405212402, -0.019913874566555023, -0.5076436996459961, -0.8283658623695374, 0.045654296875, 0.19873046875, -0.80517578125
273, 2639761578, -5.4006500244140625, -2.211153745651245, 7.707568645477295, -0.10507609695196152, -0.5756070613861084, -0.8201058506965637, 0.044677734375, 0.197265625, -0.8095703125
274, 2639778245, -5.4180169105529785, -2.2212743759155273, 7.715398788452148, -0.1092381551861763, -0.6380506753921509, -0.7951206564903259, 0.047607421875, 0.19677734375, -0.806640625
275, 2639794912, -5.411855697631836, -2.217897415161133, 7.737224102020264, -0.1118890717625618, -0.5584337115287781, -0.874686598777771, 0.046142578125, 0.1962890625, -0.80859375
276, 2639811579, -5.417239665985107, -2.2163894176483154, 7.721327304840088, -0.07995004206895828, -0.4811089336872101, -0.8754420280456543, 0.044189453125, 0.1962890625, -0.8056640625
277, 2639828246, -5.414243221282959, -2.2252705097198486, 7.735335826873779, -0.12716704607009888, -0.5331923961639404, -0.8303252458572388, 0.046142578125, 0.194580078125, -0.80517578125
278, 2639844913, -5.4134979248046875, -2.2194390296936035, 7.717789173126221, -0.3083513081073761, -0.7110085487365723, -0.9515629410743713, 0.045654296875, 0.1962890625, -0.80419921875
279, 2639861580, -5.405563831329346, -2.218045234680176, 7.713024616241455, -0.07277003675699234, -0.609004020690918, -0.8595112562179565, 0.047119140625, 0.19921875, -0.806640625
280, 2639878247, -5.414061546325684, -2.2250843048095703, 7.714327335357666, 0.010943026281893253, -0.6039218902587891, -0.825984001159668, 0.046630859375, 0.1982421875, -0.80859375
281, 2639894914, -5.423497676849365, -2.206575870513916, 7.742141246795654, -0.09048966318368912, -0.5188748836517334, -0.8384701013565063, 0.047119140625, 0.1962890625, -0.80712890625
282, 2639911581, -5.407850742340088, -2.213747024536133, 7.7477240562438965, -0.20020166039466858, -0.541490912437439, -0.8367413282394409, 0.045654296875, 0.19580078125, -0.8076171875
283, 2639928248, -5.422018051147461, -2.2236366271972656, 7.719061851501465, -0.13623395562171936, -0.6074179410934448, -0.9092124700546265, 0.047119140625, 0.19482421875, -0.80615234375
284, 2639944915, -5.400876045227051, -2.230304002761841, 7.755550384521484, -0.26400288939476013, -0.541042685508728, -0.9397554993629456, 0.045166015625, 0.1982421875, -0.80615234375
285, 2639961582, -5.406523704528809, -2.2150158882141113, 7.708880424499512, -0.13659252226352692, -0.390350341796875, -0.8575771450996399, 0.046142578125, 0.19775390625, -0.80859375
286, 2639978249, -5.400018215179443, -2.2259700298309326, 7.735471248626709, -0.13622114062309265, -0.49588742852211, -0.7950054407119751, 0.046142578125, 0.1953125, -0.81103515625
287, 2639994916, -5.4071478843688965, -2.2300260066986084, 7.730082988739014, -0.0811922550201416, -0.42406946420669556, -0.7549727559089661, 0.046142578125, 0.194580078125, -0.8056640625
288, 2640011583, -5.405275344848633, -2.2096359729766846, 7.730606555938721, -0.13632361590862274, -0.38155239820480347, -0.7586098313331604, 0.047119140625, 0.194580078125, -0.80615234375
289, 2640028250, -5.420193195343018, -2.1870923042297363, 7.7383809089660645, -0.3169059157371521, -0.3598327934741974, -0.9156923890113831, 0.045654296875, 0.19580078125, -0.80615234375
290, 2640044917, -5.409303665161133, -2.2226927280426025, 7.7144880294799805, -0.18841981887817383, -0.4754101037979126, -0.9543675184249878, 0.046142578125, 0.19677734375, -0.80712890625
291, 2640061584, -5.4128193855285645, -2.219689130783081, 7.720312118530273, -0.2213321328163147, -0.5069905519485474, -0.8939472436904907, 0.047607421875, 0.19873046875, -0.8076171875
292, 2640078251, -5.4271039962768555, -2.2303619384765625, 7.729312896728516, -0.05960075929760933, -0.47282326221466064, -0.8466918468475342, 0.046630859375, 0.19775390625, -0.80859375
293, 2640094918, -5.41182279586792, -2.2264175415039062, 7.714934349060059, -0.07662039250135422, -0.5311176776885986, -0.7731321454048157, 0.044677734375, 0.19580078125, -0.80859375
294, 2640111585, -5.399872303009033, -2.211958646774292, 7.713159561157227, -0.15169121325016022, -0.42141860723495483, -0.8100016117095947, 0.047119140625, 0.194091796875, -0.8056640625
295, 2640128252, -5.407525062561035, -2.218066692352295, 7.746750354766846, -0.07546781003475189, -0.4195103943347931, -0.7351996302604675, 0.047607421875, 0.1953125, -0.80859375
296, 2640144919, -5.406501770019531, -2.2096993923187256, 7.738537311553955, -0.06891096383333206, -0.37365084886550903, -0.7905359268188477, 0.046142578125, 0.1982421875, -0.80517578125
297, 2640161586, -5.416452884674072, -2.2258505821228027, 7.721124172210693, -0.15490561723709106, -0.37440645694732666, -0.8039826154708862, 0.046142578125, 0.1962890625, -0.8076171875
298, 2640178253, -5.414975643157959, -2.2203803062438965, 7.7250471115112305, -0.10590850561857224, -0.4657028913497925, -0.7896395325660706, 0.045166015625, 0.19580078125, -0.8076171875
299, 2640194920, -5.426483154296875, -2.2090611457824707, 7.723987102508545, -0.21126633882522583, -0.5121771693229675, -0.6825656294822693, 0.045654296875, 0.19580078125, -0.8056640625
300, 2640211587, -5.419281482696533, -2.2074036598205566, 7.735483646392822, -0.09288445115089417, -0.4290255010128021, -0.752398669719696, 0.045654296875, 0.1962890625, -0.80517578125
301, 2640228254, -5.407298564910889, -2.2049756050109863, 7.72315788269043, -0.14271396398544312, -0.49159732460975647, -0.8285452127456665, 0.048095703125, 0.1953125, -0.80615234375
302, 2640244921, -5.385207653045654, -2.227916955947876, 7.729221343994141, -0.07764489948749542, -0.48340126872062683, -0.811333417892456, 0.047119140625, 0.19677734375, -0.8076171875
303, 2640261588, -5.415058612823486, -2.209455966949463, 7.7047505378723145, -0.09999198466539383, -0.44345831871032715, -0.7502344250679016, 0.046630859375, 0.19677734375, -0.806640625
304, 2640278255, -5.3979268074035645, -2.2053966522216797, 7.736441612243652, -0.27838441729545593, -0.5165697336196899, -0.7793047428131104, 0.045166015625, 0.197265625, -0.80810546875
305, 2640294922, -5.404165267944336, -2.2228219509124756, 7.723484992980957, -0.4541260004043579, -0.37917041778564453, -0.8559252619743347, 0.045166015625, 0.1962890625, -0.8076171875
306, 2640311589, -5.404724597930908, -2.2193477153778076, 7.733619213104248, -0.406281441450119, -0.271340936422348, -0.784773051738739, 0.044189453125, 0.1962890625, -0.8056640625
307, 2640328256, -5.417531967163086, -2.2099530696868896, 7.691824436187744, -0.22064059972763062, -0.25556349754333496, -0.6913378834724426, 0.047607421875, 0.194580078125, -0.8046875
308, 2640344923, -5.418758869171143, -2.2060835361480713, 7.709019184112549, -0.08831258118152618, -0.24118195474147797, -0.5254700779914856, 0.047607421875, 0.19580078125, -0.80712890625
309, 2640361590, -5.436070919036865, -2.1992781162261963, 7.726188659667969, -0.17335957288742065, -0.309273362159729, -0.5764137506484985, 0.046630859375, 0.1953125, -0.80859375
310, 2640378257, -5.428961753845215, -2.202153444290161, 7.7119622230529785, -0.14663270115852356, -0.2844930589199066, -0.684012770652771, 0.047607421875, 0.1962890625, -0.806640625
311, 2640394924, -5.423433303833008, -2.1929092407226562, 7.700976371765137, -0.1325072944164276, -0.3558371961116791, -0.6747665405273438, 0.046630859375, 0.19677734375, -0.80712890625
312, 2640411591, -5.420346736907959, -2.2031548023223877, 7.736477375030518, -0.07754245400428772, -0.4244023859500885, -0.6661607623100281, 0.047119140625, 0.193603515625, -0.80712890625
313, 2640428258, -5.408339500427246, -2.2030649185180664, 7.710321426391602, -0.1727551966905594, -0.3100987374782562, -0.7050317525863647, 0.046630859375, 0.19677734375, -0.8056640625
314, 2640444925, -5.419693470001221, -2.1964781284332275, 7.73413610458374, -0.2925354838371277, -0.31002894043922424, -0.7537177801132202, 0.048095703125, 0.1962890625, -0.80712890625
315, 2640461592, -5.41283655166626, -2.204231023788452, 7.6964592933654785, -0.25940537452697754, -0.1979861557483673, -0.6731529235839844, 0.048095703125, 0.19677734375, -0.810546875
316, 2640478259, -5.426619052886963, -2.211730480194092, 7.7443413734436035, -0.2887447476387024, -0.21343062818050385, -0.582368791103363, 0.048583984375, 0.19580078125, -0.80615234375
317, 2640494926, -5.433145046234131, -2.180363178253174, 7.732232093811035, -0.26064762473106384, -0.06687475740909576, -0.6364371180534363, 0.048583984375, 0.1962890625, -0.80615234375
318, 2640511593, -5.422921180725098, -2.19943904876709, 7.709012031555176, -0.2401958853006363, -0.1330067366361618, -0.6324158906936646, 0.047607421875, 0.194580078125, -0.80615234375
319, 2640528260, -5.429605484008789, -2.185452461242676, 7.723094940185547, -0.13103456795215607, -0.13272500038146973, -0.6133217215538025, 0.047607421875, 0.19580078125, -0.80615234375
320, 2640544927, -5.439905166625977, -2.2071962356567383, 7.723567008972168, -0.18365584313869476, -0.24973660707473755, -0.6875472664833069, 0.048583984375, 0.19677734375, -0.80712890625
321, 2640561594, -5.433718204498291, -2.212352752685547, 7.717641353607178, -0.06182905286550522, -0.2861194610595703, -0.6922216415405273, 0.047607421875, 0.1953125, -0.80615234375
322, 2640578261, -5.441399574279785, -2.219451427459717, 7.712616920471191, 0.08213352411985397, -0.4507450461387634, -0.5946372151374817, 0.047119140625, 0.19580078125, -0.806640625
323, 2640594928, -5.43282413482666, -2.1920719146728516, 7.70950174331665, 0.19940125942230225, -0.5464085340499878, -0.544487476348877, 0.049072265625, 0.1953125, -0.80712890625
324, 2640611595, -5.424655914306641, -2.192901611328125, 7.699839115142822, 0.2036401778459549, -0.45691773295402527, -0.5378667116165161, 0.047119140625, 0.19482421875, -0.8056640625
325, 2640628262, -5.428346633911133, -2.1860604286193848, 7.705328464508057, 0.18439221382141113, -0.4888696074485779, -0.47771522402763367, 0.047607421875, 0.194091796875, -0.8046875
326, 2640644929, -5.414906978607178, -2.1851272583007812, 7.702262878417969, 0.32120245695114136, -0.7074611783027649, -0.5753508806228638, 0.047119140625, 0.194091796875, -0.8056640625
327, 2640661596, -5.40691614151001, -2.1957547664642334, 7.7182416915893555, 0.40478944778442383, -0.7361473441123962, -0.45077067613601685, 0.048095703125, 0.19580078125, -0.81103515625
328, 2640678263, -5.418247222900391, -2.1807031631469727, 7.733719825744629, 0.26796647906303406, -0.6329666376113892, -0.4573019742965698, 0.048583984375, 0.1953125, -0.80908203125
329, 2640694930, -5.422756671905518, -2.1804563999176025, 7.725888252258301, 0.27028441429138184, -0.5739805698394775, -0.4204708933830261, 0.050048828125, 0.19677734375, -0.8076171875
330, 2640711597, -5.435484886169434, -2.187269687652588, 7.711043834686279, 0.2919463515281677, -0.5865051746368408, -0.5051976442337036, 0.050048828125, 0.193603515625, -0.805908203125
331, 2640728264, -5.441703796386719, -2.185127019882202, 7.722057819366455, 0.13502374291419983, -0.5433861613273621, -0.5996060371398926, 0.048583984375, 0.194580078125, -0.8056640625
332, 2640744931, -5.4244303703308105, -2.1847336292266846, 7.699563503265381, 0.1663224846124649, -0.4814547598361969, -0.5739294290542603, 0.046142578125, 0.19482421875, -0.8095703125
333, 2640761598, -5.409911155700684, -2.191070795059204, 7.716664791107178, 0.069007009267807, -0.4690069556236267, -0.6214025020599365, 0.046630859375, 0.19482421875, -0.8095703125
334, 2640778265, -5.431612491607666, -2.1718850135803223, 7.706134796142578, 0.03491651639342308, -0.5417214632034302, -0.6797739267349243, 0.046630859375, 0.197265625, -0.80810546875
335, 2640794932, -5.430163860321045, -2.1651976108551025, 7.715953350067139, 0.0158094372600317, -0.6614223122596741, -0.6998541951179504, 0.049560546875, 0.193115234375, -0.80810546875
336, 2640811599, -5.435482501983643, -2.1737771034240723, 7.7227959632873535, 0.05566279590129852, -0.6036144495010376, -0.6587457656860352, 0.049072265625, 0.191650390625, -0.805908203125
337, 2640828266, -5.415892601013184, -2.172315835952759, 7.718947410583496, 0.07453935593366623, -0.6238741278648376, -0.7255949378013611, 0.048583984375, 0.191162109375, -0.806640625
338, 2640844933, -5.424694061279297, -2.177396535873413, 7.72456169128418, 0.1168387234210968, -0.482530415058136, -0.6869838237762451, 0.051025390625, 0.193603515625, -0.80810546875
339, 2640861600, -5.433629035949707, -2.156755208969116, 7.724353790283203, -0.028673414140939713, -0.43998774886131287, -0.7233153581619263, 0.045654296875, 0.195068359375, -0.8076171875
340, 2640878267, -5.451028823852539, -2.159540891647339, 7.74793815612793, 0.02624661661684513, -0.5809729695320129, -0.7597495913505554, 0.046630859375, 0.194091796875, -0.8076171875
341, 2640894934, -5.4320855140686035, -2.182299852371216, 7.705710411071777, 0.04123004153370857, -0.7361858487129211, -0.8583071231842041, 0.048583984375, 0.19482421875, -0.80810546875
342, 2640911601, -5.432511806488037, -2.1676645278930664, 7.744816303253174, -0.1849236786365509, -0.7420383095741272, -0.7610429525375366, 0.048583984375, 0.1943359375, -0.80859375
343, 2640928268, -5.41644287109375, -2.1705071926116943, 7.698483943939209, -0.18151718378067017, -0.6239380836486816, -0.7954919338226318, 0.049072265625, 0.191650390625, -0.804931640625
344, 2640944935, -5.414731979370117, -2.1641740798950195, 7.723159313201904, -0.1787126064300537, -0.41272303462028503, -0.6524066925048828, 0.049072265625, 0.194091796875, -0.806640625
345, 2640961602, -5.446148872375488, -2.1590349674224854, 7.724221706390381, -0.19292762875556946, -0.25749725103378296, -0.748595118522644, 0.048095703125, 0.1943359375, -0.80810546875
346, 2640978269, -5.45314884185791, -2.1660454273223877, 7.718618392944336, -0.2400437742471695, -0.33993932604789734, -0.7210149765014648, 0.049072265625, 0.19384765625, -0.8125
347, 2640994936, -5.437594413757324, -2.1746273040771484, 7.728495121002197, -0.22034603357315063, -0.3365124464035034, -0.7085241079330444, 0.048583984375, 0.193603515625, -0.80859375
348, 2641011603, -5.431463718414307, -2.1701793670654297, 7.736794471740723, -0.2923945486545563, -0.3791959583759308, -0.8376120328903198, 0.048095703125, 0.192138671875, -0.804443359375
349, 2641028270, -5.418900966644287, -2.174569606781006, 7.734907150268555, -0.25955909490585327, -0.33949631452560425, -0.7108163833618164, 0.050537109375, 0.1953125, -0.80615234375
350, 2641044937, -5.424257755279541, -2.1657755374908447, 7.737396240234375, -0.32744553685188293, -0.2685619592666626, -0.718666672706604, 0.048583984375, 0.193603515625, -0.8076171875
351, 2641061604, -5.435474872589111, -2.161123514175415, 7.715780258178711, -0.2554866671562195, -0.3021273910999298, -0.7803676724433899, 0.049560546875, 0.19482421875, -0.80810546875
352, 2641078271, -5.434285640716553, -2.1769139766693115, 7.687767028808594, -0.28535106778144836, -0.3134610056877136, -0.7692902684211731, 0.050048828125, 0.193115234375, -0.806640625
353, 2641094938, -5.427738666534424, -2.1773481369018555, 7.705327033996582, -0.19611643254756927, -0.2565239667892456, -0.78522127866745, 0.048095703125, 0.19580078125, -0.806640625
354, 2641111605, -5.453437805175781, -2.179094076156616, 7.713687896728516, -0.19606523215770721, -0.2882453203201294, -0.7924569249153137, 0.049072265625, 0.193603515625, -0.80712890625
355, 2641128272, -5.436973571777344, -2.173668622970581, 7.7172980308532715, -0.1242343932390213, -0.37243422865867615, -0.7542939186096191, 0.049072265625, 0.193603515625, -0.8076171875
356, 2641144939, -5.454862117767334, -2.149930953979492, 7.721075534820557, -0.16006654500961304, -0.30767253041267395, -0.7650384902954102, 0.050048828125, 0.194091796875, -0.806640625
357, 2641161606, -5.448153018951416, -2.1702799797058105, 7.723599433898926, -0.12920327484607697, -0.31064361333847046, -0.7845170497894287, 0.050537109375, 0.19384765625, -0.8076171875
358, 2641178273, -5.430933475494385, -2.1719937324523926, 7.7143144607543945, -0.16406212747097015, -0.3731129765510559, -0.7714800834655762, 0.047607421875, 0.193603515625, -0.81005859375
359, 2641194940, -5.446445465087891, -2.1615347862243652, 7.712849140167236, -0.21407093107700348, -0.3060845136642456, -0.7486719489097595, 0.049072265625, 0.193115234375, -0.80615234375
360, 2641211607, -5.444099426269531, -2.171102285385132, 7.698167324066162, -0.16967131197452545, -0.27502915263175964, -0.8942545056343079, 0.049560546875, 0.192138671875, -0.8076171875
361, 2641228274, -5.435783863067627, -2.175792694091797, 7.724514961242676, -0.18560241162776947, -0.4794057011604309, -0.8317467570304871, 0.050537109375, 0.192138671875, -0.804931640625
362, 2641244941, -5.428913116455078, -2.173816204071045, 7.711780548095703, -0.1339288204908371, -0.533807098865509, -0.775680661201477, 0.049072265625, 0.19482421875, -0.80615234375
363, 2641261608, -5.452374458312988, -2.1585583686828613, 7.747745990753174, -0.12174995243549347, -0.46688106656074524, -0.7086649537086487, 0.051025390625, 0.193603515625, -0.806396484375
364, 2641278275, -5.44356632232666, -2.160162925720215, 7.713064670562744, -0.22007711231708527, -0.3432101607322693, -0.7743103504180908, 0.051513671875, 0.1943359375, -0.806396484375
365, 2641294942, -5.451515197753906, -2.1598124504089355, 7.723951816558838, -0.12055899202823639, -0.517619788646698, -0.784068763256073, 0.048583984375, 0.192138671875, -0.80712890625
366, 2641311609, -5.427521705627441, -2.1695947647094727, 7.725313186645508, -0.08610989153385162, -0.45221781730651855, -0.8302227854728699, 0.050537109375, 0.193115234375, -0.80712890625
367, 2641328276, -5.438147068023682, -2.1680660247802734, 7.729262828826904, -0.04480941593647003, -0.43040865659713745, -0.7268115282058716, 0.049072265625, 0.19482421875, -0.8076171875
368, 2641344943, -5.448740482330322, -2.1460554599761963, 7.721259117126465, -0.20497842133045197, -0.37211406230926514, -0.7255308628082275, 0.049560546875, 0.192626953125, -0.806640625
369, 2641361610, -5.4449310302734375, -2.1597845554351807, 7.706895351409912, -0.2766171097755432, -0.47416791319847107, -0.849099338054657, 0.051025390625, 0.19482421875, -0.805908203125
370, 2641378277, -5.452778339385986, -2.172546148300171, 7.716723442077637, -0.1308680772781372, -0.5792440176010132, -0.870306670665741, 0.050048828125, 0.19580078125, -0.8095703125
371, 2641394944, -5.439394950866699, -2.161564350128174, 7.729453086853027, -0.187689870595932, -0.6196480393409729, -0.8143429756164551, 0.049072265625, 0.194091796875, -0.80908203125
372, 2641411611, -5.440924644470215, -2.1561121940612793, 7.740268707275391, -0.19775564968585968, -0.5301316976547241, -0.868296205997467, 0.051025390625, 0.193115234375, -0.804931640625
373, 2641428278, -5.4299235343933105, -2.1359705924987793, 7.741707801818848, -0.5604058504104614, -0.4351469874382019, -1.0893208980560303, 0.049072265625, 0.193115234375, -0.8056640625
374, 2641444945, -5.430769920349121, -2.1822404861450195, 7.726431369781494, -0.3523154556751251, -0.316073477268219, -0.8744303584098816, 0.049072265625, 0.193115234375, -0.8056640625
375, 2641461612, -5.449391841888428, -2.1465044021606445, 7.715506076812744, -0.2786661982536316, -0.31604793667793274, -0.8121019005775452, 0.048583984375, 0.1943359375, -0.80859375
376, 2641478279, -5.452247142791748, -2.162534475326538, 7.6945366859436035, -0.2634522318840027, -0.4137091040611267, -0.8496116399765015, 0.049072265625, 0.19482421875, -0.80517578125
377, 2641494946, -5.469107151031494, -2.163419008255005, 7.709917068481445, -0.33378466963768005, -0.38576561212539673, -0.8854566216468811, 0.048095703125, 0.193115234375, -0.806640625
378, 2641511613, -5.439393997192383, -2.1582210063934326, 7.734038352966309, -0.46497297286987305, -0.4321887195110321, -1.052886962890625, 0.051513671875, 0.193359375, -0.80859375
379, 2641528280, -5.442829608917236, -2.1614270210266113, 7.702709674835205, -0.46793121099472046, -0.3640076518058777, -0.9447755813598633, 0.051513671875, 0.19482421875, -0.806640625
380, 2641544947, -5.447493553161621, -2.172083854675293, 7.720738887786865, -0.35197800397872925, -0.3741983473300934, -0.9369046092033386, 0.051513671875, 0.19482421875, -0.805908203125
381, 2641561614, -5.446135520935059, -2.1353814601898193, 7.722458362579346, -0.5232546329498291, -0.3584497570991516, -1.173766016960144, 0.049560546875, 0.192626953125, -0.80810546875
382, 2641578281, -5.4407758712768555, -2.1719870567321777, 7.712985992431641, -0.690018892288208, -0.3972017168998718, -1.2025929689407349, 0.050048828125, 0.193603515625, -0.80810546875
383, 2641594948, -5.434140682220459, -2.172759532928467, 7.689809799194336, -0.6248730421066284, -0.3528917729854584, -1.105290412902832, 0.051513671875, 0.19482421875, -0.80712890625
384, 2641611615, -5.442415237426758, -2.182649612426758, 7.724059104919434, -0.4319837689399719, -0.32604968547821045, -1.042103886604309, 0.049560546875, 0.194091796875, -0.805419921875
385, 2641628282, -5.4452104568481445, -2.16672945022583, 7.7197980880737305, -0.6896475553512573, -0.3885062634944916, -1.1180840730667114, 0.049560546875, 0.193115234375, -0.804931640625
386, 2641644949, -5.4649481773376465, -2.1677768230438232, 7.737339496612549, -0.6775455474853516, -0.3150489926338196, -1.220022439956665, 0.050048828125, 0.193603515625, -0.80908203125
387, 2641661616, -5.447117328643799, -2.1845128536224365, 7.731029510498047, -0.4754357635974884, -0.4359281361103058, -1.175033688545227, 0.050537109375, 0.1962890625, -0.806640625
388, 2641678283, -5.453473091125488, -2.21056866645813, 7.713010311126709, -0.3237573802471161, -0.4784068465232849, -1.0927786827087402, 0.048583984375, 0.1943359375, -0.8095703125
389, 2641694950, -5.462885856628418, -2.175424337387085, 7.698235034942627, -0.31046435236930847, -0.5749539136886597, -1.1154587268829346, 0.050048828125, 0.19482421875, -0.8076171875
390, 2641711617, -5.4428229331970215, -2.1492834091186523, 7.715736389160156, -0.4021961987018585, -0.5275576114654541, -1.114895224571228, 0.050537109375, 0.1943359375, -0.804931640625
391, 2641728284, -5.442221641540527, -2.181905508041382, 7.742016315460205, -0.4318557679653168, -0.37093591690063477, -1.1080055236816406, 0.051025390625, 0.19482421875, -0.804931640625
392, 2641744951, -5.447512626647949, -2.1933345794677734, 7.68547248840332, -0.27655312418937683, -0.24818703532218933, -0.9982292652130127, 0.049560546875, 0.19580078125, -0.806640625
393, 2641761618, -5.449419975280762, -2.193369150161743, 7.690826416015625, -0.034910108894109726, -0.43395593762397766, -0.7912659049034119, 0.050048828125, 0.1962890625, -0.80712890625
394, 2641778285, -5.456552982330322, -2.184018135070801, 7.67601203918457, 0.24401859939098358, -0.5875169038772583, -0.7085753679275513, 0.050048828125, 0.1962890625, -0.80859375
395, 2641794952, -5.457098007202148, -2.1649558544158936, 7.706643104553223, 0.08323486894369125, -0.6822070479393005, -0.8446939587593079, 0.049072265625, 0.1953125, -0.8095703125
396, 2641811619, -5.448987007141113, -2.139561891555786, 7.722620010375977, -0.2224591225385666, -0.6777248382568359, -0.9755108952522278, 0.048583984375, 0.1953125, -0.8076171875
397, 2641828286, -5.47723913192749, -2.1760644912719727, 7.692728042602539, -0.05629671365022659, -0.6097103357315063, -0.9349915385246277, 0.050048828125, 0.192138671875, -0.8076171875
398, 2641844953, -5.458398818969727, -2.1678061485290527, 7.700692653656006, 0.3128911554813385, -0.9262064099311829, -0.9897643327713013, 0.050048828125, 0.19482421875, -0.804931640625
399, 2641861620, -5.482037544250488, -2.143923759460449, 7.708018779754639, 0.3246217370033264, -1.2660998106002808, -1.1257164478302002, 0.051025390625, 0.19482421875, -0.806640625
400, 2641878287, -5.5071940422058105, -2.126713991165161, 7.719071865081787, 0.07789462804794312, -1.2869997024536133, -1.571415901184082, 0.049560546875, 0.193603515625, -0.80859375
401, 2641894954, -5.552839756011963, -2.1225273609161377, 7.736845016479492, -0.15859383344650269, -1.5577644109725952, -2.063615083694458, 0.051025390625, 0.19384765625, -0.80908203125
402, 2641911621, -5.6267805099487305, -2.0535497665405273, 7.712036609649658, -0.40506482124328613, -2.034557580947876, -3.021260976791382, 0.048583984375, 0.194091796875, -0.8056640625
403, 2641928288, -5.574225902557373, -2.093409538269043, 7.740426540374756, -1.0736204385757446, -2.7048933506011963, -4.476959705352783, 0.048583984375, 0.19482421875, -0.8076171875
404, 2641944955, -5.419733047485352, -2.1990604400634766, 7.742699146270752, -1.3354589939117432, -2.735347032546997, -5.045932769775391, 0.047607421875, 0.1953125, -0.80712890625
405, 2641961622, -5.31177282333374, -2.285585403442383, 7.7560834884643555, -1.4228624105453491, -1.8473032712936401, -4.746391773223877, 0.048095703125, 0.19775390625, -0.80859375
406, 2641978289, -5.290040493011475, -2.2850611209869385, 7.740743637084961, -1.9067634344100952, -0.1774960309267044, -4.320876121520996, 0.043701171875, 0.19677734375, -0.811279296875
407, 2641994956, -5.2198076248168945, -2.312814712524414, 7.795580863952637, -3.096998453140259, 2.1057164669036865, -3.906846523284912, 0.044677734375, 0.19775390625, -0.8095703125
408, 2642011623, -5.0714850425720215, -2.3558197021484375, 7.817566871643066, -4.603294372558594, 5.7378411293029785, -2.4633402824401855, 0.047119140625, 0.19775390625, -0.80712890625
409, 2642028290, -4.996863842010498, -2.388460636138916, 7.856496334075928, -5.663508415222168, 10.264223098754883, -0.6961150765419006, 0.049560546875, 0.2001953125, -0.8056640625
410, 2642044957, -5.032917022705078, -2.332155704498291, 7.968338489532471, -7.826416969299316, 16.501544952392578, 1.5087497234344482, 0.052001953125, 0.19970703125, -0.804443359375
411, 2642061624, -5.015361309051514, -2.2030959129333496, 8.096102714538574, -14.104133605957031, 24.556852340698242, 5.341383934020996, 0.06005859375, 0.203369140625, -0.803955078125
412, 2642078291, -4.662088394165039, -1.8196324110031128, 8.596940040588379, -24.124759674072266, 36.492591857910156, 14.851900100708008, 0.06640625, 0.208984375, -0.8037109375
413, 2642094958, -4.3065924644470215, -3.0155303478240967, 9.057210922241211, -35.32985305786133, 43.65065383911133, 31.55647850036621, 0.0791015625, 0.213623046875, -0.800048828125
414, 2642111625, -4.971602439880371, -3.0617117881774902, 8.727649688720703, -36.43818283081055, 61.57538604736328, 39.21670150756836, 0.09521484375, 0.21875, -0.788330078125
415, 2642128292, -5.3991241455078125, -3.236326217651367, 8.76445198059082, -43.29325866699219, 76.978271484375, 49.105350494384766, 0.114013671875, 0.224853515625, -0.783447265625
416, 2642144959, -5.924771308898926, -3.4534430503845215, 9.273395538330078, -44.5343017578125, 81.35655975341797, 62.63777542114258, 0.13671875, 0.232666015625, -0.7763671875
417, 2642161626, -5.850281715393066, -4.127750873565674, 8.895584106445312, -49.39999771118164, 84.613037109375, 70.25225830078125, 0.16162109375, 0.241943359375, -0.76806640625
418, 2642178293, -3.9531502723693848, -4.476150035858154, 9.976879119873047, -36.844337463378906, 80.29505920410156, 77.87979125976562, 0.1884765625, 0.244140625, -0.755859375
419, 2642194960, -1.2056607007980347, -4.495774745941162, 12.578145980834961, -25.754535675048828, 63.14432907104492, 76.2829360961914, 0.2080078125, 0.2421875, -0.7470703125
420, 2642211627, -0.532394528388977, -5.823777675628662, 14.007060050964355, -23.149402618408203, 28.73440170288086, 56.94325256347656, 0.224853515625, 0.23779296875, -0.736572265625
421, 2642228294, 1.575934648513794, -6.232393741607666, 13.931026458740234, -16.477502822875977, -8.567209243774414, 25.624526977539062, 0.23193359375, 0.238525390625, -0.72802734375
422, 2642244961, 3.0513839721679688, -4.58304500579834, 13.187313079833984, -14.652974128723145, -31.53825569152832, -4.974276542663574, 0.2314453125, 0.239501953125, -0.722900390625
423, 2642261628, 2.4264304637908936, -3.963181734085083, 12.919187545776367, -17.175233840942383, -46.5817756652832, -25.54987144470215, 0.228515625, 0.23681640625, -0.71533203125
424, 2642278295, 1.3232756853103638, -3.4292614459991455, 12.67872142791748, -11.125234603881836, -61.39036178588867, -36.39863586425781, 0.222412109375, 0.2392578125, -0.714599609375
425, 2642294962, 0.7220436334609985, -2.8249659538269043, 12.008378028869629, -4.029963970184326, -72.72069549560547, -42.11211395263672, 0.21630859375, 0.23779296875, -0.713134765625
426, 2642311629, 0.10229738056659698, -2.363590955734253, 11.472250938415527, 0.5696483254432678, -76.30962371826172, -43.845794677734375, 0.20751953125, 0.235107421875, -0.7119140625
427, 2642328296, -1.4913790225982666, -2.2912821769714355, 11.769475936889648, -0.472221314907074, -75.54814147949219, -44.480812072753906, 0.201416015625, 0.237548828125, -0.71044921875
428, 2642344963, -4.784846782684326, -2.599398374557495, 12.657673835754395, -6.757137298583984, -84.06637573242188, -48.25660705566406, 0.1962890625, 0.244140625, -0.716064453125
429, 2642361630, -6.721823215484619, -3.3611996173858643, 12.333714485168457, -6.42730712890625, -105.182373046875, -51.603580474853516, 0.187255859375, 0.254150390625, -0.719482421875
430, 2642378297, -6.860434532165527, -3.599010944366455, 10.81614875793457, 4.834020137786865, -122.22193145751953, -48.90111541748047, 0.173583984375, 0.2646484375, -0.73388671875
431, 2642394964, -6.6466264724731445, -2.9041852951049805, 9.431591987609863, 12.486052513122559, -126.09197235107422, -43.59710693359375, 0.150146484375, 0.27294921875, -0.75
432, 2642411631, -6.697482109069824, -2.598764181137085, 8.427512168884277, 8.913971900939941, -120.17058563232422, -38.50703430175781, 0.12548828125, 0.2802734375, -0.764404296875
433, 2642428298, -6.855315685272217, -2.6895480155944824, 7.681624889373779, 3.3241536617279053, -110.90557098388672, -32.496925354003906, 0.095947265625, 0.290283203125, -0.7802734375
434, 2642444965, -7.278911113739014, -2.696596384048462, 7.314109802246094, -3.6455349922180176, -102.03130340576172, -27.304933547973633, 0.06689453125, 0.299560546875, -0.790283203125
435, 2642461632, -8.086577415466309, -2.5319247245788574, 7.193767547607422, -14.119303703308105, -96.0511703491211, -23.564382553100586, 0.036376953125, 0.308349609375, -0.80517578125
436, 2642478299, -9.122509956359863, -2.2178990840911865, 6.881518363952637, -28.827192306518555, -97.50144958496094, -21.868200302124023, 0.00830078125, 0.318115234375, -0.80322265625
437, 2642494966, -8.874689102172852, -1.9265313148498535, 6.034154415130615, -39.64568328857422, -102.01499938964844, -17.75324058532715, -0.021728515625, 0.329833984375, -0.805419921875
438, 2642511633, -8.131625175476074, -1.079014539718628, 5.129256725311279, -46.4484748840332, -99.87323760986328, -10.331877708435059, -0.05419921875, 0.337646484375, -0.798583984375
439, 2642528300, -8.277108192443848, -0.30664440989494324, 4.319761753082275, -53.38417053222656, -91.54109954833984, -0.47978323698043823, -0.078369140625, 0.348388671875, -0.791259765625
440, 2642544967, -8.983682632446289, 0.2160874307155609, 3.4836056232452393, -59.10940170288086, -82.12484741210938, 10.922082901000977, -0.09912109375, 0.364501953125, -0.78515625
441, 2642561634, -9.972861289978027, 0.13770423829555511, 2.384732961654663, -60.54608917236328, -72.28582000732422, 22.63833999633789, -0.11474609375, 0.376953125, -0.778076171875
442, 2642578301, -11.248026847839355, -0.37003234028816223, 0.9563450813293457, -53.422401428222656, -58.7992057800293, 33.89434814453125, -0.126953125, 0.389404296875, -0.769287109375
443, 2642594968, -12.472043991088867, -1.0702706575393677, -0.4421716630458832, -40.1757926940918, -37.759307861328125, 41.373966217041016, -0.132568359375, 0.398193359375, -0.760986328125
444, 2642611635, -12.474749565124512, -1.7575379610061646, -1.5873476266860962, -22.788766860961914, -10.528300285339355, 44.88185501098633, -0.13330078125, 0.40576171875, -0.756103515625
445, 2642628302, -11.111845970153809, -2.3326022624969482, -1.6701339483261108, -5.458334445953369, 24.926761627197266, 44.338619232177734, -0.126220703125, 0.409423828125, -0.75537109375
446, 2642644969, -2.61972975730896, -5.699214935302734, 2.300787925720215, 15.34721851348877, 81.36925506591797, 39.238197326660156, -0.109375, 0.408935546875, -0.758544921875
447, 2642661636, -0.39679256081581116, -9.726286888122559, 12.013082504272461, 64.39250183105469, 118.2392349243164, 42.598655700683594, -0.08056640625, 0.396728515625, -0.765380859375
448, 2642678303, -1.3844780921936035, -6.1718597412109375, 6.928025722503662, 54.82462692260742, 125.6669692993164, 30.23554039001465, -0.046630859375, 0.385009765625, -0.7763671875
449, 2642694970, -4.664207458496094, -1.1381362676620483, 5.892919063568115, 58.605926513671875, 152.3724822998047, 29.392284393310547, -0.013427734375, 0.3681640625, -0.781982421875
450, 2642711637, -8.745556831359863, -2.251943588256836, 11.006550788879395, 44.46491622924805, 149.13882446289062, 9.962996482849121, 0.021728515625, 0.357421875, -0.78564453125
451, 2642728304, -7.651524066925049, -0.7561072111129761, 9.676793098449707, 35.2661247253418, 137.2832489013672, 6.779119491577148, 0.05224609375, 0.3447265625, -0.785400390625
452, 2642744971, -9.407471656799316, 1.2654000520706177, 12.066411972045898, 18.517120361328125, 122.89920043945312, 12.141169548034668, 0.083251953125, 0.3388671875, -0.785888671875
453, 2642761638, -9.815125465393066, 1.0848075151443481, 10.767438888549805, 6.065998077392578, 90.14582824707031, 24.219955444335938, 0.106201171875, 0.337646484375, -0.786376953125
454, 2642778305, -13.880887031555176, -7.526400566101074, 10.950738906860352, 28.203392028808594, 47.81719970703125, 34.75699996948242, 0.126220703125, 0.33056640625, -0.781982421875
455, 2642794972, -5.590645790100098, -3.1246230602264404, 6.245381832122803, 38.959869384765625, 8.610980033874512, 19.917800903320312, 0.12939453125, 0.319580078125, -0.786376953125
456, 2642811639, -6.2945237159729, -3.3149123191833496, 8.14251708984375, 39.43156814575195, 2.211268424987793, 20.287057876586914, 0.133544921875, 0.30908203125, -0.791015625
457, 2642828306, -6.610567569732666, -2.022812604904175, 8.49250602722168, 38.016109466552734, -1.9442720413208008, 18.660627365112305, 0.134765625, 0.299560546875, -0.7919921875
458, 2642844973, -6.085369110107422, -1.6302486658096313, 8.542572975158691, 25.274194717407227, -8.819029808044434, 12.3766508102417, 0.1328125, 0.29052734375, -0.79345703125
459, 2642861640, -5.634923934936523, -1.5954231023788452, 8.347911834716797, 19.53533363342285, -9.655171394348145, 8.55443286895752, 0.134521484375, 0.28759765625, -0.798095703125
460, 2642878307, -5.669004440307617, -2.0842154026031494, 8.016555786132812, 16.661334991455078, -9.771066665649414, 6.534519672393799, 0.133056640625, 0.281982421875, -0.796875
461, 2642894974, -5.677793979644775, -1.9684547185897827, 8.110091209411621, 10.260587692260742, -6.7084431648254395, 3.2100353240966797, 0.128662109375, 0.279296875, -0.798583984375
462, 2642911641, -5.441608428955078, -2.0162980556488037, 8.012511253356934, 4.995098114013672, -3.3629989624023438, 0.39720821380615234, 0.130615234375, 0.278564453125, -0.802001953125
463, 2642928308, -5.386821746826172, -2.346196174621582, 7.821685791015625, 3.6447768211364746, -2.2891602516174316, 0.12432403862476349, 0.131103515625, 0.27783203125, -0.801513671875
464, 2642944975, -5.376949787139893, -2.242922306060791, 7.846794128417969, 2.489253520965576, -1.5522960424423218, 0.008701915852725506, 0.129638671875, 0.2763671875, -0.800537109375
465, 2642961642, -5.2326130867004395, -2.146657943725586, 7.873755931854248, 0.9438343048095703, -0.1901102513074875, -0.48790907859802246, 0.128662109375, 0.2744140625, -0.800537109375
466, 2642978309, -5.257781982421875, -2.130281686782837, 7.823976516723633, 1.7499940395355225, -0.06536360085010529, 0.00824088603258133, 0.129150390625, 0.275390625, -0.799560546875
467, 2642994976, -5.255367755889893, -2.2491612434387207, 7.720377445220947, 2.7491579055786133, -0.5227422714233398, 0.4774911105632782, 0.130615234375, 0.2734375, -0.803466796875
468, 2643011643, -5.223651885986328, -2.3095014095306396, 7.732303619384766, 3.370138168334961, -1.1049318313598633, 1.0436214208602905, 0.131103515625, 0.271484375, -0.800537109375
469, 2643028310, -5.19366979598999, -2.248849391937256, 7.702297210693359, 4.081249237060547, -1.8698296546936035, 1.7628133296966553, 0.129150390625, 0.2734375, -0.801513671875
470, 2643044977, -5.354856967926025, -2.0879616737365723, 7.796891212463379, 4.6316399574279785, -2.821443557739258, 2.1066765785217285, 0.129150390625, 0.2705078125, -0.802978515625
471, 2643061644, -5.332808971405029, -2.0176033973693848, 7.882607460021973, 4.212399959564209, -2.876063585281372, 1.8995983600616455, 0.130126953125, 0.27099609375, -0.804443359375
472, 2643078311, -5.301577091217041, -2.0871474742889404, 7.820178031921387, 4.222900390625, -2.792809009552002, 1.6972832679748535, 0.130126953125, 0.269775390625, -0.804931640625
473, 2643094978, -5.255860328674316, -2.154564380645752, 7.80960750579834, 5.783763885498047, -3.391749143600464, 2.7013394832611084, 0.127197265625, 0.268310546875, -0.804443359375
474, 2643111645, -5.219649314880371, -2.3978161811828613, 7.714479923248291, 10.902993202209473, -5.398865699768066, 5.577700614929199, 0.1279296875, 0.264892578125, -0.807373046875
475, 2643128312, -5.110877513885498, -2.3865654468536377, 7.6369171142578125, 14.025638580322266, -5.752285480499268, 8.615564346313477, 0.12744140625, 0.26171875, -0.808349609375
476, 2643144979, -5.110191822052002, -2.038367748260498, 7.829133987426758, 13.402097702026367, -4.621150970458984, 9.36854076385498, 0.125, 0.25732421875, -0.80810546875
477, 2643161646, -5.062341213226318, -1.8669782876968384, 8.019572257995605, 9.687644958496094, -1.484449028968811, 8.49229907989502, 0.1279296875, 0.253662109375, -0.809814453125
478, 2643178313, -4.933061599731445, -1.942759394645691, 7.926177501678467, 5.976884841918945, 2.9604127407073975, 7.651597023010254, 0.12744140625, 0.253173828125, -0.8115234375
479, 2643194980, -4.95198917388916, -1.9149901866912842, 8.02031135559082, 2.3638036251068115, 7.634207725524902, 7.083573341369629, 0.12939453125, 0.251708984375, -0.808837890625
480, 2643211647, -4.964852333068848, -2.172532320022583, 8.1543550491333, -1.1019618511199951, 14.189582824707031, 7.664204120635986, 0.133544921875, 0.248779296875, -0.807373046875
481, 2643228314, -5.0700860023498535, -1.8941340446472168, 8.28870964050293, -3.1312572956085205, 23.681236267089844, 8.825486183166504, 0.1416015625, 0.249755859375, -0.80908203125
482, 2643244981, -4.973508358001709, -1.876092553138733, 8.495001792907715, -8.855932235717773, 36.31120681762695, 10.423225402832031, 0.14794921875, 0.24951171875, -0.803955078125
483, 2643261648, -4.683630466461182, -1.9333933591842651, 8.817605972290039, -10.753266334533691, 57.76192092895508, 8.088647842407227, 0.160888671875, 0.25244140625, -0.80029296875
484, 2643278315, -3.952256202697754, -1.9015083312988281, 9.721759796142578, -17.611183166503906, 86.4194107055664, 12.623041152954102, 0.179931640625, 0.255126953125, -0.79638671875
485, 2643294982, -4.055665969848633, -1.9027471542358398, 10.019837379455566, -27.05931282043457, 130.2066650390625, 20.85529899597168, 0.207275390625, 0.259521484375, -0.788818359375
486, 2643311649, -4.099413871765137, -2.3683481216430664, 11.267875671386719, -36.26049041748047, 195.402099609375, 30.69574546813965, 0.2470703125, 0.263916015625, -0.76953125
487, 2643328316, -3.285593271255493, -3.622006416320801, 11.324180603027344, -37.340702056884766, 285.13275146484375, 49.14958190917969, 0.3056640625, 0.268798828125, -0.74267578125
488, 2643344983, -4.881278038024902, -5.082749843597412, 11.759050369262695, -19.196413040161133, 375.8026123046875, 93.3370590209961, 0.384521484375, 0.265869140625, -0.697509765625
489, 2643361650, -7.489505767822266, -4.706703186035156, 12.648072242736816, -13.030750274658203, 431.943115234375, 142.40963745117188, 0.47509765625, 0.2509765625, -0.640380859375
490, 2643378317, -17.972700119018555, -6.0534796714782715, 16.13882064819336, -31.13654899597168, 426.23773193359375, 161.0307159423828, 0.565673828125, 0.225830078125, -0.568603515625
491, 2643394984, -20.51578140258789, -7.464415550231934, 17.0791072845459, -37.13361740112305, 337.50006103515625, 147.19769287109375, 0.631103515625, 0.2041015625, -0.496826171875
492, 2643411651, -9.891128540039062, -6.819384574890137, 12.939393043518066, -13.510224342346191, 272.1591491699219, 147.5618896484375, 0.678466796875, 0.17431640625, -0.430908203125
493, 2643428318, -5.796684265136719, -17.37311363220215, 17.560626983642578, 34.7639045715332, 212.43634033203125, 98.90421295166016, 0.711181640625, 0.145263671875, -0.376220703125
494, 2643444985, -8.904809951782227, -17.67632484436035, 23.00900650024414, 88.87914276123047, 77.74689483642578, -33.983428955078125, 0.728271484375, 0.1357421875, -0.347900390625
495, 2643461652, 3.0060627460479736, -8.952150344848633, 16.06188201904297, 120.84146881103516, -18.581193923950195, -103.23786163330078, 0.73193359375, 0.138916015625, -0.34228515625
496, 2643478319, 6.109699726104736, -2.4221205711364746, 12.197816848754883, 104.89958953857422, -49.182579040527344, -122.36864471435547, 0.732177734375, 0.15087890625, -0.346923828125
497, 2643494986, 4.7653727531433105, -0.3988270163536072, 11.03027057647705, 67.4089126586914, -71.30472564697266, -123.02676391601562, 0.736328125, 0.168212890625, -0.353759765625
498, 2643511653, 2.4162936210632324, -0.005003102123737335, 10.519586563110352, 41.62542724609375, -100.68130493164062, -112.62492370605469, 0.741455078125, 0.19140625, -0.3759765625
499, 2643528320, 0.13204747438430786, 0.16742205619812012, 10.303526878356934, 29.062267303466797, -135.67799377441406, -92.67084503173828, 0.749267578125, 0.209716796875, -0.41162109375
500, 2643544987, -2.3865041732788086, 0.11583826690912247, 10.193634986877441, 20.178709030151367, -173.2030487060547, -70.54718780517578, 0.744384765625, 0.229736328125, -0.47607421875
501, 2643561654, -4.5907745361328125, -0.20192793011665344, 9.633472442626953, 10.687003135681152, -211.5216827392578, -54.189727783203125, 0.71435546875, 0.243408203125, -0.552490234375
502, 2643578321, -5.7112932205200195, -0.7282858490943909, 8.704318046569824, 2.153453826904297, -241.2019805908203, -44.240684509277344, 0.655517578125, 0.24609375, -0.62646484375
503, 2643594988, -6.822096824645996, -1.5363576412200928, 8.484529495239258, -5.224247932434082, -256.4998474121094, -40.14436340332031, 0.579833984375, 0.251953125, -0.682373046875
504, 2643611655, -8.598960876464844, -2.46209979057312, 9.154683113098145, -13.181166648864746, -265.6741943359375, -44.82528305053711, 0.5068359375, 0.258544921875, -0.7138671875
505, 2643628322, -10.297398567199707, -3.4273815155029297, 9.99540901184082, -21.602554321289062, -276.2768249511719, -58.23170852661133, 0.451416015625, 0.273193359375, -0.743896484375
506, 2643644989, -11.127625465393066, -4.657573223114014, 10.388562202453613, -20.351003646850586, -285.2882385253906, -71.61317443847656, 0.3935546875, 0.296875, -0.785400390625
507, 2643661656, -12.043524742126465, -5.2550153732299805, 11.125213623046875, -13.612716674804688, -285.4298400878906, -80.34803009033203, 0.31494140625, 0.323486328125, -0.836669921875
508, 2643678323, -14.87352180480957, -5.123491287231445, 12.08314323425293, -20.992250442504883, -280.9737854003906, -87.05340576171875, 0.20751953125, 0.342529296875, -0.86572265625
509, 2643694990, -19.02849006652832, -4.899344444274902, 12.01627254486084, -44.70890426635742, -277.6816711425781, -98.65889739990234, 0.096435546875, 0.355224609375, -0.859375
510, 2643711657, -23.496410369873047, -5.857150554656982, 8.985657691955566, -56.4484977722168, -273.0291442871094, -113.64825439453125, 0.001708984375, 0.364013671875, -0.8359375
511, 2643728324, -27.527719497680664, -7.441577911376953, 3.975327491760254, -24.19063949584961, -272.9900817871094, -102.14860534667969, -0.07470703125, 0.36474609375, -0.81884765625
512, 2643744991, -28.558862686157227, -1.8560439348220825, -0.9873660802841187, -9.413082122802734, -260.69219970703125, -78.8604736328125, -0.146484375, 0.359375, -0.798583984375
513, 2643761658, -29.774202346801758, 7.065330982208252, -8.104694366455078, -64.35093688964844, -219.015380859375, -59.68312072753906, -0.201904296875, 0.35986328125, -0.776611328125
514, 2643778325, -31.695682525634766, 16.637773513793945, -19.46611213684082, -147.4228057861328, -140.2557830810547, -49.394569396972656, -0.241943359375, 0.382080078125, -0.75
515, 2643794992, -20.774995803833008, 7.360352039337158, -23.641357421875, -102.66740417480469, 19.986358642578125, 54.628807067871094, -0.24560546875, 0.41015625, -0.729736328125
516, 2643811659, -13.382862091064453, 2.3691012859344482, -8.475428581237793, 58.92634582519531, 165.5459442138672, 204.201904296875, -0.196533203125, 0.4091796875, -0.7373046875
517, 2643828326, -13.267845153808594, -15.210293769836426, 16.2990779876709, 63.68929672241211, 132.93350219726562, 145.73226928710938, -0.14453125, 0.399658203125, -0.7451171875
518, 2643844993, -0.025961052626371384, -10.457380294799805, 2.006833553314209, 39.898189544677734, 146.57232666015625, 55.10054016113281, -0.111083984375, 0.389892578125, -0.75048828125
519, 2643861660, -8.950536727905273, 0.5880569815635681, 10.615586280822754, 33.46971130371094, 235.2796173095703, 14.558664321899414, -0.06201171875, 0.38134765625, -0.75634765625
520, 2643878327, -17.44391441345215, 7.052903652191162, 17.79309844970703, 17.205734252929688, 171.02488708496094, 43.940940856933594, -0.01708984375, 0.37451171875, -0.7548828125
521, 2643894994, -11.389216423034668, -4.697906970977783, 10.610790252685547, -0.4457152187824249, 101.68380737304688, 88.78092956542969, 0.015380859375, 0.372314453125, -0.751220703125
522, 2643911661, -15.289224624633789, -13.435321807861328, 4.309807300567627, 90.94195556640625, 50.64812469482422, 54.28080368041992, 0.0341796875, 0.35595703125, -0.75634765625
523, 2643928328, -8.920899391174316, 2.000655174255371, 13.012377738952637, 63.58148193359375, 24.75836181640625, 41.565086364746094, 0.04638671875, 0.33837890625, -0.763427734375
524, 2643944995, -6.237398624420166, -3.319722890853882, 7.465583801269531, 49.567787170410156, 2.8558402061462402, 24.542924880981445, 0.047607421875, 0.327880859375, -0.764892578125
525, 2643961662, -6.405862331390381, -1.4825348854064941, 8.987014770507812, 34.4898681640625, 0.24927042424678802, 15.29852294921875, 0.051025390625, 0.32080078125, -0.769287109375
526, 2643978329, -5.8078508377075195, -1.8497682809829712, 8.504130363464355, 22.6068058013916, 0.4979182779788971, 8.139636039733887, 0.05322265625, 0.31298828125, -0.771240234375
527, 2643994996, -5.503599166870117, -2.295844554901123, 8.138314247131348, 11.972760200500488, 2.0239486694335938, 3.897953987121582, 0.0537109375, 0.310302734375, -0.775634765625
528, 2644011663, -5.5847487449646, -2.307875871658325, 8.143438339233398, 2.6383705139160156, 5.449326038360596, 0.13850708305835724, 0.053466796875, 0.304931640625, -0.770751953125
529, 2644028330, -5.397809982299805, -2.665494680404663, 7.789895057678223, -1.6477550268173218, 7.56192684173584, -0.671705961227417, 0.055908203125, 0.305419921875, -0.773193359375
530, 2644044997, -5.592977523803711, -2.7524361610412598, 7.615347862243652, -3.0046520233154297, 7.911501407623291, -0.2320510894060135, 0.057861328125, 0.307861328125, -0.774169921875
531, 2644061664, -5.444391250610352, -2.739534616470337, 7.556054592132568, -2.167026996612549, 6.993196964263916, 1.3745123147964478, 0.058837890625, 0.308349609375, -0.77197265625
532, 2644078331, -5.450962543487549, -2.3763370513916016, 7.7005720138549805, -2.2529959678649902, 7.203835487365723, 1.8627288341522217, 0.062255859375, 0.30908203125, -0.77099609375
533, 2644094998, -5.61273717880249, -2.385172128677368, 7.5693511962890625, -2.489067792892456, 6.880295276641846, 0.9522610306739807, 0.062744140625, 0.3095703125, -0.771484375
534, 2644111665, -5.636107921600342, -2.61275053024292, 7.51704216003418, -1.6237555742263794, 5.2552971839904785, 0.4167378544807434, 0.066162109375, 0.3115234375, -0.76904296875
535, 2644128332, -5.621881484985352, -2.7606234550476074, 7.388282299041748, 0.3520914316177368, 2.926961898803711, 1.090185523033142, 0.0673828125, 0.3095703125, -0.769775390625
536, 2644144999, -5.618695259094238, -2.6771442890167236, 7.406720161437988, 2.4880497455596924, 0.22621779143810272, 1.857874870300293, 0.0673828125, 0.3095703125, -0.7705078125
537, 2644161666, -5.540101528167725, -2.609081983566284, 7.538073539733887, 3.7382829189300537, -1.4276008605957031, 2.161641836166382, 0.06787109375, 0.30908203125, -0.77197265625
538, 2644178333, -5.540799140930176, -2.5482749938964844, 7.545161247253418, 4.473226547241211, -2.1553215980529785, 2.705488920211792, 0.066162109375, 0.31005859375, -0.77294921875
539, 2644195000, -5.534585475921631, -2.5496134757995605, 7.472949028015137, 4.664578437805176, -2.6635286808013916, 2.9405620098114014, 0.0673828125, 0.306396484375, -0.7724609375
540, 2644211667, -5.419091701507568, -2.570242166519165, 7.5142130851745605, 4.5450310707092285, -2.912458658218384, 3.6236398220062256, 0.06494140625, 0.303955078125, -0.771484375
541, 2644228334, -5.34486198425293, -2.556002140045166, 7.574106216430664, 3.8633241653442383, -2.783870220184326, 4.81707763671875, 0.064453125, 0.303466796875, -0.77294921875
542, 2644245001, -5.137700080871582, -2.5621564388275146, 7.685879707336426, 2.8011012077331543, -0.7685859203338623, 5.743244647979736, 0.0673828125, 0.299072265625, -0.77294921875
543, 2644261668, -5.09451961517334, -2.4749202728271484, 7.855095386505127, 0.09187918156385422, 4.012735843658447, 7.010036945343018, 0.068359375, 0.302490234375, -0.771728515625
544, 2644278335, -4.935971736907959, -2.599818468093872, 7.878411769866943, -2.595247268676758, 12.290678024291992, 8.186958312988281, 0.073974609375, 0.302001953125, -0.771240234375
545, 2644295002, -5.061744213104248, -2.4787471294403076, 7.9322404861450195, -6.416945934295654, 24.79823875427246, 10.7726469039917, 0.076416015625, 0.302001953125, -0.772216796875
546, 2644311669, -4.853978633880615, -2.6219325065612793, 8.394461631774902, -16.180147171020508, 39.03834915161133, 17.00372314453125, 0.084716796875, 0.302490234375, -0.76708984375
547, 2644328336, -4.800202369689941, -2.247194766998291, 8.786928176879883, -6.372543811798096, 65.6692123413086, 16.835302352905273, 0.0986328125, 0.30517578125, -0.765625
548, 2644345003, -5.013966083526611, -2.314105272293091, 8.91607666015625, -17.088226318359375, 94.90910339355469, 16.313684463500977, 0.1201171875, 0.304931640625, -0.76025390625
549, 2644361670, -4.9420270919799805, -2.196087598800659, 9.038065910339355, -25.44743537902832, 128.27479553222656, 18.939495086669922, 0.1484375, 0.314208984375, -0.752685546875
550, 2644378337, -4.840557098388672, -2.448117971420288, 9.264493942260742, -39.27086639404297, 174.18299865722656, 22.880470275878906, 0.184326171875, 0.318115234375, -0.739501953125
551, 2644395004, -4.195646286010742, -4.701156139373779, 10.225699424743652, -49.08449935913086, 238.18370056152344, 40.28592300415039, 0.232177734375, 0.324462890625, -0.716552734375
552, 2644411671, -4.411945343017578, -5.203299045562744, 9.81370735168457, -36.7545280456543, 309.1361999511719, 79.59172058105469, 0.2998046875, 0.326416015625, -0.68505859375
553, 2644428338, -7.599120140075684, -6.326893329620361, 11.421707153320312, -27.126998901367188, 383.0750732421875, 136.82957458496094, 0.3818359375, 0.317626953125, -0.64111328125
554, 2644445005, -11.200490951538086, -3.995511770248413, 12.451326370239258, -24.085086822509766, 420.12530517578125, 175.64886474609375, 0.4716796875, 0.299072265625, -0.58447265625
555, 2644461672, -21.053688049316406, -9.80318546295166, 15.146507263183594, -36.32878875732422, 393.28680419921875, 172.7255859375, 0.555419921875, 0.2734375, -0.512939453125
556, 2644478339, -20.627166748046875, -8.35947036743164, 16.19413948059082, -10.20180606842041, 291.06915283203125, 180.6366424560547, 0.6181640625, 0.23876953125, -0.45361328125
557, 2644495006, -9.213578224182129, -9.094198226928711, 14.621332168579102, 7.865659713745117, 234.5508270263672, 185.17742919921875, 0.66259765625, 0.19921875, -0.40185546875
558, 2644511673, -4.115705966949463, -18.374988555908203, 17.018741607666016, 61.341819763183594, 200.17994689941406, 139.9019317626953, 0.69970703125, 0.154296875, -0.357421875
559, 2644528340, -10.22661018371582, -17.481882095336914, 26.31330108642578, 84.10721588134766, 57.01820755004883, 2.105319023132324, 0.7119140625, 0.131591796875, -0.3359375
560, 2644545007, 2.815540075302124, -10.591856002807617, 18.063310623168945, 107.46290588378906, -64.7391586303711, -84.90833282470703, 0.70947265625, 0.128173828125, -0.342041015625
561, 2644561674, 7.258828163146973, -4.214210033416748, 12.846854209899902, 108.29652404785156, -91.82177734375, -100.76907348632812, 0.700927734375, 0.130615234375, -0.35791015625
562, 2644578341, 4.4228034019470215, -0.9029991626739502, 11.962284088134766, 81.10330963134766, -104.3962631225586, -99.98402404785156, 0.695556640625, 0.133056640625, -0.375
563, 2644595008, 1.2848782539367676, 0.08719667047262192, 11.497639656066895, 44.23884963989258, -136.60699462890625, -95.41181182861328, 0.6904296875, 0.145263671875, -0.4013671875
564, 2644611675, -1.0773431062698364, 0.04487766698002815, 10.979702949523926, 18.90793800354004, -174.48069763183594, -78.90742492675781, 0.67578125, 0.1591796875, -0.44091796875
565, 2644628342, -3.7105867862701416, -0.1818854957818985, 10.557991981506348, 2.331653356552124, -212.34713745117188, -57.840370178222656, 0.64697265625, 0.177734375, -0.494140625
566, 2644645009, -6.163682460784912, -0.6754058599472046, 10.127036094665527, -14.357850074768066, -248.96255493164062, -45.28073501586914, 0.597900390625, 0.19140625, -0.551513671875
567, 2644661676, -7.768628120422363, -1.5519850254058838, 9.574126243591309, -29.914268493652344, -279.5857238769531, -42.071590423583984, 0.52197265625, 0.20947265625, -0.600830078125
568, 2644678343, -9.124591827392578, -2.5104880332946777, 9.20693588256836, -42.192630767822266, -301.15679931640625, -45.45917510986328, 0.43359375, 0.21630859375, -0.623291015625
569, 2644695010, -10.62476921081543, -3.4638876914978027, 9.504408836364746, -53.41527557373047, -315.862060546875, -54.99296951293945, 0.348388671875, 0.2080078125, -0.626953125
570, 2644711677, -12.175203323364258, -4.572035789489746, 10.213007926940918, -64.29824829101562, -326.15594482421875, -71.17976379394531, 0.282958984375, 0.186279296875, -0.612548828125
571, 2644728344, -13.878519058227539, -5.977695465087891, 10.757749557495117, -72.1735610961914, -328.6563415527344, -88.86631774902344, 0.2666015625, 0.150390625, -0.588623046875
572, 2644745011, -17.165542602539062, -6.360007286071777, 10.736270904541016, -80.3753890991211, -319.3009033203125, -104.62444305419922, 0.315185546875, 0.1337890625, -0.598388671875
573, 2644761678, -22.86389923095703, -5.287452220916748, 10.602831840515137, -100.39286041259766, -302.2734375, -133.00302124023438, 0.37646484375, 0.172607421875, -0.687255859375
574, 2644778345, -28.130943298339844, -5.201840400695801, 7.571573257446289, -111.00554656982422, -297.7769775390625, -164.59347534179688, 0.35009765625, 0.27783203125, -0.8095703125
575, 2644795012, -29.62525749206543, -4.736410140991211, 2.800931930541992, -83.21402740478516, -287.7767028808594, -175.93531799316406, 0.23681640625, 0.381103515625, -0.87744140625
576, 2644811679, -29.44068717956543, 0.7434739470481873, -3.1346559524536133, -47.58312225341797, -254.1417236328125, -156.43499755859375, 0.105224609375, 0.447021484375, -0.89599609375
577, 2644828346, -31.968130111694336, 9.478344917297363, -11.276639938354492, -48.58623504638672, -197.81727600097656, -130.6880645751953, 2.44140625E-4, 0.48974609375, -0.885009765625
578, 2644845013, -37.092098236083984, 18.040193557739258, -22.941226959228516, -78.67591857910156, -119.83744812011719, -98.67415618896484, -0.072998046875, 0.521240234375, -0.8701171875
579, 2644861680, -21.84804916381836, 8.813148498535156, -23.907268524169922, -31.529239654541016, 40.85895538330078, 32.77592849731445, -0.08935546875, 0.54833984375, -0.859130859375
580, 2644878347, -9.957914352416992, -0.6497483849525452, 2.2282660007476807, 116.90648651123047, 176.06427001953125, 156.5712127685547, -0.02880859375, 0.536376953125, -0.8837890625
581, 2644895014, -9.422532081604004, -14.807073593139648, 15.064924240112305, 106.6673583984375, 116.9885482788086, 87.06103515625, 0.016357421875, 0.521240234375, -0.89990234375
582, 2644911681, 2.032191276550293, -2.70491361618042, 1.5746612548828125, 91.56596374511719, 157.228515625, 68.29618835449219, 0.055908203125, 0.50341796875, -0.9140625
583, 2644928348, -8.816216468811035, 2.707263231277466, 13.3438720703125, 45.33987808227539, 226.12542724609375, 18.898880004882812, 0.1123046875, 0.5009765625, -0.9189453125
584, 2644945015, -16.377267837524414, 7.75258731842041, 17.21847915649414, 24.322704315185547, 174.99501037597656, 43.505126953125, 0.168212890625, 0.501953125, -0.916748046875
585, 2644961682, -11.412375450134277, -0.8312256336212158, 11.23894214630127, -4.596407890319824, 114.49117279052734, 78.08660888671875, 0.2109375, 0.502685546875, -0.910400390625
586, 2644978349, -15.876659393310547, -17.324716567993164, 7.042360782623291, 69.01963806152344, 79.83592987060547, 64.66947174072266, 0.2470703125, 0.491455078125, -0.9140625
587, 2644995016, -6.881849765777588, 2.7286999225616455, 10.330629348754883, 67.00553131103516, 52.03755187988281, 48.591705322265625, 0.264404296875, 0.469970703125, -0.917236328125
588, 2645011683, -7.855490207672119, -2.985872268676758, 8.159114837646484, 45.57722854614258, 23.4851131439209, 31.142162322998047, 0.277587890625, 0.45556640625, -0.92578125
589, 2645028350, -7.069921493530273, -1.6879620552062988, 9.248702049255371, 35.91557312011719, 14.13397216796875, 21.536670684814453, 0.2861328125, 0.444580078125, -0.927001953125
590, 2645045017, -6.471742630004883, -2.408539056777954, 8.384416580200195, 24.135408401489258, 7.966064453125, 12.97260570526123, 0.287841796875, 0.4375, -0.931396484375
591, 2645061684, -6.180490016937256, -2.2068939208984375, 8.361777305603027, 14.688468933105469, 4.707625389099121, 7.515420436859131, 0.29150390625, 0.43212890625, -0.931396484375
592, 2645078351, -5.79526424407959, -2.0171148777008057, 8.312567710876465, 5.040381908416748, 5.248304843902588, 2.157773971557617, 0.291015625, 0.42919921875, -0.931884765625
593, 2645095018, -5.5206170082092285, -2.2729668617248535, 8.052075386047363, -2.258131265640259, 7.61203145980835, -1.3033409118652344, 0.29345703125, 0.43017578125, -0.931396484375
594, 2645111685, -5.497336387634277, -2.6020145416259766, 7.675539970397949, -5.8718414306640625, 9.264328956604004, -2.548349380493164, 0.29736328125, 0.4326171875, -0.9248046875
595, 2645128352, -5.505884170532227, -2.7419049739837646, 7.511231422424316, -6.000430107116699, 9.302196502685547, -1.696406364440918, 0.3017578125, 0.43359375, -0.9287109375
596, 2645145019, -5.638701438903809, -2.7050209045410156, 7.366678714752197, -4.661858558654785, 7.807310104370117, -0.9211353063583374, 0.30322265625, 0.434326171875, -0.92724609375
597, 2645161686, -5.564162254333496, -2.869525194168091, 7.334950923919678, -3.073652505874634, 5.5705389976501465, 0.41607195138931274, 0.306396484375, 0.436279296875, -0.925537109375
598, 2645178353, -5.410787582397461, -2.8408071994781494, 7.304721832275391, -0.3960491418838501, 2.9911084175109863, 2.9899559020996094, 0.307373046875, 0.439697265625, -0.927001953125
599, 2645195020, -5.572450637817383, -2.7060906887054443, 7.2521562576293945, 2.858307123184204, 1.3367588520050049, 4.413830280303955, 0.306884765625, 0.434326171875, -0.926025390625
600, 2645211687, -5.457686424255371, -2.7726640701293945, 7.267498016357422, 5.8708624839782715, 0.050757989287376404, 5.171929359436035, 0.309326171875, 0.4326171875, -0.925537109375
601, 2645228354, -5.4466233253479, -2.808439016342163, 7.302771091461182, 8.426791191101074, -0.3898637890815735, 6.298080921173096, 0.308349609375, 0.4326171875, -0.927001953125
602, 2645245021, -5.5752787590026855, -2.6370530128479004, 7.456959247589111, 9.42607307434082, 4.674320516642183E-4, 6.727876663208008, 0.3115234375, 0.42919921875, -0.929443359375
603, 2645261688, -5.5888142585754395, -2.4458816051483154, 7.5862555503845215, 8.821573257446289, 0.02942260168492794, 6.8505473136901855, 0.31103515625, 0.4287109375, -0.929443359375
604, 2645278355, -5.665682315826416, -2.3890693187713623, 7.506077289581299, 7.496268272399902, 0.2262946516275406, 6.5530686378479, 0.310546875, 0.42578125, -0.931396484375
605, 2645295022, -5.511822700500488, -2.488945960998535, 7.529139995574951, 6.803804397583008, 1.0478094816207886, 6.402914524078369, 0.31201171875, 0.421630859375, -0.931396484375
606, 2645311689, -5.416234970092773, -2.4641809463500977, 7.577370643615723, 6.54028844833374, 2.6129634380340576, 6.239953517913818, 0.314453125, 0.418212890625, -0.931884765625
607, 2645328356, -5.331210613250732, -2.3701331615448, 7.756803512573242, 5.512142658233643, 5.278298854827881, 6.414811611175537, 0.318603515625, 0.415283203125, -0.931640625
608, 2645345023, -5.384737491607666, -2.357656717300415, 7.813575744628906, 3.483297109603882, 10.121458053588867, 6.11808967590332, 0.319580078125, 0.416748046875, -0.93212890625
609, 2645361690, -5.47868013381958, -2.250248432159424, 7.83487606048584, 0.13919878005981445, 17.160764694213867, 6.224334716796875, 0.323486328125, 0.415283203125, -0.9287109375
610, 2645378357, -5.28300666809082, -2.1280922889709473, 8.143648147583008, -7.990455627441406, 26.702220916748047, 7.8426384925842285, 0.3310546875, 0.414794921875, -0.928466796875
611, 2645395024, -5.03132963180542, -2.8176279067993164, 8.27370548248291, -15.587268829345703, 37.01252365112305, 11.987630844116211, 0.341552734375, 0.41845703125, -0.920166015625
612, 2645411691, -4.930530071258545, -2.0970826148986816, 8.631217956542969, -9.16592025756836, 63.079097747802734, 10.9237642288208, 0.35693359375, 0.4189453125, -0.914794921875
613, 2645428358, -4.882492542266846, -2.489851951599121, 8.800569534301758, -18.20538902282715, 91.58955383300781, 14.25096321105957, 0.37939453125, 0.4228515625, -0.90185546875
614, 2645445025, -4.768525123596191, -2.5492870807647705, 9.061594009399414, -28.89863395690918, 127.98017883300781, 20.547151565551758, 0.41259765625, 0.427978515625, -0.88623046875
615, 2645461692, -4.711911678314209, -2.69482421875, 9.417509078979492, -41.60841369628906, 181.90333557128906, 24.104135513305664, 0.456787109375, 0.436279296875, -0.854736328125
616, 2645478359, -4.27864933013916, -4.533074855804443, 10.072294235229492, -50.33958053588867, 249.87449645996094, 40.907840728759766, 0.515625, 0.4453125, -0.81396484375
617, 2645495026, -4.605109214782715, -4.100213050842285, 10.134666442871094, -39.990535736083984, 322.5785217285156, 78.2043685913086, 0.59033203125, 0.443359375, -0.755859375
618, 2645511693, -8.127152442932129, -5.4437031745910645, 11.756099700927734, -39.746219635009766, 402.13421630859375, 121.48645782470703, 0.68212890625, 0.430908203125, -0.675048828125
619, 2645528360, -11.763738632202148, -4.193787097930908, 12.561426162719727, -35.58311462402344, 439.326416015625, 152.1189422607422, 0.774658203125, 0.406982421875, -0.5732421875
620, 2645545027, -22.408279418945312, -9.939107894897461, 14.523091316223145, -36.75172805786133, 401.773681640625, 153.62353515625, 0.8525390625, 0.374755859375, -0.465576171875
621, 2645561694, -20.84783935546875, -6.746354103088379, 16.1839542388916, -29.607074737548828, 292.6823425292969, 156.8681182861328, 0.90283203125, 0.334716796875, -0.376708984375
622, 2645578361, -7.956732749938965, -8.300729751586914, 13.64742660522461, -22.530166625976562, 237.89398193359375, 157.31460571289062, 0.931396484375, 0.29150390625, -0.309814453125
623, 2645595028, -6.953056335449219, -21.465890884399414, 16.135774612426758, 39.78993606567383, 185.7901153564453, 93.94800567626953, 0.9453125, 0.2568359375, -0.2568359375
624, 2645611695, -8.750422477722168, -18.34626007080078, 22.49158477783203, 117.5771713256836, 31.632280349731445, -28.224077224731445, 0.93994140625, 0.253173828125, -0.24658203125
625, 2645628362, 4.02163553237915, -9.208904266357422, 14.564078330993652, 153.4959716796875, -45.87629699707031, -99.97254943847656, 0.919677734375, 0.267578125, -0.273681640625
626, 2645645029, 5.069735050201416, -4.231731414794922, 10.755434036254883, 139.9309844970703, -56.29689025878906, -137.2510528564453, 0.89306640625, 0.295654296875, -0.302490234375
627, 2645661696, 2.37699818611145, -1.9088623523712158, 10.170204162597656, 114.66783905029297, -75.66888427734375, -151.58895874023438, 0.864990234375, 0.331298828125, -0.341552734375
628, 2645678363, 0.3142014145851135, -0.36071348190307617, 10.040905952453613, 99.65972900390625, -111.1401596069336, -136.95050048828125, 0.83056640625, 0.365234375, -0.383544921875
629, 2645695030, -1.7180908918380737, 1.3363126516342163, 10.20378589630127, 83.78020477294922, -154.43280029296875, -98.37416076660156, 0.7939453125, 0.388671875, -0.438720703125
630, 2645711697, -4.247292995452881, 2.034022569656372, 10.432729721069336, 49.259193420410156, -203.3129119873047, -57.16617202758789, 0.745361328125, 0.3994140625, -0.50146484375
631, 2645728364, -6.379441261291504, 1.276642084121704, 9.937142372131348, 11.780008316040039, -255.24136352539062, -22.63410758972168, 0.68505859375, 0.401611328125, -0.564453125
632, 2645745031, -7.303252696990967, 0.11132583767175674, 8.810483932495117, -14.844350814819336, -300.0458068847656, 5.9297356605529785, 0.612548828125, 0.39306640625, -0.630615234375
633, 2645761698, -7.953068256378174, -0.6205600500106812, 8.118518829345703, -37.255271911621094, -326.6297912597656, 25.47063636779785, 0.53076171875, 0.3818359375, -0.6806640625
634, 2645778365, -9.058721542358398, -1.4178491830825806, 8.035479545593262, -64.53182983398438, -337.53662109375, 31.136062622070312, 0.447265625, 0.369140625, -0.718994140625
635, 2645795032, -10.330204010009766, -2.674954652786255, 8.286688804626465, -94.85530090332031, -338.51971435546875, 24.092599868774414, 0.353271484375, 0.3642578125, -0.736328125
636, 2645811699, -11.65027904510498, -3.914248466491699, 8.542266845703125, -121.80945587158203, -334.8741760253906, 10.167922973632812, 0.27099609375, 0.361572265625, -0.73095703125
637, 2645828366, -13.503926277160645, -5.811674118041992, 9.563627243041992, -145.9310760498047, -321.4965515136719, -7.441737174987793, 0.199951171875, 0.364501953125, -0.7158203125
638, 2645845033, -18.449981689453125, -8.260244369506836, 10.712101936340332, -158.27719116210938, -304.0297546386719, -37.47731399536133, 0.15185546875, 0.376953125, -0.700927734375
639, 2645861700, -23.177188873291016, -7.459733009338379, 8.822303771972656, -156.55477905273438, -287.72906494140625, -93.76411437988281, 0.101806640625, 0.395263671875, -0.689453125
640, 2645878367, -25.660110473632812, -6.291990756988525, 5.548401355743408, -130.5069122314453, -259.09906005859375, -142.29196166992188, 0.052978515625, 0.417236328125, -0.6806640625
641, 2645895034, -27.765024185180664, -2.661440849304199, 1.6380218267440796, -88.15265655517578, -222.12631225585938, -176.96998596191406, 0.00390625, 0.4345703125, -0.6806640625
642, 2645911701, -27.132713317871094, 1.537837266921997, -4.848962306976318, -36.222103118896484, -179.53024291992188, -181.51983642578125, -0.0439453125, 0.442626953125, -0.685302734375
643, 2645928368, -29.243837356567383, 6.481767654418945, -11.517550468444824, 16.888172149658203, -129.46505737304688, -138.74249267578125, -0.0859375, 0.440185546875, -0.696044921875
644, 2645945035, -32.327606201171875, 12.124649047851562, -17.301462173461914, 33.023109436035156, -73.83269500732422, -85.3717269897461, -0.11669921875, 0.432373046875, -0.705322265625
645, 2645961702, -21.14356231689453, 11.39000415802002, -15.75406265258789, 20.93926429748535, 36.58854675292969, -18.516263961791992, -0.11962890625, 0.425048828125, -0.712646484375
646, 2645978369, -10.217073440551758, -5.14337158203125, -1.7100154161453247, 71.24107360839844, 168.9913330078125, 35.60363006591797, -0.08740234375, 0.415771484375, -0.72412109375
647, 2645995036, -7.959310531616211, -12.506998062133789, 14.408522605895996, 93.34884643554688, 168.99136352539062, -0.3353015184402466, -0.040283203125, 0.390380859375, -0.740966796875
648, 2646011703, 3.1139981746673584, -2.0303940773010254, 3.5114128589630127, 92.74933624267578, 163.96664428710938, -4.301436901092529, -0.007080078125, 0.3701171875, -0.753173828125
649, 2646028370, -3.575470447540283, 8.671590805053711, 12.121994018554688, 54.152530670166016, 216.17576599121094, 23.681034088134766, 0.043701171875, 0.35302734375, -0.76220703125
650, 2646045037, -15.7941312789917, 5.004756927490234, 15.779247283935547, 16.655454635620117, 189.4349365234375, 46.45888137817383, 0.09765625, 0.347412109375, -0.759521484375
651, 2646061704, -16.23138999938965, -2.2362804412841797, 13.006001472473145, -3.366567373275757, 122.9278335571289, 62.9725227355957, 0.136474609375, 0.3427734375, -0.75830078125
652, 2646078371, -16.414844512939453, -11.654692649841309, 10.89818000793457, 39.83110427856445, 77.99446105957031, 54.14216613769531, 0.168212890625, 0.3359375, -0.756591796875
