sep=,
DeviceTag:,B,,,,,,,,,,,,,,,,,
FirmwareVersion:,2.2.1,,,,,,,,,,,,,,,,,
AppVersion:,2022.0.1,,,,,,,,,,,,,,,,,
SyncStatus:,Synced,,,,,,,,,,,,,,,,,
OutputRate:,60Hz,,,,,,,,,,,,,,,,,
FilterProfile:,General,,,,,,,,,,,,,,,,,
Measurement Mode:,Inertial Mode - Rate quantities (with mag),,,,,,,,,,,,,,,,,
StartTime:,2022-08-05 16:30:31.770 +0300,,,,,,,,,,,,,,,,,
© Xsens Technologies B. V. 2005-2022,,,,,,,,,,,,,,,,,,,

PacketCounter,SampleTimeFine,Acc_X,Acc_Y,Acc_Z,Gyr_X,Gyr_Y,Gyr_Z,Mag_X,Mag_Y,Mag_Z
1, 2478808359, -5.44002103805542, -2.252591609954834, 7.701693058013916, -0.14171075820922852, -0.751867413520813, -1.0285396575927734, 0.04150390625, 0.227294921875, -0.79296875
2, 2478825026, -5.425647258758545, -2.2617294788360596, 7.708072662353516, -0.3022426664829254, -0.6309944987297058, -1.060173749923706, 0.044189453125, 0.224853515625, -0.79638671875
3, 2478841693, -5.4386420249938965, -2.26540207862854, 7.6909379959106445, -0.30402272939682007, -0.5623524785041809, -1.0102159976959229, 0.044189453125, 0.228759765625, -0.794921875
4, 2478858360, -5.436112403869629, -2.2636804580688477, 7.693465232849121, -0.4120827615261078, -0.5830731391906738, -0.9828616976737976, 0.043701171875, 0.227783203125, -0.79541015625
5, 2478875027, -5.4472336769104, -2.2551050186157227, 7.695765495300293, -0.4011588990688324, -0.5984407067298889, -1.0619792938232422, 0.04248046875, 0.227783203125, -0.7958984375
6, 2478891694, -5.4447479248046875, -2.2550857067108154, 7.703499794006348, -0.47455206513404846, -0.5767083764076233, -1.0463556051254272, 0.04150390625, 0.228271484375, -0.79345703125
7, 2478908361, -5.4304094314575195, -2.271031141281128, 7.684414386749268, -0.3131408989429474, -0.5524019002914429, -1.0037105083465576, 0.04248046875, 0.228271484375, -0.7919921875
8, 2478925028, -5.431183815002441, -2.264338731765747, 7.7104997634887695, -0.3558756709098816, -0.608083963394165, -0.9732314348220825, 0.043212890625, 0.225830078125, -0.794921875
9, 2478941695, -5.416550159454346, -2.266780138015747, 7.679714202880859, -0.285312682390213, -0.41899818181991577, -0.811359167098999, 0.044189453125, 0.227783203125, -0.794921875
10, 2478958362, -5.4419941902160645, -2.2624707221984863, 7.687578201293945, -0.43469879031181335, -0.3555939197540283, -0.885495126247406, 0.042724609375, 0.226806640625, -0.79541015625
11, 2478975029, -5.439220428466797, -2.266387462615967, 7.691558837890625, -0.31931352615356445, -0.33491167426109314, -0.9782002568244934, 0.043701171875, 0.227783203125, -0.79296875
12, 2478991696, -5.451720237731934, -2.2606372833251953, 7.68402624130249, -0.3104003071784973, -0.42679721117019653, -0.9698249697685242, 0.042236328125, 0.227294921875, -0.7919921875
13, 2479008363, -5.448960304260254, -2.260161876678467, 7.68842887878418, -0.238185316324234, -0.5722389817237854, -0.9020793437957764, 0.041748046875, 0.226806640625, -0.79443359375
14, 2479025030, -5.439173698425293, -2.268467426300049, 7.67678165435791, -0.12044371664524078, -0.6293551921844482, -0.8733929991722107, 0.04296875, 0.228759765625, -0.79345703125
15, 2479041697, -5.421753883361816, -2.270160436630249, 7.680224418640137, -0.16001532971858978, -0.6166257262229919, -0.8373430967330933, 0.043701171875, 0.225830078125, -0.79541015625
16, 2479058364, -5.434192657470703, -2.2565627098083496, 7.671924114227295, -0.12938253581523895, -0.5197072625160217, -0.8906047344207764, 0.043701171875, 0.227783203125, -0.79443359375
17, 2479075031, -5.438149452209473, -2.2613344192504883, 7.677572250366211, -0.10898203402757645, -0.6280105113983154, -0.9030396938323975, 0.041748046875, 0.226318359375, -0.79638671875
18, 2479091698, -5.452345371246338, -2.2608530521392822, 7.680772304534912, -0.1769581288099289, -0.5678719878196716, -0.9369637370109558, 0.044677734375, 0.226318359375, -0.793212890625
19, 2479108365, -5.450944423675537, -2.271662950515747, 7.684516906738281, -0.09645742177963257, -0.6574267148971558, -0.9544699788093567, 0.041015625, 0.227783203125, -0.794921875
20, 2479125032, -5.431692123413086, -2.262845277786255, 7.686139106750488, 0.006255902349948883, -0.6701179146766663, -0.9043973088264465, 0.04296875, 0.228759765625, -0.79345703125
21, 2479141699, -5.442271709442139, -2.2634596824645996, 7.710497856140137, -0.05843536928296089, -0.6268195509910583, -0.8516990542411804, 0.042724609375, 0.228271484375, -0.79541015625
22, 2479158366, -5.447777271270752, -2.2526588439941406, 7.705638408660889, -0.08502135425806046, -0.6323903799057007, -0.906318187713623, 0.0419921875, 0.227294921875, -0.7939453125
23, 2479175033, -5.431221961975098, -2.2536633014678955, 7.70419454574585, -0.1132209375500679, -0.6121691465377808, -0.9720402956008911, 0.04296875, 0.228759765625, -0.794921875
24, 2479191700, -5.4403815269470215, -2.2681517601013184, 7.676634788513184, -0.11042914539575577, -0.6088266968727112, -0.9401142001152039, 0.043701171875, 0.226806640625, -0.792236328125
25, 2479208367, -5.427174091339111, -2.266374349594116, 7.690940856933594, -0.1432006061077118, -0.6062013506889343, -0.9095325469970703, 0.043212890625, 0.225341796875, -0.7939453125
26, 2479225034, -5.438223361968994, -2.2689015865325928, 7.68157958984375, -0.06473609060049057, -0.7828649282455444, -0.8132799863815308, 0.044677734375, 0.224853515625, -0.79541015625
27, 2479241701, -5.432415008544922, -2.266676187515259, 7.70444393157959, -0.05934462696313858, -0.8482158780097961, -0.9177030324935913, 0.043212890625, 0.228271484375, -0.7939453125
28, 2479258368, -5.431395053863525, -2.259622573852539, 7.7066731452941895, -0.047242626547813416, -0.740155816078186, -0.8379707336425781, 0.04150390625, 0.227783203125, -0.79345703125
29, 2479275035, -5.434348106384277, -2.250793218612671, 7.718736171722412, -0.1810561865568161, -0.6597447395324707, -0.8866989016532898, 0.043701171875, 0.226806640625, -0.7939453125
30, 2479291702, -5.439889907836914, -2.2598040103912354, 7.691862106323242, -0.2851589620113373, -0.5131503939628601, -0.8653122186660767, 0.042236328125, 0.226806640625, -0.79736328125
31, 2479308369, -5.430952072143555, -2.2728843688964844, 7.7118377685546875, -0.2560117244720459, -0.5315531492233276, -0.9048198461532593, 0.043701171875, 0.226806640625, -0.794921875
32, 2479325036, -5.4260430335998535, -2.266531467437744, 7.700937747955322, -0.17891749739646912, -0.4913283884525299, -0.8529156446456909, 0.042236328125, 0.226806640625, -0.794921875
33, 2479341703, -5.4311203956604, -2.2576136589050293, 7.694039821624756, -0.2008291631937027, -0.4901374280452728, -0.8928714990615845, 0.043212890625, 0.228759765625, -0.79296875
34, 2479358370, -5.433310031890869, -2.259768009185791, 7.7129740715026855, -0.241106778383255, -0.5799446702003479, -0.951517641544342, 0.045654296875, 0.229248046875, -0.794921875
35, 2479375037, -5.438066482543945, -2.2658984661102295, 7.702345848083496, -0.17365410923957825, -0.5778481364250183, -0.8914372324943542, 0.04150390625, 0.227783203125, -0.794921875
36, 2479391704, -5.439337730407715, -2.258077383041382, 7.685041904449463, -0.15864504873752594, -0.6059579849243164, -0.7795224189758301, 0.043701171875, 0.224853515625, -0.792724609375
37, 2479408371, -5.431542873382568, -2.277980327606201, 7.705630779266357, -0.08602025359869003, -0.6260896325111389, -0.8069408535957336, 0.044189453125, 0.224853515625, -0.793212890625
38, 2479425038, -5.422554016113281, -2.2600862979888916, 7.687925815582275, 0.01606556959450245, -0.5966350436210632, -0.785144567489624, 0.041748046875, 0.225830078125, -0.7919921875
39, 2479441705, -5.43628454208374, -2.2327778339385986, 7.711207866668701, -0.09841679781675339, -0.5189902186393738, -0.7632328271865845, 0.04248046875, 0.228759765625, -0.7939453125
40, 2479458372, -5.4207987785339355, -2.2740797996520996, 7.683189868927002, -0.14608201384544373, -0.4454176425933838, -0.797745943069458, 0.0419921875, 0.227783203125, -0.79541015625
41, 2479475039, -5.438811302185059, -2.259242057800293, 7.6774163246154785, -0.11425825953483582, -0.5569866299629211, -0.8130239248275757, 0.044189453125, 0.227294921875, -0.7958984375
42, 2479491706, -5.429497718811035, -2.2616357803344727, 7.702566623687744, -0.1283196210861206, -0.5655283331871033, -0.7801883816719055, 0.04150390625, 0.226806640625, -0.79443359375
43, 2479508373, -5.418363094329834, -2.272458076477051, 7.715789794921875, 0.015092281624674797, -0.5603417754173279, -0.7717874050140381, 0.043701171875, 0.226318359375, -0.79296875
44, 2479525040, -5.448552131652832, -2.242830753326416, 7.6989970207214355, -0.06664423644542694, -0.6239380836486816, -0.8130879402160645, 0.043212890625, 0.226318359375, -0.792724609375
45, 2479541707, -5.4236016273498535, -2.240739345550537, 7.69039249420166, -0.06337861716747284, -0.7732985615730286, -0.8673356175422668, 0.0419921875, 0.228271484375, -0.79248046875
46, 2479558374, -5.441515922546387, -2.2474334239959717, 7.690104961395264, -0.10971199721097946, -0.6433781385421753, -0.9124395251274109, 0.041015625, 0.226806640625, -0.7939453125
47, 2479575041, -5.445623874664307, -2.2506508827209473, 7.700613498687744, -0.06278952956199646, -0.7398739457130432, -0.8916164040565491, 0.041015625, 0.226318359375, -0.7958984375
48, 2479591708, -5.417842864990234, -2.253302574157715, 7.689445495605469, -0.06695159524679184, -0.7093564867973328, -0.8344873785972595, 0.042724609375, 0.227294921875, -0.79345703125
49, 2479608375, -5.433688163757324, -2.246306896209717, 7.697088718414307, -0.07809311896562576, -0.6604362726211548, -0.8337701559066772, 0.0419921875, 0.227783203125, -0.79541015625
50, 2479625042, -5.426454067230225, -2.245508909225464, 7.697163105010986, -0.08675020933151245, -0.6823735237121582, -0.8060187697410583, 0.043701171875, 0.225830078125, -0.79443359375
51, 2479641709, -5.438400745391846, -2.2598698139190674, 7.693489074707031, -0.01280634943395853, -0.5939584970474243, -0.8647487163543701, 0.042236328125, 0.227294921875, -0.794921875
52, 2479658376, -5.435030937194824, -2.255018949508667, 7.693507671356201, -0.0027277523186057806, -0.5549631118774414, -0.7605050206184387, 0.043701171875, 0.226318359375, -0.79736328125
53, 2479675043, -5.448243618011475, -2.2466981410980225, 7.7152204513549805, -0.04223533719778061, -0.4956185519695282, -0.7877057790756226, 0.041015625, 0.227783203125, -0.79541015625
54, 2479691710, -5.433255195617676, -2.238734006881714, 7.693861961364746, 0.060080986469984055, -0.5383021235466003, -0.7794072031974792, 0.042724609375, 0.227783203125, -0.79443359375
55, 2479708377, -5.425409317016602, -2.2583956718444824, 7.677057266235352, 0.049169983714818954, -0.6793769598007202, -0.7972465753555298, 0.044677734375, 0.224853515625, -0.79443359375
56, 2479725044, -5.433763027191162, -2.2436389923095703, 7.666832447052002, 0.13084885478019714, -0.7402966022491455, -0.7150040864944458, 0.041748046875, 0.225341796875, -0.791748046875
57, 2479741711, -5.447624206542969, -2.2453670501708984, 7.7304463386535645, -0.00321439397521317, -0.6883029341697693, -0.79640132188797, 0.042236328125, 0.227294921875, -0.79248046875
58, 2479758378, -5.422884941101074, -2.242494821548462, 7.714741230010986, -0.05368422344326973, -0.7433446049690247, -0.8260864615440369, 0.04296875, 0.228759765625, -0.79443359375
59, 2479775045, -5.430482387542725, -2.256135940551758, 7.699063777923584, 0.12525250017642975, -0.5899372696876526, -0.8056218028068542, 0.041748046875, 0.225341796875, -0.79443359375
60, 2479791712, -5.4371538162231445, -2.2516233921051025, 7.712942123413086, 0.12045012414455414, -0.6555570363998413, -0.7094205617904663, 0.042724609375, 0.224365234375, -0.79638671875
61, 2479808379, -5.435673236846924, -2.242175340652466, 7.684988021850586, 0.2634970247745514, -0.7615423798561096, -0.6228751540184021, 0.043701171875, 0.224853515625, -0.794921875
62, 2479825046, -5.430665493011475, -2.2516963481903076, 7.677663803100586, 0.4513278007507324, -0.9621155261993408, -0.5981718301773071, 0.042236328125, 0.225830078125, -0.794921875
63, 2479841713, -5.427409648895264, -2.232793092727661, 7.677658557891846, 0.8373623490333557, -1.2151817083358765, -0.4158477485179901, 0.041015625, 0.227294921875, -0.79443359375
64, 2479858380, -5.429650783538818, -2.2364938259124756, 7.704178810119629, 0.898948073387146, -1.2488878965377808, -0.44089698791503906, 0.041015625, 0.226318359375, -0.79296875
65, 2479875047, -5.418816089630127, -2.216552972793579, 7.700823783874512, 0.7125900983810425, -1.1288028955459595, -0.5419774651527405, 0.040771484375, 0.225341796875, -0.79345703125
66, 2479891714, -5.40798807144165, -2.2178502082824707, 7.713930606842041, 0.4613167345523834, -0.9874592423439026, -0.5180296897888184, 0.041748046875, 0.225830078125, -0.79345703125
67, 2479908381, -5.44146203994751, -2.219534397125244, 7.720406532287598, 0.2175222635269165, -0.752052903175354, -0.7600440979003906, 0.0390625, 0.224853515625, -0.79345703125
68, 2479925048, -5.420107364654541, -2.222627639770508, 7.738336086273193, 0.12490140646696091, -0.720848560333252, -0.7923123240470886, 0.041259765625, 0.223876953125, -0.79443359375
69, 2479941715, -5.42578125, -2.239126443862915, 7.716492652893066, 0.18327806890010834, -0.5671548247337341, -0.7471224069595337, 0.041748046875, 0.225341796875, -0.79638671875
70, 2479958382, -5.4384446144104, -2.2454779148101807, 7.723292827606201, 0.20672650635242462, -0.6389984488487244, -0.6249627470970154, 0.04150390625, 0.226806640625, -0.79541015625
71, 2479975049, -5.420599460601807, -2.228288173675537, 7.712393760681152, 0.28925061225891113, -0.7355710864067078, -0.6150633692741394, 0.041259765625, 0.223388671875, -0.79638671875
72, 2479991716, -5.4238715171813965, -2.216344118118286, 7.7057952880859375, 0.3428579866886139, -0.8619825839996338, -0.6107860207557678, 0.041259765625, 0.223876953125, -0.79443359375
73, 2480008383, -5.415417671203613, -2.213717460632324, 7.713253021240234, 0.484457790851593, -0.8845601677894592, -0.46228358149528503, 0.041259765625, 0.223876953125, -0.79296875
74, 2480025050, -5.4210734367370605, -2.1902265548706055, 7.7166242599487305, 0.348057359457016, -0.9392688274383545, -0.5549631118774414, 0.040283203125, 0.222412109375, -0.798828125
75, 2480041717, -5.4164862632751465, -2.1860201358795166, 7.757688045501709, 0.04162703827023506, -0.8348075747489929, -0.8015621900558472, 0.043212890625, 0.225341796875, -0.794921875
76, 2480058384, -5.4188361167907715, -2.214231491088867, 7.722248554229736, -0.17957064509391785, -0.6895195245742798, -0.9800060391426086, 0.041748046875, 0.223388671875, -0.796875
77, 2480075051, -5.415152549743652, -2.2018911838531494, 7.709560394287109, -0.34899863600730896, -0.5287229418754578, -0.9189708232879639, 0.0400390625, 0.224365234375, -0.7958984375
78, 2480091718, -5.420784950256348, -2.2072393894195557, 7.727328777313232, -0.405641108751297, -0.3766859471797943, -0.869512677192688, 0.041748046875, 0.2216796875, -0.7939453125
79, 2480108385, -5.430834770202637, -2.211758613586426, 7.724331855773926, -0.514546275138855, -0.3601401448249817, -0.9750242233276367, 0.039794921875, 0.223388671875, -0.79443359375
80, 2480125052, -5.429609775543213, -2.231027126312256, 7.699262619018555, -0.6222221255302429, -0.291933536529541, -1.0752850770950317, 0.042724609375, 0.224365234375, -0.794921875
81, 2480141719, -5.416478633880615, -2.196401357650757, 7.740880966186523, -0.7683553695678711, -0.19536086916923523, -1.1498054265975952, 0.04052734375, 0.226318359375, -0.79541015625
82, 2480158386, -5.423978805541992, -2.238528251647949, 7.713869094848633, -0.8516350984573364, -0.2227792739868164, -1.1593204736709595, 0.041015625, 0.226318359375, -0.796875
83, 2480175053, -5.402760028839111, -2.2023935317993164, 7.730043411254883, -0.6909409761428833, -0.21320010721683502, -1.1740092039108276, 0.03759765625, 0.226318359375, -0.79541015625
84, 2480191720, -5.425480365753174, -2.2289106845855713, 7.7317585945129395, -0.9540730714797974, -0.01057804562151432, -1.0900380611419678, 0.041748046875, 0.225341796875, -0.794921875
85, 2480208387, -5.432836532592773, -2.2186601161956787, 7.735945701599121, -1.2415502071380615, 0.25001198053359985, -1.200825810432434, 0.042236328125, 0.224853515625, -0.79541015625
86, 2480225054, -5.437224864959717, -2.2126052379608154, 7.70221471786499, -1.306311845779419, 0.45328712463378906, -1.3113573789596558, 0.044189453125, 0.224365234375, -0.79541015625
87, 2480241721, -5.429247856140137, -2.2358241081237793, 7.708481311798096, -1.3857238292694092, 0.3934686481952667, -1.1922967433929443, 0.043212890625, 0.226318359375, -0.794921875
88, 2480258388, -5.424250602722168, -2.2303287982940674, 7.721680641174316, -1.4333889484405518, 0.4354734420776367, -1.187827229499817, 0.040771484375, 0.224853515625, -0.79541015625
89, 2480275055, -5.440181255340576, -2.2321271896362305, 7.69580602645874, -1.4721795320510864, 0.4820758104324341, -1.3613020181655884, 0.044677734375, 0.226318359375, -0.793701171875
90, 2480291722, -5.444548606872559, -2.2565605640411377, 7.671942234039307, -1.3750689029693604, 0.35809755325317383, -1.3012148141860962, 0.042724609375, 0.224853515625, -0.792724609375
91, 2480308389, -5.462457180023193, -2.2453603744506836, 7.689025402069092, -1.18425452709198, 0.254417359828949, -1.1678366661071777, 0.0419921875, 0.227294921875, -0.79443359375
92, 2480325056, -5.451122760772705, -2.2526605129241943, 7.677035331726074, -0.8293392658233643, 0.07190125435590744, -1.2299987077713013, 0.04248046875, 0.227783203125, -0.790283203125
93, 2480341723, -5.453200817108154, -2.2796895503997803, 7.66989803314209, -0.5132144689559937, -0.2872336208820343, -1.0898716449737549, 0.045166015625, 0.226318359375, -0.793701171875
94, 2480358390, -5.437480926513672, -2.2564001083374023, 7.696086406707764, -0.18640923500061035, -0.5384302139282227, -0.899761438369751, 0.04296875, 0.228759765625, -0.796875
95, 2480375057, -5.440391540527344, -2.251573324203491, 7.700389862060547, -0.06520993262529373, -0.6553649306297302, -0.839725136756897, 0.044189453125, 0.227783203125, -0.79541015625
96, 2480391724, -5.440205097198486, -2.240884304046631, 7.688478469848633, -0.11639691144227982, -0.6153067350387573, -0.8729959726333618, 0.042236328125, 0.226806640625, -0.79345703125
97, 2480408391, -5.443787574768066, -2.252943754196167, 7.6833014488220215, -0.17852053046226501, -0.4045525789260864, -0.8614576458930969, 0.0419921875, 0.229248046875, -0.79296875
98, 2480425058, -5.442309379577637, -2.2466776371002197, 7.71054744720459, -0.14419949054718018, -0.36866921186447144, -0.9242470264434814, 0.044677734375, 0.228271484375, -0.792236328125
99, 2480441725, -5.4560041427612305, -2.2587649822235107, 7.691008567810059, -0.1988954246044159, -0.4237237274646759, -0.8831643462181091, 0.045166015625, 0.226806640625, -0.793701171875
100, 2480458392, -5.448591709136963, -2.244361639022827, 7.698031425476074, -0.25402674078941345, -0.47309213876724243, -0.9009010195732117, 0.044677734375, 0.228271484375, -0.79833984375
101, 2480475059, -5.436787128448486, -2.247299909591675, 7.683517932891846, -0.26834753155708313, -0.5132964849472046, -0.9420915246009827, 0.041015625, 0.227294921875, -0.79296875
102, 2480491726, -5.44581937789917, -2.2565906047821045, 7.689141750335693, -0.21699078381061554, -0.5436039566993713, -0.8853926062583923, 0.044189453125, 0.226806640625, -0.7939453125
103, 2480508393, -5.432757377624512, -2.2564537525177, 7.685051918029785, -0.17740635573863983, -0.5203219652175903, -0.8848162889480591, 0.042724609375, 0.226806640625, -0.791748046875
104, 2480525060, -5.439891338348389, -2.245917558670044, 7.699679374694824, -0.22905437648296356, -0.4922120273113251, -0.8338726162910461, 0.043701171875, 0.224853515625, -0.79345703125
105, 2480541727, -5.442018985748291, -2.2440595626831055, 7.6890082359313965, -0.1963597536087036, -0.5822022557258606, -0.8669898509979248, 0.043212890625, 0.227783203125, -0.7958984375
106, 2480558394, -5.436226844787598, -2.2305970191955566, 7.6935248374938965, -0.31543320417404175, -0.497257798910141, -0.9311881065368652, 0.043212890625, 0.228271484375, -0.794921875
107, 2480575061, -5.445412635803223, -2.255371332168579, 7.720494747161865, -0.24576663970947266, -0.43647879362106323, -0.9154747128486633, 0.043701171875, 0.227783203125, -0.7939453125
108, 2480591728, -5.448000431060791, -2.245209217071533, 7.691768646240234, -0.1715666502714157, -0.4876658022403717, -0.8462819457054138, 0.043212890625, 0.227294921875, -0.79345703125
109, 2480608395, -5.443056583404541, -2.2309486865997314, 7.690639972686768, -0.20468389987945557, -0.5351133942604065, -0.9422400593757629, 0.04052734375, 0.224853515625, -0.79443359375
110, 2480625062, -5.443599224090576, -2.2689712047576904, 7.707659721374512, -0.16030989587306976, -0.5190029144287109, -0.9133232235908508, 0.042724609375, 0.226806640625, -0.79248046875
111, 2480641729, -5.424072742462158, -2.2338833808898926, 7.703014373779297, -0.14948850870132446, -0.5607388615608215, -0.8701273798942566, 0.043212890625, 0.227294921875, -0.791748046875
112, 2480658396, -5.428956031799316, -2.2571866512298584, 7.701807498931885, -0.21923191845417023, -0.467060387134552, -0.9355039000511169, 0.043701171875, 0.227294921875, -0.79638671875
113, 2480675063, -5.428391456604004, -2.2580959796905518, 7.664200305938721, -0.3315947949886322, -0.4050264060497284, -0.8563477993011475, 0.043701171875, 0.227294921875, -0.79541015625
114, 2480691730, -5.4518513679504395, -2.241102695465088, 7.676191329956055, -0.3191342353820801, -0.2969536781311035, -0.974448025226593, 0.043212890625, 0.225830078125, -0.792724609375
115, 2480708397, -5.451308727264404, -2.258668899536133, 7.705225944519043, -0.2266339510679245, -0.3200691044330597, -0.858704149723053, 0.042724609375, 0.226806640625, -0.7939453125
116, 2480725064, -5.4484944343566895, -2.2389771938323975, 7.684466361999512, -0.22322747111320496, -0.47866290807724, -0.7653202414512634, 0.043701171875, 0.225341796875, -0.792236328125
117, 2480741731, -5.430542469024658, -2.252027988433838, 7.709894180297852, -0.17180998623371124, -0.5816259384155273, -0.9206356406211853, 0.04296875, 0.228271484375, -0.791748046875
118, 2480758398, -5.439548492431641, -2.245197296142578, 7.685406684875488, -0.03813731670379639, -0.6510620713233948, -0.7702764272689819, 0.044189453125, 0.226318359375, -0.794921875
119, 2480775065, -5.441683292388916, -2.239610433578491, 7.6969685554504395, 0.0016328094061464071, -0.622619092464447, -0.8381243348121643, 0.044677734375, 0.227783203125, -0.79736328125
120, 2480791732, -5.443957805633545, -2.2452242374420166, 7.703676700592041, -0.05671931803226471, -0.668952465057373, -0.8981092572212219, 0.043212890625, 0.227294921875, -0.7939453125
121, 2480808399, -5.450652599334717, -2.2493810653686523, 7.668312072753906, -0.011512907221913338, -0.668965220451355, -0.8657348155975342, 0.043701171875, 0.225830078125, -0.791748046875
122, 2480825066, -5.451024532318115, -2.2449331283569336, 7.710933685302734, -0.052096232771873474, -0.6688628196716309, -0.8118201494216919, 0.042724609375, 0.224853515625, -0.788330078125
123, 2480841733, -5.435388088226318, -2.2529327869415283, 7.706729412078857, -0.05163520574569702, -0.5834060907363892, -0.8825112581253052, 0.0419921875, 0.226806640625, -0.79248046875
124, 2480858400, -5.435957431793213, -2.2405447959899902, 7.695620536804199, -0.13809086382389069, -0.4971296787261963, -0.8346794247627258, 0.042724609375, 0.225341796875, -0.794921875
125, 2480875067, -5.439695835113525, -2.250626802444458, 7.673803806304932, -0.13312199711799622, -0.507310688495636, -0.8083624243736267, 0.045166015625, 0.227294921875, -0.794921875
126, 2480891734, -5.438241958618164, -2.238726854324341, 7.702134132385254, -0.22811949253082275, -0.4737068712711334, -0.8789637684822083, 0.044189453125, 0.224365234375, -0.7958984375
127, 2480908401, -5.435420036315918, -2.2422194480895996, 7.710587024688721, -0.2718147337436676, -0.37591758370399475, -0.809694230556488, 0.043701171875, 0.224365234375, -0.793212890625
128, 2480925068, -5.4490966796875, -2.240017890930176, 7.701876640319824, -0.3921688497066498, -0.3108613193035126, -0.934031069278717, 0.042236328125, 0.227294921875, -0.79345703125
129, 2480941735, -5.433711528778076, -2.2483630180358887, 7.6920166015625, -0.3531607389450073, -0.3648657500743866, -0.9824263453483582, 0.044677734375, 0.227783203125, -0.79443359375
130, 2480958402, -5.430302143096924, -2.242649555206299, 7.684906959533691, -0.30267807841300964, -0.4403975307941437, -0.8865066766738892, 0.045166015625, 0.225830078125, -0.793701171875
131, 2480975069, -5.44036340713501, -2.2493553161621094, 7.699154853820801, -0.44733864068984985, -0.2896796464920044, -0.8278793692588806, 0.043701171875, 0.226806640625, -0.79443359375
132, 2480991736, -5.440797328948975, -2.2389450073242188, 7.704254150390625, -0.5886182188987732, -0.2010212540626526, -0.920802116394043, 0.043701171875, 0.226318359375, -0.79345703125
133, 2481008403, -5.445684432983398, -2.250429630279541, 7.694030284881592, -0.47574305534362793, -0.18507735431194305, -0.9146807193756104, 0.042724609375, 0.224853515625, -0.790771484375
134, 2481025070, -5.455583572387695, -2.242138624191284, 7.679657459259033, -0.4666121304035187, -0.38089925050735474, -0.9219034910202026, 0.044189453125, 0.228271484375, -0.79345703125
135, 2481041737, -5.457559108734131, -2.2529349327087402, 7.68850564956665, -0.33552086353302, -0.599744439125061, -0.9027224183082581, 0.046142578125, 0.226806640625, -0.793701171875
136, 2481058404, -5.429795265197754, -2.249340534210205, 7.669073104858398, -0.13847506046295166, -0.6580542922019958, -0.8808078765869141, 0.041748046875, 0.226318359375, -0.790771484375
137, 2481075071, -5.438439846038818, -2.232966423034668, 7.69637393951416, -0.29025590419769287, -0.3910546600818634, -0.8333475589752197, 0.047119140625, 0.225830078125, -0.794677734375
138, 2481091738, -5.463337421417236, -2.220000982284546, 7.688756942749023, -0.4177815020084381, -0.33706310391426086, -1.0410151481628418, 0.042236328125, 0.226806640625, -0.79443359375
139, 2481108405, -5.448276042938232, -2.2506587505340576, 7.679742813110352, -0.40480875968933105, -0.4111991226673126, -1.1094653606414795, 0.043701171875, 0.227294921875, -0.7939453125
140, 2481125072, -5.443812370300293, -2.2619380950927734, 7.655566215515137, -0.47904717922210693, -0.4161551594734192, -1.0462146997451782, 0.044189453125, 0.225341796875, -0.789306640625
141, 2481141739, -5.453514575958252, -2.2503926753997803, 7.6769609451293945, -0.3608444929122925, -0.4122747778892517, -0.9674940705299377, 0.0419921875, 0.227294921875, -0.79345703125
142, 2481158406, -5.444397449493408, -2.2543411254882812, 7.685980319976807, -0.23992696404457092, -0.44243380427360535, -0.9828489422798157, 0.046630859375, 0.229248046875, -0.791259765625
143, 2481175073, -5.44681978225708, -2.247637987136841, 7.684978008270264, -0.19192878901958466, -0.6049976944923401, -0.9513325691223145, 0.045166015625, 0.228271484375, -0.7939453125
144, 2481191740, -5.459195137023926, -2.254814624786377, 7.7119669914245605, -0.2091917097568512, -0.5715473294258118, -0.9015541672706604, 0.044189453125, 0.226806640625, -0.791748046875
145, 2481208407, -5.4482035636901855, -2.2562429904937744, 7.679059982299805, -0.21080532670021057, -0.33786991238594055, -0.9364771246910095, 0.043701171875, 0.227783203125, -0.79296875
146, 2481225074, -5.4662041664123535, -2.234234094619751, 7.684987545013428, -0.28207266330718994, -0.4955545663833618, -1.0611982345581055, 0.043701171875, 0.225830078125, -0.792724609375
147, 2481241741, -5.455984115600586, -2.241490125656128, 7.6944780349731445, -0.36887407302856445, -0.590846598148346, -1.1008082628250122, 0.045166015625, 0.227294921875, -0.792236328125
148, 2481258408, -5.442671775817871, -2.2624475955963135, 7.674210548400879, -0.23718640208244324, -0.7494916319847107, -0.9792759418487549, 0.044677734375, 0.225830078125, -0.7939453125
149, 2481275075, -5.442384243011475, -2.2649097442626953, 7.667086124420166, -0.15732601284980774, -0.7688932418823242, -0.9840782880783081, 0.046142578125, 0.227783203125, -0.7958984375
150, 2481291742, -5.449910640716553, -2.2355310916900635, 7.680057525634766, -0.1577870398759842, -0.7699050307273865, -0.9846547245979309, 0.043701171875, 0.225830078125, -0.79638671875
151, 2481308409, -5.4537034034729, -2.2389564514160156, 7.705654621124268, -0.15940064191818237, -0.6451327204704285, -1.057023286819458, 0.043212890625, 0.224853515625, -0.791748046875
152, 2481325076, -5.4422502517700195, -2.2478561401367188, 7.698214054107666, -0.024191193282604218, -0.618905246257782, -1.0128669738769531, 0.0419921875, 0.226806640625, -0.79296875
153, 2481341743, -5.467170715332031, -2.2512168884277344, 7.721670627593994, -0.09156540036201477, -0.6234003305435181, -0.8837534189224243, 0.043212890625, 0.225830078125, -0.79296875
154, 2481358410, -5.458735942840576, -2.2399442195892334, 7.700624942779541, -0.11986743658781052, -0.6054585576057434, -0.9155003428459167, 0.044677734375, 0.227294921875, -0.792724609375
155, 2481375077, -5.452876091003418, -2.2390027046203613, 7.673630714416504, -0.20344166457653046, -0.5566279888153076, -0.9636009931564331, 0.042236328125, 0.226806640625, -0.7939453125
156, 2481391744, -5.4571213722229, -2.2405412197113037, 7.683481216430664, -0.18803563714027405, -0.632146954536438, -0.9484766721725464, 0.044677734375, 0.227783203125, -0.79443359375
157, 2481408411, -5.445301055908203, -2.254378318786621, 7.693763732910156, -0.1209687739610672, -0.7053225040435791, -0.8740077018737793, 0.043212890625, 0.228271484375, -0.7939453125
158, 2481425078, -5.429265022277832, -2.251586675643921, 7.699863433837891, -0.1474779099225998, -0.6655203700065613, -0.8702938556671143, 0.043701171875, 0.227783203125, -0.794921875
159, 2481441745, -5.445741653442383, -2.2435669898986816, 7.692968845367432, -0.10704827308654785, -0.7214072346687317, -0.9217242002487183, 0.043701171875, 0.227783203125, -0.7939453125
160, 2481458412, -5.453644752502441, -2.249614953994751, 7.7181477546691895, -0.22306738793849945, -0.7085816264152527, -0.9324367046356201, 0.045166015625, 0.227783203125, -0.794921875
161, 2481475079, -5.4398393630981445, -2.2566025257110596, 7.68654203414917, -0.2377498894929886, -0.673255443572998, -0.9268340468406677, 0.045654296875, 0.227294921875, -0.793701171875
162, 2481491746, -5.434621810913086, -2.2567780017852783, 7.701207637786865, -0.14857928454875946, -0.6691830158233643, -0.9354525804519653, 0.042724609375, 0.226806640625, -0.79296875
163, 2481508413, -5.439496040344238, -2.2355117797851562, 7.703526973724365, -0.1668795645236969, -0.569191038608551, -0.9246697425842285, 0.043701171875, 0.225341796875, -0.793212890625
164, 2481525080, -5.453282356262207, -2.23490571975708, 7.690117835998535, -0.26037871837615967, -0.5245225429534912, -0.9148088693618774, 0.043212890625, 0.224365234375, -0.7939453125
165, 2481541747, -5.448016166687012, -2.251471996307373, 7.728017807006836, -0.26669222116470337, -0.4245304763317108, -0.9453518986701965, 0.043701171875, 0.225341796875, -0.792724609375
166, 2481558414, -5.443780422210693, -2.2553212642669678, 7.677164077758789, -0.22035884857177734, -0.46717560291290283, -0.9368100762367249, 0.042724609375, 0.227783203125, -0.79541015625
167, 2481575081, -5.458402633666992, -2.2497830390930176, 7.697432041168213, -0.21800248324871063, -0.5617889165878296, -0.915141761302948, 0.043701171875, 0.227294921875, -0.79345703125
168, 2481591748, -5.436837673187256, -2.2641561031341553, 7.678646087646484, -0.16795527935028076, -0.5321038365364075, -0.8929483294487, 0.044189453125, 0.224853515625, -0.793212890625
169, 2481608415, -5.438032627105713, -2.2429864406585693, 7.696667671203613, -0.1908772885799408, -0.48270031809806824, -0.8618550300598145, 0.044189453125, 0.224853515625, -0.793701171875
170, 2481625082, -5.433758735656738, -2.244065284729004, 7.686863899230957, -0.37101271748542786, -0.4536777138710022, -0.878528356552124, 0.044677734375, 0.226318359375, -0.7939453125
171, 2481641749, -5.4674859046936035, -2.239501476287842, 7.686703681945801, -0.3483199179172516, -0.3833196461200714, -0.8904767036437988, 0.045166015625, 0.226318359375, -0.793701171875
172, 2481658416, -5.4490156173706055, -2.2435176372528076, 7.707490921020508, -0.32867494225502014, -0.2906913161277771, -0.9844112992286682, 0.042236328125, 0.227294921875, -0.79736328125
173, 2481675083, -5.428737163543701, -2.2461397647857666, 7.688546180725098, -0.27564388513565063, -0.36186903715133667, -0.9528565406799316, 0.045166015625, 0.224365234375, -0.794921875
174, 2481691750, -5.436244487762451, -2.246457099914551, 7.671785354614258, -0.3176742494106293, -0.4499382972717285, -0.9720531105995178, 0.043212890625, 0.227294921875, -0.79248046875
175, 2481708417, -5.452796459197998, -2.2598495483398438, 7.70850133895874, -0.34753870964050293, -0.34744906425476074, -0.9995739459991455, 0.044189453125, 0.227294921875, -0.789306640625
176, 2481725084, -5.448449611663818, -2.24113130569458, 7.687775135040283, -0.29281720519065857, -0.457711786031723, -0.973577082157135, 0.043212890625, 0.228271484375, -0.790771484375
177, 2481741751, -5.445601940155029, -2.2570316791534424, 7.684003829956055, -0.20064988732337952, -0.4646783769130707, -0.8724581599235535, 0.044677734375, 0.227783203125, -0.792724609375
178, 2481758418, -5.4527764320373535, -2.25363826751709, 7.687630653381348, -0.1127086877822876, -0.4845283031463623, -0.799961507320404, 0.044677734375, 0.229248046875, -0.7939453125
179, 2481775085, -5.45314359664917, -2.2458176612854004, 7.698598861694336, -0.20698900520801544, -0.4919430911540985, -0.9099807739257812, 0.042236328125, 0.227294921875, -0.7939453125
180, 2481791752, -5.462264060974121, -2.2203354835510254, 7.690797805786133, -0.3107717037200928, -0.42294248938560486, -1.0078725814819336, 0.044677734375, 0.225341796875, -0.791748046875
181, 2481808419, -5.444029331207275, -2.2410049438476562, 7.6967902183532715, -0.2987208962440491, -0.4652034342288971, -0.9346073269844055, 0.042724609375, 0.224853515625, -0.791259765625
182, 2481825086, -5.453099250793457, -2.2501306533813477, 7.683957099914551, -0.2703804671764374, -0.5716114044189453, -0.9844881296157837, 0.042724609375, 0.225830078125, -0.792236328125
183, 2481841753, -5.451507568359375, -2.236959457397461, 7.669705867767334, -0.5542332530021667, -0.5631080269813538, -1.0336260795593262, 0.044189453125, 0.227294921875, -0.79443359375
184, 2481858420, -5.440967559814453, -2.271696090698242, 7.6951751708984375, -0.3594229817390442, -0.4595046043395996, -1.020358681678772, 0.044677734375, 0.227294921875, -0.7958984375
185, 2481875087, -5.44341516494751, -2.2583184242248535, 7.704535484313965, -0.40927812457084656, -0.6213768124580383, -0.9146422743797302, 0.043212890625, 0.226318359375, -0.794921875
186, 2481891754, -5.440051555633545, -2.2655913829803467, 7.669861316680908, -0.3101953864097595, -0.5121002793312073, -0.9875359535217285, 0.044189453125, 0.227783203125, -0.792236328125
187, 2481908421, -5.453802585601807, -2.2575924396514893, 7.695003509521484, -0.20724517107009888, -0.6146535873413086, -0.9675197005271912, 0.043212890625, 0.226318359375, -0.7939453125
188, 2481925088, -5.435643672943115, -2.248814344406128, 7.70603609085083, -0.22288168966770172, -0.5436680316925049, -0.8398531675338745, 0.042724609375, 0.224853515625, -0.794921875
189, 2481941755, -5.459900379180908, -2.242471218109131, 7.680312156677246, -0.18250328302383423, -0.6744592189788818, -0.8791815042495728, 0.045166015625, 0.227783203125, -0.792236328125
190, 2481958422, -5.454960823059082, -2.2363970279693604, 7.686493873596191, -0.22279205918312073, -0.6674668788909912, -0.9705803394317627, 0.045654296875, 0.227294921875, -0.794921875
191, 2481975089, -5.447423934936523, -2.2646536827087402, 7.676395893096924, -0.2507867217063904, -0.8243446946144104, -1.0367507934570312, 0.044677734375, 0.228759765625, -0.7978515625
192, 2481991756, -5.451019763946533, -2.2503485679626465, 7.683572769165039, -0.2898717522621155, -0.8122043013572693, -1.0329729318618774, 0.042724609375, 0.226318359375, -0.79443359375
193, 2482008423, -5.459721565246582, -2.2481679916381836, 7.691773891448975, -0.3655444383621216, -0.84022456407547, -1.1314793825149536, 0.042236328125, 0.226318359375, -0.79541015625
194, 2482025090, -5.459390640258789, -2.2387568950653076, 7.665057182312012, -0.33524462580680847, -0.8586401343345642, -1.121772289276123, 0.044677734375, 0.224365234375, -0.793212890625
195, 2482041757, -5.453613758087158, -2.222224473953247, 7.709098815917969, -0.43212464451789856, -0.9014517068862915, -1.4066622257232666, 0.046142578125, 0.226806640625, -0.793701171875
196, 2482058424, -5.425046443939209, -2.273643732070923, 7.68583869934082, -0.5613279342651367, -0.5667834281921387, -1.3914483785629272, 0.045166015625, 0.226806640625, -0.794921875
197, 2482075091, -5.454483985900879, -2.226640224456787, 7.694864749908447, -0.8250235319137573, -0.5030590891838074, -1.519896149635315, 0.044189453125, 0.228759765625, -0.7939453125
198, 2482091758, -5.449262619018555, -2.2846968173980713, 7.685621738433838, -0.7109701633453369, -0.5531831383705139, -1.47419011592865, 0.044189453125, 0.228759765625, -0.791748046875
199, 2482108425, -5.473176956176758, -2.2466652393341064, 7.683550834655762, -0.7893320322036743, -0.7075890898704529, -1.5515018701553345, 0.042236328125, 0.226318359375, -0.79296875
200, 2482125092, -5.4562764167785645, -2.2147927284240723, 7.672061443328857, -0.7571114897727966, -0.9782899022102356, -1.7739869356155396, 0.042724609375, 0.227783203125, -0.791259765625
201, 2482141759, -5.442342281341553, -2.2399322986602783, 7.695725440979004, -0.8519296646118164, -0.984257698059082, -2.022404432296753, 0.043701171875, 0.227783203125, -0.79638671875
202, 2482158426, -5.429932117462158, -2.2957966327667236, 7.670321941375732, -0.5791763663291931, -1.2632302045822144, -1.8025251626968384, 0.04296875, 0.229736328125, -0.7958984375
203, 2482175093, -5.451921463012695, -2.295839309692383, 7.627764701843262, -0.3677727282047272, -1.9937950372695923, -1.538913369178772, 0.04345703125, 0.229248046875, -0.79638671875
204, 2482191760, -5.495103359222412, -2.277885675430298, 7.6187944412231445, 1.0419950485229492, -3.1674327850341797, -1.1605753898620605, 0.04150390625, 0.230224609375, -0.79345703125
205, 2482208427, -5.493165493011475, -2.2126471996307373, 7.62883996963501, 2.024165391921997, -4.911452770233154, -1.2474665641784668, 0.04052734375, 0.225830078125, -0.79541015625
206, 2482225094, -5.393474578857422, -2.275125503540039, 7.755395889282227, 2.28426194190979, -5.420952796936035, -1.5414234399795532, 0.03857421875, 0.227294921875, -0.7919921875
207, 2482241761, -5.345034122467041, -2.3255791664123535, 7.786570072174072, 1.8433908224105835, -4.4366960525512695, -1.4738571643829346, 0.03515625, 0.226806640625, -0.796630859375
208, 2482258428, -5.369324684143066, -2.2945117950439453, 7.77687931060791, 1.1527955532073975, -3.0068411827087402, -1.1588977575302124, 0.0390625, 0.225830078125, -0.79638671875
209, 2482275095, -5.354659557342529, -2.3039801120758057, 7.77285099029541, 0.7393425107002258, -2.2275493144989014, -0.9408696889877319, 0.0400390625, 0.226318359375, -0.79345703125
210, 2482291762, -5.338708877563477, -2.275585412979126, 7.737273216247559, 0.5839887857437134, -1.651916742324829, -0.8973920941352844, 0.03662109375, 0.226806640625, -0.7939453125
211, 2482308429, -5.353043556213379, -2.2739458084106445, 7.745421409606934, 0.4486256241798401, -1.2109683752059937, -0.782839298248291, 0.03759765625, 0.225341796875, -0.79541015625
212, 2482325096, -5.36075496673584, -2.25146484375, 7.753133296966553, 0.6531046628952026, -0.9303556680679321, -0.4176662564277649, 0.03857421875, 0.223876953125, -0.7978515625
213, 2482341763, -5.392892837524414, -2.216277599334717, 7.735249042510986, 0.5165889859199524, -0.8872367739677429, -0.5694727897644043, 0.0361328125, 0.224365234375, -0.7939453125
214, 2482358430, -5.422057628631592, -2.206284523010254, 7.773891925811768, 0.07286173105239868, -0.734713077545166, -1.0032110214233398, 0.03857421875, 0.225830078125, -0.796875
215, 2482375097, -5.432348728179932, -2.2516276836395264, 7.6916728019714355, 0.0560469925403595, -0.8838558793067932, -1.1468470096588135, 0.03662109375, 0.226318359375, -0.798095703125
216, 2482391764, -5.521965980529785, -2.2197375297546387, 7.755188465118408, 0.29693442583084106, -1.4827319383621216, -1.3879649639129639, 0.03662109375, 0.22314453125, -0.7958984375
217, 2482408431, -5.604526996612549, -2.1349453926086426, 7.737987995147705, 0.18367508053779602, -2.078150510787964, -2.022775650024414, 0.03515625, 0.224853515625, -0.79345703125
218, 2482425098, -5.594107151031494, -2.1291511058807373, 7.7476043701171875, -0.8399686217308044, -2.89559268951416, -3.484633684158325, 0.0361328125, 0.223876953125, -0.796875
219, 2482441765, -5.310368061065674, -2.252976179122925, 7.716547966003418, -1.4467077255249023, -2.94699764251709, -4.32524299621582, 0.033203125, 0.227294921875, -0.796630859375
220, 2482458432, -5.207984447479248, -2.3106114864349365, 7.752415657043457, -2.042369842529297, -1.58177649974823, -4.380066394805908, 0.0341796875, 0.227783203125, -0.796630859375
221, 2482475099, -5.143803119659424, -2.326416254043579, 7.783617973327637, -2.9014580249786377, 0.342512309551239, -4.310194969177246, 0.033203125, 0.227294921875, -0.794677734375
222, 2482491766, -5.038654804229736, -2.419642686843872, 7.765411376953125, -3.598904848098755, 2.565336227416992, -3.7403252124786377, 0.0341796875, 0.227783203125, -0.795654296875
223, 2482508433, -5.045006275177002, -2.4151062965393066, 7.807530403137207, -4.077248573303223, 5.708642959594727, -2.579916477203369, 0.03564453125, 0.231689453125, -0.79443359375
224, 2482525100, -4.973150730133057, -2.379241704940796, 7.888057708740234, -5.793365478515625, 9.820597648620605, -2.478875160217285, 0.03857421875, 0.229736328125, -0.794921875
225, 2482541767, -4.553734302520752, -2.479882001876831, 8.084883689880371, -9.345600128173828, 17.860151290893555, -1.416512370109558, 0.0419921875, 0.23291015625, -0.79345703125
226, 2482558434, -4.25521183013916, -2.7265422344207764, 8.345907211303711, -13.77075481414795, 32.535926818847656, 1.7889975309371948, 0.0458984375, 0.2353515625, -0.791259765625
227, 2482575101, -4.237255096435547, -2.4932825565338135, 8.926851272583008, -26.747718811035156, 59.671443939208984, 11.306074142456055, 0.061767578125, 0.239501953125, -0.78662109375
228, 2482591768, -3.0758092403411865, -3.7406718730926514, 10.154728889465332, -20.830968856811523, 94.22045135498047, 27.30878448486328, 0.079345703125, 0.24169921875, -0.78466796875
229, 2482608435, -5.0628252029418945, -2.1672608852386475, 10.227301597595215, -32.35631561279297, 129.22032165527344, 39.53579330444336, 0.111083984375, 0.24560546875, -0.775146484375
230, 2482625102, -6.179025173187256, -3.7218308448791504, 10.124805450439453, -33.43379211425781, 145.4277801513672, 52.088748931884766, 0.146484375, 0.249755859375, -0.765380859375
231, 2482641769, -7.431107044219971, -5.003044605255127, 10.033585548400879, -18.290103912353516, 151.894287109375, 61.71544647216797, 0.184326171875, 0.252197265625, -0.74951171875
232, 2482658436, -5.065130233764648, -4.652633190155029, 9.933953285217285, -2.629662036895752, 132.70437622070312, 61.26485824584961, 0.22119140625, 0.246826171875, -0.7373046875
233, 2482675103, -2.5341053009033203, -9.934687614440918, 14.655725479125977, 21.881553649902344, 93.6056900024414, 33.12596893310547, 0.25390625, 0.2412109375, -0.7275390625
234, 2482691770, -1.0371381044387817, -8.715752601623535, 16.105688095092773, 56.053863525390625, 27.777849197387695, -25.963001251220703, 0.265869140625, 0.2265625, -0.7197265625
235, 2482708437, 4.314300537109375, -4.431606292724609, 13.019111633300781, 53.47958755493164, -19.165700912475586, -70.29251861572266, 0.265625, 0.219482421875, -0.718017578125
236, 2482725104, 5.972560405731201, -1.4740663766860962, 11.638959884643555, 38.797489166259766, -32.951595306396484, -79.24512481689453, 0.2626953125, 0.214111328125, -0.711669921875
237, 2482741771, 4.393070220947266, -0.1900482177734375, 12.999563217163086, 21.040855407714844, -54.55504608154297, -72.66201782226562, 0.25634765625, 0.2119140625, -0.709716796875
238, 2482758438, 3.4197378158569336, -0.14416545629501343, 13.69790267944336, 9.06075668334961, -85.76597595214844, -58.81951904296875, 0.246337890625, 0.21044921875, -0.708251953125
239, 2482775105, 2.2062981128692627, -0.5226420760154724, 13.930191040039062, 5.151409149169922, -116.26937103271484, -42.82585525512695, 0.23583984375, 0.209228515625, -0.712158203125
240, 2482791772, 0.6986375451087952, -1.1534756422042847, 13.418947219848633, 4.007613182067871, -138.09872436523438, -30.626468658447266, 0.21533203125, 0.2099609375, -0.714599609375
241, 2482808439, -1.0785362720489502, -1.924329161643982, 12.290748596191406, 3.5047447681427, -145.806640625, -21.425189971923828, 0.203857421875, 0.21044921875, -0.71826171875
242, 2482825106, -3.919821262359619, -2.511749744415283, 11.763799667358398, 0.6991041898727417, -142.15318298339844, -15.222289085388184, 0.185791015625, 0.216796875, -0.7265625
243, 2482841773, -6.483999729156494, -3.24932861328125, 11.290410041809082, -4.485960006713867, -135.23838806152344, -13.217168807983398, 0.170166015625, 0.229248046875, -0.7431640625
244, 2482858440, -8.532363891601562, -4.053905963897705, 10.819537162780762, -6.854495525360107, -127.33665466308594, -12.343998908996582, 0.155029296875, 0.242919921875, -0.7626953125
245, 2482875107, -10.90056324005127, -4.36211633682251, 10.799424171447754, -12.635488510131836, -124.2677230834961, -15.875190734863281, 0.12646484375, 0.2607421875, -0.7802734375
246, 2482891774, -11.773306846618652, -4.972565174102783, 9.64779281616211, -18.979198455810547, -130.34906005859375, -24.176509857177734, 0.09375, 0.2705078125, -0.794677734375
247, 2482908441, -10.962239265441895, -5.02609920501709, 7.934032440185547, -17.382158279418945, -131.85653686523438, -30.066015243530273, 0.05517578125, 0.283203125, -0.80615234375
248, 2482925108, -10.53183650970459, -3.879638671875, 6.89440393447876, -18.30475616455078, -122.3629379272461, -34.24474334716797, 0.01611328125, 0.2900390625, -0.8134765625
249, 2482941775, -10.898884773254395, -2.663970947265625, 6.164766311645508, -28.161514282226562, -113.55239868164062, -40.01130294799805, -0.02490234375, 0.29833984375, -0.81494140625
250, 2482958442, -10.470348358154297, -1.8551746606826782, 5.190616130828857, -35.52326965332031, -108.29273223876953, -42.46059036254883, -0.058349609375, 0.30859375, -0.8134765625
251, 2482975109, -10.886314392089844, -1.0402361154556274, 3.8964078426361084, -34.71429443359375, -103.47364807128906, -39.23129653930664, -0.08935546875, 0.313232421875, -0.809326171875
252, 2482991776, -11.361381530761719, -0.09619519859552383, 1.7355127334594727, -25.808059692382812, -96.74150085449219, -25.902267456054688, -0.118896484375, 0.31787109375, -0.7998046875
253, 2483008443, -11.984269142150879, 1.0882481336593628, -0.6013926863670349, -19.500598907470703, -79.35396575927734, -5.433964729309082, -0.141845703125, 0.3193359375, -0.795654296875
254, 2483025110, -12.751322746276855, 1.747772216796875, -2.6312198638916016, -20.838594436645508, -49.759239196777344, 16.283884048461914, -0.15478515625, 0.32568359375, -0.79150390625
255, 2483041777, -12.483084678649902, 1.2855603694915771, -3.3537793159484863, -23.9991512298584, -11.179719924926758, 37.73715591430664, -0.159423828125, 0.332275390625, -0.7880859375
256, 2483058444, -12.514674186706543, -0.10727201402187347, -2.5323400497436523, -22.93703842163086, 27.022581100463867, 57.20875930786133, -0.150634765625, 0.33740234375, -0.78564453125
257, 2483075111, -12.962139129638672, -1.4452155828475952, -0.826485812664032, -23.13703155517578, 55.241878509521484, 70.66015625, -0.1318359375, 0.347412109375, -0.787353515625
258, 2483091778, -3.884999990463257, -10.621851921081543, 9.61186408996582, 18.233808517456055, 94.70183563232422, 74.39535522460938, -0.10595703125, 0.3466796875, -0.789794921875
259, 2483108445, 3.2654500007629395, -8.473183631896973, 16.35935401916504, 38.15485382080078, 85.99766540527344, 54.35280990600586, -0.081298828125, 0.337890625, -0.794189453125
260, 2483125112, 2.4300308227539062, -3.3506832122802734, 2.724862813949585, 21.725990295410156, 102.05440521240234, 17.948673248291016, -0.0595703125, 0.330078125, -0.796142578125
261, 2483141779, -3.8310444355010986, -3.2618026733398438, 6.235469341278076, 2.3902416229248047, 167.79766845703125, -4.445436000823975, -0.021728515625, 0.33154296875, -0.799072265625
262, 2483158446, -9.417724609375, -3.184755802154541, 10.384758949279785, -5.5480875968933105, 153.4095001220703, -30.319028854370117, 0.01123046875, 0.330810546875, -0.798828125
263, 2483175113, -8.054359436035156, -0.6832698583602905, 10.1058349609375, -0.32824739813804626, 132.76470947265625, -14.765485763549805, 0.0390625, 0.328369140625, -0.794677734375
264, 2483191780, -8.101329803466797, 0.646283745765686, 11.433544158935547, -1.0223357677459717, 106.82381439208984, 25.25135612487793, 0.068115234375, 0.3251953125, -0.7919921875
265, 2483208447, -8.464127540588379, -3.205571413040161, 8.182150840759277, -1.2595561742782593, 85.53225708007812, 38.00603485107422, 0.092041015625, 0.326416015625, -0.7900390625
266, 2483225114, -12.307791709899902, -9.013525009155273, 9.416642189025879, 40.1677360534668, 72.66282653808594, 38.68636703491211, 0.114501953125, 0.318603515625, -0.79052734375
267, 2483241781, -8.406579971313477, 0.34527450799942017, 9.561394691467285, 44.20741271972656, 23.384737014770508, 25.272184371948242, 0.124755859375, 0.30615234375, -0.793212890625
268, 2483258448, -6.450810432434082, -3.226468801498413, 8.517775535583496, 30.35188865661621, 8.232705116271973, 13.757465362548828, 0.126708984375, 0.296630859375, -0.795654296875
269, 2483275115, -6.193359851837158, -2.453195810317993, 8.291430473327637, 26.79899787902832, 6.387653350830078, 10.317619323730469, 0.13037109375, 0.2880859375, -0.797607421875
270, 2483291782, -5.7223639488220215, -3.0884392261505127, 7.566710472106934, 20.858448028564453, 1.7276242971420288, 7.848865985870361, 0.131591796875, 0.283447265625, -0.800048828125
271, 2483308449, -5.6769185066223145, -2.17411470413208, 8.147451400756836, 17.817899703979492, 0.005858912598341703, 7.705264568328857, 0.131591796875, 0.27734375, -0.802490234375
272, 2483325116, -5.568844318389893, -2.57148814201355, 7.818950653076172, 14.321616172790527, -1.0010603666305542, 6.638272762298584, 0.134033203125, 0.275390625, -0.802978515625
273, 2483341783, -5.287942886352539, -2.3810782432556152, 7.862381935119629, 12.704324722290039, -1.070022463798523, 6.480036735534668, 0.1337890625, 0.27099609375, -0.803466796875
274, 2483358450, -5.247725963592529, -2.696237802505493, 7.658173561096191, 17.4017333984375, -4.823544025421143, 9.907973289489746, 0.13330078125, 0.266845703125, -0.805419921875
275, 2483375117, -5.2136969566345215, -3.2154393196105957, 7.229578971862793, 25.209035873413086, -11.3760986328125, 14.10859203338623, 0.1318359375, 0.26025390625, -0.807373046875
276, 2483391784, -5.407204627990723, -2.8599588871002197, 7.507496356964111, 33.158836364746094, -17.132190704345703, 16.881473541259766, 0.131591796875, 0.251708984375, -0.810791015625
277, 2483408451, -5.351632595062256, -2.356112003326416, 7.863106727600098, 31.56683921813965, -18.092954635620117, 17.114973068237305, 0.128173828125, 0.24267578125, -0.8154296875
278, 2483425118, -5.564083576202393, -0.6704384088516235, 8.51296329498291, 16.610288619995117, -10.68922233581543, 10.464893341064453, 0.125244140625, 0.236572265625, -0.81640625
279, 2483441785, -5.496026992797852, -1.3066104650497437, 8.201250076293945, 6.892218112945557, -4.046833038330078, 4.386488914489746, 0.122314453125, 0.234619140625, -0.81591796875
280, 2483458452, -5.31035852432251, -2.034184217453003, 7.904722213745117, 2.78025221824646, -1.5029534101486206, 1.7973777055740356, 0.125732421875, 0.235595703125, -0.81689453125
281, 2483475119, -5.265581130981445, -2.25663685798645, 7.778531551361084, 2.9342997074127197, -1.9373189210891724, 2.2835707664489746, 0.126708984375, 0.233642578125, -0.81689453125
282, 2483491786, -5.304525852203369, -2.305068254470825, 7.894228458404541, 5.259740829467773, -3.0399460792541504, 3.753765344619751, 0.123779296875, 0.231201171875, -0.81396484375
283, 2483508453, -5.262983322143555, -2.407813787460327, 7.801596641540527, 9.986403465270996, -5.480057716369629, 6.385934352874756, 0.12451171875, 0.22900390625, -0.81640625
284, 2483525120, -5.146947383880615, -2.0303783416748047, 7.692508220672607, 10.019150733947754, -5.68364143371582, 7.700777053833008, 0.12451171875, 0.22705078125, -0.81689453125
285, 2483541787, -5.02669620513916, -1.687973141670227, 7.8275651931762695, 8.130646705627441, -4.933431625366211, 7.667454242706299, 0.1240234375, 0.22509765625, -0.818359375
286, 2483558454, -5.0789923667907715, -1.6358864307403564, 8.077112197875977, 4.457205295562744, -1.451395034790039, 7.0482001304626465, 0.1220703125, 0.221435546875, -0.81884765625
287, 2483575121, -5.210127353668213, -1.6937909126281738, 8.002504348754883, 0.30295348167419434, 4.639363765716553, 5.949018478393555, 0.1259765625, 0.22119140625, -0.82177734375
288, 2483591788, -5.1542840003967285, -1.7083994150161743, 7.997952461242676, -2.2524070739746094, 9.949544906616211, 4.2480149269104, 0.1259765625, 0.219970703125, -0.8193359375
289, 2483608455, -4.999593257904053, -2.1019535064697266, 8.091802597045898, -4.742414474487305, 17.238039016723633, 3.942305088043213, 0.131591796875, 0.220703125, -0.817138671875
290, 2483625122, -4.937310218811035, -2.195679187774658, 8.202659606933594, -6.376144886016846, 26.4237117767334, 6.507147312164307, 0.135986328125, 0.2216796875, -0.81591796875
291, 2483641789, -5.144487380981445, -2.1725711822509766, 8.174808502197266, -7.7806854248046875, 39.76087951660156, 8.055094718933105, 0.146484375, 0.223876953125, -0.814453125
292, 2483658456, -4.57065486907959, -1.4894657135009766, 9.038739204406738, -10.058564186096191, 58.166595458984375, 5.94765567779541, 0.159423828125, 0.227783203125, -0.810546875
293, 2483675123, -4.460468769073486, -2.4027469158172607, 9.02665901184082, -15.981367111206055, 82.18914031982422, 12.095362663269043, 0.17578125, 0.22802734375, -0.802734375
294, 2483691790, -4.720745086669922, -2.209836721420288, 8.988692283630371, -21.59286117553711, 114.54926300048828, 18.10204315185547, 0.20166015625, 0.231201171875, -0.795654296875
295, 2483708457, -4.948369026184082, -2.3279049396514893, 9.460814476013184, -26.006685256958008, 154.6204376220703, 28.43974494934082, 0.237060546875, 0.234130859375, -0.783935546875
296, 2483725124, -4.182442665100098, -2.343506097793579, 9.927214622497559, -30.808313369750977, 209.72296142578125, 41.94536590576172, 0.2802734375, 0.23779296875, -0.762451171875
297, 2483741791, -4.818074703216553, -2.9223103523254395, 10.47501277923584, -31.379737854003906, 291.3707275390625, 61.267250061035156, 0.341064453125, 0.241455078125, -0.73828125
298, 2483758458, -6.035001754760742, -4.25104284286499, 11.76724624633789, -24.788122177124023, 372.45391845703125, 96.15495300292969, 0.42041015625, 0.236572265625, -0.6904296875
299, 2483775125, -7.819807529449463, -5.350783348083496, 12.451387405395508, -25.493480682373047, 416.38623046875, 138.50857543945312, 0.5068359375, 0.219970703125, -0.626953125
300, 2483791792, -16.055322647094727, -4.931021213531494, 14.426410675048828, -35.97330856323242, 414.5685119628906, 154.56993103027344, 0.58837890625, 0.197998046875, -0.552734375
301, 2483808459, -20.032629013061523, -5.562611103057861, 16.585683822631836, -30.716758728027344, 362.3447570800781, 142.56561279296875, 0.654052734375, 0.173583984375, -0.47509765625
302, 2483825126, -13.380041122436523, -5.130331516265869, 14.204145431518555, -30.880279541015625, 288.18707275390625, 127.83192443847656, 0.70068359375, 0.15234375, -0.40869140625
303, 2483841793, -1.9243813753128052, -6.0402679443359375, 13.403433799743652, -13.358380317687988, 249.4427947998047, 123.41773223876953, 0.732421875, 0.124267578125, -0.345703125
304, 2483858460, -16.02653694152832, -13.218684196472168, 25.425914764404297, -32.59590530395508, 122.50888061523438, 49.01601791381836, 0.754638671875, 0.10888671875, -0.30029296875
305, 2483875127, -3.2316396236419678, -13.334880828857422, 19.43634796142578, 22.82516098022461, -68.87114715576172, -13.209616661071777, 0.754638671875, 0.106201171875, -0.2978515625
306, 2483891794, 5.7791748046875, -5.7303853034973145, 12.61529541015625, 63.82182693481445, -131.02076721191406, -35.71113204956055, 0.750732421875, 0.100830078125, -0.31494140625
307, 2483908461, 6.680437088012695, -1.0153417587280273, 9.943737030029297, 29.612319946289062, -129.99749755859375, -56.68433380126953, 0.749267578125, 0.103271484375, -0.335205078125
308, 2483925128, 3.917463541030884, -1.1672178506851196, 9.180962562561035, -25.390857696533203, -127.6613998413086, -79.48789978027344, 0.755615234375, 0.1201171875, -0.360107421875
309, 2483941795, 0.9863269329071045, -2.7925124168395996, 8.959687232971191, -44.08819580078125, -138.52088928222656, -93.39397430419922, 0.76513671875, 0.143310546875, -0.390869140625
310, 2483958462, -2.043898105621338, -3.6080358028411865, 9.03044319152832, -24.958478927612305, -159.54910278320312, -98.17289733886719, 0.767333984375, 0.174560546875, -0.445068359375
311, 2483975129, -4.7797346115112305, -3.06872296333313, 9.335351943969727, 1.8944332599639893, -188.6146697998047, -99.4293212890625, 0.75, 0.202880859375, -0.517333984375
312, 2483991796, -7.029937744140625, -2.2817599773406982, 9.455503463745117, 16.413450241088867, -220.10269165039062, -101.26399993896484, 0.6923828125, 0.2216796875, -0.596435546875
313, 2484008463, -8.478836059570312, -1.9660757780075073, 9.343435287475586, 15.709254264831543, -248.32647705078125, -102.71566772460938, 0.618408203125, 0.235595703125, -0.660400390625
314, 2484025130, -9.841484069824219, -1.983140230178833, 9.721832275390625, 8.182016372680664, -268.5033264160156, -101.15482330322266, 0.53955078125, 0.24609375, -0.7001953125
315, 2484041797, -11.049272537231445, -2.073011636734009, 9.747090339660645, -7.351626396179199, -285.71795654296875, -98.81655883789062, 0.477294921875, 0.269287109375, -0.729736328125
316, 2484058464, -11.472829818725586, -1.895182490348816, 9.5618314743042, -29.02205467224121, -292.42578125, -94.9833755493164, 0.41552734375, 0.29443359375, -0.767333984375
317, 2484075131, -11.926265716552734, -1.963603138923645, 9.893412590026855, -50.63353729248047, -280.3093566894531, -85.10850524902344, 0.346435546875, 0.32568359375, -0.8134765625
318, 2484091798, -15.275364875793457, -3.160397529602051, 11.663804054260254, -72.26647186279297, -261.7529602050781, -72.35437774658203, 0.2509765625, 0.364013671875, -0.846435546875
319, 2484108465, -22.62584114074707, -5.174140453338623, 12.691987037658691, -92.72847747802734, -272.22174072265625, -80.1417236328125, 0.146728515625, 0.392333984375, -0.84814453125
320, 2484125132, -26.399450302124023, -8.38057804107666, 8.280424118041992, -67.84593963623047, -304.2818603515625, -99.79906463623047, 0.042724609375, 0.409423828125, -0.826416015625
321, 2484141799, -26.04650115966797, -6.593949794769287, 1.7848209142684937, -5.607957363128662, -315.43585205078125, -94.32318878173828, -0.0478515625, 0.40576171875, -0.80859375
322, 2484158466, -23.93500518798828, 0.7478827834129333, -3.0204036235809326, -4.63701868057251, -280.2811279296875, -80.1240463256836, -0.12548828125, 0.39599609375, -0.7939453125
323, 2484175133, -22.381807327270508, 6.25368070602417, -7.867427825927734, -67.7663345336914, -203.38465881347656, -70.68550109863281, -0.182373046875, 0.39892578125, -0.77001953125
324, 2484191800, -27.220420837402344, 10.716804504394531, -13.655558586120605, -126.22731018066406, -113.75242614746094, -66.86715698242188, -0.218505859375, 0.4150390625, -0.744873046875
325, 2484208467, -26.192453384399414, 9.394576072692871, -16.81934356689453, -105.4516830444336, -22.932424545288086, -28.095430374145508, -0.2333984375, 0.43408203125, -0.72314453125
326, 2484225134, -20.604923248291016, 2.580103635787964, -13.715596199035645, 2.28682541847229, 93.1626968383789, 65.70056915283203, -0.216064453125, 0.441162109375, -0.71923828125
327, 2484241801, -6.232387542724609, -4.446062088012695, 7.7229905128479, 99.60892486572266, 161.6278076171875, 132.09556579589844, -0.171875, 0.428466796875, -0.73486328125
328, 2484258468, -3.86672043800354, -14.057305335998535, 9.4137601852417, 99.6822280883789, 129.12478637695312, 77.94584655761719, -0.13232421875, 0.408935546875, -0.75
329, 2484275135, -1.2151288986206055, -1.2062362432479858, 4.016186714172363, 79.9642333984375, 189.1385040283203, 45.67695236206055, -0.091064453125, 0.386962890625, -0.757080078125
330, 2484291802, -14.79109001159668, 3.530996322631836, 15.930970191955566, 51.83937454223633, 206.9790496826172, 12.183904647827148, -0.04248046875, 0.371337890625, -0.761474609375
331, 2484308469, -14.78809928894043, 6.791322231292725, 15.457759857177734, 31.670164108276367, 137.7848663330078, 58.627891540527344, -0.00732421875, 0.359619140625, -0.7626953125
332, 2484325136, -10.787038803100586, -6.549956798553467, 11.030376434326172, 15.31147289276123, 95.32229614257812, 76.94400787353516, 0.023193359375, 0.357421875, -0.760498046875
333, 2484341803, -14.200952529907227, -6.841840744018555, 6.417022228240967, 79.59418487548828, 44.12060546875, 46.52544403076172, 0.041748046875, 0.341064453125, -0.76513671875
334, 2484358470, -8.30408000946045, -0.6931632161140442, 10.878291130065918, 46.69917297363281, 13.943269729614258, 29.29939842224121, 0.050537109375, 0.326904296875, -0.770263671875
335, 2484375137, -6.364782333374023, -2.2201921939849854, 8.690024375915527, 41.11947250366211, 6.4306464195251465, 19.94327735900879, 0.05029296875, 0.31689453125, -0.773193359375
336, 2484391804, -5.800456523895264, -2.2980003356933594, 8.043856620788574, 21.583255767822266, 0.6266214847564697, 10.499046325683594, 0.05029296875, 0.312255859375, -0.775146484375
337, 2484408471, -5.66515588760376, -2.1224122047424316, 8.302522659301758, 15.251487731933594, 4.066077709197998, 7.098906993865967, 0.053955078125, 0.306884765625, -0.776611328125
338, 2484425138, -5.921232223510742, -2.438063621520996, 8.017416954040527, 8.261141777038574, 4.406749725341797, 3.396174669265747, 0.054443359375, 0.303466796875, -0.777587890625
339, 2484441805, -5.685365200042725, -2.401026964187622, 7.872640132904053, 7.972716808319092, 3.040925979614258, 4.15961217880249, 0.054443359375, 0.303466796875, -0.779541015625
340, 2484458472, -5.277300834655762, -3.0543413162231445, 7.475271701812744, 12.302626609802246, 1.0795568227767944, 7.7539238929748535, 0.058837890625, 0.298828125, -0.777587890625
341, 2484475139, -5.397391319274902, -2.918658494949341, 7.501992225646973, 13.887377738952637, 0.20266710221767426, 10.255494117736816, 0.06005859375, 0.29638671875, -0.779541015625
342, 2484491806, -5.63399600982666, -2.2729461193084717, 7.751478672027588, 12.94256591796875, -1.4115557670593262, 10.442967414855957, 0.05908203125, 0.291748046875, -0.781494140625
343, 2484508473, -5.663888931274414, -2.1829941272735596, 7.717011451721191, 13.543310165405273, -3.563767433166504, 9.791060447692871, 0.05859375, 0.288330078125, -0.779541015625
344, 2484525140, -5.66558837890625, -2.7444264888763428, 7.540123462677002, 19.92400360107422, -10.236867904663086, 11.817859649658203, 0.05908203125, 0.286865234375, -0.781982421875
345, 2484541807, -5.688013553619385, -3.0322723388671875, 7.4436259269714355, 28.915958404541016, -20.61022186279297, 14.37930679321289, 0.056884765625, 0.279296875, -0.785400390625
346, 2484558474, -5.431491374969482, -2.614006519317627, 7.643959999084473, 31.17670249938965, -25.567237854003906, 14.367082595825195, 0.052490234375, 0.270751953125, -0.7880859375
347, 2484575141, -5.485204219818115, -1.8019087314605713, 7.91661262512207, 28.69291114807129, -24.099699020385742, 13.123988151550293, 0.047607421875, 0.263671875, -0.791015625
348, 2484591808, -5.173234462738037, -1.514682412147522, 8.100713729858398, 21.483600616455078, -18.393796920776367, 10.891984939575195, 0.042724609375, 0.259033203125, -0.79150390625
349, 2484608475, -4.9916558265686035, -1.3186726570129395, 8.175735473632812, 12.665974617004395, -10.79708480834961, 8.616525650024414, 0.040283203125, 0.25244140625, -0.793701171875
350, 2484625142, -5.019240856170654, -1.3953347206115723, 8.165143966674805, 4.673339366912842, -2.8865904808044434, 6.6236701011657715, 0.041259765625, 0.25, -0.79345703125
351, 2484641809, -5.036677360534668, -1.5207597017288208, 8.149569511413574, 0.027962669730186462, 2.4096109867095947, 6.713313579559326, 0.039306640625, 0.25146484375, -0.792724609375
352, 2484658476, -5.056551456451416, -1.5212880373001099, 8.050346374511719, -4.195207595825195, 7.717190742492676, 5.118679523468018, 0.044189453125, 0.2529296875, -0.79345703125
353, 2484675143, -5.08900260925293, -1.8218343257904053, 8.112286567687988, -5.3551201820373535, 13.211455345153809, 3.6973559856414795, 0.046630859375, 0.251953125, -0.79443359375
354, 2484691810, -4.993691921234131, -1.981652021408081, 8.141534805297852, -5.728635787963867, 21.1761474609375, 4.390926837921143, 0.0517578125, 0.253173828125, -0.794921875
355, 2484708477, -5.11214542388916, -2.1087498664855957, 8.179842948913574, -6.486196517944336, 31.509531021118164, 5.656002998352051, 0.0595703125, 0.254150390625, -0.792236328125
356, 2484725144, -4.634904384613037, -1.5349175930023193, 8.833025932312012, -3.2122159004211426, 47.02916717529297, 2.6332428455352783, 0.069580078125, 0.255859375, -0.7900390625
357, 2484741811, -4.498509883880615, -2.23138427734375, 8.905515670776367, -6.1972222328186035, 67.76687622070312, 4.3616132736206055, 0.08251953125, 0.25537109375, -0.78515625
358, 2484758478, -4.691661834716797, -2.5966153144836426, 8.958929061889648, -6.88900089263916, 94.7472152709961, 11.704631805419922, 0.10498046875, 0.258544921875, -0.78369140625
359, 2484775145, -4.968195915222168, -2.517014980316162, 9.238936424255371, -7.300205230712891, 129.33624267578125, 22.95052719116211, 0.1328125, 0.2587890625, -0.77685546875
360, 2484791812, -4.599133014678955, -2.505309581756592, 9.598261833190918, -10.599388122558594, 172.98248291015625, 36.76707077026367, 0.169677734375, 0.257080078125, -0.767333984375
361, 2484808479, -4.65451717376709, -3.1912035942077637, 10.08326530456543, -5.084707736968994, 237.2942657470703, 53.55644607543945, 0.22314453125, 0.255615234375, -0.750244140625
362, 2484825146, -4.998959064483643, -3.2599239349365234, 10.95467472076416, 7.285820007324219, 310.3421936035156, 79.85887145996094, 0.28955078125, 0.2470703125, -0.723388671875
363, 2484841813, -7.151968002319336, -3.6957738399505615, 12.777576446533203, 8.874117851257324, 373.9969177246094, 111.64974975585938, 0.3701171875, 0.2333984375, -0.684326171875
364, 2484858480, -9.154769897460938, -4.316864490509033, 13.41081714630127, -2.8090221881866455, 419.85540771484375, 151.53614807128906, 0.461669921875, 0.215576171875, -0.6298828125
365, 2484875147, -16.620826721191406, -5.6683173179626465, 15.443649291992188, -6.275049686431885, 409.6698913574219, 161.88079833984375, 0.544189453125, 0.18798828125, -0.56103515625
366, 2484891814, -21.05889320373535, -5.692007064819336, 18.53097915649414, -11.419689178466797, 354.4708251953125, 146.65431213378906, 0.611572265625, 0.15771484375, -0.49072265625
367, 2484908481, -11.838692665100098, -6.028133392333984, 16.736003875732422, -23.790184020996094, 274.04217529296875, 127.81198120117188, 0.6611328125, 0.13232421875, -0.430419921875
368, 2484925148, -0.7220418453216553, -12.432085037231445, 18.447582244873047, 9.046308517456055, 228.9027557373047, 108.4791488647461, 0.698486328125, 0.099853515625, -0.374755859375
369, 2484941815, -11.510119438171387, -17.18825340270996, 29.84148406982422, 10.138601303100586, 29.164785385131836, -1.274613618850708, 0.712646484375, 0.08837890625, -0.353271484375
370, 2484958482, 5.799118995666504, -11.712335586547852, 18.519207000732422, 60.47647476196289, -101.56657409667969, -53.26593017578125, 0.704833984375, 0.0859375, -0.364013671875
371, 2484975149, 8.261696815490723, -4.408977508544922, 14.378814697265625, 60.61839294433594, -118.78575897216797, -66.06920623779297, 0.6943359375, 0.084716796875, -0.38330078125
372, 2484991816, 4.611480712890625, -2.113779067993164, 13.811240196228027, 5.92767858505249, -134.1709747314453, -83.32042694091797, 0.682373046875, 0.08935546875, -0.403076171875
373, 2485008483, 1.169111967086792, -3.3028719425201416, 12.756197929382324, -32.45965576171875, -171.2667236328125, -97.40359497070312, 0.673583984375, 0.104736328125, -0.431884765625
374, 2485025150, -1.6376577615737915, -4.124279022216797, 11.389849662780762, -33.281612396240234, -211.69638061523438, -103.43050384521484, 0.658203125, 0.130859375, -0.47802734375
375, 2485041817, -4.669843673706055, -3.6183724403381348, 10.761478424072266, -22.262630462646484, -246.15130615234375, -107.90422821044922, 0.622802734375, 0.161865234375, -0.536376953125
376, 2485058484, -7.720376014709473, -2.937147617340088, 10.455876350402832, -20.65412712097168, -277.439208984375, -115.99443817138672, 0.55859375, 0.19580078125, -0.59912109375
377, 2485075151, -9.646190643310547, -2.7306530475616455, 10.058594703674316, -25.503538131713867, -302.48565673828125, -124.2209243774414, 0.4599609375, 0.2236328125, -0.641845703125
378, 2485091818, -10.540122985839844, -2.757753372192383, 9.640301704406738, -29.68840789794922, -316.29510498046875, -129.53309631347656, 0.354736328125, 0.231689453125, -0.654052734375
379, 2485108485, -11.305315971374512, -2.79050612449646, 10.22115707397461, -35.33373260498047, -318.0030822753906, -128.78033447265625, 0.271484375, 0.219970703125, -0.6435546875
380, 2485125152, -13.283101081848145, -2.013535737991333, 11.951360702514648, -55.544036865234375, -307.5302429199219, -129.4635467529297, 0.223388671875, 0.19482421875, -0.620849609375
381, 2485141819, -17.49032211303711, -1.2165603637695312, 12.99984073638916, -89.98567962646484, -296.3026428222656, -129.50161743164062, 0.23486328125, 0.17333984375, -0.598876953125
382, 2485158486, -23.561044692993164, -2.090019464492798, 12.304573059082031, -120.03820037841797, -297.78057861328125, -130.5255584716797, 0.296875, 0.1875, -0.62939453125
383, 2485175153, -28.59805679321289, -4.173954963684082, 8.30435848236084, -106.3795394897461, -311.7475280761719, -134.1818389892578, 0.32275390625, 0.260498046875, -0.7353515625
384, 2485191820, -30.373201370239258, -4.9720139503479, 1.5915873050689697, -39.52595520019531, -320.0682678222656, -115.36658477783203, 0.251708984375, 0.348388671875, -0.837646484375
385, 2485208487, -30.751941680908203, 2.0038840770721436, -4.560369491577148, -8.068965911865234, -293.9447326660156, -88.51234436035156, 0.129150390625, 0.40478515625, -0.88525390625
386, 2485225154, -29.192628860473633, 8.26414680480957, -13.24238395690918, -43.24784851074219, -214.58993530273438, -78.2640609741211, 0.02392578125, 0.44677734375, -0.892578125
387, 2485241821, -30.26300048828125, 9.920234680175781, -20.61273765563965, -43.5854606628418, -84.3133544921875, -59.29021072387695, -0.04248046875, 0.48193359375, -0.88427734375
388, 2485258488, -30.82863426208496, 12.99867057800293, -23.953693389892578, 38.21200180053711, 94.01166534423828, 22.791126251220703, -0.042236328125, 0.492431640625, -0.891357421875
389, 2485275155, -14.219468116760254, 1.5480347871780396, -0.3578202724456787, 46.8380126953125, 203.81724548339844, 91.88243865966797, 0.015625, 0.492919921875, -0.9072265625
390, 2485291822, -10.091180801391602, -17.875783920288086, 18.236610412597656, 106.84669494628906, 118.78157806396484, 91.89392852783203, 0.065673828125, 0.478271484375, -0.922119140625
391, 2485308489, -1.6029610633850098, -1.4802495241165161, 2.249526023864746, 93.1226577758789, 146.6540985107422, 61.8552131652832, 0.10205078125, 0.460693359375, -0.9375
392, 2485325156, -11.71922779083252, 1.5410141944885254, 14.430215835571289, 59.89759826660156, 195.285400390625, 17.113500595092773, 0.15380859375, 0.45703125, -0.9443359375
393, 2485341823, -11.50939655303955, 5.158621311187744, 14.186387062072754, 37.975345611572266, 140.8054962158203, 42.86969757080078, 0.198974609375, 0.450439453125, -0.94384765625
394, 2485358490, -9.41791820526123, -0.6028122305870056, 10.544407844543457, 13.58419418334961, 109.3705062866211, 57.09764099121094, 0.23779296875, 0.4462890625, -0.942626953125
395, 2485375157, -9.673075675964355, -8.921058654785156, 9.721877098083496, 27.26011085510254, 97.70779418945312, 40.93745803833008, 0.269287109375, 0.445068359375, -0.9384765625
396, 2485391824, -13.109305381774902, 0.29054033756256104, 9.645949363708496, 50.494903564453125, 35.92472457885742, 32.099971771240234, 0.291015625, 0.427490234375, -0.94287109375
397, 2485408491, -6.560685634613037, -3.5329439640045166, 8.929819107055664, 24.612089157104492, 13.334754943847656, 15.877425193786621, 0.294677734375, 0.41845703125, -0.94580078125
398, 2485425158, -6.149177551269531, -2.576810359954834, 8.154135704040527, 23.09847640991211, 9.35680103302002, 13.36288070678711, 0.2998046875, 0.4130859375, -0.947509765625
399, 2485441825, -5.746109485626221, -2.752580165863037, 7.947510242462158, 18.202503204345703, 4.468917369842529, 9.876495361328125, 0.302734375, 0.408203125, -0.950439453125
400, 2485458492, -5.419500827789307, -2.2999684810638428, 8.051321983337402, 15.850497245788574, 3.473092794418335, 8.776681900024414, 0.305908203125, 0.403564453125, -0.950927734375
401, 2485475159, -5.676284313201904, -1.8677668571472168, 8.305858612060547, 11.084881782531738, 3.099119186401367, 6.277515888214111, 0.308349609375, 0.3974609375, -0.954833984375
402, 2485491826, -5.325892925262451, -2.2045369148254395, 7.945603847503662, 6.008464813232422, 4.922550201416016, 3.500507354736328, 0.309814453125, 0.396484375, -0.952880859375
403, 2485508493, -5.378722190856934, -2.8158209323883057, 7.571333408355713, 4.89365816116333, 5.467826843261719, 2.9077348709106445, 0.31201171875, 0.39501953125, -0.954833984375
404, 2485525160, -5.349526405334473, -2.8024189472198486, 7.450572967529297, 6.501228332519531, 4.367471694946289, 4.114584445953369, 0.31396484375, 0.3935546875, -0.954345703125
405, 2485541827, -5.42765474319458, -2.4549009799957275, 7.642904281616211, 7.790700912475586, 2.6990225315093994, 5.267861366271973, 0.31494140625, 0.39208984375, -0.955078125
406, 2485558494, -5.354830265045166, -2.4069015979766846, 7.746193885803223, 6.995707988739014, 2.9395384788513184, 4.638800621032715, 0.3154296875, 0.38916015625, -0.957763671875
407, 2485575161, -5.481489181518555, -2.3630495071411133, 7.729595184326172, 6.101989269256592, 2.899646282196045, 3.850850820541382, 0.319091796875, 0.3876953125, -0.9580078125
408, 2485591828, -5.469691276550293, -2.4153199195861816, 7.747188568115234, 5.4782819747924805, 2.43796443939209, 3.4148201942443848, 0.318603515625, 0.385498046875, -0.95751953125
409, 2485608495, -5.442698955535889, -2.5240609645843506, 7.617774963378906, 5.946981430053711, 1.5780562162399292, 3.622244358062744, 0.321533203125, 0.384033203125, -0.95947265625
410, 2485625162, -5.431436061859131, -2.5214385986328125, 7.607107162475586, 7.75923490524292, 0.2499864250421524, 4.9791035652160645, 0.319580078125, 0.380615234375, -0.9599609375
411, 2485641829, -5.484494686126709, -2.363706111907959, 7.745447158813477, 8.569826126098633, -0.8261891603469849, 6.177318096160889, 0.320068359375, 0.378662109375, -0.96044921875
412, 2485658496, -5.427603244781494, -2.1414873600006104, 7.796184539794922, 6.56798791885376, -0.3502025306224823, 6.5803327560424805, 0.318603515625, 0.37646484375, -0.964111328125
413, 2485675163, -5.373276710510254, -2.1984708309173584, 7.852450370788574, 4.0364789962768555, 1.8762778043746948, 6.413350582122803, 0.3212890625, 0.3740234375, -0.9619140625
414, 2485691830, -5.156056880950928, -2.3038504123687744, 7.858070373535156, 1.6800719499588013, 5.674834251403809, 6.751593112945557, 0.32568359375, 0.37353515625, -0.96044921875
415, 2485708497, -4.957813262939453, -2.5829110145568848, 7.851622581481934, -0.5053389072418213, 12.447876930236816, 9.399182319641113, 0.327880859375, 0.37158203125, -0.959716796875
416, 2485725164, -4.968268871307373, -2.7076528072357178, 7.915689468383789, -3.075568199157715, 22.510042190551758, 14.961153984069824, 0.335205078125, 0.373291015625, -0.959228515625
417, 2485741831, -4.582944393157959, -2.699108839035034, 8.698122024536133, -10.3767728805542, 35.19150161743164, 23.03426170349121, 0.34521484375, 0.374267578125, -0.955078125
418, 2485758498, -4.917205810546875, -1.5051037073135376, 8.836969375610352, -6.06803035736084, 60.309593200683594, 20.130773544311523, 0.361083984375, 0.374267578125, -0.948486328125
419, 2485775165, -4.74756383895874, -1.6908835172653198, 9.131757736206055, -15.000629425048828, 91.02114868164062, 16.617307662963867, 0.383056640625, 0.376953125, -0.93603515625
420, 2485791832, -4.784080505371094, -1.855601191520691, 9.21269416809082, -25.327409744262695, 130.85845947265625, 15.995141983032227, 0.417236328125, 0.38134765625, -0.916015625
421, 2485808499, -4.516846179962158, -2.9575793743133545, 9.582029342651367, -37.085018157958984, 182.0164031982422, 28.259437561035156, 0.462646484375, 0.388671875, -0.886962890625
422, 2485825166, -3.734309673309326, -4.345589637756348, 10.786142349243164, -36.26249313354492, 251.2801513671875, 53.130558013916016, 0.525390625, 0.392822265625, -0.844970703125
423, 2485841833, -4.530776500701904, -5.958273410797119, 10.585491180419922, -31.375102996826172, 344.0370178222656, 95.59880065917969, 0.607666015625, 0.38818359375, -0.78662109375
424, 2485858500, -7.5627288818359375, -5.465620994567871, 12.718517303466797, -21.783458709716797, 415.49615478515625, 163.92417907714844, 0.70458984375, 0.367919921875, -0.69970703125
425, 2485875167, -12.322114944458008, -5.1733880043029785, 14.556775093078613, -28.97288703918457, 453.43939208984375, 198.32888793945312, 0.806396484375, 0.330322265625, -0.591552734375
426, 2485891834, -22.8485050201416, -8.753470420837402, 16.830202102661133, -41.353450775146484, 408.2029724121094, 183.2743682861328, 0.88427734375, 0.288330078125, -0.479736328125
427, 2485908501, -18.399839401245117, -7.750436782836914, 16.49868392944336, -41.86711883544922, 312.8392028808594, 176.52647399902344, 0.92919921875, 0.249267578125, -0.382080078125
428, 2485925168, -6.835179328918457, -16.722803115844727, 20.828113555908203, -6.4381232261657715, 251.03543090820312, 163.10354614257812, 0.953125, 0.20458984375, -0.30712890625
429, 2485941835, -6.996869087219238, -31.594776153564453, 22.972299575805664, 105.67127227783203, 112.41592407226562, -25.261545181274414, 0.955810546875, 0.196044921875, -0.27490234375
430, 2485958502, 4.623920917510986, -16.50066375732422, 21.02870750427246, 207.2315673828125, -30.50524139404297, -149.8765869140625, 0.931396484375, 0.22705078125, -0.295654296875
431, 2485975169, 8.374129295349121, -3.472482204437256, 17.088804244995117, 211.3494415283203, -63.12455368041992, -169.73805236816406, 0.896484375, 0.262939453125, -0.32666015625
432, 2485991836, 4.97739839553833, 2.1228203773498535, 17.410240173339844, 140.71847534179688, -105.41273498535156, -160.66690063476562, 0.864013671875, 0.296630859375, -0.372314453125
433, 2486008503, 1.6522555351257324, 3.278999090194702, 15.934183120727539, 71.05564880371094, -169.58819580078125, -125.2950668334961, 0.82470703125, 0.33203125, -0.424072265625
434, 2486025170, -1.4243583679199219, 3.2269983291625977, 13.692139625549316, 29.387022018432617, -233.22482299804688, -62.64405822753906, 0.7763671875, 0.35546875, -0.48583984375
435, 2486041837, -5.091408729553223, 2.534191608428955, 12.321552276611328, -5.935082912445068, -283.4801025390625, -8.095678329467773, 0.722900390625, 0.37158203125, -0.5625
436, 2486058504, -8.45672607421875, 1.0356794595718384, 10.729578971862793, -44.619468688964844, -324.0539855957031, 16.099706649780273, 0.6474609375, 0.3828125, -0.638671875
437, 2486075171, -9.57008171081543, -1.3309932947158813, 8.871015548706055, -71.4295425415039, -345.84564208984375, 17.098676681518555, 0.557861328125, 0.381103515625, -0.697265625
438, 2486091838, -10.031235694885254, -4.0532612800598145, 7.869368076324463, -75.49108123779297, -345.9012145996094, 5.414530277252197, 0.45751953125, 0.380859375, -0.741943359375
439, 2486108505, -10.7438383102417, -6.144942283630371, 8.303743362426758, -59.375640869140625, -331.0941467285156, -16.979904174804688, 0.360595703125, 0.3720703125, -0.76904296875
440, 2486125172, -12.286559104919434, -5.98386287689209, 10.164510726928711, -53.81515884399414, -309.65350341796875, -49.793006896972656, 0.261474609375, 0.365966796875, -0.77197265625
441, 2486141839, -16.26814842224121, -6.411152362823486, 12.22211742401123, -72.94725036621094, -295.3262634277344, -87.55621337890625, 0.17822265625, 0.357177734375, -0.757080078125
442, 2486158506, -20.800416946411133, -5.72641134262085, 12.974366188049316, -95.23253631591797, -292.6947021484375, -134.1287078857422, 0.114501953125, 0.3515625, -0.7392578125
443, 2486175173, -26.67055320739746, -3.4070870876312256, 10.076715469360352, -113.26811981201172, -292.5950927734375, -184.53526306152344, 0.057373046875, 0.359130859375, -0.72216796875
444, 2486191840, -29.58086395263672, -2.908350706100464, 3.968698740005493, -93.0881576538086, -286.3200378417969, -202.02149963378906, -0.001953125, 0.373779296875, -0.713623046875
445, 2486208507, -29.49972152709961, -1.3657459020614624, -2.004678249359131, -26.129459381103516, -256.3994445800781, -180.4764404296875, -0.059326171875, 0.37158203125, -0.714599609375
446, 2486225174, -31.352691650390625, 4.273303985595703, -8.936747550964355, 23.758241653442383, -216.98287963867188, -134.55474853515625, -0.107177734375, 0.365234375, -0.72021484375
447, 2486241841, -33.94221115112305, 14.623467445373535, -16.528072357177734, 0.011674200184643269, -155.18283081054688, -73.46875, -0.14697265625, 0.35888671875, -0.72900390625
448, 2486258508, -29.628305435180664, 16.11309051513672, -21.45945930480957, -81.99887084960938, -46.72296142578125, -1.4011739492416382, -0.166015625, 0.373779296875, -0.722900390625
449, 2486275175, -25.063499450683594, 5.680480003356934, -15.570942878723145, -51.66001892089844, 77.31153106689453, 86.86331176757812, -0.143310546875, 0.386962890625, -0.720947265625
450, 2486291842, -6.943655967712402, -15.00034236907959, 12.216437339782715, 81.64421081542969, 154.89453125, 109.14181518554688, -0.096923828125, 0.37744140625, -0.7314453125
451, 2486308509, 0.985805869102478, -12.865766525268555, 8.729094505310059, 66.06560516357422, 118.60014343261719, 42.15840148925781, -0.062255859375, 0.359619140625, -0.7412109375
452, 2486325176, 2.2320804595947266, 0.6808999180793762, 1.7789709568023682, 68.5313491821289, 202.10569763183594, 48.88515090942383, -0.014404296875, 0.3408203125, -0.750732421875
453, 2486341843, -17.475648880004883, 3.073185682296753, 17.147855758666992, 31.717899322509766, 213.95484924316406, 23.161375045776367, 0.04345703125, 0.332275390625, -0.75390625
454, 2486358510, -15.85777473449707, 4.272298812866211, 15.319574356079102, 32.73918533325195, 134.11900329589844, 66.52115631103516, 0.08544921875, 0.32373046875, -0.757080078125
455, 2486375177, -11.252002716064453, -5.775631904602051, 11.221652030944824, 13.408493041992188, 100.95149230957031, 62.578678131103516, 0.1181640625, 0.31298828125, -0.75390625
456, 2486391844, -9.188326835632324, -4.368437767028809, 9.19897174835205, 9.353818893432617, 90.07820892333984, 22.2808780670166, 0.14453125, 0.3095703125, -0.7548828125
457, 2486408511, -11.919693946838379, -3.514247417449951, 11.564345359802246, 28.776639938354492, 56.011783599853516, 33.0549201965332, 0.16357421875, 0.302734375, -0.75244140625
458, 2486425178, -4.905766010284424, -5.307548999786377, 5.280129909515381, 34.8996467590332, 24.506820678710938, 25.30608558654785, 0.171630859375, 0.2958984375, -0.754638671875
459, 2486441845, -6.88909387588501, -3.1119437217712402, 8.295817375183105, 45.910064697265625, 19.424455642700195, 28.467456817626953, 0.180419921875, 0.28271484375, -0.7568359375
460, 2486458512, -6.12230920791626, -2.754977226257324, 8.064000129699707, 40.563785552978516, 3.997681140899658, 23.924570083618164, 0.18603515625, 0.271240234375, -0.759765625
461, 2486475179, -5.408855438232422, -2.019848346710205, 8.274260520935059, 42.69329071044922, -6.3197197914123535, 25.135452270507812, 0.186279296875, 0.26123046875, -0.76611328125
462, 2486491846, -5.896466255187988, -1.6729464530944824, 8.668085098266602, 32.01759719848633, -2.746616840362549, 18.400348663330078, 0.18896484375, 0.250732421875, -0.765380859375
463, 2486508513, -5.455825328826904, -1.8374844789505005, 8.40816593170166, 20.555734634399414, 0.3509138524532318, 11.893811225891113, 0.1904296875, 0.2431640625, -0.768310546875
464, 2486525180, -5.4827141761779785, -2.5150575637817383, 7.783795356750488, 17.882308959960938, 1.0212246179580688, 9.890748023986816, 0.1923828125, 0.240234375, -0.767822265625
465, 2486541847, -5.352295398712158, -3.0533344745635986, 7.448827266693115, 19.527137756347656, -1.4326872825622559, 11.287338256835938, 0.192626953125, 0.234130859375, -0.77294921875
466, 2486558514, -5.447918891906738, -2.2757558822631836, 7.873313903808594, 17.005643844604492, -1.2992316484451294, 10.965612411499023, 0.196044921875, 0.228759765625, -0.773193359375
467, 2486575181, -5.677891254425049, -1.5451730489730835, 8.173912048339844, 11.538280487060547, -0.8669905662536621, 7.992980480194092, 0.1943359375, 0.2255859375, -0.774169921875
468, 2486591848, -5.426054954528809, -1.8462773561477661, 8.107823371887207, 5.2757368087768555, 2.26155686378479, 4.015169620513916, 0.1962890625, 0.2216796875, -0.774658203125
469, 2486608515, -5.2365312576293945, -2.4591267108917236, 7.789069175720215, 2.8280842304229736, 3.1386382579803467, 3.07719349861145, 0.19677734375, 0.22412109375, -0.776611328125
470, 2486625182, -5.430289268493652, -2.3134233951568604, 7.725185871124268, 1.6495922803878784, 2.5400047302246094, 2.7367360591888428, 0.1962890625, 0.2216796875, -0.775146484375
471, 2486641849, -5.458806037902832, -2.2660162448883057, 7.747364521026611, 0.9877041578292847, 1.944395899772644, 1.9277594089508057, 0.201171875, 0.22265625, -0.776123046875
472, 2486658516, -5.280092716217041, -2.358041524887085, 7.699881553649902, 2.660602569580078, 1.566901683807373, 2.679056406021118, 0.2001953125, 0.2197265625, -0.776123046875
473, 2486675183, -5.159795761108398, -2.4157211780548096, 7.860562324523926, 3.356102705001831, 3.4184184074401855, 4.716739177703857, 0.201416015625, 0.21923828125, -0.775634765625
474, 2486691850, -5.1633620262146, -2.5467140674591064, 7.834225654602051, 2.735354423522949, 7.024868488311768, 7.958400726318359, 0.203369140625, 0.216064453125, -0.7744140625
475, 2486708517, -5.218147277832031, -2.3664886951446533, 7.960242748260498, 0.3159777522087097, 11.363924026489258, 11.634163856506348, 0.203369140625, 0.216064453125, -0.77197265625
476, 2486725184, -5.024452209472656, -2.209172487258911, 8.129892349243164, -5.012082576751709, 19.486982345581055, 14.800169944763184, 0.2109375, 0.21630859375, -0.770751953125
477, 2486741851, -4.833069324493408, -2.3390297889709473, 8.312339782714844, -8.782873153686523, 34.12313461303711, 16.747817993164062, 0.2197265625, 0.21728515625, -0.76806640625
478, 2486758518, -4.295411586761475, -1.8558311462402344, 9.181340217590332, -10.527438163757324, 56.33510971069336, 17.067026138305664, 0.231201171875, 0.2177734375, -0.764892578125
479, 2486775185, -4.344101428985596, -1.8063132762908936, 9.345179557800293, -14.608990669250488, 92.0149917602539, 13.038084030151367, 0.251708984375, 0.219482421875, -0.760498046875
480, 2486791852, -4.473814487457275, -2.396256685256958, 9.60275650024414, -23.453359603881836, 138.1876983642578, 16.37924575805664, 0.277099609375, 0.223876953125, -0.748046875
481, 2486808519, -4.332083225250244, -2.9128494262695312, 10.353890419006348, -27.440616607666016, 193.2968292236328, 31.165090560913086, 0.3193359375, 0.22509765625, -0.72998046875
482, 2486825186, -3.5889534950256348, -4.084404945373535, 10.569727897644043, -25.9617862701416, 273.6914367675781, 55.38247299194336, 0.373779296875, 0.228515625, -0.705322265625
483, 2486841853, -4.308797836303711, -5.207229137420654, 10.739234924316406, -12.457880020141602, 365.1308898925781, 102.091796875, 0.447021484375, 0.220458984375, -0.663330078125
484, 2486858520, -7.386781692504883, -5.415116310119629, 12.830253601074219, -3.6275928020477295, 427.0732421875, 161.48284912109375, 0.5322265625, 0.198974609375, -0.60400390625
485, 2486875187, -15.534010887145996, -4.8765869140625, 16.082115173339844, -15.15124797821045, 444.70184326171875, 184.3703155517578, 0.6162109375, 0.16943359375, -0.528564453125
486, 2486891854, -23.37183380126953, -9.283915519714355, 18.931753158569336, -41.09553909301758, 381.6563720703125, 159.4564208984375, 0.680908203125, 0.143798828125, -0.456787109375
487, 2486908521, -15.836774826049805, -8.971414566040039, 18.549400329589844, -27.74507713317871, 288.28924560546875, 157.68785095214844, 0.724853515625, 0.1162109375, -0.3984375
488, 2486925188, -3.850615978240967, -21.023197174072266, 25.3994140625, 19.602184295654297, 177.5142822265625, 109.42188262939453, 0.74755859375, 0.09033203125, -0.359619140625
489, 2486941855, -3.550828456878662, -22.269893646240234, 28.160968780517578, 89.07154846191406, 7.403356552124023, -42.80926513671875, 0.74853515625, 0.087646484375, -0.357666015625
490, 2486958522, 10.991679191589355, -10.317556381225586, 18.347192764282227, 148.15367126464844, -70.01942443847656, -84.1909408569336, 0.72802734375, 0.090087890625, -0.380126953125
491, 2486975189, 9.347100257873535, -2.23518705368042, 17.833723068237305, 107.18595886230469, -98.73233032226562, -93.11101531982422, 0.70263671875, 0.08935546875, -0.403076171875
492, 2486991856, 6.204197883605957, -1.307297945022583, 16.005136489868164, 30.211292266845703, -146.326904296875, -96.80412292480469, 0.670166015625, 0.09521484375, -0.419921875
493, 2487008523, 3.844529151916504, -1.8553727865219116, 13.103731155395508, -2.595721960067749, -185.82139587402344, -79.88855743408203, 0.63720703125, 0.103515625, -0.438232421875
494, 2487025190, -0.5079646110534668, -0.9834246635437012, 12.314981460571289, -15.553783416748047, -214.8866729736328, -63.04983139038086, 0.610107421875, 0.105712890625, -0.452880859375
495, 2487041857, -4.162303924560547, -1.1465651988983154, 11.576481819152832, -33.40157699584961, -243.3717498779297, -60.354496002197266, 0.59423828125, 0.109375, -0.47119140625
496, 2487058524, -7.1848320960998535, -2.0102131366729736, 11.252622604370117, -47.54258728027344, -267.34808349609375, -63.90730667114258, 0.592529296875, 0.125, -0.506103515625
497, 2487075191, -10.174690246582031, -2.9268200397491455, 11.643773078918457, -57.867828369140625, -289.44354248046875, -72.05789184570312, 0.592529296875, 0.1591796875, -0.58154296875
498, 2487091858, -12.281131744384766, -4.040371894836426, 11.837446212768555, -63.543148040771484, -310.693359375, -82.93641662597656, 0.55078125, 0.216552734375, -0.687255859375
499, 2487108525, -13.371672630310059, -4.450558662414551, 11.648674964904785, -65.38402557373047, -324.6946105957031, -94.22145080566406, 0.42919921875, 0.278076171875, -0.766845703125
500, 2487125192, -14.531228065490723, -4.3919572830200195, 12.294694900512695, -72.4842758178711, -319.9169921875, -102.0222396850586, 0.28515625, 0.308349609375, -0.778076171875
501, 2487141859, -18.76518440246582, -4.315517902374268, 14.206456184387207, -96.60238647460938, -305.8908996582031, -109.80874633789062, 0.191162109375, 0.322021484375, -0.742431640625
502, 2487158526, -25.2130184173584, -2.8027420043945312, 13.754067420959473, -136.5108184814453, -307.6559753417969, -137.33831787109375, 0.14501953125, 0.337158203125, -0.724365234375
503, 2487175193, -28.457351684570312, -3.7695558071136475, 7.5199360847473145, -142.06423950195312, -317.420654296875, -156.10494995117188, 0.09619140625, 0.3681640625, -0.735595703125
504, 2487191860, -28.62307357788086, -1.8364516496658325, 1.269789218902588, -87.71399688720703, -303.7826843261719, -132.67916870117188, 0.030517578125, 0.39013671875, -0.756591796875
505, 2487208527, -29.53801727294922, 3.939537286758423, -3.921900749206543, -58.45724868774414, -261.3399658203125, -101.54740905761719, -0.040771484375, 0.403564453125, -0.77587890625
506, 2487225194, -32.27126693725586, 9.793206214904785, -12.199847221374512, -62.3521614074707, -196.17942810058594, -67.23200988769531, -0.101806640625, 0.414306640625, -0.781005859375
507, 2487241861, -35.20685577392578, 13.113016128540039, -21.021413803100586, -65.26444244384766, -104.46785736083984, -27.591508865356445, -0.14306640625, 0.432861328125, -0.777099609375
508, 2487258528, -26.705219268798828, 9.940715789794922, -18.72907257080078, -28.36281394958496, 29.159303665161133, 41.256710052490234, -0.149169921875, 0.4423828125, -0.77978515625
509, 2487275195, -27.910982131958008, 3.4715452194213867, -7.874587535858154, -3.186513662338257, 117.80155944824219, 81.15612030029297, -0.11474609375, 0.4482421875, -0.78759765625
510, 2487291862, -7.889430522918701, -21.51111602783203, 14.870287895202637, 113.12149047851562, 143.6727752685547, 53.259212493896484, -0.07177734375, 0.4345703125, -0.8017578125
511, 2487308529, 5.305730819702148, -12.93094539642334, 9.030750274658203, 133.97496032714844, 95.93186950683594, -6.805651664733887, -0.043212890625, 0.397705078125, -0.821533203125
512, 2487325196, 5.048553943634033, 6.522451877593994, 2.433173656463623, 129.40505981445312, 172.23782348632812, 36.29665756225586, -0.00390625, 0.364990234375, -0.841064453125
513, 2487341863, -14.464302062988281, 6.629244804382324, 17.92281150817871, 60.163204193115234, 198.3705596923828, 20.555240631103516, 0.0537109375, 0.348876953125, -0.851806640625
514, 2487358530, -15.876173973083496, 7.063240051269531, 17.03799819946289, 33.9559211730957, 138.52035522460938, 49.08109664916992, 0.095947265625, 0.336669921875, -0.8564453125
515, 2487375197, -9.512344360351562, -0.31077852845191956, 13.225912094116211, -3.476963758468628, 106.41978454589844, 48.571895599365234, 0.134765625, 0.33349609375, -0.8544921875
516, 2487391864, -8.007074356079102, -2.4010438919067383, 10.371543884277344, -28.752784729003906, 97.55742645263672, 27.076274871826172, 0.16064453125, 0.3408203125, -0.85009765625
517, 2487408531, -9.637770652770996, -7.006718158721924, 10.00188159942627, -19.097187042236328, 79.62522888183594, 33.054996490478516, 0.185546875, 0.347900390625, -0.843994140625
518, 2487425198, -7.8435378074646, -9.922574996948242, 2.9285988807678223, 28.110992431640625, 45.13595962524414, 19.504119873046875, 0.199951171875, 0.340087890625, -0.84423828125
519, 2487441865, -5.071380615234375, -4.773261547088623, 6.958845138549805, 45.93821716308594, 35.6506233215332, 34.18292999267578, 0.214599609375, 0.32861328125, -0.848876953125
520, 2487458532, -5.5479044914245605, -4.918027400970459, 6.594210624694824, 63.12217712402344, 32.61363983154297, 43.76213455200195, 0.228759765625, 0.31103515625, -0.850341796875
521, 2487475199, -7.280428886413574, -0.6810886263847351, 9.383240699768066, 55.22574234008789, 16.73397445678711, 37.72359085083008, 0.237060546875, 0.294677734375, -0.854736328125
522, 2487491866, -6.333627700805664, -1.258974313735962, 9.147294998168945, 42.9109992980957, 10.459102630615234, 27.248031616210938, 0.242431640625, 0.279541015625, -0.860595703125
523, 2487508533, -6.133859157562256, -1.3102140426635742, 8.763091087341309, 29.910009384155273, 6.137374401092529, 18.361845016479492, 0.24658203125, 0.26953125, -0.86279296875
524, 2487525200, -5.850378513336182, -2.502183675765991, 7.813904762268066, 20.6651668548584, 1.710297703742981, 12.098777770996094, 0.25, 0.261962890625, -0.865234375
525, 2487541867, -5.328088283538818, -3.716581106185913, 6.922046661376953, 24.107389450073242, -5.066744327545166, 15.342211723327637, 0.251220703125, 0.2548828125, -0.86669921875
526, 2487558534, -5.334963798522949, -4.04703950881958, 6.7927117347717285, 37.365760803222656, -16.117528915405273, 22.70217514038086, 0.248779296875, 0.247314453125, -0.869140625
527, 2487575201, -5.388839244842529, -3.29166316986084, 7.485532760620117, 51.08539581298828, -26.143693923950195, 28.223722457885742, 0.24365234375, 0.232421875, -0.875244140625
528, 2487591868, -5.733452320098877, -1.4437048435211182, 8.45290470123291, 45.34564971923828, -28.379663467407227, 24.722938537597656, 0.24072265625, 0.2177734375, -0.881103515625
529, 2487608535, -5.708102703094482, -0.37358543276786804, 8.910710334777832, 19.009857177734375, -13.188097953796387, 10.930622100830078, 0.23681640625, 0.210693359375, -0.8837890625
530, 2487625202, -5.097501277923584, -1.7512974739074707, 8.252184867858887, 7.011778831481934, -1.2120188474655151, 3.9932830333709717, 0.237060546875, 0.205078125, -0.883544921875
531, 2487641869, -5.040595531463623, -2.4717392921447754, 7.888394355773926, 3.1578733921051025, 1.4910885095596313, 3.111476182937622, 0.233642578125, 0.20458984375, -0.8828125
532, 2487658536, -5.2683210372924805, -2.2637948989868164, 7.923952102661133, -0.15020570158958435, 4.246580123901367, 3.314610481262207, 0.237060546875, 0.205078125, -0.883056640625
533, 2487675203, -5.439853668212891, -2.0451645851135254, 7.856571197509766, -2.93392276763916, 8.405072212219238, 3.007911443710327, 0.240478515625, 0.205078125, -0.884521484375
534, 2487691870, -5.050854682922363, -2.282010316848755, 8.080531120300293, -5.403951644897461, 15.052515983581543, 5.332281589508057, 0.24462890625, 0.203125, -0.882568359375
535, 2487708537, -5.002424716949463, -2.161959409713745, 8.217400550842285, -12.127714157104492, 25.153942108154297, 8.10195541381836, 0.25, 0.209228515625, -0.88232421875
536, 2487725204, -4.810256004333496, -2.3703153133392334, 8.288344383239746, -17.222116470336914, 41.06920623779297, 9.656167030334473, 0.26025390625, 0.210205078125, -0.874755859375
537, 2487741871, -4.187068939208984, -2.2756924629211426, 9.267912864685059, -21.122705459594727, 66.47166442871094, 12.988948822021484, 0.276123046875, 0.214599609375, -0.870849609375
538, 2487758538, -4.088198184967041, -2.2234294414520264, 9.631396293640137, -23.18506622314453, 105.66545104980469, 12.67636775970459, 0.298095703125, 0.21923828125, -0.864990234375
539, 2487775205, -3.8046460151672363, -3.0108911991119385, 10.425883293151855, -32.93497085571289, 158.38314819335938, 23.368135452270508, 0.3359375, 0.22412109375, -0.8486328125
540, 2487791872, -3.0507891178131104, -3.0499496459960938, 11.476740837097168, -39.621315002441406, 230.44732666015625, 48.77519989013672, 0.38427734375, 0.22900390625, -0.8251953125
541, 2487808539, -4.048127174377441, -4.315123081207275, 11.839792251586914, -40.11962127685547, 327.604736328125, 79.65824890136719, 0.4560546875, 0.23095703125, -0.782958984375
542, 2487825206, -7.389964580535889, -6.073137283325195, 13.677793502807617, -17.551942825317383, 397.18585205078125, 127.22918701171875, 0.54443359375, 0.217529296875, -0.73046875
543, 2487841873, -13.380073547363281, -6.3619585037231445, 17.401365280151367, -25.55254554748535, 421.3775939941406, 160.9667510986328, 0.634033203125, 0.196533203125, -0.658203125
544, 2487858540, -18.758007049560547, -7.749034881591797, 18.100467681884766, -49.055389404296875, 375.500732421875, 154.80885314941406, 0.70849609375, 0.1708984375, -0.581787109375
545, 2487875207, -14.07888126373291, -5.686498641967773, 17.956085205078125, -60.56800842285156, 293.6703186035156, 147.5384063720703, 0.7578125, 0.151123046875, -0.515380859375
546, 2487891874, -4.074020862579346, -18.20966148376465, 25.790454864501953, -57.63446807861328, 184.51390075683594, 105.48117065429688, 0.785400390625, 0.131591796875, -0.47265625
547, 2487908541, -2.9159152507781982, -22.114471435546875, 24.534841537475586, 30.081382751464844, 24.559829711914062, 15.069034576416016, 0.781005859375, 0.12744140625, -0.465087890625
548, 2487925208, 8.087262153625488, -10.394232749938965, 16.254667282104492, 117.77049255371094, -41.370914459228516, -22.775911331176758, 0.76123046875, 0.119384765625, -0.486572265625
549, 2487941875, 4.678694725036621, -3.636514902114868, 15.434103012084961, 75.04597473144531, -76.6493911743164, -54.488033294677734, 0.729736328125, 0.1201171875, -0.51123046875
550, 2487958542, 4.24967622756958, -4.628034591674805, 11.737945556640625, 23.749164581298828, -127.8843002319336, -73.6522445678711, 0.695068359375, 0.1318359375, -0.5380859375
551, 2487975209, 4.405529499053955, -4.235930442810059, 8.16353702545166, 22.51966094970703, -152.6138916015625, -70.8404312133789, 0.649658203125, 0.14306640625, -0.567626953125
552, 2487991876, 1.3355246782302856, -2.2914154529571533, 8.415669441223145, 14.206310272216797, -162.16238403320312, -74.62301635742188, 0.603759765625, 0.14990234375, -0.59033203125
553, 2488008543, -1.1036746501922607, -2.5364363193511963, 8.652961730957031, -1.1785541772842407, -180.71739196777344, -84.02789306640625, 0.552734375, 0.16162109375, -0.6064453125
554, 2488025210, -3.399315595626831, -2.7155160903930664, 8.868743896484375, -3.0059523582458496, -202.93582153320312, -88.8713607788086, 0.502197265625, 0.1650390625, -0.6181640625
555, 2488041877, -5.762215614318848, -2.484203815460205, 9.405556678771973, -5.948611736297607, -224.56822204589844, -93.23821258544922, 0.46337890625, 0.166259765625, -0.623779296875
556, 2488058544, -8.125314712524414, -2.3499977588653564, 10.101546287536621, -18.851804733276367, -244.97340393066406, -99.61011505126953, 0.44091796875, 0.167724609375, -0.640380859375
557, 2488075211, -9.925324440002441, -2.438535451889038, 9.990285873413086, -34.591739654541016, -262.1911315917969, -104.21917724609375, 0.42431640625, 0.18310546875, -0.681884765625
558, 2488091878, -10.664351463317871, -2.6046054363250732, 9.644755363464355, -43.980613708496094, -266.7498779296875, -99.16899871826172, 0.39306640625, 0.2041015625, -0.737060546875
559, 2488108545, -12.076397895812988, -2.9392669200897217, 11.148462295532227, -58.70296859741211, -258.85272216796875, -88.8382568359375, 0.337890625, 0.2294921875, -0.79150390625
560, 2488125212, -16.793787002563477, -4.6603827476501465, 13.508910179138184, -88.48661041259766, -254.84315490722656, -89.37556457519531, 0.26806640625, 0.2626953125, -0.831787109375
561, 2488141879, -21.6741943359375, -7.7985758781433105, 12.07284164428711, -97.46446990966797, -270.3483581542969, -102.79325866699219, 0.18798828125, 0.3046875, -0.861328125
562, 2488158546, -25.78509521484375, -6.6907639503479, 10.318135261535645, -79.51383972167969, -292.6363830566406, -123.19757080078125, 0.08935546875, 0.3447265625, -0.873046875
563, 2488175213, -24.85309600830078, -4.7355732917785645, 4.024697303771973, -54.05663299560547, -305.9310607910156, -139.37393188476562, -0.020263671875, 0.368408203125, -0.86279296875
564, 2488191880, -24.054363250732422, -0.9637738466262817, -0.4369480013847351, -17.06005096435547, -269.8035888671875, -125.90457916259766, -0.111328125, 0.3759765625, -0.84619140625
565, 2488208547, -26.50098991394043, 3.7952752113342285, -5.007306098937988, -22.50935173034668, -214.62789916992188, -110.51744842529297, -0.18115234375, 0.373779296875, -0.820556640625
566, 2488225214, -29.673322677612305, 7.988523483276367, -13.20506477355957, -37.53020477294922, -145.79913330078125, -83.23058319091797, -0.228515625, 0.3779296875, -0.800537109375
567, 2488241881, -28.535696029663086, 10.8020601272583, -17.40369415283203, -24.650070190429688, -38.755306243896484, -29.20242691040039, -0.2529296875, 0.38427734375, -0.788330078125
568, 2488258548, -25.14781951904297, 7.454476356506348, -11.372385025024414, -2.4483940601348877, 70.62906646728516, 28.942066192626953, -0.238037109375, 0.389404296875, -0.7880859375
569, 2488275215, -8.505069732666016, -8.645079612731934, 7.41562032699585, 66.7021484375, 158.4520263671875, 69.99481201171875, -0.1982421875, 0.383056640625, -0.79736328125
570, 2488291882, 0.46418988704681396, -12.988996505737305, 8.688708305358887, 96.35131072998047, 118.69684600830078, 60.04463577270508, -0.1640625, 0.365478515625, -0.8056640625
571, 2488308549, 2.2669386863708496, 1.2435553073883057, 4.377696990966797, 89.83575439453125, 182.66632080078125, 65.64144134521484, -0.119873046875, 0.3447265625, -0.817138671875
572, 2488325216, -12.492754936218262, 3.9209885597229004, 14.817641258239746, 26.339902877807617, 211.1676025390625, 22.950820922851562, -0.0654296875, 0.339111328125, -0.81689453125
573, 2488341883, -14.97757625579834, 4.473989963531494, 17.03467559814453, 5.658227443695068, 151.35052490234375, 57.25863265991211, -0.018310546875, 0.338623046875, -0.81640625
574, 2488358550, -12.861268043518066, -4.369858741760254, 12.476945877075195, -19.151283264160156, 101.4267578125, 49.73534393310547, 0.013427734375, 0.34521484375, -0.809814453125
575, 2488375217, -7.236693859100342, -5.6276326179504395, 8.815664291381836, -22.261892318725586, 97.11404418945312, 18.186614990234375, 0.037841796875, 0.34912109375, -0.805908203125
576, 2488391884, -6.819581508636475, -2.3448243141174316, 9.311973571777344, -26.122726440429688, 82.1810531616211, 19.358606338500977, 0.0615234375, 0.354736328125, -0.800048828125
577, 2488408551, -11.510993957519531, -12.613753318786621, 5.792496681213379, 30.147830963134766, 41.52891159057617, 31.161067962646484, 0.076171875, 0.350830078125, -0.799560546875
578, 2488425218, -4.105947017669678, -3.014209747314453, 7.795652866363525, 39.96968078613281, 38.937599182128906, 24.258928298950195, 0.0888671875, 0.34033203125, -0.8017578125
579, 2488441885, -5.695436477661133, -4.52829122543335, 6.802671432495117, 38.16975402832031, 29.659072875976562, 29.88702964782715, 0.098388671875, 0.33251953125, -0.803955078125
580, 2488458552, -5.212939262390137, -2.1378743648529053, 8.406805038452148, 38.80409240722656, 30.59762191772461, 30.20096206665039, 0.10693359375, 0.322998046875, -0.806396484375
581, 2488475219, -7.338962554931641, -1.7102060317993164, 9.37233829498291, 28.065393447875977, 24.758153915405273, 22.683639526367188, 0.115478515625, 0.314453125, -0.8056640625
582, 2488491886, -6.3394775390625, -2.132937431335449, 8.577138900756836, 10.903218269348145, 11.999929428100586, 10.416986465454102, 0.12158203125, 0.3095703125, -0.807373046875
583, 2488508553, -5.792355537414551, -2.7414872646331787, 8.091069221496582, 2.8304927349090576, 9.299726486206055, 4.473420143127441, 0.123046875, 0.30810546875, -0.805908203125
584, 2488525220, -4.973486423492432, -3.2576239109039307, 7.373409271240234, -0.520706295967102, 8.875590324401855, 2.4589285850524902, 0.126220703125, 0.30859375, -0.804443359375
585, 2488541887, -5.063819408416748, -3.444516897201538, 7.278501033782959, 2.1144254207611084, 10.72849178314209, 5.497032165527344, 0.128662109375, 0.30859375, -0.80419921875
586, 2488558554, -5.601701259613037, -3.209307909011841, 7.345841884613037, 2.642136812210083, 7.951165199279785, 6.529403209686279, 0.133544921875, 0.3076171875, -0.80224609375
587, 2488575221, -5.337159633636475, -2.9520468711853027, 7.433051109313965, 4.835699081420898, 5.957253456115723, 8.430262565612793, 0.134033203125, 0.306640625, -0.80224609375
588, 2488591888, -5.23592472076416, -3.235966205596924, 7.057363986968994, 7.553874492645264, 7.279651641845703, 8.98427963256836, 0.138671875, 0.30322265625, -0.800048828125
589, 2488608555, -5.210927486419678, -3.3811590671539307, 7.086883068084717, 12.77188491821289, 8.80699634552002, 11.419045448303223, 0.141845703125, 0.30029296875, -0.801025390625
590, 2488625222, -5.122119903564453, -3.38870906829834, 7.073340892791748, 18.11485481262207, 7.468609809875488, 15.146480560302734, 0.142333984375, 0.297607421875, -0.801513671875
591, 2488641889, -5.453437328338623, -3.2660114765167236, 7.149532794952393, 24.53813362121582, 6.557021617889404, 19.25311279296875, 0.144287109375, 0.291748046875, -0.807861328125
592, 2488658556, -5.763143062591553, -2.7115721702575684, 7.659409046173096, 24.030826568603516, 4.384479522705078, 18.00877571105957, 0.14892578125, 0.2841796875, -0.809326171875
593, 2488675223, -5.514754772186279, -2.7834386825561523, 7.691417217254639, 20.675443649291992, 5.314884662628174, 15.305280685424805, 0.153076171875, 0.277099609375, -0.80859375
594, 2488691890, -5.273091793060303, -2.927140951156616, 7.627785682678223, 17.176898956298828, 7.861941337585449, 13.96091365814209, 0.153564453125, 0.27099609375, -0.81201171875
595, 2488708557, -5.430927753448486, -2.595585346221924, 7.765642166137695, 14.123309135437012, 13.14737606048584, 12.672964096069336, 0.1591796875, 0.26806640625, -0.810302734375
596, 2488725224, -5.436427116394043, -2.4879443645477295, 7.832729816436768, 7.464806079864502, 20.893239974975586, 10.506537437438965, 0.164306640625, 0.2646484375, -0.806640625
597, 2488741891, -5.423539638519287, -2.135956287384033, 8.11446762084961, -7.366550445556641, 32.846229553222656, 9.442962646484375, 0.171142578125, 0.26416015625, -0.8046875
598, 2488758558, -4.971982479095459, -2.416929006576538, 8.514338493347168, -24.678316116333008, 45.88285446166992, 13.48210334777832, 0.18115234375, 0.270263671875, -0.800537109375
599, 2488775225, -4.73863410949707, -2.9535882472991943, 8.697449684143066, -20.47403907775879, 69.65494537353516, 16.715961456298828, 0.197998046875, 0.27392578125, -0.794677734375
600, 2488791892, -4.805546760559082, -2.6245460510253906, 8.803813934326172, -25.42349624633789, 103.30823516845703, 18.56608772277832, 0.220947265625, 0.277587890625, -0.78369140625
601, 2488808559, -5.014484405517578, -2.0269086360931396, 9.272941589355469, -37.54145050048828, 146.10324096679688, 23.271068572998047, 0.253662109375, 0.279541015625, -0.76953125
602, 2488825226, -4.844917297363281, -1.9855599403381348, 9.413613319396973, -53.2720832824707, 207.69015502929688, 22.197265625, 0.2978515625, 0.289306640625, -0.74658203125
603, 2488841893, -4.230478763580322, -3.512355327606201, 9.905465126037598, -71.73635864257812, 289.2589111328125, 29.700305938720703, 0.359619140625, 0.302001953125, -0.713623046875
604, 2488858560, -3.700850248336792, -5.717480659484863, 10.85385799407959, -66.65740203857422, 376.3348083496094, 62.615760803222656, 0.437255859375, 0.30859375, -0.6611328125
605, 2488875227, -7.373536586761475, -5.864321708679199, 10.464730262756348, -49.52884292602539, 463.6081237792969, 114.61604309082031, 0.526611328125, 0.301025390625, -0.5859375
606, 2488891894, -15.756857872009277, -6.664549827575684, 12.978757858276367, -21.61836051940918, 483.46112060546875, 158.96376037597656, 0.619140625, 0.278564453125, -0.492919921875
607, 2488908561, -28.205474853515625, -10.654501914978027, 14.938796043395996, -12.614277839660645, 417.0516052246094, 154.86614990234375, 0.700439453125, 0.245361328125, -0.4013671875
608, 2488925228, -20.98331069946289, -8.306289672851562, 15.62160873413086, -2.9127371311187744, 293.3424072265625, 156.90565490722656, 0.751708984375, 0.204345703125, -0.3271484375
609, 2488941895, -3.9793524742126465, -16.534168243408203, 17.742408752441406, 9.580421447753906, 211.67721557617188, 134.0947265625, 0.78955078125, 0.169921875, -0.27197265625
610, 2488958562, -8.562238693237305, -21.02834701538086, 21.199871063232422, 85.45277404785156, 129.5902099609375, 36.4869384765625, 0.81298828125, 0.144287109375, -0.233154296875
611, 2488975229, -2.1600005626678467, -11.945501327514648, 21.022600173950195, 146.647216796875, -25.226547241210938, -26.594133377075195, 0.825927734375, 0.135009765625, -0.239501953125
612, 2488991896, 2.541562557220459, -4.783524990081787, 16.908029556274414, 150.6510009765625, -98.41459655761719, -38.375606536865234, 0.83203125, 0.135009765625, -0.269287109375
613, 2489008563, 3.9165947437286377, -0.7575981616973877, 14.081076622009277, 109.94920349121094, -144.69680786132812, -35.482059478759766, 0.830078125, 0.13623046875, -0.313720703125
614, 2489025230, 2.9194068908691406, 0.8027029037475586, 11.859722137451172, 50.645286560058594, -187.20339965820312, -26.345422744750977, 0.821044921875, 0.138671875, -0.379638671875
615, 2489041897, 1.3806055784225464, 0.1956845223903656, 9.601457595825195, -2.0260086059570312, -221.08132934570312, -15.463518142700195, 0.795166015625, 0.145751953125, -0.44677734375
616, 2489058564, -1.3327308893203735, -1.3382917642593384, 8.63260555267334, -30.972339630126953, -243.36929321289062, -7.5049357414245605, 0.747802734375, 0.15185546875, -0.5185546875
617, 2489075231, -4.869510173797607, -2.623687505722046, 8.825661659240723, -42.43048095703125, -268.39251708984375, -10.528629302978516, 0.689453125, 0.155517578125, -0.5791015625
618, 2489091898, -7.794677257537842, -3.3824803829193115, 9.035414695739746, -48.64215850830078, -301.6268005371094, -26.660646438598633, 0.62255859375, 0.15673828125, -0.631103515625
619, 2489108565, -8.822042465209961, -4.143597602844238, 8.127327919006348, -48.08107376098633, -330.5472412109375, -46.661956787109375, 0.55810546875, 0.16015625, -0.674072265625
620, 2489125232, -9.144641876220703, -4.630730152130127, 7.369420051574707, -39.97556686401367, -339.9053649902344, -62.168704986572266, 0.499267578125, 0.166748046875, -0.715087890625
621, 2489141899, -9.74642562866211, -4.559235572814941, 7.904149055480957, -38.423465728759766, -330.076416015625, -75.21623229980469, 0.452392578125, 0.175048828125, -0.754150390625
622, 2489158566, -11.6198148727417, -4.4702677726745605, 9.349698066711426, -56.585941314697266, -315.22991943359375, -92.31324768066406, 0.412109375, 0.19482421875, -0.810791015625
623, 2489175233, -15.01699447631836, -5.060639381408691, 10.450830459594727, -84.3442153930664, -296.3097229003906, -111.29212951660156, 0.355224609375, 0.234375, -0.889404296875
624, 2489191900, -22.129913330078125, -2.394068956375122, 10.818082809448242, -119.73046875, -273.7986755371094, -142.66416931152344, 0.2626953125, 0.29296875, -0.95849609375
625, 2489208567, -29.6303768157959, -1.7813493013381958, 6.784999847412109, -137.85171508789062, -266.2307434082031, -171.612060546875, 0.12255859375, 0.353759765625, -0.9853515625
626, 2489225234, -32.89472198486328, -3.0397934913635254, -0.661011815071106, -83.75748443603516, -265.8678894042969, -163.38644409179688, -0.01611328125, 0.38427734375, -0.970458984375
627, 2489241901, -32.6470832824707, 1.8591395616531372, -7.286089897155762, 9.719854354858398, -251.38951110839844, -102.71239471435547, -0.127197265625, 0.377685546875, -0.946533203125
628, 2489258568, -30.170629501342773, 9.459596633911133, -12.347784042358398, 6.9682135581970215, -196.7498016357422, -50.78678512573242, -0.205078125, 0.361328125, -0.921875
629, 2489275235, -30.24357032775879, 11.989609718322754, -17.44808006286621, -47.619144439697266, -104.72544860839844, -14.606627464294434, -0.24853515625, 0.365234375, -0.903076171875
630, 2489291902, -28.862730026245117, 5.257777690887451, -21.496397018432617, -24.53740882873535, 33.94905090332031, 19.47298812866211, -0.25830078125, 0.376708984375, -0.891357421875
631, 2489308569, -7.804385662078857, -1.9151525497436523, 0.9888026714324951, 111.16156768798828, 171.01528930664062, 88.18045043945312, -0.217041015625, 0.3515625, -0.912353515625
632, 2489325236, -4.632739067077637, -16.245849609375, 17.221006393432617, 93.44222259521484, 134.81971740722656, 16.320558547973633, -0.18017578125, 0.32666015625, -0.92919921875
633, 2489341903, 2.8241312503814697, 4.751115322113037, 2.0688982009887695, 61.818424224853516, 162.46148681640625, 37.70155715942383, -0.14306640625, 0.306884765625, -0.938720703125
634, 2489358570, -13.005587577819824, 2.8994200229644775, 13.738295555114746, 33.83128356933594, 208.02120971679688, 34.725181579589844, -0.08984375, 0.29541015625, -0.95068359375
635, 2489375237, -16.874801635742188, 0.5189038515090942, 14.681097984313965, 29.485639572143555, 142.28265380859375, 48.85545349121094, -0.044921875, 0.28564453125, -0.95166015625
636, 2489391904, -10.149789810180664, 0.060846567153930664, 10.892580032348633, 12.182771682739258, 99.02855682373047, 57.73960494995117, -0.015869140625, 0.27685546875, -0.952880859375
637, 2489408571, -15.184814453125, -7.3854780197143555, 10.031919479370117, 64.49786376953125, 45.53205108642578, 47.92616653442383, 0.005859375, 0.263671875, -0.95849609375
638, 2489425238, -7.238069534301758, -2.4446473121643066, 9.106472969055176, 41.93170166015625, 26.44890785217285, 29.46347999572754, 0.014404296875, 0.2470703125, -0.960693359375
639, 2489441905, -6.059173583984375, -3.4751040935516357, 7.328738689422607, 36.030677795410156, 12.594544410705566, 20.111024856567383, 0.01904296875, 0.238525390625, -0.963134765625
640, 2489458572, -6.54507303237915, -2.6479461193084717, 8.083650588989258, 31.09383201599121, 3.647885322570801, 16.37169075012207, 0.021728515625, 0.2294921875, -0.965576171875
641, 2489475239, -6.208976745605469, -2.1524083614349365, 8.407732009887695, 23.24671173095703, -0.903438925743103, 12.059581756591797, 0.02490234375, 0.220947265625, -0.966796875
642, 2489491906, -5.731501579284668, -2.1637628078460693, 8.31728458404541, 12.59736442565918, 0.7461047768592834, 6.813283443450928, 0.025390625, 0.216552734375, -0.972412109375
643, 2489508573, -5.800282001495361, -1.9837168455123901, 8.170827865600586, 2.9133617877960205, 5.894488334655762, 1.9161312580108643, 0.02490234375, 0.2138671875, -0.96923828125
644, 2489525240, -5.615279674530029, -2.430850028991699, 7.788855075836182, -3.740736246109009, 9.665781021118164, -1.8046841621398926, 0.0263671875, 0.2138671875, -0.9677734375
645, 2489541907, -5.445122241973877, -2.6179094314575195, 7.555060863494873, -5.036867618560791, 10.340241432189941, -2.1848154067993164, 0.031494140625, 0.216552734375, -0.96875
646, 2489558574, -5.272635459899902, -2.8548531532287598, 7.431241989135742, -3.2381505966186523, 9.63480281829834, -0.43510866165161133, 0.032958984375, 0.217529296875, -0.968017578125
647, 2489575241, -5.476133346557617, -2.883545160293579, 7.340244293212891, -0.728937566280365, 8.109987258911133, 2.1230432987213135, 0.034912109375, 0.217041015625, -0.969482421875
648, 2489591908, -5.6398468017578125, -2.651688575744629, 7.490020275115967, 0.28539595007896423, 7.026480197906494, 3.3146872520446777, 0.038330078125, 0.215576171875, -0.964599609375
649, 2489608575, -5.833775520324707, -2.4332680702209473, 7.5608415603637695, -0.5874657034873962, 6.320017337799072, 3.3978514671325684, 0.038330078125, 0.216064453125, -0.966064453125
650, 2489625242, -5.835747241973877, -2.453307628631592, 7.395902633666992, -2.5306761264801025, 5.928297519683838, 2.472567319869995, 0.04443359375, 0.21728515625, -0.96630859375
651, 2489641909, -5.482255458831787, -2.6900689601898193, 7.376433849334717, -2.080007553100586, 5.942345142364502, 2.3577325344085693, 0.04296875, 0.216552734375, -0.968017578125
652, 2489658576, -5.603930950164795, -2.7079873085021973, 7.264726638793945, -0.1887272149324417, 5.36835241317749, 3.481092929840088, 0.04443359375, 0.21875, -0.9658203125
653, 2489675243, -5.80460262298584, -2.479512929916382, 7.349514007568359, 1.3077396154403687, 2.9710285663604736, 4.829319477081299, 0.04833984375, 0.21875, -0.96630859375
654, 2489691910, -5.878041744232178, -2.345670461654663, 7.390108108520508, 1.0507802963256836, 1.9522066116333008, 4.537886142730713, 0.0478515625, 0.215087890625, -0.966796875
