sep=,
DeviceTag:,B,,,,,,,,,,,,,,,,,
FirmwareVersion:,2.2.1,,,,,,,,,,,,,,,,,
AppVersion:,2022.0.1,,,,,,,,,,,,,,,,,
SyncStatus:,Synced,,,,,,,,,,,,,,,,,
OutputRate:,60Hz,,,,,,,,,,,,,,,,,
FilterProfile:,General,,,,,,,,,,,,,,,,,
Measurement Mode:,Inertial Mode - Rate quantities (with mag),,,,,,,,,,,,,,,,,
StartTime:,2022-08-05 16:42:48.629 +0300,,,,,,,,,,,,,,,,,
© Xsens Technologies B. V. 2005-2022,,,,,,,,,,,,,,,,,,,

PacketCounter,SampleTimeFine,Acc_X,Acc_Y,Acc_Z,Gyr_X,Gyr_Y,Gyr_Z,Mag_X,Mag_Y,Mag_Z
1, 3215673096, -5.386204242706299, -2.007314443588257, 7.796067714691162, -0.03528149425983429, -0.4232626259326935, -0.6712191700935364, 0.03955078125, 0.20166015625, -0.80029296875
2, 3215689763, -5.394609451293945, -2.0209879875183105, 7.774873733520508, 0.03090812638401985, -0.39031192660331726, -0.755574643611908, 0.03857421875, 0.20166015625, -0.79638671875
3, 3215706430, -5.396523475646973, -2.018009901046753, 7.797648906707764, -0.032656192779541016, -0.40825361013412476, -0.7756165266036987, 0.03955078125, 0.2021484375, -0.7978515625
4, 3215723097, -5.399262428283691, -1.9930565357208252, 7.786317825317383, -0.01759592443704605, -0.5273142457008362, -0.7158749103546143, 0.0390625, 0.203125, -0.79931640625
5, 3215739764, -5.409392356872559, -1.9956574440002441, 7.781368255615234, -0.02355087548494339, -0.5580622553825378, -0.8006401062011719, 0.0400390625, 0.2041015625, -0.80029296875
6, 3215756431, -5.401010513305664, -2.008021831512451, 7.7795562744140625, -0.004046806134283543, -0.5360993146896362, -0.8603817820549011, 0.03857421875, 0.2021484375, -0.7998046875
7, 3215773098, -5.387981414794922, -1.9943509101867676, 7.786834239959717, 0.03823335841298103, -0.5606235265731812, -0.9061003923416138, 0.03857421875, 0.20068359375, -0.79736328125
8, 3215789765, -5.398243427276611, -2.004307270050049, 7.789252281188965, -0.07361089438199997, -0.5273526906967163, -0.8441048860549927, 0.0400390625, 0.19970703125, -0.797119140625
9, 3215806432, -5.396132469177246, -1.9954874515533447, 7.799456596374512, -0.039558812975883484, -0.4858216643333435, -0.8464228510856628, 0.0390625, 0.201171875, -0.7978515625
10, 3215823099, -5.4052886962890625, -1.9904969930648804, 7.767301082611084, -0.046333372592926025, -0.42445361614227295, -0.8077220916748047, 0.037109375, 0.2041015625, -0.79833984375
11, 3215839766, -5.416667938232422, -1.99293851852417, 7.79457950592041, -0.04274759441614151, -0.5036737322807312, -0.7914963960647583, 0.0390625, 0.20263671875, -0.80126953125
12, 3215856433, -5.414535999298096, -2.0109498500823975, 7.787561416625977, -0.0944596379995346, -0.5321294069290161, -0.7751171588897705, 0.03857421875, 0.2021484375, -0.7998046875
13, 3215873100, -5.386459827423096, -2.00217342376709, 7.807513236999512, -0.0613039955496788, -0.6350411772727966, -0.8147014379501343, 0.03955078125, 0.20361328125, -0.7978515625
14, 3215889767, -5.406360626220703, -1.997036099433899, 7.802847862243652, -0.36223649978637695, -0.8674516677856445, -1.0194464921951294, 0.0390625, 0.2021484375, -0.80224609375
15, 3215906434, -5.3810505867004395, -2.014037609100342, 7.796308517456055, -0.051353465765714645, -0.6171892881393433, -0.785298228263855, 0.041015625, 0.20263671875, -0.798828125
16, 3215923101, -5.390286922454834, -1.9924612045288086, 7.803282260894775, -0.02996685914695263, -0.3678368031978607, -0.8418254852294922, 0.03857421875, 0.20263671875, -0.79931640625
17, 3215939768, -5.4048261642456055, -1.9914425611495972, 7.7767510414123535, -0.07516045868396759, -0.4685843288898468, -0.821732223033905, 0.0400390625, 0.20263671875, -0.80029296875
18, 3215956435, -5.393592357635498, -1.9920099973678589, 7.783140659332275, -0.20474791526794434, -0.3555426597595215, -0.7853109240531921, 0.0390625, 0.20458984375, -0.80126953125
19, 3215973102, -5.398875713348389, -1.9991487264633179, 7.797212600708008, -0.08525186777114868, -0.42518359422683716, -0.8179159164428711, 0.03955078125, 0.201171875, -0.7998046875
20, 3215989769, -5.397599220275879, -2.010343313217163, 7.789738178253174, -0.024139972403645515, -0.5053001642227173, -0.6864076256752014, 0.03955078125, 0.2021484375, -0.7978515625
21, 3216006436, -5.404494762420654, -1.9943287372589111, 7.759710311889648, -0.029890021309256554, -0.5729048848152161, -0.6998669505119324, 0.0390625, 0.20068359375, -0.798828125
22, 3216023103, -5.388075351715088, -1.9864338636398315, 7.8106184005737305, -0.1466711163520813, -0.4629111588001251, -0.7792792320251465, 0.037109375, 0.20166015625, -0.79931640625
23, 3216039770, -5.404844760894775, -1.9857186079025269, 7.787538051605225, -0.18243923783302307, -0.513252854347229, -0.7602361440658569, 0.0400390625, 0.20166015625, -0.80029296875
24, 3216056437, -5.405832290649414, -1.9948667287826538, 7.794613838195801, -0.03551200404763222, -0.4604138731956482, -0.7118025422096252, 0.041015625, 0.20166015625, -0.80029296875
25, 3216073104, -5.401299953460693, -1.998130202293396, 7.792389869689941, 0.037183232605457306, -0.5015093684196472, -0.7253516316413879, 0.0419921875, 0.2021484375, -0.797607421875
26, 3216089771, -5.389208793640137, -1.9913358688354492, 7.8081183433532715, 0.04618610069155693, -0.44782519340515137, -0.5884517431259155, 0.03857421875, 0.203125, -0.80224609375
27, 3216106438, -5.396124839782715, -1.9936211109161377, 7.8032307624816895, 0.02002272568643093, -0.5178759694099426, -0.61252760887146, 0.0390625, 0.20068359375, -0.7978515625
28, 3216123105, -5.3989644050598145, -1.9850525856018066, 7.78220272064209, 0.1391858160495758, -0.47249025106430054, -0.5740446448326111, 0.03759765625, 0.2021484375, -0.79931640625
29, 3216139772, -5.403870582580566, -1.980678677558899, 7.7833476066589355, 0.12577754259109497, -0.4533447325229645, -0.5622884035110474, 0.03955078125, 0.201171875, -0.80078125
30, 3216156439, -5.404064178466797, -1.9721746444702148, 7.789576530456543, 0.16883248090744019, -0.5700105428695679, -0.5796409249305725, 0.0380859375, 0.2021484375, -0.7998046875
31, 3216173106, -5.3832268714904785, -1.9747546911239624, 7.787588596343994, 0.10300788283348083, -0.6882516741752625, -0.7355968356132507, 0.03759765625, 0.20166015625, -0.79833984375
32, 3216189773, -5.4153151512146, -1.960565209388733, 7.78666877746582, 0.012684689834713936, -0.6238484978675842, -0.694475531578064, 0.0400390625, 0.201171875, -0.798828125
33, 3216206440, -5.395684719085693, -1.958406925201416, 7.789933204650879, 0.004539851564913988, -0.6196480393409729, -0.8793224692344666, 0.0400390625, 0.2001953125, -0.7978515625
34, 3216223107, -5.40095329284668, -1.966120958328247, 7.782902240753174, 0.028231600299477577, -0.5432709455490112, -0.8657093048095703, 0.0400390625, 0.201171875, -0.79736328125
35, 3216239774, -5.3847432136535645, -1.9677833318710327, 7.794329643249512, -0.10816242545843124, -0.4655236005783081, -0.7664471864700317, 0.0419921875, 0.20263671875, -0.80029296875
36, 3216256441, -5.391242504119873, -1.9769446849822998, 7.802429676055908, -0.07135698199272156, -0.41346579790115356, -0.6930155754089355, 0.0390625, 0.20068359375, -0.80029296875
37, 3216273108, -5.397764682769775, -1.9730145931243896, 7.8129425048828125, -0.08096175640821457, -0.45121896266937256, -0.7044645547866821, 0.0390625, 0.2021484375, -0.7998046875
38, 3216289775, -5.401880264282227, -1.9631497859954834, 7.8047332763671875, -0.05542588606476784, -0.4522050619125366, -0.7792408466339111, 0.037109375, 0.20068359375, -0.79638671875
39, 3216306442, -5.4061079025268555, -1.9778664112091064, 7.801791191101074, -0.012883187271654606, -0.5986328125, -0.833923876285553, 0.03955078125, 0.2001953125, -0.7978515625
40, 3216323109, -5.381380558013916, -1.9794081449508667, 7.78975772857666, -0.12119929492473602, -0.48041731119155884, -0.8113718628883362, 0.0390625, 0.20166015625, -0.79833984375
41, 3216339776, -5.403753757476807, -1.9777690172195435, 7.785110950469971, -0.1028221845626831, -0.5032639503479004, -0.6837182641029358, 0.04052734375, 0.20068359375, -0.80126953125
42, 3216356443, -5.411005020141602, -1.977394700050354, 7.792096138000488, -0.1696200966835022, -0.396945595741272, -0.813075065612793, 0.0390625, 0.19921875, -0.80029296875
43, 3216373110, -5.41209602355957, -1.9694709777832031, 7.820850849151611, -0.07197168469429016, -0.39583146572113037, -0.7301924228668213, 0.04150390625, 0.20263671875, -0.80029296875
44, 3216389777, -5.412177085876465, -1.9715301990509033, 7.800573348999023, -0.09106595069169998, -0.44599395990371704, -0.8480749726295471, 0.0400390625, 0.20166015625, -0.79833984375
45, 3216406444, -5.391481399536133, -1.978841781616211, 7.79770565032959, -0.028929542750120163, -0.45526573061943054, -0.8202850818634033, 0.04150390625, 0.20263671875, -0.79833984375
46, 3216423111, -5.405974388122559, -1.9641929864883423, 7.813642501831055, -0.003188780741766095, -0.4481453597545624, -0.8373174667358398, 0.04150390625, 0.20263671875, -0.796142578125
47, 3216439778, -5.403867244720459, -1.9708698987960815, 7.785820960998535, -0.10246974974870682, -0.3823181092739105, -0.8177857398986816, 0.03857421875, 0.201171875, -0.798828125
48, 3216456445, -5.4078264236450195, -1.9777964353561401, 7.789895057678223, -0.13038143515586853, -0.35784780979156494, -0.672128438949585, 0.04150390625, 0.20068359375, -0.80029296875
49, 3216473112, -5.4039835929870605, -1.9740149974822998, 7.79879903793335, -0.12291533499956131, -0.4388992190361023, -0.7755781412124634, 0.041015625, 0.2021484375, -0.7998046875
50, 3216489779, -5.4211745262146, -1.9854544401168823, 7.786129951477051, 0.005679615773260593, -0.4523714780807495, -0.7871678471565247, 0.0380859375, 0.19921875, -0.80078125
51, 3216506446, -5.396718502044678, -1.9777153730392456, 7.808114051818848, -0.1152571514248848, -0.4853990375995636, -0.7805213928222656, 0.0390625, 0.201171875, -0.80029296875
52, 3216523113, -5.415110111236572, -1.9722669124603271, 7.781729698181152, -0.10721477121114731, -0.5917686820030212, -0.8349228501319885, 0.03955078125, 0.19921875, -0.79931640625
53, 3216539780, -5.404073715209961, -1.9710631370544434, 7.793717861175537, 0.026169775053858757, -0.5117673277854919, -0.8348459005355835, 0.04052734375, 0.2021484375, -0.80322265625
54, 3216556447, -5.401793956756592, -1.977466344833374, 7.796326637268066, 0.11717169731855392, -0.5083608627319336, -0.7808800339698792, 0.03857421875, 0.201171875, -0.7998046875
55, 3216573114, -5.402958393096924, -1.9703574180603027, 7.801774978637695, 0.005269812420010567, -0.3924121558666229, -0.6830778121948242, 0.0419921875, 0.20166015625, -0.798828125
56, 3216589781, -5.399653911590576, -1.9625861644744873, 7.801975250244141, -0.017403829842805862, -0.3674141466617584, -0.7513356804847717, 0.041015625, 0.20068359375, -0.798828125
57, 3216606448, -5.41487455368042, -1.9647929668426514, 7.808774471282959, -5.762857035733759E-4, -0.4755253493785858, -0.7046565413475037, 0.04150390625, 0.20166015625, -0.797119140625
58, 3216623115, -5.407099723815918, -1.9614007472991943, 7.813692092895508, 0.016782723367214203, -0.39878976345062256, -0.760069727897644, 0.0400390625, 0.19970703125, -0.798828125
59, 3216639782, -5.400991916656494, -1.9652153253555298, 7.791425704956055, 0.047249022871255875, -0.46405085921287537, -0.6877650022506714, 0.0400390625, 0.20068359375, -0.80322265625
60, 3216656449, -5.423803329467773, -1.9569882154464722, 7.776228427886963, 4.9304444110021E-4, -0.4754869341850281, -0.813356876373291, 0.03759765625, 0.20068359375, -0.80224609375
61, 3216673116, -5.403619289398193, -1.957829236984253, 7.791771411895752, -0.03694632276892662, -0.5072851181030273, -0.7792408466339111, 0.04052734375, 0.20166015625, -0.7998046875
62, 3216689783, -5.4002275466918945, -1.970085859298706, 7.799701690673828, 0.12942735850811005, -0.5345882177352905, -0.7203315496444702, 0.04296875, 0.19775390625, -0.796142578125
63, 3216706450, -5.399400234222412, -1.9725604057312012, 7.768770217895508, 0.04352238029241562, -0.3808480501174927, -0.6738060712814331, 0.0400390625, 0.2021484375, -0.8017578125
64, 3216723117, -5.411287784576416, -1.950731635093689, 7.818833827972412, 0.08159565180540085, -0.3299427628517151, -0.5732378363609314, 0.04052734375, 0.20068359375, -0.80029296875
65, 3216739784, -5.413379192352295, -1.9486676454544067, 7.799149990081787, -0.033347729593515396, -0.28460827469825745, -0.5384941697120667, 0.041015625, 0.19970703125, -0.80029296875
66, 3216756451, -5.40606689453125, -1.9487361907958984, 7.7819414138793945, 0.074308842420578, -0.3028189241886139, -0.6185466647148132, 0.04150390625, 0.19921875, -0.80078125
67, 3216773118, -5.413609027862549, -1.9505563974380493, 7.7952094078063965, 0.002670123940333724, -0.3572843670845032, -0.7527828216552734, 0.04052734375, 0.20263671875, -0.80126953125
68, 3216789785, -5.419760227203369, -1.9548157453536987, 7.7754292488098145, 0.030805673450231552, -0.47425755858421326, -0.6614863276481628, 0.04296875, 0.19970703125, -0.799072265625
69, 3216806452, -5.417358875274658, -1.946415901184082, 7.769077301025391, 0.015220345929265022, -0.5526323914527893, -0.6742798686027527, 0.0419921875, 0.197265625, -0.799072265625
70, 3216823119, -5.400726318359375, -1.9556012153625488, 7.810497283935547, -0.0020618222188204527, -0.5211160778999329, -0.6645215153694153, 0.04052734375, 0.2001953125, -0.80029296875
71, 3216839786, -5.403952121734619, -1.9542603492736816, 7.761307239532471, -0.03514062240719795, -0.39703524112701416, -0.7497220635414124, 0.03857421875, 0.2001953125, -0.7998046875
72, 3216856453, -5.4176344871521, -1.9509772062301636, 7.789127349853516, -0.02752084471285343, -0.45905637741088867, -0.772824764251709, 0.0400390625, 0.203125, -0.79736328125
73, 3216873120, -5.410970211029053, -1.9455232620239258, 7.79329252243042, 0.020970400422811508, -0.43367424607276917, -0.7970672845840454, 0.04052734375, 0.19921875, -0.7978515625
74, 3216889787, -5.420846939086914, -1.9268333911895752, 7.787582874298096, 0.06074691563844681, -0.4874736964702606, -0.7674076557159424, 0.04296875, 0.1982421875, -0.797607421875
75, 3216906454, -5.408071517944336, -1.954934000968933, 7.7857747077941895, -0.0145608214661479, -0.5437576770782471, -0.7174373865127563, 0.04150390625, 0.19873046875, -0.798828125
76, 3216923121, -5.4242072105407715, -1.9404902458190918, 7.781565189361572, 6.467205821536481E-4, -0.4617201089859009, -0.8489713072776794, 0.0419921875, 0.19775390625, -0.7998046875
77, 3216939788, -5.408260345458984, -1.935609221458435, 7.7985053062438965, -0.0613039955496788, -0.48614180088043213, -0.8346537947654724, 0.03955078125, 0.19873046875, -0.7998046875
78, 3216956455, -5.412727355957031, -1.9367133378982544, 7.807570934295654, 0.09477338194847107, -0.5203731656074524, -0.810488224029541, 0.0400390625, 0.2001953125, -0.7998046875
79, 3216973122, -5.419406414031982, -1.9490501880645752, 7.811954975128174, -0.03697193041443825, -0.42068856954574585, -0.7306534647941589, 0.04052734375, 0.19873046875, -0.8017578125
80, 3216989789, -5.410345077514648, -1.933057427406311, 7.794398307800293, 0.025644714012742043, -0.3409818708896637, -0.7751939296722412, 0.0390625, 0.19921875, -0.79736328125
81, 3217006456, -5.411766529083252, -1.922008752822876, 7.805454254150391, 0.0467267669737339, -0.36388862133026123, -0.7506123185157776, 0.041015625, 0.19970703125, -0.80224609375
82, 3217023123, -5.417377471923828, -1.9235376119613647, 7.791667938232422, -0.11028829216957092, -0.4106484651565552, -0.7990522384643555, 0.04052734375, 0.19921875, -0.7978515625
83, 3217039790, -5.405040264129639, -1.9434291124343872, 7.827334403991699, -0.01019385363906622, -0.3004881739616394, -0.6626901626586914, 0.04248046875, 0.19970703125, -0.80126953125
84, 3217056457, -5.410200119018555, -1.9539533853530884, 7.8138628005981445, -0.09430595487356186, -0.3647632300853729, -0.7257997989654541, 0.04150390625, 0.19970703125, -0.80078125
85, 3217073124, -5.425055503845215, -1.9308040142059326, 7.796963691711426, -0.1102626770734787, -0.25678014755249023, -0.8021641969680786, 0.04443359375, 0.19873046875, -0.800048828125
86, 3217089791, -5.4202046394348145, -1.9354418516159058, 7.784113883972168, -0.10172083973884583, -0.32900798320770264, -0.8015238642692566, 0.04150390625, 0.19775390625, -0.796630859375
87, 3217106458, -5.4193854331970215, -1.934264898300171, 7.805880069732666, -0.07202290743589401, -0.3508811593055725, -0.8251770734786987, 0.0419921875, 0.19677734375, -0.79931640625
88, 3217123125, -5.404520511627197, -1.935677409172058, 7.790859699249268, -0.11774157732725143, -0.32604968547821045, -0.7876289486885071, 0.0419921875, 0.1982421875, -0.79931640625
89, 3217139792, -5.41993522644043, -1.922776460647583, 7.780661106109619, -0.10156715661287308, -0.32315540313720703, -0.7161182761192322, 0.041015625, 0.2001953125, -0.80224609375
90, 3217156459, -5.418422698974609, -1.9352649450302124, 7.7798566818237305, -0.10286059230566025, -0.30532899498939514, -0.7387599349021912, 0.041015625, 0.2001953125, -0.80078125
91, 3217173126, -5.428983211517334, -1.9208989143371582, 7.773680686950684, -0.04149257019162178, -0.411647230386734, -0.7095997929573059, 0.04345703125, 0.19921875, -0.7998046875
92, 3217189793, -5.434854507446289, -1.9020975828170776, 7.784453392028809, -0.05483678728342056, -0.47013387084007263, -0.8722788691520691, 0.04345703125, 0.19970703125, -0.799072265625
93, 3217206460, -5.412416934967041, -1.9827531576156616, 7.798880100250244, -0.010629269294440746, -0.4568409025669098, -0.8662086725234985, 0.04150390625, 0.197021484375, -0.799072265625
94, 3217223127, -5.419646263122559, -1.9037489891052246, 7.761700630187988, -0.03613952174782753, -0.487294465303421, -0.7977203130722046, 0.0419921875, 0.19775390625, -0.798095703125
95, 3217239794, -5.431265354156494, -1.919831395149231, 7.780092239379883, -0.03512781858444214, -0.530733585357666, -0.82662433385849, 0.04150390625, 0.19921875, -0.79931640625
96, 3217256461, -5.414828300476074, -1.938245415687561, 7.787014007568359, -0.1508587747812271, -0.6317371726036072, -0.9247720837593079, 0.0400390625, 0.196533203125, -0.8017578125
97, 3217273128, -5.402823448181152, -1.9308744668960571, 7.792724132537842, -0.09101473540067673, -0.5322191119194031, -0.9283451437950134, 0.0419921875, 0.197265625, -0.80126953125
98, 3217289795, -5.412624835968018, -1.9355865716934204, 7.806674480438232, -0.09002863615751266, -0.4627830386161804, -0.8130366802215576, 0.04150390625, 0.19873046875, -0.798583984375
99, 3217306462, -5.435556888580322, -1.9192354679107666, 7.779292583465576, -0.06107347831130028, -0.3996093273162842, -0.7838894724845886, 0.04248046875, 0.196533203125, -0.799560546875
100, 3217323129, -5.443843364715576, -1.9166312217712402, 7.788838863372803, -0.18108180165290833, -0.38686704635620117, -0.8571290373802185, 0.041015625, 0.197021484375, -0.798095703125
101, 3217339796, -5.430935859680176, -1.916900873184204, 7.8034348487854, -0.14222730696201324, -0.4289742708206177, -0.9628582000732422, 0.04248046875, 0.2001953125, -0.798095703125
102, 3217356463, -5.431105136871338, -1.913802981376648, 7.791497230529785, -0.09785331040620804, -0.5387631058692932, -0.9470935463905334, 0.0400390625, 0.1982421875, -0.7998046875
103, 3217373130, -5.4132819175720215, -1.9182467460632324, 7.79613733291626, -0.1442251205444336, -0.5898861289024353, -0.8787974119186401, 0.04248046875, 0.19970703125, -0.7998046875
104, 3217389797, -5.433792591094971, -1.9158434867858887, 7.749695301055908, -0.14548012614250183, -0.5812802314758301, -0.9191501140594482, 0.04248046875, 0.196044921875, -0.7998046875
105, 3217406464, -5.413980007171631, -1.9424684047698975, 7.794994831085205, -0.14183034002780914, -0.6041139364242554, -0.8668233752250671, 0.04248046875, 0.2001953125, -0.798095703125
106, 3217423131, -5.420811653137207, -1.9253371953964233, 7.779364585876465, -0.14968062937259674, -0.6298547387123108, -0.8227823376655579, 0.0419921875, 0.19775390625, -0.79931640625
107, 3217439798, -5.414939880371094, -1.936841368675232, 7.800500869750977, -0.10713791847229004, -0.5391728281974792, -0.8460001945495605, 0.0419921875, 0.2001953125, -0.80029296875
108, 3217456465, -5.421206474304199, -1.930608868598938, 7.818923473358154, -0.1547134965658188, -0.4904831349849701, -0.8373047113418579, 0.04248046875, 0.19873046875, -0.80078125
109, 3217473132, -5.41121244430542, -1.9304540157318115, 7.788056373596191, -0.1689029484987259, -0.40201690793037415, -0.8373559713363647, 0.04296875, 0.19873046875, -0.798095703125
110, 3217489799, -5.418111801147461, -1.930283546447754, 7.803997993469238, -0.10584447532892227, -0.3657493591308594, -0.7752323746681213, 0.04345703125, 0.19775390625, -0.799560546875
111, 3217506466, -5.4122443199157715, -1.92422354221344, 7.7961578369140625, -0.12009794265031815, -0.3851125240325928, -0.8316956162452698, 0.041015625, 0.19873046875, -0.798095703125
112, 3217523133, -5.411787509918213, -1.9312589168548584, 7.773193359375, -0.08319006115198135, -0.3443883955478668, -0.8426451086997986, 0.04248046875, 0.197265625, -0.799072265625
113, 3217539800, -5.420149803161621, -1.9128918647766113, 7.77897310256958, -0.16947922110557556, -0.2244953066110611, -0.6785828471183777, 0.0419921875, 0.19970703125, -0.79931640625
114, 3217556467, -5.444801330566406, -1.9066904783248901, 7.790980339050293, -0.12183409929275513, -0.21708066761493683, -0.769976794719696, 0.04248046875, 0.1982421875, -0.7998046875
115, 3217573134, -5.431071758270264, -1.9222133159637451, 7.781513214111328, -0.24997995793819427, -0.3110021948814392, -0.8207206130027771, 0.0439453125, 0.19775390625, -0.798583984375
116, 3217589801, -5.432888507843018, -1.9163051843643188, 7.812419414520264, -0.166047140955925, -0.4435095489025116, -0.7297571301460266, 0.04150390625, 0.197021484375, -0.79931640625
117, 3217606468, -5.414641380310059, -1.9461878538131714, 7.77768087387085, -0.19995833933353424, -0.40375861525535583, -0.7692133784294128, 0.04345703125, 0.1982421875, -0.796630859375
118, 3217623135, -5.434782028198242, -1.9229648113250732, 7.77933406829834, -0.33278578519821167, -0.41944634914398193, -0.6822582483291626, 0.04248046875, 0.196533203125, -0.796142578125
119, 3217639802, -5.423543930053711, -1.9228339195251465, 7.804983139038086, -0.23899208009243011, -0.2185659408569336, -0.7139924168586731, 0.0419921875, 0.196533203125, -0.799072265625
120, 3217656469, -5.431150436401367, -1.9113258123397827, 7.7885894775390625, -0.1840144395828247, -0.25840651988983154, -0.6402149796485901, 0.04296875, 0.19921875, -0.7998046875
121, 3217673136, -5.426347732543945, -1.9005863666534424, 7.794003963470459, -0.2085770070552826, -0.17968589067459106, -0.6476042866706848, 0.0439453125, 0.2001953125, -0.80029296875
122, 3217689803, -5.431443691253662, -1.918585181236267, 7.774091720581055, -0.18538472056388855, -0.21362270414829254, -0.49778279662132263, 0.04296875, 0.1982421875, -0.799560546875
123, 3217706470, -5.430088043212891, -1.9244894981384277, 7.801867961883545, -0.18538472056388855, -0.19793495535850525, -0.5709326267242432, 0.043701171875, 0.19677734375, -0.799560546875
124, 3217723137, -5.4309539794921875, -1.9270535707473755, 7.8040595054626465, -0.11176100373268127, -0.28268733620643616, -0.5818564295768738, 0.04345703125, 0.197265625, -0.800048828125
125, 3217739804, -5.4538984298706055, -1.9151233434677124, 7.799736499786377, -0.17447368800640106, -0.16312725841999054, -0.5046341419219971, 0.0419921875, 0.19921875, -0.798095703125
126, 3217756471, -5.416956424713135, -1.9206199645996094, 7.789304733276367, -0.21147124469280243, 0.014439158141613007, -0.44906744360923767, 0.045654296875, 0.19921875, -0.800537109375
127, 3217773138, -5.436314105987549, -1.9080173969268799, 7.797884464263916, -0.3165217339992523, 0.05914612486958504, -0.417179673910141, 0.04345703125, 0.19921875, -0.80078125
128, 3217789805, -5.441193103790283, -1.919790506362915, 7.774267196655273, -0.2706878185272217, 0.042036838829517365, -0.484579473733902, 0.046142578125, 0.19970703125, -0.801513671875
129, 3217806472, -5.4300103187561035, -1.9179236888885498, 7.765565872192383, -0.26687148213386536, 0.03435302898287773, -0.4532807171344757, 0.04150390625, 0.197021484375, -0.798095703125
130, 3217823139, -5.430022716522217, -1.9147546291351318, 7.798802852630615, -0.26881808042526245, -0.09958217293024063, -0.5362402200698853, 0.04345703125, 0.197265625, -0.80029296875
131, 3217839806, -5.448738098144531, -1.9075669050216675, 7.8044538497924805, -0.28892403841018677, -0.07331635057926178, -0.4860393702983856, 0.044677734375, 0.197265625, -0.798583984375
132, 3217856473, -5.447376251220703, -1.9024494886398315, 7.767786979675293, -0.22982273995876312, -0.1320846825838089, -0.5490978360176086, 0.04248046875, 0.19677734375, -0.7998046875
133, 3217873140, -5.4312005043029785, -1.9050956964492798, 7.780818462371826, -0.16769914329051971, -0.16454878449440002, -0.5368805527687073, 0.044189453125, 0.1962890625, -0.799072265625
134, 3217889807, -5.43318510055542, -1.906361699104309, 7.7890400886535645, -0.0992492139339447, -0.24580508470535278, -0.5603674650192261, 0.046142578125, 0.19677734375, -0.798095703125
135, 3217906474, -5.440695285797119, -1.9087648391723633, 7.776863098144531, -0.16458719968795776, -0.27438884973526, -0.5683586001396179, 0.044921875, 0.19921875, -0.798095703125
136, 3217923141, -5.444192409515381, -1.895586609840393, 7.776741981506348, -0.1433926820755005, -0.24086181819438934, -0.6089034676551819, 0.043212890625, 0.196044921875, -0.800537109375
137, 3217939808, -5.4507551193237305, -1.9042552709579468, 7.770018577575684, -0.07905358076095581, -0.22271522879600525, -0.6492947340011597, 0.046142578125, 0.1982421875, -0.798583984375
138, 3217956475, -5.453916549682617, -1.8960692882537842, 7.7881317138671875, -0.18337412178516388, -0.07452014833688736, -0.49800050258636475, 0.04345703125, 0.19921875, -0.799072265625
139, 3217973142, -5.455010890960693, -1.9055999517440796, 7.769514083862305, -0.21299521625041962, -0.22851651906967163, -0.6203780174255371, 0.047607421875, 0.1982421875, -0.799560546875
140, 3217989809, -5.453088283538818, -1.886305332183838, 7.768911838531494, -0.15532821416854858, -0.3498823046684265, -0.788371741771698, 0.044189453125, 0.19677734375, -0.800048828125
141, 3218006476, -5.443499565124512, -1.9000604152679443, 7.773621082305908, -0.16959449648857117, -0.4210343360900879, -0.7734267115592957, 0.044677734375, 0.1982421875, -0.799560546875
142, 3218023143, -5.446145057678223, -1.9051600694656372, 7.799450397491455, -0.05898604169487953, -0.40332311391830444, -0.7176038026809692, 0.046142578125, 0.19677734375, -0.799560546875
143, 3218039810, -5.459981441497803, -1.8997063636779785, 7.772317886352539, -0.05505449324846268, -0.3476027548313141, -0.7426530122756958, 0.04443359375, 0.19775390625, -0.797607421875
144, 3218056477, -5.450944900512695, -1.8895703554153442, 7.797393321990967, -0.15664727985858917, -0.47199079394340515, -0.8938959836959839, 0.046142578125, 0.19873046875, -0.802001953125
145, 3218073144, -5.445651054382324, -1.9156591892242432, 7.781337261199951, -0.2071555107831955, -0.36215075850486755, -0.9227614402770996, 0.043701171875, 0.1962890625, -0.80126953125
146, 3218089811, -5.43422269821167, -1.913083791732788, 7.7863287925720215, -0.21458321809768677, -0.3412252366542816, -0.7874240875244141, 0.045166015625, 0.1962890625, -0.797607421875
147, 3218106478, -5.446004867553711, -1.9150320291519165, 7.73555850982666, -0.17429441213607788, -0.367798388004303, -0.7545372843742371, 0.045654296875, 0.19873046875, -0.795654296875
148, 3218123145, -5.455259323120117, -1.896263837814331, 7.741490364074707, -0.15504297614097595, -0.48935994505882263, -0.871152937412262, 0.04296875, 0.196533203125, -0.80029296875
149, 3218139812, -5.451414585113525, -1.887333631515503, 7.764724254608154, -0.19621889293193817, -0.4470440745353699, -0.7959914803504944, 0.045654296875, 0.19873046875, -0.798583984375
150, 3218156479, -5.464959621429443, -1.8897629976272583, 7.754968166351318, -0.22294573485851288, -0.62370765209198, -0.9175236821174622, 0.046142578125, 0.1982421875, -0.799560546875
151, 3218173146, -5.44767427444458, -1.8903542757034302, 7.782952308654785, -0.18525665998458862, -0.5012661218643188, -0.950935423374176, 0.046142578125, 0.19873046875, -0.801025390625
152, 3218189813, -5.442647933959961, -1.9132964611053467, 7.76034688949585, -0.1412668377161026, -0.5432581305503845, -0.9440327882766724, 0.043701171875, 0.195556640625, -0.798095703125
153, 3218206480, -5.440369606018066, -1.8941552639007568, 7.777015209197998, -0.3140501081943512, -0.3976627290248871, -0.9201362133026123, 0.044189453125, 0.195556640625, -0.799072265625
154, 3218223147, -5.455056667327881, -1.902625322341919, 7.757242202758789, -0.26076290011405945, -0.4119803011417389, -0.8452702760696411, 0.045654296875, 0.1982421875, -0.798583984375
155, 3218239814, -5.458655834197998, -1.9099725484848022, 7.762948989868164, -0.24065694212913513, -0.3886471092700958, -0.9016566872596741, 0.046630859375, 0.1982421875, -0.798095703125
156, 3218256481, -5.455270767211914, -1.8975560665130615, 7.749840259552002, -0.3331443667411804, -0.46668896079063416, -0.8086825609207153, 0.046630859375, 0.19873046875, -0.798095703125
157, 3218273148, -5.462646484375, -1.8874362707138062, 7.763301372528076, -0.21217560768127441, -0.452704519033432, -0.8520193099975586, 0.046142578125, 0.19775390625, -0.800048828125
158, 3218289815, -5.458318710327148, -1.9011297225952148, 7.777768135070801, -0.2506330609321594, -0.6044212579727173, -0.935759961605072, 0.045166015625, 0.1962890625, -0.800537109375
159, 3218306482, -5.449501037597656, -1.9024819135665894, 7.7798686027526855, -0.181248277425766, -0.6715649962425232, -0.9374633431434631, 0.047119140625, 0.1962890625, -0.799560546875
160, 3218323149, -5.4515767097473145, -1.9125186204910278, 7.77084493637085, -0.140152707695961, -0.6335045099258423, -0.9547005891799927, 0.0439453125, 0.19873046875, -0.799560546875
161, 3218339816, -5.446037292480469, -1.9130016565322876, 7.770245552062988, -0.10830330848693848, -0.5428484678268433, -0.7398740649223328, 0.046142578125, 0.19677734375, -0.800048828125
162, 3218356483, -5.435535907745361, -1.891503095626831, 7.779047966003418, -0.10481996834278107, -0.48095524311065674, -0.7696359753608704, 0.045166015625, 0.1982421875, -0.801025390625
163, 3218373150, -5.452678203582764, -1.9007538557052612, 7.777017116546631, -0.2184891253709793, -0.2094094455242157, -0.7601593136787415, 0.045654296875, 0.1982421875, -0.800048828125
164, 3218389817, -5.462268829345703, -1.8944320678710938, 7.774053573608398, -0.3248714804649353, -0.10612621158361435, -0.7983734011650085, 0.044677734375, 0.19775390625, -0.799072265625
165, 3218406484, -5.448941707611084, -1.9105708599090576, 7.75826358795166, -0.2177719622850418, -0.23456108570098877, -0.7532822489738464, 0.045166015625, 0.195556640625, -0.800048828125
166, 3218423151, -5.447170734405518, -1.894856572151184, 7.77772855758667, -0.16630324721336365, -0.2492627650499344, -0.7766794562339783, 0.046142578125, 0.1962890625, -0.798583984375
167, 3218439818, -5.460389137268066, -1.8980004787445068, 7.774249076843262, -0.12794823944568634, -0.22340679168701172, -0.784414529800415, 0.046630859375, 0.1982421875, -0.802001953125
168, 3218456485, -5.474316596984863, -1.8826500177383423, 7.748984336853027, -0.12898556888103485, -0.28656771779060364, -0.8358320593833923, 0.045166015625, 0.19873046875, -0.797607421875
169, 3218473152, -5.455874919891357, -1.8816897869110107, 7.779879570007324, -0.24748270213603973, -0.4718115031719208, -0.9719763994216919, 0.046630859375, 0.19775390625, -0.800048828125
170, 3218489819, -5.452605724334717, -1.8992489576339722, 7.755707263946533, -0.20385146141052246, -0.6159341931343079, -0.9580429792404175, 0.047119140625, 0.1982421875, -0.800537109375
171, 3218506486, -5.451336860656738, -1.898404836654663, 7.763711452484131, -0.15979762375354767, -0.45059138536453247, -0.8969950675964355, 0.045654296875, 0.1962890625, -0.799072265625
172, 3218523153, -5.4614577293396, -1.9100887775421143, 7.756799697875977, -0.15244679152965546, -0.4239029586315155, -0.8360113501548767, 0.044189453125, 0.196044921875, -0.796142578125
173, 3218539820, -5.458611011505127, -1.8984520435333252, 7.769052505493164, -0.20477353036403656, -0.32766324281692505, -0.8238068222999573, 0.047119140625, 0.19677734375, -0.797607421875
174, 3218556487, -5.441730499267578, -1.9159451723098755, 7.74748420715332, -0.13527347147464752, -0.3506506681442261, -0.7884485125541687, 0.046630859375, 0.19873046875, -0.800048828125
175, 3218573154, -5.461902141571045, -1.8978323936462402, 7.768681049346924, -0.13488928973674774, -0.2647840976715088, -0.7606715559959412, 0.04345703125, 0.1982421875, -0.796142578125
176, 3218589821, -5.4580841064453125, -1.9061754941940308, 7.7524518966674805, -0.14669671654701233, -0.3511500656604767, -0.8192861676216125, 0.047119140625, 0.19775390625, -0.797607421875
177, 3218606488, -5.470941066741943, -1.8836692571640015, 7.785965442657471, -0.48619309067726135, -0.6483470797538757, -1.0961211919784546, 0.048583984375, 0.19775390625, -0.797607421875
178, 3218623155, -5.468364238739014, -1.9123423099517822, 7.790621757507324, -0.168710857629776, -0.519835352897644, -0.8509050607681274, 0.045654296875, 0.19580078125, -0.799560546875
179, 3218639822, -5.460371494293213, -1.89083731174469, 7.785950660705566, -0.18047988414764404, -0.26373395323753357, -0.7161181569099426, 0.046142578125, 0.1962890625, -0.796630859375
180, 3218656489, -5.455511569976807, -1.9100093841552734, 7.757916450500488, -0.18371988832950592, -0.11145364493131638, -0.7087929844856262, 0.046630859375, 0.1982421875, -0.797607421875
181, 3218673156, -5.44801139831543, -1.8968093395233154, 7.780789852142334, -0.23313960433006287, -0.04461732134222984, -0.6912226676940918, 0.048095703125, 0.19921875, -0.798583984375
182, 3218689823, -5.4416937828063965, -1.8877710103988647, 7.763034820556641, -0.32030603289604187, 0.04694448783993721, -0.5850290656089783, 0.04443359375, 0.1982421875, -0.8017578125
183, 3218706490, -5.460561752319336, -1.89642333984375, 7.77396297454834, -0.3765066862106323, 0.1566280573606491, -0.6227087378501892, 0.046630859375, 0.19677734375, -0.798095703125
184, 3218723157, -5.465767860412598, -1.9174765348434448, 7.773909568786621, -0.49075213074684143, 0.355907678604126, -0.25496163964271545, 0.046630859375, 0.19580078125, -0.795654296875
185, 3218739824, -5.452167510986328, -1.8975141048431396, 7.75829553604126, -0.5041475296020508, 0.4612397849559784, -0.3415452837944031, 0.044677734375, 0.1962890625, -0.796630859375
186, 3218756491, -5.468725681304932, -1.910392165184021, 7.750658988952637, -0.4352109134197235, 0.5901485085487366, -0.1856408268213272, 0.047119140625, 0.19677734375, -0.800537109375
187, 3218773158, -5.457364082336426, -1.885970115661621, 7.786476135253906, -0.5457682013511658, 0.5827849507331848, -0.0039315493777394295, 0.045654296875, 0.1982421875, -0.800537109375
188, 3218789825, -5.470936298370361, -1.9018794298171997, 7.735259532928467, -0.5310792922973633, 0.7666841745376587, 0.042997319251298904, 0.050048828125, 0.1962890625, -0.799072265625
189, 3218806492, -5.474478244781494, -1.8884702920913696, 7.761058807373047, -0.3965614438056946, 0.7684513926506042, 0.018396323546767235, 0.050048828125, 0.1962890625, -0.798583984375
190, 3218823159, -5.489757061004639, -1.9036365747451782, 7.731416702270508, -0.4105459749698639, 0.6641181111335754, 0.1309128999710083, 0.048583984375, 0.19873046875, -0.800048828125
191, 3218839826, -5.492135524749756, -1.8739254474639893, 7.7433648109436035, -0.38046377897262573, 0.6598151326179504, 0.04736427962779999, 0.049072265625, 0.1982421875, -0.799560546875
192, 3218856493, -5.49971342086792, -1.8898324966430664, 7.7058610916137695, -0.40182480216026306, 0.45277491211891174, 0.05103970319032669, 0.048583984375, 0.19775390625, -0.801025390625
193, 3218873160, -5.50206995010376, -1.8624603748321533, 7.737418174743652, -0.3555554747581482, 0.233939990401268, -0.10238676518201828, 0.051025390625, 0.19970703125, -0.796630859375
194, 3218889827, -5.506458282470703, -1.8576469421386719, 7.723992824554443, -0.33826693892478943, 0.0946069061756134, -0.4011461138725281, 0.050048828125, 0.19775390625, -0.798095703125
195, 3218906494, -5.508915424346924, -1.8629142045974731, 7.747478008270264, -0.33082640171051025, -0.06602953374385834, -0.6093004941940308, 0.051025390625, 0.197265625, -0.799072265625
196, 3218923161, -5.504358768463135, -1.8897216320037842, 7.724940299987793, -0.23570086061954498, -0.23073197901248932, -0.6085833311080933, 0.048583984375, 0.1982421875, -0.797119140625
197, 3218939828, -5.495476245880127, -1.903672695159912, 7.740854740142822, -0.2205125242471695, -0.2599560618400574, -0.5452943444252014, 0.050048828125, 0.1982421875, -0.800048828125
198, 3218956495, -5.500182151794434, -1.8783632516860962, 7.766743183135986, -0.25140145421028137, -0.11388687044382095, -0.399199515581131, 0.051025390625, 0.197265625, -0.796875
199, 3218973162, -5.514894485473633, -1.8651673793792725, 7.74783182144165, -0.3553505539894104, -0.09921078383922577, -0.4699289798736572, 0.050537109375, 0.1982421875, -0.799560546875
200, 3218989829, -5.504055023193359, -1.8823868036270142, 7.74354362487793, -0.4741038680076599, -0.037202443927526474, -0.5253420472145081, 0.051025390625, 0.197265625, -0.798095703125
201, 3219006496, -5.5138068199157715, -1.866695761680603, 7.7420654296875, -0.6098254919052124, -0.06472328305244446, -0.689814031124115, 0.050048828125, 0.1982421875, -0.7958984375
202, 3219023163, -5.5499701499938965, -1.8117198944091797, 7.721069812774658, -1.0069890022277832, -0.1980886310338974, -1.0803565979003906, 0.051025390625, 0.19580078125, -0.796875
203, 3219039830, -5.492966651916504, -1.8850982189178467, 7.747084617614746, -0.6728968024253845, -0.37194764614105225, -1.2983845472335815, 0.052001953125, 0.1982421875, -0.797607421875
204, 3219056497, -5.49692440032959, -1.9201560020446777, 7.726990222930908, -0.6262561678886414, -0.39521676301956177, -1.1369990110397339, 0.049560546875, 0.19970703125, -0.796630859375
205, 3219073164, -5.510982990264893, -1.8790478706359863, 7.74519157409668, -0.9705931544303894, -0.282444030046463, -1.0427571535110474, 0.049072265625, 0.1982421875, -0.796142578125
206, 3219089831, -5.496444225311279, -1.8924158811569214, 7.744479179382324, -1.1739708185195923, -0.017698373645544052, -1.145438313484192, 0.050537109375, 0.19677734375, -0.796630859375
207, 3219106498, -5.52277946472168, -1.901395320892334, 7.758692264556885, -1.057061791419983, 0.19454768300056458, -1.1015381813049316, 0.051025390625, 0.19677734375, -0.79541015625
208, 3219123165, -5.519498348236084, -1.864909052848816, 7.711085796356201, -1.1119369268417358, 0.18626193702220917, -1.3368674516677856, 0.052490234375, 0.19873046875, -0.79736328125
209, 3219139832, -5.530105113983154, -1.8612560033798218, 7.703217029571533, -1.4378328323364258, 0.0075493426993489265, -1.5098302364349365, 0.049560546875, 0.19677734375, -0.801513671875
210, 3219156499, -5.515076160430908, -1.8602538108825684, 7.726160526275635, -2.0357487201690674, -0.15343287587165833, -1.9135633707046509, 0.050048828125, 0.20068359375, -0.798583984375
211, 3219173166, -5.520766258239746, -1.8752920627593994, 7.717870712280273, -2.2960891723632812, 0.004130048211663961, -2.144730806350708, 0.051513671875, 0.1982421875, -0.799072265625
212, 3219189833, -5.506114482879639, -1.8840968608856201, 7.726346969604492, -2.4252917766571045, 0.007959146052598953, -2.317603349685669, 0.052490234375, 0.2021484375, -0.797119140625
213, 3219206500, -5.5226616859436035, -1.9409743547439575, 7.725066184997559, -2.325927495956421, 0.033366940915584564, -2.3343286514282227, 0.052001953125, 0.1982421875, -0.798583984375
214, 3219223167, -5.510191440582275, -1.948575496673584, 7.738790988922119, -2.296703815460205, 0.2605900466442108, -2.0309722423553467, 0.051513671875, 0.2021484375, -0.797119140625
215, 3219239834, -5.5007643699646, -1.9436142444610596, 7.731720924377441, -2.390615224838257, 0.3936331868171692, -1.8336334228515625, 0.051513671875, 0.20166015625, -0.798095703125
216, 3219256501, -5.5108137130737305, -1.9383788108825684, 7.709275722503662, -2.357905149459839, 0.6436408162117004, -1.7929402589797974, 0.053955078125, 0.204345703125, -0.799560546875
217, 3219273168, -5.533013343811035, -1.9354697465896606, 7.7236104011535645, -2.765812873840332, 0.8119545578956604, -1.8861576318740845, 0.051025390625, 0.204345703125, -0.797119140625
218, 3219289835, -5.50275993347168, -1.991556167602539, 7.724187850952148, -3.125722885131836, 0.7631624341011047, -1.6122041940689087, 0.052978515625, 0.201904296875, -0.798583984375
219, 3219306502, -5.523972511291504, -1.9511433839797974, 7.729708671569824, -2.452275037765503, 0.836696445941925, -1.4143331050872803, 0.050537109375, 0.202880859375, -0.796630859375
220, 3219323169, -5.529725551605225, -1.9995282888412476, 7.682779312133789, -2.333240270614624, 0.7346554398536682, -1.3324750661849976, 0.053466796875, 0.202880859375, -0.79443359375
221, 3219339836, -5.554349899291992, -1.9949090480804443, 7.692285537719727, -1.8434102535247803, 0.4629431962966919, -1.2373111248016357, 0.053955078125, 0.204833984375, -0.79638671875
222, 3219356503, -5.57741117477417, -1.9115601778030396, 7.69323205947876, -2.2908637523651123, 0.45707786083221436, -1.7476056814193726, 0.053955078125, 0.205810546875, -0.79541015625
223, 3219373170, -5.549951553344727, -1.931291103363037, 7.68295955657959, -2.651272773742676, 0.3933662474155426, -2.332509994506836, 0.052001953125, 0.206298828125, -0.796630859375
224, 3219389837, -5.53626012802124, -1.9642099142074585, 7.736483097076416, -2.872746229171753, 0.5561606287956238, -2.4349610805511475, 0.053466796875, 0.207275390625, -0.79443359375
225, 3219406504, -5.589120388031006, -1.9503021240234375, 7.715107440948486, -2.921499729156494, 0.6309624314308167, -2.986440658569336, 0.0517578125, 0.208251953125, -0.797607421875
226, 3219423171, -5.650354862213135, -1.9581375122070312, 7.640916347503662, -3.4341249465942383, 0.21726611256599426, -3.6902778148651123, 0.054443359375, 0.208251953125, -0.79541015625
227, 3219439838, -5.476021766662598, -2.085871458053589, 7.663568496704102, -3.6695187091827393, -0.5017271637916565, -3.6221611499786377, 0.052490234375, 0.209228515625, -0.794921875
228, 3219456505, -5.560178756713867, -2.0662949085235596, 7.663065433502197, -2.793820381164551, -0.5146615505218506, -3.2554893493652344, 0.052734375, 0.209716796875, -0.79443359375
229, 3219473172, -5.4622650146484375, -2.077143907546997, 7.672213077545166, -2.8842716217041016, -0.04407944902777672, -2.9740185737609863, 0.0537109375, 0.212890625, -0.796142578125
230, 3219489839, -5.422088146209717, -2.1259021759033203, 7.691623687744141, -2.7496774196624756, 1.0572348833084106, -2.51932954788208, 0.05126953125, 0.21142578125, -0.794677734375
231, 3219506506, -5.357046604156494, -2.151264190673828, 7.825446605682373, -3.0760343074798584, 3.1685538291931152, -1.2169746160507202, 0.056396484375, 0.21044921875, -0.7958984375
232, 3219523173, -5.419872760772705, -2.0681347846984863, 7.856229782104492, -4.317828178405762, 6.047973155975342, -0.08105140924453735, 0.05322265625, 0.21142578125, -0.7919921875
233, 3219539840, -5.309555530548096, -2.1616063117980957, 7.835801124572754, -6.010803699493408, 9.088920593261719, 1.5265625715255737, 0.057373046875, 0.21337890625, -0.794921875
234, 3219556507, -5.146509170532227, -2.1325581073760986, 8.003900527954102, -7.559762001037598, 15.312599182128906, 2.6667134761810303, 0.063232421875, 0.212890625, -0.79296875
235, 3219573174, -4.933847904205322, -2.2102551460266113, 8.20038890838623, -11.267685890197754, 25.207420349121094, 5.993997573852539, 0.065185546875, 0.216552734375, -0.79345703125
236, 3219589841, -4.920837879180908, -2.090895414352417, 8.344769477844238, -15.912271499633789, 41.02845764160156, 9.09441089630127, 0.076171875, 0.219970703125, -0.7880859375
237, 3219606508, -4.900675296783447, -2.2657487392425537, 8.554234504699707, -20.961000442504883, 58.741172790527344, 11.124874114990234, 0.090087890625, 0.225341796875, -0.786376953125
238, 3219623175, -4.908863544464111, -2.3110647201538086, 9.00340461730957, -25.87057876586914, 79.73382568359375, 16.820348739624023, 0.10546875, 0.226806640625, -0.781005859375
239, 3219639842, -4.885937213897705, -2.674384593963623, 9.227263450622559, -32.62021255493164, 105.11740112304688, 29.15157127380371, 0.130859375, 0.22900390625, -0.77197265625
240, 3219656509, -6.077983379364014, -3.062370538711548, 10.238365173339844, -45.10990524291992, 131.51693725585938, 40.481788635253906, 0.15869140625, 0.23828125, -0.760498046875
241, 3219673176, -7.051030158996582, -4.656821250915527, 10.278252601623535, -54.21996307373047, 140.80209350585938, 54.187862396240234, 0.19580078125, 0.2470703125, -0.746337890625
242, 3219689843, -6.858138084411621, -4.1133270263671875, 9.621731758117676, -39.99942398071289, 120.15538787841797, 66.91015625, 0.226806640625, 0.24853515625, -0.731689453125
243, 3219706510, -4.432717800140381, -4.563446998596191, 10.790223121643066, -45.99089431762695, 107.96674346923828, 68.24507904052734, 0.260986328125, 0.251220703125, -0.71435546875
244, 3219723177, -0.8593786954879761, -7.4832234382629395, 14.256840705871582, -25.17669105529785, 55.070858001708984, 52.77864456176758, 0.283935546875, 0.2509765625, -0.700927734375
245, 3219739844, 0.833340585231781, -8.303140640258789, 14.9257230758667, 12.594620704650879, -3.924345016479492, 14.831124305725098, 0.2919921875, 0.24755859375, -0.696533203125
246, 3219756511, 4.643148899078369, -4.407084941864014, 12.95065689086914, 25.96599006652832, -40.828792572021484, -20.763391494750977, 0.289794921875, 0.23974609375, -0.691650390625
247, 3219773178, 4.694480895996094, -2.48972749710083, 12.210040092468262, 7.749777793884277, -56.03886032104492, -42.19063186645508, 0.2841796875, 0.23583984375, -0.689697265625
248, 3219789845, 3.1339199542999268, -2.7693610191345215, 12.101923942565918, 0.1978701651096344, -74.55728912353516, -50.53110885620117, 0.272216796875, 0.234619140625, -0.6884765625
249, 3219806512, 1.8433356285095215, -2.5531065464019775, 11.771575927734375, 6.1792802810668945, -93.60199737548828, -51.7514762878418, 0.261962890625, 0.232177734375, -0.688720703125
250, 3219823179, 0.5253108143806458, -2.4437363147735596, 11.406400680541992, 9.609711647033691, -104.46785736083984, -50.90180969238281, 0.2509765625, 0.2294921875, -0.69287109375
251, 3219839846, -1.4805716276168823, -2.908414602279663, 11.148569107055664, 9.518547058105469, -107.9113540649414, -49.53014373779297, 0.239990234375, 0.229736328125, -0.693603515625
252, 3219856513, -3.9339115619659424, -3.5069127082824707, 11.018564224243164, 8.26923656463623, -109.86480712890625, -50.12376022338867, 0.23095703125, 0.232421875, -0.69970703125
253, 3219873180, -6.168491840362549, -4.00844144821167, 10.704509735107422, 6.167896747589111, -112.91259765625, -53.11042022705078, 0.223876953125, 0.243408203125, -0.71142578125
254, 3219889847, -8.101117134094238, -4.439398288726807, 10.21677017211914, 3.077430248260498, -117.46021270751953, -57.91107177734375, 0.210205078125, 0.2548828125, -0.72802734375
255, 3219906514, -9.31038761138916, -4.727955341339111, 9.605597496032715, 1.8981881141662598, -122.88888549804688, -62.44356918334961, 0.189453125, 0.271728515625, -0.748046875
256, 3219923181, -9.618288040161133, -4.497033596038818, 8.94259262084961, 1.5985959768295288, -126.62136840820312, -64.66868591308594, 0.158935546875, 0.28564453125, -0.764404296875
257, 3219939848, -9.61262035369873, -4.063765525817871, 8.504345893859863, -1.5760074853897095, -125.02052307128906, -63.8248176574707, 0.123291015625, 0.300537109375, -0.786865234375
258, 3219956515, -10.199624061584473, -3.3974616527557373, 8.40428352355957, -9.340043067932129, -121.57127380371094, -62.3282585144043, 0.082275390625, 0.310302734375, -0.795654296875
259, 3219973182, -10.676281929016113, -3.191441297531128, 7.659083843231201, -16.637311935424805, -120.87088012695312, -61.694305419921875, 0.041748046875, 0.3203125, -0.8046875
260, 3219989849, -11.118139266967773, -2.809511661529541, 5.812116622924805, -15.490699768066406, -114.05034637451172, -58.42980194091797, 0.001220703125, 0.3251953125, -0.806396484375
261, 3220006516, -12.581339836120605, -2.329230546951294, 3.7235238552093506, -5.128100395202637, -106.5239486694336, -53.97303771972656, -0.03466796875, 0.3251953125, -0.80810546875
262, 3220023183, -14.414895057678223, -1.4285938739776611, 1.6497197151184082, 6.015098571777344, -101.20661163330078, -49.338382720947266, -0.068115234375, 0.322021484375, -0.807861328125
263, 3220039850, -14.190003395080566, 0.6615960001945496, -2.049436569213867, 15.800602912902832, -79.88114166259766, -33.28276443481445, -0.093994140625, 0.318603515625, -0.810302734375
264, 3220056517, -12.642400741577148, 3.416623592376709, -4.731868743896484, 12.715076446533203, -27.193323135375977, -6.869809150695801, -0.1083984375, 0.3134765625, -0.80810546875
265, 3220073184, -12.225492477416992, 3.746009349822998, -4.5347580909729, -3.765326976776123, 41.49221420288086, 23.097440719604492, -0.105712890625, 0.314697265625, -0.80810546875
266, 3220089851, -13.294922828674316, 2.1980347633361816, -2.805253505706787, -14.805624008178711, 95.3135986328125, 54.415611267089844, -0.0810546875, 0.31884765625, -0.806640625
267, 3220106518, -7.562863349914551, -4.06545877456665, 10.057332038879395, -7.894625663757324, 100.85502624511719, 69.81822204589844, -0.046630859375, 0.320556640625, -0.807861328125
268, 3220123185, -4.106045246124268, -6.119057655334473, 11.388175010681152, -3.2709662914276123, 65.53245544433594, 63.975341796875, -0.028076171875, 0.3212890625, -0.806640625
269, 3220139852, -0.854110598564148, -5.222824573516846, 4.596324920654297, -16.225854873657227, 91.97026062011719, 43.17876434326172, -0.004638671875, 0.322021484375, -0.804443359375
270, 3220156519, -5.99830961227417, -5.3162055015563965, 8.22233772277832, -23.68265724182129, 118.26660919189453, 7.153642654418945, 0.02197265625, 0.330810546875, -0.801513671875
271, 3220173186, -6.738509178161621, -2.8792293071746826, 8.872974395751953, -16.983844757080078, 111.23666381835938, 0.6895309090614319, 0.049072265625, 0.33056640625, -0.799560546875
272, 3220189853, -7.595887184143066, -0.2639074921607971, 10.38865852355957, -14.823151588439941, 95.72184753417969, 25.107892990112305, 0.072998046875, 0.334228515625, -0.798095703125
273, 3220206520, -8.818229675292969, -4.226762294769287, 8.735151290893555, -21.448776245117188, 76.2340087890625, 27.885169982910156, 0.091796875, 0.33740234375, -0.789794921875
274, 3220223187, -11.158174514770508, -8.938045501708984, 8.790422439575195, 7.4560747146606445, 59.8727912902832, 21.417348861694336, 0.1123046875, 0.336181640625, -0.7861328125
275, 3220239854, -7.937023639678955, -2.5208780765533447, 7.455361366271973, 26.93990135192871, 17.43008041381836, 16.13446807861328, 0.117431640625, 0.32861328125, -0.78955078125
276, 3220256521, -4.999824047088623, -3.9872822761535645, 7.661238193511963, 29.04058074951172, 14.316691398620605, 18.629594802856445, 0.125, 0.32373046875, -0.79052734375
277, 3220273188, -7.13359260559082, -1.5318970680236816, 8.830101013183594, 24.86464500427246, 11.668295860290527, 14.186200141906738, 0.12841796875, 0.316162109375, -0.793212890625
278, 3220289855, -5.89835262298584, -2.1290247440338135, 8.122954368591309, 12.082356452941895, 2.047051429748535, 5.062155246734619, 0.132568359375, 0.31103515625, -0.793701171875
279, 3220306522, -5.565062046051025, -2.5128214359283447, 7.923980712890625, 8.903995513916016, 2.9688777923583984, 2.341264009475708, 0.132080078125, 0.30859375, -0.795166015625
280, 3220323189, -5.740374565124512, -2.740906000137329, 7.8014092445373535, 5.663832187652588, 2.49861478805542, -0.17474262416362762, 0.133544921875, 0.30810546875, -0.795654296875
281, 3220339856, -5.5428619384765625, -2.7257652282714844, 7.789177894592285, 3.679655075073242, 2.0419278144836426, -1.0744143724441528, 0.134765625, 0.3076171875, -0.796630859375
282, 3220356523, -5.3612284660339355, -2.9263455867767334, 7.575558185577393, 2.1942496299743652, 2.189101219177246, -1.1675095558166504, 0.1318359375, 0.302978515625, -0.799072265625
283, 3220373190, -5.050595760345459, -2.960468053817749, 7.484793663024902, 2.848906993865967, 3.11320424079895, 0.479745090007782, 0.13671875, 0.3076171875, -0.799072265625
284, 3220389857, -5.29604434967041, -2.7812132835388184, 7.699441432952881, 3.428548574447632, 5.269346237182617, 1.2391490936279297, 0.13720703125, 0.30517578125, -0.797119140625
285, 3220406524, -5.344942569732666, -2.6007328033447266, 7.711094379425049, 1.836808681488037, 6.088107585906982, 0.6221902370452881, 0.13818359375, 0.30322265625, -0.797607421875
286, 3220423191, -5.658528804779053, -2.5727756023406982, 7.700446128845215, -1.0165044069290161, 6.853352069854736, -0.6672366261482239, 0.14208984375, 0.30126953125, -0.798828125
287, 3220439858, -5.38525915145874, -2.7680487632751465, 7.460356712341309, -1.8254684209823608, 6.913156509399414, -1.149433970451355, 0.14208984375, 0.3017578125, -0.7958984375
288, 3220456525, -5.137477397918701, -2.885706663131714, 7.3604912757873535, -0.4427540600299835, 7.819065570831299, -0.4399750828742981, 0.142822265625, 0.3017578125, -0.794921875
289, 3220473192, -5.4191999435424805, -2.9591336250305176, 7.502203941345215, 1.137914776802063, 8.297049522399902, 0.9594070315361023, 0.146240234375, 0.30322265625, -0.794921875
290, 3220489859, -5.819000244140625, -2.6244354248046875, 7.697841644287109, -2.32358455657959, 7.608823299407959, -0.19980469346046448, 0.147705078125, 0.30126953125, -0.7958984375
291, 3220506526, -5.534367084503174, -2.75537109375, 7.463859558105469, -3.9141719341278076, 6.843733787536621, -1.0992586612701416, 0.148681640625, 0.3046875, -0.79443359375
292, 3220523193, -5.422936916351318, -2.786832332611084, 7.4163923263549805, -3.341881275177002, 7.106032848358154, -0.4413709044456482, 0.150146484375, 0.3037109375, -0.790771484375
293, 3220539860, -5.602600574493408, -2.7817366123199463, 7.5110039710998535, -3.54299259185791, 7.282760143280029, -0.4239543080329895, 0.155029296875, 0.30517578125, -0.791259765625
294, 3220556527, -5.47488260269165, -2.970445156097412, 7.404188632965088, -3.437877655029297, 7.606606960296631, -0.38876238465309143, 0.154052734375, 0.307861328125, -0.790771484375
295, 3220573194, -5.551112651824951, -2.990288019180298, 7.285137176513672, -2.3890762329101562, 7.542243480682373, 0.5384238958358765, 0.15869140625, 0.306396484375, -0.792236328125
296, 3220589861, -5.500040054321289, -2.954246997833252, 7.309438705444336, -1.1987643241882324, 7.401155471801758, 1.4881941080093384, 0.15869140625, 0.306884765625, -0.79150390625
297, 3220606528, -5.553834438323975, -2.9182803630828857, 7.3336920738220215, -0.22157549858093262, 7.278803825378418, 2.378926992416382, 0.1611328125, 0.307373046875, -0.79248046875
298, 3220623195, -5.50064754486084, -2.937370777130127, 7.224279880523682, 0.3810594379901886, 7.318477630615234, 2.8786826133728027, 0.16259765625, 0.305419921875, -0.7919921875
299, 3220639862, -5.416836261749268, -2.9349215030670166, 7.32924222946167, 1.3096994161605835, 7.8461012840271, 4.871914863586426, 0.1630859375, 0.303466796875, -0.7900390625
300, 3220656529, -5.352236747741699, -2.9187493324279785, 7.411170959472656, 1.9804964065551758, 8.512544631958008, 7.28056001663208, 0.167724609375, 0.302490234375, -0.789306640625
301, 3220673196, -5.318994998931885, -2.9488532543182373, 7.506296634674072, 2.2050819396972656, 11.352472305297852, 8.908557891845703, 0.172607421875, 0.302001953125, -0.788330078125
302, 3220689863, -5.5254364013671875, -2.6390907764434814, 7.548078536987305, -1.768405556678772, 17.66988754272461, 9.451105117797852, 0.175537109375, 0.301513671875, -0.788818359375
303, 3220706530, -5.08773946762085, -2.5653114318847656, 7.984217643737793, -10.800223350524902, 27.21306037902832, 12.72390365600586, 0.1826171875, 0.302978515625, -0.78564453125
304, 3220723197, -5.273133277893066, -2.4731898307800293, 8.176389694213867, -23.818119049072266, 39.39512634277344, 16.686283111572266, 0.19091796875, 0.30615234375, -0.781005859375
305, 3220739864, -4.932293891906738, -3.030613660812378, 8.374225616455078, -20.699840545654297, 60.79228973388672, 17.648405075073242, 0.20751953125, 0.308837890625, -0.778076171875
306, 3220756531, -5.35996150970459, -2.578611135482788, 8.237608909606934, -25.14158821105957, 88.57057189941406, 17.289560317993164, 0.224853515625, 0.31201171875, -0.768310546875
307, 3220773198, -5.18990421295166, -2.8586320877075195, 8.304107666015625, -27.716514587402344, 119.58575439453125, 21.35349464416504, 0.250732421875, 0.319091796875, -0.7568359375
308, 3220789865, -5.504205703735352, -2.52038836479187, 8.249085426330566, -31.39973258972168, 154.8352508544922, 24.214780807495117, 0.283447265625, 0.3203125, -0.742919921875
309, 3220806532, -5.618370056152344, -2.4299590587615967, 8.130718231201172, -43.74161148071289, 198.75233459472656, 24.87486457824707, 0.3251953125, 0.327392578125, -0.720703125
310, 3220823199, -5.141441822052002, -3.9012463092803955, 8.429550170898438, -53.99720001220703, 256.9211730957031, 35.45292663574219, 0.37939453125, 0.334228515625, -0.6884765625
311, 3220839866, -5.253061771392822, -5.691399097442627, 8.36999797821045, -41.211673736572266, 315.739013671875, 65.54010772705078, 0.439208984375, 0.334228515625, -0.64404296875
312, 3220856533, -8.578927040100098, -6.068356990814209, 9.330669403076172, -32.874324798583984, 379.6239929199219, 106.83702087402344, 0.51220703125, 0.32568359375, -0.5859375
313, 3220873200, -12.842978477478027, -6.0043044090271, 9.560208320617676, -22.047969818115234, 402.7020263671875, 150.60133361816406, 0.58837890625, 0.305908203125, -0.515380859375
314, 3220889867, -20.159317016601562, -7.105442047119141, 14.13684368133545, -43.509464263916016, 381.6595458984375, 154.07919311523438, 0.655517578125, 0.279296875, -0.43798828125
315, 3220906534, -21.90594482421875, -8.603983879089355, 15.561793327331543, -34.165775299072266, 306.63397216796875, 158.59254455566406, 0.706787109375, 0.25, -0.365478515625
316, 3220923201, -12.825203895568848, -7.1158905029296875, 14.85584545135498, -24.743120193481445, 216.51353454589844, 157.4813232421875, 0.738525390625, 0.21875, -0.31005859375
317, 3220939868, 2.3251242637634277, -8.739474296569824, 10.700122833251953, 5.497398853302002, 200.6739044189453, 158.18276977539062, 0.762451171875, 0.1796875, -0.258056640625
318, 3220956535, -15.124074935913086, -12.080832481384277, 23.059410095214844, -1.1241594552993774, 167.57070922851562, 93.83739471435547, 0.779541015625, 0.14794921875, -0.206298828125
319, 3220973202, -8.817002296447754, -13.451982498168945, 22.3953800201416, 14.266019821166992, -38.214439392089844, -6.628722190856934, 0.781982421875, 0.142578125, -0.20068359375
320, 3220989869, 2.320204257965088, -8.86612319946289, 14.066658020019531, 61.82735061645508, -142.53958129882812, -46.57396697998047, 0.775146484375, 0.14306640625, -0.218994140625
321, 3221006536, 4.751622200012207, -4.134115695953369, 10.301639556884766, 79.46383666992188, -162.67103576660156, -50.12668991088867, 0.771484375, 0.1455078125, -0.244140625
322, 3221023203, 2.8997888565063477, -1.5444566011428833, 9.428240776062012, 57.10487747192383, -166.0294952392578, -54.495094299316406, 0.774658203125, 0.146728515625, -0.274169921875
323, 3221039870, -0.10665285587310791, -0.9359474182128906, 9.291298866271973, 15.684054374694824, -176.85142517089844, -63.80682373046875, 0.785400390625, 0.159912109375, -0.310791015625
324, 3221056537, -2.82474946975708, -1.7305814027786255, 9.223648071289062, -15.97236156463623, -196.10968017578125, -70.50753021240234, 0.79296875, 0.177734375, -0.369873046875
325, 3221073204, -5.563826084136963, -2.79506254196167, 9.250815391540527, -24.953594207763672, -225.8358154296875, -73.6540298461914, 0.78369140625, 0.203369140625, -0.4541015625
326, 3221089871, -7.636384010314941, -3.255363941192627, 9.047074317932129, -18.901521682739258, -261.66949462890625, -77.37185668945312, 0.733642578125, 0.227294921875, -0.545654296875
327, 3221106538, -8.685776710510254, -3.0953075885772705, 8.795218467712402, -12.01827621459961, -291.3205261230469, -85.12535095214844, 0.651611328125, 0.242919921875, -0.6201171875
328, 3221123205, -9.314455032348633, -3.1166462898254395, 8.662792205810547, -9.880087852478027, -309.1193542480469, -95.81180572509766, 0.564208984375, 0.25537109375, -0.671142578125
329, 3221139872, -10.041975021362305, -3.382042407989502, 8.875529289245605, -10.653167724609375, -315.50506591796875, -105.89704895019531, 0.498046875, 0.2763671875, -0.704833984375
330, 3221156539, -10.535725593566895, -3.1932613849639893, 9.332952499389648, -18.732187271118164, -311.63818359375, -114.053466796875, 0.438720703125, 0.308837890625, -0.750244140625
331, 3221173206, -12.78332233428955, -3.0038976669311523, 10.69926929473877, -39.16215133666992, -295.5641174316406, -118.55006408691406, 0.359375, 0.344970703125, -0.805419921875
332, 3221189873, -16.406503677368164, -4.260141849517822, 11.412984848022461, -57.834129333496094, -276.4970703125, -119.28971862792969, 0.251708984375, 0.384765625, -0.83935546875
333, 3221206540, -23.3066463470459, -5.164226055145264, 12.052127838134766, -67.90370178222656, -267.7601623535156, -125.62608337402344, 0.13525390625, 0.4072265625, -0.8369140625
334, 3221223207, -28.900672912597656, -7.032125473022461, 8.07407283782959, -51.56591796875, -279.78387451171875, -138.2445526123047, 0.036865234375, 0.4140625, -0.81640625
335, 3221239874, -29.553466796875, -7.6004557609558105, 1.4545849561691284, 14.841975212097168, -290.2311706542969, -124.0555648803711, -0.05078125, 0.4072265625, -0.802001953125
336, 3221256541, -27.75262451171875, -0.3315344750881195, -3.649925708770752, 40.256439208984375, -270.1788024902344, -106.09072875976562, -0.123046875, 0.388916015625, -0.789306640625
337, 3221273208, -25.75689125061035, 5.6298112869262695, -9.213294982910156, -11.159507751464844, -212.54324340820312, -82.97727966308594, -0.1826171875, 0.378173828125, -0.77392578125
338, 3221289875, -27.97700309753418, 10.367130279541016, -14.797378540039062, -75.737548828125, -131.10830688476562, -56.64863586425781, -0.21923828125, 0.386474609375, -0.754150390625
339, 3221306542, -23.826717376708984, 9.665253639221191, -16.51873016357422, -84.7197265625, -29.82174301147461, -12.111673355102539, -0.23095703125, 0.39892578125, -0.73779296875
340, 3221323209, -22.05672264099121, 3.5238192081451416, -11.938288688659668, -29.013872146606445, 68.07486724853516, 64.3851547241211, -0.219970703125, 0.408447265625, -0.732177734375
341, 3221339876, -10.32733154296875, -4.317500591278076, 4.201412677764893, 57.874473571777344, 131.09657287597656, 125.06011962890625, -0.181396484375, 0.40185546875, -0.740478515625
342, 3221356543, -3.445688009262085, -15.62549877166748, 10.663952827453613, 64.39893341064453, 95.97815704345703, 68.07621765136719, -0.150390625, 0.392578125, -0.750244140625
343, 3221373210, 5.096149444580078, -4.156315326690674, 0.3294392228126526, 53.100772857666016, 163.4904022216797, 45.2605094909668, -0.1162109375, 0.378173828125, -0.755126953125
344, 3221389877, -10.626337051391602, 0.24728979170322418, 12.140303611755371, 30.350704193115234, 232.65443420410156, 17.983388900756836, -0.06591796875, 0.369140625, -0.759521484375
345, 3221406544, -19.650497436523438, 4.614349842071533, 17.318593978881836, 21.231216430664062, 159.98399353027344, 40.98212432861328, -0.022216796875, 0.361083984375, -0.763916015625
346, 3221423211, -11.516997337341309, -1.1206638813018799, 11.392220497131348, -1.803317666053772, 96.53706359863281, 58.6179084777832, 0.007080078125, 0.359130859375, -0.75732421875
347, 3221439878, -14.817523002624512, -11.741939544677734, 9.515342712402344, 41.56264877319336, 64.70777130126953, 41.83818435668945, 0.02978515625, 0.351806640625, -0.755859375
348, 3221456545, -5.655848026275635, 0.1658797413110733, 8.764730453491211, 30.303247451782227, 33.53533172607422, 22.510107040405273, 0.038330078125, 0.342041015625, -0.76025390625
349, 3221473212, -5.704953670501709, -4.64852237701416, 7.011597156524658, 28.391965866088867, 26.312471389770508, 20.586177825927734, 0.046875, 0.33642578125, -0.759521484375
350, 3221489879, -7.132175445556641, -2.6462855339050293, 8.287752151489258, 17.699562072753906, 14.10925579071045, 11.61330509185791, 0.049560546875, 0.33056640625, -0.761474609375
351, 3221506546, -5.500903606414795, -3.426471710205078, 7.694033622741699, 16.518831253051758, 11.701214790344238, 10.913827896118164, 0.051513671875, 0.327392578125, -0.764404296875
352, 3221523213, -5.904141426086426, -2.7106714248657227, 7.9427490234375, 11.635149955749512, 9.320079803466797, 9.095725059509277, 0.0556640625, 0.324951171875, -0.763671875
353, 3221539880, -5.829291820526123, -2.41683030128479, 8.180449485778809, 6.471622943878174, 11.43348503112793, 6.606563091278076, 0.06005859375, 0.322021484375, -0.76611328125
354, 3221556547, -5.887202262878418, -2.5319736003875732, 7.889679908752441, -0.6440189480781555, 13.250503540039062, 1.7516729831695557, 0.06298828125, 0.320556640625, -0.7646484375
355, 3221573214, -5.684833526611328, -2.85200834274292, 7.69505500793457, -5.843503475189209, 15.081493377685547, -1.4233628511428833, 0.066650390625, 0.322509765625, -0.7666015625
356, 3221589881, -5.390181064605713, -3.2443294525146484, 7.3646721839904785, -8.18892765045166, 15.236353874206543, -1.332143783569336, 0.072021484375, 0.32470703125, -0.761962890625
357, 3221606548, -5.470687389373779, -3.412048101425171, 7.066305160522461, -5.773978233337402, 14.800535202026367, 1.110817313194275, 0.072021484375, 0.326171875, -0.76025390625
358, 3221623215, -5.626420497894287, -3.2461328506469727, 7.031961441040039, -3.1182971000671387, 13.040042877197266, 2.856515884399414, 0.076904296875, 0.32763671875, -0.7587890625
359, 3221639882, -5.612947463989258, -3.0455644130706787, 7.353739261627197, -1.685162901878357, 11.489178657531738, 4.828451156616211, 0.07958984375, 0.326171875, -0.7578125
360, 3221656549, -5.587615966796875, -3.1647191047668457, 7.045129776000977, -1.831834077835083, 10.911150932312012, 4.481399059295654, 0.08056640625, 0.32666015625, -0.755615234375
361, 3221673216, -5.443338871002197, -3.4502174854278564, 6.97025203704834, 1.1403871774673462, 13.271903991699219, 6.19489049911499, 0.0869140625, 0.32763671875, -0.756103515625
362, 3221689883, -5.6121954917907715, -3.2942616939544678, 6.939357757568359, 5.239178657531738, 14.099017143249512, 9.512341499328613, 0.091552734375, 0.32568359375, -0.755859375
363, 3221706550, -5.755476951599121, -3.179424524307251, 6.959897041320801, 7.06955623626709, 11.42105770111084, 13.430299758911133, 0.093017578125, 0.3232421875, -0.760986328125
364, 3221723217, -5.749483585357666, -3.2346813678741455, 6.824520587921143, 8.599189758300781, 8.31788444519043, 17.773866653442383, 0.0986328125, 0.3193359375, -0.76171875
365, 3221739884, -5.689427852630615, -2.7567033767700195, 7.1312127113342285, 5.835921764373779, 6.5554094314575195, 21.104820251464844, 0.1015625, 0.31591796875, -0.755126953125
366, 3221756551, -5.592916011810303, -2.9003334045410156, 7.365418434143066, 0.3661534786224365, 8.166504859924316, 23.119407653808594, 0.10693359375, 0.3173828125, -0.753662109375
367, 3221773218, -5.520740032196045, -2.620067834854126, 7.792703151702881, -7.724608421325684, 16.452857971191406, 22.114959716796875, 0.110107421875, 0.31640625, -0.756103515625
368, 3221789885, -5.311542510986328, -3.085029363632202, 7.859877109527588, -10.681708335876465, 32.46077346801758, 19.911663055419922, 0.116943359375, 0.31640625, -0.751953125
369, 3221806552, -5.802415370941162, -2.031999111175537, 8.207204818725586, -9.34988784790039, 55.91229248046875, 13.714503288269043, 0.1328125, 0.320556640625, -0.74951171875
370, 3221823219, -5.463823318481445, -2.3406057357788086, 8.335275650024414, -16.253934860229492, 78.50668334960938, 9.971028327941895, 0.14501953125, 0.319091796875, -0.743408203125
371, 3221839886, -5.38142204284668, -2.82771635055542, 8.316899299621582, -22.39141845703125, 104.86729431152344, 9.806636810302734, 0.169189453125, 0.322998046875, -0.73681640625
372, 3221856553, -5.498750686645508, -3.0042402744293213, 8.358247756958008, -26.487701416015625, 133.79464721679688, 13.379530906677246, 0.195556640625, 0.3291015625, -0.728271484375
373, 3221873220, -5.788507461547852, -3.0369396209716797, 7.8357696533203125, -36.40806198120117, 166.82122802734375, 18.025318145751953, 0.228515625, 0.33251953125, -0.70703125
374, 3221889887, -5.4730987548828125, -3.6522862911224365, 8.246644973754883, -48.8497314453125, 214.8122100830078, 27.981300354003906, 0.275146484375, 0.34033203125, -0.688232421875
375, 3221906554, -5.3634538650512695, -5.466483116149902, 8.917791366577148, -44.27267074584961, 277.26995849609375, 50.6829719543457, 0.329345703125, 0.3447265625, -0.657470703125
376, 3221923221, -6.888221263885498, -5.299744606018066, 8.748467445373535, -33.060977935791016, 350.0329895019531, 89.07797241210938, 0.397216796875, 0.34033203125, -0.613525390625
377, 3221939888, -12.655759811401367, -6.915988445281982, 11.11494255065918, -37.369842529296875, 388.0243225097656, 133.792236328125, 0.476318359375, 0.328125, -0.55712890625
378, 3221956555, -20.535259246826172, -6.45258903503418, 15.638988494873047, -67.51029968261719, 372.2937316894531, 141.97560119628906, 0.55224609375, 0.311767578125, -0.485595703125
379, 3221973222, -21.058706283569336, -9.98263931274414, 15.372490882873535, -68.50029754638672, 296.2914123535156, 152.94644165039062, 0.6103515625, 0.29296875, -0.422607421875
380, 3221989889, -14.541560173034668, -8.885442733764648, 16.594518661499023, -41.44752502441406, 189.38209533691406, 171.8134765625, 0.655029296875, 0.263427734375, -0.375244140625
381, 3222006556, 2.836489677429199, -11.712708473205566, 10.624711990356445, 1.6666123867034912, 157.07078552246094, 179.1743927001953, 0.688232421875, 0.223876953125, -0.338134765625
382, 3222023223, -15.357341766357422, -15.156618118286133, 24.97917938232422, 39.2556266784668, 112.0035629272461, 114.5492172241211, 0.714111328125, 0.184326171875, -0.308349609375
383, 3222039890, -2.7152771949768066, -13.137602806091309, 22.322547912597656, 63.080841064453125, -60.71003341674805, 17.282543182373047, 0.718505859375, 0.163330078125, -0.31005859375
384, 3222056557, 5.012414455413818, -7.764488697052002, 14.896442413330078, 91.4674301147461, -123.39009857177734, -25.299734115600586, 0.710693359375, 0.149658203125, -0.3310546875
385, 3222073224, 5.900267124176025, -3.1773970127105713, 12.366541862487793, 93.86164093017578, -144.2156219482422, -37.04969024658203, 0.701904296875, 0.1435546875, -0.35888671875
386, 3222089891, 3.438311815261841, -0.6899166107177734, 11.914840698242188, 63.89112854003906, -163.28872680664062, -45.791133880615234, 0.6923828125, 0.140625, -0.392822265625
387, 3222106558, 0.8098694682121277, -0.46077415347099304, 11.16418743133545, 26.451963424682617, -193.82345581054688, -49.59352493286133, 0.678955078125, 0.145263671875, -0.436279296875
388, 3222123225, -1.4333341121673584, -1.2441635131835938, 10.430546760559082, 4.824100017547607, -225.896240234375, -44.52069854736328, 0.6533203125, 0.155517578125, -0.489013671875
389, 3222139892, -4.2122697830200195, -1.8498239517211914, 9.957886695861816, -5.956392765045166, -257.5421142578125, -40.47934341430664, 0.606689453125, 0.173828125, -0.54833984375
390, 3222156559, -6.344716548919678, -2.6118903160095215, 9.542364120483398, -15.077495574951172, -286.7271423339844, -44.45308303833008, 0.534423828125, 0.18505859375, -0.60400390625
391, 3222173226, -8.464799880981445, -3.501429319381714, 9.54239273071289, -25.625307083129883, -309.5779113769531, -55.604496002197266, 0.4453125, 0.200927734375, -0.637939453125
392, 3222189893, -10.298190116882324, -4.683496475219727, 9.496315956115723, -36.5317268371582, -329.0418701171875, -74.56265258789062, 0.35400390625, 0.198974609375, -0.6494140625
393, 3222206560, -10.807775497436523, -6.225095748901367, 8.66537857055664, -39.74983596801758, -337.46380615234375, -92.69344329833984, 0.275634765625, 0.182373046875, -0.640869140625
394, 3222223227, -11.428253173828125, -6.45688009262085, 8.456976890563965, -42.73139190673828, -315.8206481933594, -107.646240234375, 0.233154296875, 0.14306640625, -0.6142578125
395, 3222239894, -15.201821327209473, -7.5845842361450195, 10.06689453125, -61.0225830078125, -272.13421630859375, -128.7676239013672, 0.2666015625, 0.107666015625, -0.600830078125
396, 3222256561, -23.041425704956055, -7.061004161834717, 11.63576889038086, -89.23018646240234, -245.3064727783203, -170.6136016845703, 0.34814453125, 0.127197265625, -0.660400390625
397, 3222273228, -28.800674438476562, -6.8821210861206055, 8.253746032714844, -104.86821746826172, -249.53616333007812, -211.9864959716797, 0.36376953125, 0.218994140625, -0.77685546875
398, 3222289895, -30.023841857910156, -6.364767074584961, 1.9426350593566895, -55.16728973388672, -254.58729553222656, -205.42164611816406, 0.278564453125, 0.32470703125, -0.87255859375
399, 3222306562, -28.962430953979492, 0.8725929856300354, -2.9370925426483154, -12.95925235748291, -233.99461364746094, -172.13949584960938, 0.15380859375, 0.392578125, -0.912353515625
400, 3222323229, -27.149616241455078, 6.733791351318359, -8.374723434448242, -23.989845275878906, -182.68594360351562, -129.20877075195312, 0.047119140625, 0.432373046875, -0.916259765625
401, 3222339896, -30.591236114501953, 11.258241653442383, -14.578058242797852, -48.792259216308594, -118.97366333007812, -74.98444366455078, -0.024658203125, 0.4638671875, -0.90576171875
402, 3222356563, -26.47934341430664, 10.927281379699707, -19.218917846679688, -50.87421798706055, -12.02116870880127, 6.2828369140625, -0.0546875, 0.492431640625, -0.896728515625
403, 3222373230, -18.700021743774414, 6.129722595214844, -17.5955867767334, 54.21034622192383, 146.4404754638672, 120.52994537353516, -0.023681640625, 0.49755859375, -0.906005859375
404, 3222389897, -11.851366996765137, -10.193353652954102, 15.763710021972656, 79.00398254394531, 170.86537170410156, 106.28740692138672, 0.039794921875, 0.48779296875, -0.921875
405, 3222406564, -2.3135759830474854, -9.14621639251709, 8.35677719116211, 77.29815673828125, 127.95050811767578, 50.73090362548828, 0.078369140625, 0.473388671875, -0.933349609375
406, 3222423231, -4.1087799072265625, 4.38060998916626, 8.004940032958984, 36.77931594848633, 202.38909912109375, 34.044063568115234, 0.126708984375, 0.472412109375, -0.93408203125
407, 3222439898, -17.306180953979492, 3.412259340286255, 17.58542823791504, 18.857656478881836, 177.2674560546875, 43.3070182800293, 0.1845703125, 0.472900390625, -0.929931640625
408, 3222456565, -13.031737327575684, -0.44597989320755005, 10.642691612243652, 6.9802045822143555, 96.58330535888672, 77.5849609375, 0.221435546875, 0.47412109375, -0.928955078125
409, 3222473232, -14.184277534484863, -16.836135864257812, 6.917317867279053, 68.93840789794922, 54.396995544433594, 64.6489028930664, 0.251708984375, 0.456787109375, -0.933349609375
410, 3222489899, -6.592742443084717, 2.98490571975708, 10.407854080200195, 76.6842269897461, 38.34143829345703, 48.29341506958008, 0.265869140625, 0.435791015625, -0.94189453125
411, 3222506566, -8.040824890136719, -2.8260815143585205, 8.442447662353516, 50.161651611328125, 8.848596572875977, 29.299701690673828, 0.273193359375, 0.41748046875, -0.94677734375
412, 3222523233, -6.243252754211426, -1.2995333671569824, 9.370908737182617, 38.3602294921875, 6.598574161529541, 19.511981964111328, 0.27783203125, 0.407958984375, -0.95166015625
413, 3222539900, -5.938346862792969, -2.2842440605163574, 8.201090812683105, 27.054122924804688, 3.463738441467285, 12.96675968170166, 0.280029296875, 0.39794921875, -0.954833984375
414, 3222556567, -5.745726108551025, -1.8022516965866089, 8.24620246887207, 17.56403923034668, 2.0993924140930176, 7.771293640136719, 0.282470703125, 0.391845703125, -0.956298828125
415, 3222573234, -5.411564826965332, -1.7443420886993408, 8.511962890625, 7.1875457763671875, 5.783278465270996, 2.3345274925231934, 0.2841796875, 0.388427734375, -0.956298828125
416, 3222589901, -5.560576438903809, -2.464205741882324, 7.916693210601807, 0.9202492237091064, 8.361160278320312, -0.69929438829422, 0.28564453125, 0.387939453125, -0.956787109375
417, 3222606568, -5.473536968231201, -2.6624088287353516, 7.657228946685791, -0.976625382900238, 8.250897407531738, -0.5905650854110718, 0.2890625, 0.390869140625, -0.955810546875
418, 3222623235, -5.349283695220947, -2.7465343475341797, 7.616612911224365, -0.037791550159454346, 6.772774696350098, 1.5674399137496948, 0.2890625, 0.389404296875, -0.956787109375
419, 3222639902, -5.467905521392822, -2.395443916320801, 7.710430145263672, 0.9573708772659302, 5.787402153015137, 2.8851752281188965, 0.29248046875, 0.391845703125, -0.9560546875
420, 3222656569, -5.607485771179199, -2.1021857261657715, 7.791910648345947, -0.1462741494178772, 4.967142105102539, 2.0476138591766357, 0.298095703125, 0.389892578125, -0.953125
421, 3222673236, -5.5472187995910645, -2.3106017112731934, 7.620837688446045, -1.4761240482330322, 5.052778244018555, 0.5193936228752136, 0.295654296875, 0.387451171875, -0.955078125
422, 3222689903, -5.398058891296387, -2.5290000438690186, 7.592852592468262, -0.7324463725090027, 4.179473876953125, 1.0769563913345337, 0.296142578125, 0.390380859375, -0.95361328125
423, 3222706570, -5.465958118438721, -2.6138195991516113, 7.507221221923828, 1.0687731504440308, 2.6675050258636475, 2.3797590732574463, 0.301513671875, 0.3916015625, -0.954833984375
424, 3222723237, -5.519973278045654, -2.587242841720581, 7.478280544281006, 3.389066219329834, 0.7646223902702332, 3.9465391635894775, 0.300048828125, 0.387939453125, -0.953369140625
425, 3222739904, -5.551085472106934, -2.4879486560821533, 7.462750434875488, 5.042546272277832, -1.4610384702682495, 5.236319541931152, 0.301025390625, 0.387939453125, -0.95556640625
426, 3222756571, -5.3496413230896, -2.4499239921569824, 7.625126361846924, 5.161785125732422, -2.204216480255127, 6.3853044509887695, 0.302001953125, 0.385498046875, -0.953857421875
427, 3222773238, -5.297004699707031, -2.3216464519500732, 7.761655330657959, 3.902998924255371, -1.8135206699371338, 7.559328079223633, 0.3017578125, 0.38232421875, -0.957275390625
428, 3222789905, -5.275790214538574, -2.1846530437469482, 7.848055839538574, 1.6775106191635132, 2.1458261013031006, 7.4556732177734375, 0.3017578125, 0.38232421875, -0.956298828125
429, 3222806572, -5.063590049743652, -2.271270990371704, 7.952578067779541, -1.8771681785583496, 8.385428428649902, 7.058356761932373, 0.3046875, 0.383056640625, -0.955810546875
430, 3222823239, -5.063453197479248, -2.2903189659118652, 7.984978199005127, -6.385678768157959, 18.12766456604004, 7.663260459899902, 0.31005859375, 0.382080078125, -0.95361328125
431, 3222839906, -4.880182266235352, -2.357184648513794, 8.178661346435547, -14.01791763305664, 30.198640823364258, 11.239472389221191, 0.317626953125, 0.385498046875, -0.947509765625
432, 3222856573, -4.6397905349731445, -3.1415586471557617, 8.359040260314941, -19.715129852294922, 42.529762268066406, 18.283693313598633, 0.33056640625, 0.38916015625, -0.94287109375
433, 3222873240, -5.19543981552124, -1.578421711921692, 8.777814865112305, -12.629571914672852, 71.56095886230469, 15.564030647277832, 0.347900390625, 0.391357421875, -0.934326171875
434, 3222889907, -4.957925796508789, -1.9439486265182495, 8.989846229553223, -22.98380470275879, 100.37252807617188, 14.527739524841309, 0.374267578125, 0.398681640625, -0.921875
435, 3222906574, -4.712869644165039, -2.037997007369995, 9.120850563049316, -31.806900024414062, 137.00830078125, 15.969905853271484, 0.409423828125, 0.40478515625, -0.904296875
436, 3222923241, -4.771609306335449, -2.2391984462738037, 9.322941780090332, -48.71791458129883, 188.056396484375, 23.20934295654297, 0.45458984375, 0.415283203125, -0.872802734375
437, 3222939908, -4.080455780029297, -4.362287521362305, 10.582524299621582, -61.357112884521484, 257.59857177734375, 42.654056549072266, 0.515380859375, 0.4228515625, -0.830322265625
438, 3222956575, -4.1033430099487305, -5.643590927124023, 9.850020408630371, -52.63101577758789, 340.97576904296875, 81.30718231201172, 0.595703125, 0.4248046875, -0.76904296875
439, 3222973242, -9.039931297302246, -6.437257766723633, 12.544702529907227, -41.8287353515625, 415.29742431640625, 138.84115600585938, 0.69091796875, 0.41552734375, -0.681884765625
440, 3222989909, -14.808159828186035, -4.921184539794922, 13.736115455627441, -52.9156494140625, 444.96728515625, 168.4278106689453, 0.78662109375, 0.385498046875, -0.57421875
441, 3223006576, -23.193185806274414, -10.521425247192383, 15.948074340820312, -60.731468200683594, 365.2704772949219, 162.44979858398438, 0.86181640625, 0.356689453125, -0.46875
442, 3223023243, -17.059839248657227, -7.241182327270508, 14.921351432800293, -36.23423767089844, 264.7848205566406, 177.1996307373047, 0.90234375, 0.31103515625, -0.390625
443, 3223039910, -5.858999252319336, -13.601234436035156, 15.060640335083008, -5.910372257232666, 212.0421142578125, 167.47532653808594, 0.927978515625, 0.264892578125, -0.32958984375
444, 3223056577, -10.926987648010254, -18.505062103271484, 22.938974380493164, 43.82905960083008, 113.64002227783203, 76.21416473388672, 0.939697265625, 0.232666015625, -0.2939453125
445, 3223073244, 0.17217868566513062, -11.928685188293457, 18.760032653808594, 85.5226058959961, -16.742918014526367, -1.5123294591903687, 0.926025390625, 0.2265625, -0.305419921875
446, 3223089911, 4.423552989959717, -5.677370071411133, 13.848692893981934, 89.15643310546875, -63.92280578613281, -34.316864013671875, 0.906005859375, 0.2333984375, -0.326904296875
447, 3223106578, 4.579570293426514, -1.9195897579193115, 11.673134803771973, 56.446266174316406, -93.8462142944336, -49.76941680908203, 0.88525390625, 0.243896484375, -0.35888671875
448, 3223123245, 2.8924336433410645, -0.9946665167808533, 10.372864723205566, 11.751020431518555, -121.85198211669922, -58.852073669433594, 0.862548828125, 0.264404296875, -0.395751953125
449, 3223139912, 0.9084377884864807, -1.3764549493789673, 9.256111145019531, -15.847360610961914, -150.63034057617188, -60.786949157714844, 0.831298828125, 0.289306640625, -0.441650390625
450, 3223156579, -1.4291019439697266, -1.781778335571289, 8.600679397583008, -23.27358627319336, -176.2680206298828, -58.58182907104492, 0.79443359375, 0.31494140625, -0.48779296875
451, 3223173246, -3.61691951751709, -2.025451898574829, 8.008516311645508, -20.515153884887695, -200.01783752441406, -58.95417785644531, 0.747802734375, 0.339111328125, -0.544677734375
452, 3223189913, -5.196761608123779, -2.2302534580230713, 7.608914375305176, -15.687759399414062, -220.3325958251953, -64.49089813232422, 0.683349609375, 0.35693359375, -0.5947265625
453, 3223206580, -6.566290855407715, -2.523078203201294, 7.782625198364258, -12.4965181350708, -235.96817016601562, -73.1224136352539, 0.6103515625, 0.365478515625, -0.644287109375
454, 3223223247, -8.613177299499512, -2.85919189453125, 8.86011791229248, -15.808448791503906, -252.4622344970703, -84.83612060546875, 0.529541015625, 0.371826171875, -0.684814453125
455, 3223239914, -10.240025520324707, -3.1677143573760986, 9.090904235839844, -24.93796157836914, -274.5142822265625, -99.31786346435547, 0.441162109375, 0.37353515625, -0.712646484375
456, 3223256581, -10.057812690734863, -3.0376830101013184, 8.429407119750977, -34.510589599609375, -285.3506164550781, -106.42510986328125, 0.3505859375, 0.373291015625, -0.7275390625
457, 3223273248, -11.461721420288086, -2.562141180038452, 9.334471702575684, -52.40529251098633, -274.02508544921875, -106.19981384277344, 0.270751953125, 0.366943359375, -0.72412109375
458, 3223289915, -14.430712699890137, -3.2336621284484863, 10.415130615234375, -82.23054504394531, -255.9980010986328, -106.8937759399414, 0.20751953125, 0.362060546875, -0.712646484375
459, 3223306582, -19.728178024291992, -6.008265495300293, 11.45942211151123, -101.53350830078125, -249.71983337402344, -112.26935577392578, 0.15966796875, 0.365966796875, -0.701171875
460, 3223323249, -24.568336486816406, -7.024008750915527, 9.799524307250977, -91.13907623291016, -260.379150390625, -129.2549591064453, 0.114013671875, 0.375244140625, -0.696044921875
461, 3223339916, -26.92145347595215, -6.693029403686523, 4.826137065887451, -53.53255844116211, -275.7799072265625, -134.42222595214844, 0.06494140625, 0.38623046875, -0.697265625
462, 3223356583, -25.504865646362305, -2.393643379211426, -1.1953725814819336, -10.851542472839355, -270.4669494628906, -117.82330322265625, 0.015625, 0.387939453125, -0.706298828125
463, 3223373250, -21.782115936279297, 3.1562931537628174, -5.485264301300049, -14.532776832580566, -219.49391174316406, -94.57100677490234, -0.03271484375, 0.389404296875, -0.7197265625
464, 3223389917, -21.402183532714844, 6.319533348083496, -8.438484191894531, -46.32764434814453, -145.4016571044922, -68.52462005615234, -0.07177734375, 0.396728515625, -0.7236328125
465, 3223406584, -22.631500244140625, 7.440560340881348, -10.205613136291504, -65.55794525146484, -78.33628845214844, -37.8293571472168, -0.096923828125, 0.412109375, -0.723876953125
466, 3223423251, -20.537425994873047, 6.64244270324707, -9.138935089111328, -60.62702560424805, -17.60283660888672, 11.435998916625977, -0.10302734375, 0.425048828125, -0.722412109375
467, 3223439918, -19.203664779663086, 4.594598770141602, -5.5507917404174805, -52.868465423583984, 27.89108657836914, 56.92963790893555, -0.0927734375, 0.435302734375, -0.71875
468, 3223456585, -14.109588623046875, -8.213912010192871, -3.345318555831909, 19.743759155273438, 88.11791229248047, 69.63475036621094, -0.072509765625, 0.43994140625, -0.720458984375
469, 3223473252, -5.15465784072876, -4.405867099761963, 11.05702018737793, 139.1002960205078, 130.56297302246094, 72.34601593017578, -0.032470703125, 0.40966796875, -0.742431640625
470, 3223489919, 3.9107506275177, -8.084626197814941, 4.4836201667785645, 111.26661682128906, 129.86849975585938, 31.7152156829834, -0.001220703125, 0.384765625, -0.76025390625
471, 3223506586, -1.7842447757720947, 5.796507835388184, 9.000855445861816, 96.87010192871094, 199.70838928222656, 67.19430541992188, 0.049560546875, 0.360595703125, -0.771240234375
472, 3223523253, -18.719196319580078, 5.300493240356445, 17.477827072143555, 58.146568298339844, 196.90245056152344, 62.75536346435547, 0.108642578125, 0.343017578125, -0.77734375
473, 3223539920, -15.648709297180176, 0.18614715337753296, 14.551063537597656, 30.685239791870117, 128.3040771484375, 80.72837829589844, 0.147216796875, 0.332763671875, -0.780029296875
474, 3223556587, -17.113075256347656, -8.472638130187988, 7.927645206451416, 83.72610473632812, 49.54258728027344, 60.05321502685547, 0.1708984375, 0.31005859375, -0.785400390625
475, 3223573254, -7.456104755401611, 0.5526888370513916, 11.411016464233398, 55.028907775878906, 26.96906280517578, 36.252689361572266, 0.185791015625, 0.2939453125, -0.79345703125
476, 3223589921, -7.0576395988464355, -3.6634092330932617, 7.773443222045898, 46.90882873535156, 10.602453231811523, 24.621376037597656, 0.1884765625, 0.282470703125, -0.79443359375
477, 3223606588, -6.460257530212402, -2.165837526321411, 8.545448303222656, 30.460126876831055, 1.9202497005462646, 15.6751070022583, 0.19091796875, 0.27294921875, -0.79736328125
478, 3223623255, -6.037684917449951, -2.1790943145751953, 8.424120903015137, 19.79481315612793, 1.9211283922195435, 10.30434513092041, 0.192138671875, 0.268798828125, -0.8017578125
479, 3223639922, -5.802705764770508, -1.8389238119125366, 8.390613555908203, 10.211563110351562, 3.8076820373535156, 5.8278584480285645, 0.197265625, 0.264404296875, -0.801513671875
480, 3223656589, -5.649861812591553, -2.318574905395508, 8.073959350585938, 1.8688627481460571, 6.764167308807373, 1.7280570268630981, 0.197265625, 0.261474609375, -0.801025390625
481, 3223673256, -5.438022613525391, -2.7675015926361084, 7.670529365539551, -0.7946726679801941, 9.478616714477539, 1.5342587232589722, 0.2001953125, 0.262451171875, -0.802978515625
482, 3223689923, -5.482398509979248, -2.672144889831543, 7.568897724151611, -0.0908994972705841, 9.657981872558594, 2.475013256072998, 0.201171875, 0.263916015625, -0.799072265625
483, 3223706590, -5.53704833984375, -2.4509923458099365, 7.607285499572754, -0.10409004241228104, 8.644218444824219, 2.8687961101531982, 0.2060546875, 0.263916015625, -0.7998046875
484, 3223723257, -5.628335475921631, -2.4543590545654297, 7.482389450073242, 0.8621177077293396, 7.249924659729004, 2.4949100017547607, 0.208251953125, 0.263427734375, -0.80029296875
485, 3223739924, -5.577627658843994, -2.4989025592803955, 7.409363269805908, 2.5861849784851074, 4.976823329925537, 2.8766331672668457, 0.209228515625, 0.261474609375, -0.7998046875
486, 3223756591, -5.677066326141357, -2.521087408065796, 7.389365196228027, 4.890969753265381, 2.649845600128174, 3.8273510932922363, 0.211181640625, 0.259521484375, -0.7978515625
487, 3223773258, -5.77509880065918, -2.4259934425354004, 7.483787536621094, 5.931768417358398, -0.35413408279418945, 3.7992031574249268, 0.211669921875, 0.257080078125, -0.8017578125
488, 3223789925, -5.669853687286377, -2.447378158569336, 7.480709552764893, 5.9675612449646, -2.2319164276123047, 3.462344169616699, 0.211669921875, 0.257080078125, -0.7998046875
489, 3223806592, -5.517505645751953, -2.5494377613067627, 7.507643699645996, 6.477407932281494, -4.012856960296631, 4.378894805908203, 0.209228515625, 0.256103515625, -0.7998046875
490, 3223823259, -5.398441314697266, -2.578695774078369, 7.5618062019348145, 6.997322082519531, -4.611312389373779, 6.202226638793945, 0.211181640625, 0.251953125, -0.80126953125
491, 3223839926, -5.343928337097168, -2.454615592956543, 7.649660587310791, 6.54711389541626, -3.4179134368896484, 8.359610557556152, 0.2109375, 0.24951171875, -0.8037109375
492, 3223856593, -5.271796703338623, -2.4238955974578857, 7.632763385772705, 3.5304362773895264, -0.8049689531326294, 9.586009979248047, 0.21044921875, 0.2470703125, -0.8046875
493, 3223873260, -5.212562084197998, -2.3964943885803223, 7.803643703460693, 1.5602047443389893, 3.221163511276245, 11.50938606262207, 0.2109375, 0.24755859375, -0.802734375
494, 3223889927, -5.221748352050781, -2.3046796321868896, 7.895654201507568, -0.7859007716178894, 9.437999725341797, 12.20367431640625, 0.21435546875, 0.24658203125, -0.8037109375
495, 3223906594, -5.125759124755859, -2.3961496353149414, 8.101151466369629, -7.504244327545166, 17.92796516418457, 16.716047286987305, 0.221435546875, 0.24560546875, -0.802001953125
496, 3223923261, -4.861164569854736, -2.7424402236938477, 8.437775611877441, -8.43616008758545, 30.196474075317383, 20.24675178527832, 0.227294921875, 0.24755859375, -0.7998046875
497, 3223939928, -5.232985496520996, -1.427697777748108, 8.624180793762207, -6.314565658569336, 56.31215286254883, 12.308259010314941, 0.24072265625, 0.249755859375, -0.800048828125
498, 3223956595, -4.927213191986084, -1.7840524911880493, 8.858531951904297, -11.92294979095459, 83.33708190917969, 10.048327445983887, 0.257568359375, 0.250244140625, -0.791748046875
499, 3223973262, -5.081730842590332, -1.5239571332931519, 8.93176555633545, -20.340993881225586, 116.94351196289062, 7.5597028732299805, 0.280517578125, 0.254638671875, -0.78076171875
500, 3223989929, -5.039795398712158, -2.4350481033325195, 8.875228881835938, -30.743921279907227, 156.750732421875, 11.125964164733887, 0.3125, 0.25634765625, -0.76611328125
501, 3224006596, -4.894564628601074, -3.292181968688965, 9.349529266357422, -39.23555374145508, 202.76756286621094, 26.288494110107422, 0.354736328125, 0.2666015625, -0.74560546875
502, 3224023263, -4.374975204467773, -4.120870113372803, 9.740997314453125, -38.064151763916016, 266.99462890625, 47.597801208496094, 0.406494140625, 0.2685546875, -0.713134765625
503, 3224039930, -4.847774028778076, -6.0657243728637695, 9.834988594055176, -32.97479248046875, 348.66961669921875, 92.63993835449219, 0.473876953125, 0.26611328125, -0.66796875
504, 3224056597, -7.773521900177002, -5.086440086364746, 11.467215538024902, -19.81896209716797, 406.5154724121094, 152.00633239746094, 0.555908203125, 0.24755859375, -0.60498046875
505, 3224073264, -18.44955062866211, -6.141368389129639, 15.028937339782715, -37.45756912231445, 429.3377380371094, 172.71238708496094, 0.634521484375, 0.221923828125, -0.528076171875
506, 3224089931, -21.711090087890625, -7.608353137969971, 16.278406143188477, -52.13524627685547, 362.30731201171875, 153.95089721679688, 0.694091796875, 0.197021484375, -0.44873046875
507, 3224106598, -15.70861530303955, -8.168767929077148, 14.5484037399292, -23.353919982910156, 272.1739501953125, 165.65530395507812, 0.72900390625, 0.16650390625, -0.38818359375
508, 3224123265, -3.582449197769165, -12.307788848876953, 14.278929710388184, 24.999319076538086, 236.21786499023438, 169.09878540039062, 0.75341796875, 0.1240234375, -0.335205078125
509, 3224139932, -12.851463317871094, -17.9574031829834, 23.28008270263672, 49.83402633666992, 147.9635009765625, 70.0294418334961, 0.763916015625, 0.09765625, -0.294189453125
510, 3224156599, -2.9906675815582275, -13.539581298828125, 20.59847640991211, 80.17782592773438, -12.531497955322266, -30.333168029785156, 0.75390625, 0.091064453125, -0.290771484375
511, 3224173266, 4.117674827575684, -7.780882835388184, 14.110578536987305, 98.51104736328125, -78.4227523803711, -70.66014862060547, 0.737548828125, 0.092041015625, -0.300048828125
512, 3224189933, 5.201971530914307, -3.4575753211975098, 11.31906795501709, 89.31163024902344, -103.45864868164062, -80.77446746826172, 0.718017578125, 0.09130859375, -0.31298828125
513, 3224206600, 3.0558218955993652, -1.3605417013168335, 10.494016647338867, 55.54201126098633, -124.5892105102539, -86.47267150878906, 0.703125, 0.096435546875, -0.326904296875
514, 3224223267, 0.40083402395248413, -1.1299153566360474, 9.951266288757324, 20.528778076171875, -152.10531616210938, -88.35456848144531, 0.689453125, 0.103271484375, -0.34130859375
515, 3224239934, -2.0668282508850098, -1.593408465385437, 9.409771919250488, 1.185315728187561, -184.33143615722656, -83.86959075927734, 0.680908203125, 0.11572265625, -0.357666015625
516, 3224256601, -4.34233283996582, -1.8858301639556885, 8.987701416015625, -5.290923118591309, -218.9026336669922, -76.93855285644531, 0.68017578125, 0.126953125, -0.389892578125
517, 3224273268, -6.282898902893066, -1.953798532485962, 8.725786209106445, -9.257620811462402, -250.84661865234375, -71.92169189453125, 0.681396484375, 0.148193359375, -0.444091796875
518, 3224289935, -8.23354434967041, -1.9212566614151, 8.655765533447266, -19.223474502563477, -278.3690490722656, -71.95411682128906, 0.6708984375, 0.1845703125, -0.530517578125
519, 3224306602, -9.539135932922363, -2.3683149814605713, 8.598822593688965, -34.23375701904297, -300.1452331542969, -75.96327209472656, 0.6142578125, 0.234130859375, -0.6279296875
520, 3224323269, -10.108853340148926, -3.052264451980591, 7.880540370941162, -46.74908447265625, -312.7315979003906, -78.46977233886719, 0.506591796875, 0.276123046875, -0.699462890625
521, 3224339936, -10.338691711425781, -2.298888921737671, 8.461891174316406, -63.78689956665039, -302.44073486328125, -78.24844360351562, 0.386962890625, 0.30517578125, -0.716796875
522, 3224356603, -13.06696891784668, -2.1591458320617676, 9.604494094848633, -93.38036346435547, -281.7041015625, -76.09937286376953, 0.306396484375, 0.31591796875, -0.698486328125
523, 3224373270, -18.223249435424805, -3.7529783248901367, 10.952338218688965, -129.06520080566406, -265.72308349609375, -74.1553955078125, 0.269775390625, 0.329833984375, -0.68310546875
524, 3224389937, -24.014789581298828, -8.181705474853516, 9.564163208007812, -133.18466186523438, -273.5691223144531, -86.9638442993164, 0.24267578125, 0.353759765625, -0.697998046875
525, 3224406604, -27.154008865356445, -9.169050216674805, 5.061905860900879, -81.89142608642578, -279.7610168457031, -109.27908325195312, 0.19580078125, 0.37744140625, -0.732666015625
526, 3224423271, -29.19287109375, -5.440812587738037, 0.2639773488044739, -34.30546951293945, -275.7890319824219, -128.82594299316406, 0.1318359375, 0.392578125, -0.770751953125
527, 3224439938, -26.805381774902344, 1.2237322330474854, -4.989582538604736, -28.595428466796875, -239.46044921875, -141.03514099121094, 0.058349609375, 0.402099609375, -0.792236328125
528, 3224456605, -24.864229202270508, 5.447591781616211, -10.59438705444336, -39.46268844604492, -163.8712921142578, -136.15687561035156, -0.010498046875, 0.41357421875, -0.808837890625
529, 3224473272, -27.547653198242188, 8.213088989257812, -15.04723072052002, -21.650508880615234, -78.81046295166016, -112.4919204711914, -0.0546875, 0.4248046875, -0.812744140625
530, 3224489939, -23.617036819458008, 8.485881805419922, -16.67325782775879, 27.108858108520508, 33.07862854003906, -51.01336669921875, -0.069091796875, 0.41796875, -0.822998046875
531, 3224506606, -18.174861907958984, 7.971895694732666, -14.864065170288086, 95.28962707519531, 170.55397033691406, 45.77552032470703, -0.036376953125, 0.3994140625, -0.83740234375
532, 3224523273, -9.975513458251953, -6.582518100738525, 11.952856063842773, 118.21859741210938, 202.6802978515625, 56.218650817871094, 0.02294921875, 0.372314453125, -0.8564453125
533, 3224539940, -4.55134391784668, -6.582714080810547, 12.414568901062012, 119.01968383789062, 137.4387664794922, 34.682350158691406, 0.06640625, 0.342529296875, -0.869384765625
534, 3224556607, -2.3377065658569336, 10.07020378112793, 8.691266059875488, 70.29214477539062, 180.78355407714844, 42.41352844238281, 0.109130859375, 0.322265625, -0.8759765625
535, 3224573274, -16.139408111572266, 6.333920478820801, 17.841060638427734, 27.163055419921875, 181.18223571777344, 62.136268615722656, 0.16845703125, 0.31005859375, -0.873779296875
536, 3224589941, -25.605939865112305, -10.465981483459473, 13.15494155883789, 53.908775329589844, 73.05845642089844, 81.24665832519531, 0.20263671875, 0.29345703125, -0.87890625
537, 3224606608, -5.642782211303711, -2.568538188934326, 6.842443943023682, 75.15218353271484, 30.576820373535156, 43.33538055419922, 0.212158203125, 0.272705078125, -0.881591796875
538, 3224623275, -7.613478183746338, -1.8400764465332031, 9.151630401611328, 55.71307373046875, 8.821598052978516, 32.5595703125, 0.2216796875, 0.2568359375, -0.889404296875
539, 3224639942, -7.07871150970459, -0.9264600276947021, 9.599798202514648, 36.20355224609375, 0.8463954925537109, 16.48651695251465, 0.224609375, 0.24169921875, -0.8916015625
540, 3224656609, -5.802323341369629, -2.8987038135528564, 8.066583633422852, 24.99887466430664, -0.7997331023216248, 12.60200023651123, 0.2236328125, 0.233642578125, -0.892578125
541, 3224673276, -5.587793827056885, -2.415579080581665, 7.976365566253662, 20.254796981811523, -2.1391897201538086, 10.786482810974121, 0.22509765625, 0.228271484375, -0.896484375
542, 3224689943, -5.500572204589844, -2.3913440704345703, 7.958836555480957, 15.734879493713379, -1.56381094455719, 9.09183406829834, 0.225830078125, 0.2236328125, -0.8955078125
543, 3224706610, -5.5862579345703125, -2.0005042552948, 8.071733474731445, 10.819561958312988, -1.6097339391708374, 7.936158180236816, 0.228759765625, 0.216552734375, -0.89599609375
544, 3224723277, -5.5297346115112305, -2.1025309562683105, 7.97373104095459, 6.261147975921631, 1.0019497871398926, 5.91339111328125, 0.227783203125, 0.217529296875, -0.8984375
545, 3224739944, -5.557096004486084, -2.057060956954956, 7.869565486907959, 1.8850117921829224, 3.7835018634796143, 2.9602713584899902, 0.228271484375, 0.217041015625, -0.900390625
546, 3224756611, -5.418112754821777, -2.382628917694092, 7.6776227951049805, -0.004341353662312031, 5.112968444824219, 1.3981655836105347, 0.229736328125, 0.217041015625, -0.89990234375
547, 3224773278, -5.4861321449279785, -2.4301650524139404, 7.626286029815674, 0.5749987363815308, 3.8568055629730225, 1.8323391675949097, 0.2294921875, 0.214599609375, -0.89892578125
548, 3224789945, -5.5839080810546875, -2.2432098388671875, 7.683446407318115, 0.5219805240631104, 2.2703676223754883, 2.122133731842041, 0.23095703125, 0.215087890625, -0.89892578125
549, 3224806612, -5.557985305786133, -2.263331651687622, 7.670976161956787, -0.015495683066546917, 1.868286371231079, 1.5413787364959717, 0.23193359375, 0.213134765625, -0.89990234375
550, 3224823279, -5.3863677978515625, -2.5095791816711426, 7.5410542488098145, 1.336297869682312, 1.4807021617889404, 2.1219418048858643, 0.232421875, 0.215576171875, -0.900390625
551, 3224839946, -5.351090431213379, -2.5482211112976074, 7.652173042297363, 2.7829935550689697, 1.0217840671539307, 3.7826406955718994, 0.23291015625, 0.213134765625, -0.89892578125
552, 3224856613, -5.441007137298584, -2.3504533767700195, 7.726234436035156, 2.570983648300171, 1.032902717590332, 4.555251121520996, 0.232421875, 0.211669921875, -0.8994140625
553, 3224873280, -5.390273571014404, -2.3593177795410156, 7.674704074859619, 1.8744847774505615, 1.98992121219635, 5.142101764678955, 0.23193359375, 0.211669921875, -0.89990234375
554, 3224889947, -5.299762725830078, -2.644800901412964, 7.6757707595825195, 1.9224066734313965, 3.0800371170043945, 8.20101547241211, 0.237060546875, 0.209228515625, -0.897216796875
555, 3224906614, -5.404928684234619, -2.3658931255340576, 7.714352607727051, -0.29161351919174194, 4.3609161376953125, 11.803956985473633, 0.236572265625, 0.20654296875, -0.897705078125
556, 3224923281, -5.388914108276367, -2.165013551712036, 7.753381729125977, -3.0861151218414307, 7.6019134521484375, 12.980982780456543, 0.241943359375, 0.207763671875, -0.901611328125
557, 3224939948, -5.237119197845459, -2.2279999256134033, 7.854221820831299, -6.994645118713379, 11.889923095703125, 14.85260009765625, 0.241943359375, 0.209228515625, -0.900146484375
558, 3224956615, -5.163122653961182, -2.1776769161224365, 8.162250518798828, -10.359570503234863, 20.013607025146484, 16.149394989013672, 0.2490234375, 0.209716796875, -0.896484375
559, 3224973282, -4.822072982788086, -2.0131516456604004, 8.586871147155762, -8.552733421325684, 37.36541748046875, 13.578312873840332, 0.25830078125, 0.21044921875, -0.890869140625
560, 3224989949, -4.943587303161621, -1.8351411819458008, 8.66175651550293, -10.443180084228516, 62.819496154785156, 8.065268516540527, 0.271728515625, 0.21142578125, -0.89013671875
561, 3225006616, -4.847445964813232, -1.7981685400009155, 8.782685279846191, -15.691381454467773, 92.6493911743164, 5.55980110168457, 0.295654296875, 0.216064453125, -0.881103515625
562, 3225023283, -4.887421607971191, -2.0805881023406982, 8.825867652893066, -21.940950393676758, 127.88587951660156, 6.020833969116211, 0.323974609375, 0.218994140625, -0.868896484375
563, 3225039950, -4.781473159790039, -3.123777151107788, 9.2381591796875, -26.8316650390625, 170.67404174804688, 16.439022064208984, 0.36328125, 0.223876953125, -0.8505859375
564, 3225056617, -4.631093502044678, -3.173830032348633, 9.622118949890137, -29.007522583007812, 224.56204223632812, 35.19401550292969, 0.41357421875, 0.230224609375, -0.823486328125
565, 3225073284, -4.595230579376221, -4.645884037017822, 10.457748413085938, -38.00143814086914, 302.08038330078125, 65.72289276123047, 0.4755859375, 0.22607421875, -0.78515625
566, 3225089951, -6.467848300933838, -5.972898483276367, 11.988200187683105, -34.20792770385742, 381.7596740722656, 120.23970031738281, 0.558837890625, 0.21923828125, -0.728271484375
567, 3225106618, -8.583036422729492, -5.034769535064697, 12.087160110473633, -38.50140380859375, 433.8277282714844, 167.98191833496094, 0.6494140625, 0.1982421875, -0.6533203125
568, 3225123285, -19.2032470703125, -6.651177883148193, 14.666873931884766, -60.52882385253906, 431.64898681640625, 168.5304412841797, 0.7294921875, 0.171630859375, -0.562255859375
569, 3225139952, -22.8061580657959, -5.2486748695373535, 17.884777069091797, -79.0070571899414, 346.67083740234375, 149.5475311279297, 0.7861328125, 0.149169921875, -0.47607421875
570, 3225156619, -12.798257827758789, -6.548349380493164, 14.683727264404297, -63.993492126464844, 257.1187438964844, 149.18557739257812, 0.818359375, 0.124267578125, -0.41162109375
571, 3225173286, -3.5071704387664795, -8.746702194213867, 15.063512802124023, -45.52513122558594, 220.0221405029297, 148.0639190673828, 0.837890625, 0.092041015625, -0.359375
572, 3225189953, -12.542759895324707, -13.798460960388184, 25.000019073486328, -50.587432861328125, 73.34732818603516, 78.73055267333984, 0.842529296875, 0.074462890625, -0.33349609375
573, 3225206620, -0.8699175119400024, -12.9016752243042, 17.173431396484375, -3.002817153930664, -65.24809265136719, 17.576274871826172, 0.826171875, 0.072265625, -0.349365234375
574, 3225223287, 3.988292694091797, -7.998767375946045, 11.259313583374023, 42.491451263427734, -113.5053482055664, -13.887458801269531, 0.800048828125, 0.0751953125, -0.379638671875
575, 3225239954, 4.0239577293396, -4.1046648025512695, 9.08629035949707, 43.840877532958984, -129.06544494628906, -40.70765686035156, 0.767822265625, 0.076904296875, -0.411865234375
576, 3225256621, 2.15041446685791, -2.664454698562622, 8.306001663208008, 18.210838317871094, -141.35975646972656, -67.75257110595703, 0.737060546875, 0.0888671875, -0.443115234375
577, 3225273288, 0.0791768878698349, -2.8543496131896973, 7.820890426635742, 0.4505729079246521, -158.92971801757812, -86.39842987060547, 0.698974609375, 0.104736328125, -0.47021484375
578, 3225289955, -2.2785255908966064, -3.0976204872131348, 7.750319480895996, 0.8148279786109924, -180.66795349121094, -95.72191619873047, 0.656005859375, 0.118408203125, -0.49609375
579, 3225306622, -4.8585357666015625, -3.0326321125030518, 8.006658554077148, 9.173131942749023, -207.9119873046875, -101.02325439453125, 0.61083984375, 0.129150390625, -0.516845703125
580, 3225323289, -6.806560516357422, -2.904296398162842, 7.965792655944824, 15.334491729736328, -236.81765747070312, -106.8072738647461, 0.574951171875, 0.12939453125, -0.5361328125
581, 3225339956, -8.045842170715332, -2.9357688426971436, 7.941409587860107, 16.98122787475586, -260.20794677734375, -112.60841369628906, 0.550537109375, 0.129638671875, -0.563720703125
582, 3225356623, -9.840691566467285, -3.0504674911499023, 8.531773567199707, 11.593015670776367, -277.59417724609375, -119.20626831054688, 0.5361328125, 0.1357421875, -0.613037109375
583, 3225373290, -11.45137882232666, -3.5170719623565674, 8.845763206481934, -0.532208263874054, -295.31231689453125, -127.32583618164062, 0.508056640625, 0.1533203125, -0.677490234375
584, 3225389957, -11.056376457214355, -3.4433321952819824, 8.256142616271973, -13.434586524963379, -300.1750183105469, -130.68653869628906, 0.452392578125, 0.177001953125, -0.744140625
585, 3225406624, -12.263946533203125, -2.6128532886505127, 9.041638374328613, -35.820655822753906, -277.6959228515625, -126.42371368408203, 0.384033203125, 0.2041015625, -0.802001953125
586, 3225423291, -16.26986312866211, -3.6427743434906006, 10.332797050476074, -70.31607818603516, -248.73855590820312, -119.82649230957031, 0.310791015625, 0.241455078125, -0.8427734375
587, 3225439958, -23.334505081176758, -6.556612968444824, 11.094048500061035, -89.01873779296875, -245.9540557861328, -127.32789611816406, 0.230224609375, 0.284912109375, -0.871337890625
588, 3225456625, -27.307401657104492, -8.79750919342041, 7.250632286071777, -59.26699447631836, -267.6853332519531, -144.82565307617188, 0.132080078125, 0.322509765625, -0.879150390625
589, 3225473292, -27.01828956604004, -6.209792613983154, 1.6749563217163086, 2.734367609024048, -281.9244079589844, -142.11825561523438, 0.033447265625, 0.337158203125, -0.875244140625
590, 3225489959, -24.631912231445312, 1.9127095937728882, -3.0490260124206543, 9.308676719665527, -257.2243957519531, -127.5628433227539, -0.0537109375, 0.334716796875, -0.86328125
591, 3225506626, -24.185457229614258, 7.914660453796387, -8.147090911865234, -41.99143981933594, -192.3746337890625, -106.9522705078125, -0.1181640625, 0.341796875, -0.843505859375
592, 3225523293, -28.701316833496094, 12.50895881652832, -15.565826416015625, -86.0993881225586, -120.0273666381836, -73.11978912353516, -0.158935546875, 0.35693359375, -0.822998046875
593, 3225539960, -20.77035140991211, 8.524863243103027, -18.538555145263672, -59.71702194213867, 6.649787425994873, 22.411340713500977, -0.16650390625, 0.375, -0.810791015625
594, 3225556627, -16.382211685180664, 3.692157030105591, -13.630620956420898, 72.60771942138672, 149.79888916015625, 149.93601989746094, -0.12451171875, 0.369873046875, -0.81494140625
595, 3225573294, -12.659260749816895, -9.542474746704102, 13.55944538116455, 103.5118637084961, 165.3765106201172, 129.6713409423828, -0.0673828125, 0.351318359375, -0.823974609375
596, 3225589961, -5.382070064544678, -11.124570846557617, 8.88696575164795, 99.5479965209961, 124.7884750366211, 53.33005142211914, -0.029296875, 0.328369140625, -0.830078125
597, 3225606628, -3.7107722759246826, 2.5868163108825684, 7.3860578536987305, 67.68032836914062, 181.29058837890625, 21.968910217285156, 0.010986328125, 0.312744140625, -0.828369140625
598, 3225623295, -13.550274848937988, 5.888632774353027, 16.744924545288086, 41.54224395751953, 180.3788299560547, 26.577394485473633, 0.059326171875, 0.303466796875, -0.82568359375
599, 3225639962, -12.710955619812012, 5.6752028465271, 12.765961647033691, 11.728713989257812, 113.58448028564453, 67.77796936035156, 0.095458984375, 0.298828125, -0.822509765625
600, 3225656629, -17.69709587097168, -16.86166000366211, 7.435585021972656, 69.61257934570312, 38.8029670715332, 60.17536926269531, 0.119140625, 0.282958984375, -0.822265625
601, 3225673296, -6.62289571762085, 0.5631458163261414, 10.180668830871582, 77.7722396850586, 23.684572219848633, 45.13642501831055, 0.12548828125, 0.26123046875, -0.823974609375
602, 3225689963, -7.806342124938965, -1.0670418739318848, 8.860939025878906, 51.11996841430664, -10.049881935119629, 28.92544174194336, 0.127197265625, 0.247802734375, -0.827880859375
603, 3225706630, -5.6190505027771, -2.2227401733398438, 8.721776008605957, 35.667789459228516, -11.76257610321045, 17.9350528717041, 0.125244140625, 0.23876953125, -0.827392578125
604, 3225723297, -5.73445463180542, -2.390021800994873, 8.153618812561035, 31.1113338470459, -11.438173294067383, 16.61305809020996, 0.125, 0.230224609375, -0.83447265625
605, 3225739964, -5.568706512451172, -1.6220461130142212, 8.511024475097656, 20.671192169189453, -7.450328826904297, 11.711786270141602, 0.123046875, 0.2236328125, -0.83349609375
606, 3225756631, -5.486506462097168, -1.3695106506347656, 8.31910514831543, 9.983407974243164, -3.026193380355835, 6.28987455368042, 0.125, 0.219482421875, -0.834228515625
607, 3225773298, -5.518003463745117, -1.6586850881576538, 8.149285316467285, 3.043473958969116, 1.4254428148269653, 2.617650270462036, 0.12548828125, 0.217529296875, -0.834228515625
608, 3225789965, -5.3387556076049805, -2.0208661556243896, 7.971162796020508, -1.4968065023422241, 4.893032073974609, 0.8588515520095825, 0.12548828125, 0.218994140625, -0.835205078125
609, 3225806632, -5.3495330810546875, -2.1094489097595215, 7.825184345245361, -3.186617612838745, 6.065338134765625, -0.0775296613574028, 0.12744140625, 0.218505859375, -0.831298828125
610, 3225823299, -5.299593448638916, -2.5054099559783936, 7.653278827667236, -1.634359359741211, 5.113518714904785, 0.5423170328140259, 0.12744140625, 0.220703125, -0.832763671875
611, 3225839966, -5.37926721572876, -2.2823486328125, 7.729732990264893, 0.5914037227630615, 2.9542396068573, 2.513496160507202, 0.131103515625, 0.2197265625, -0.833251953125
612, 3225856633, -5.489034175872803, -1.9602912664413452, 7.818699836730957, -0.28659331798553467, 2.500241279602051, 1.836116909980774, 0.129150390625, 0.21875, -0.830322265625
613, 3225873300, -5.420669078826904, -2.0321731567382812, 7.786263465881348, -1.415562629699707, 2.9226200580596924, 0.71330726146698, 0.132568359375, 0.22119140625, -0.833740234375
614, 3225889967, -5.353994846343994, -2.2161128520965576, 7.721032619476318, -1.569149136543274, 3.049633502960205, 0.4727015495300293, 0.131591796875, 0.21923828125, -0.834716796875
615, 3225906634, -5.377012252807617, -2.261418581008911, 7.724460124969482, -0.0678224265575409, 2.443406581878662, 1.6740267276763916, 0.133544921875, 0.2216796875, -0.832275390625
616, 3225923301, -5.37081241607666, -2.226259231567383, 7.714200496673584, 0.34649503231048584, 2.0944724082946777, 2.2920615673065186, 0.132568359375, 0.220703125, -0.831787109375
617, 3225939968, -5.32480001449585, -2.2921228408813477, 7.771315097808838, 1.0630745887756348, 2.033719062805176, 3.0504791736602783, 0.134521484375, 0.2197265625, -0.83203125
618, 3225956635, -5.378803253173828, -2.0983283519744873, 7.793799877166748, 0.6595216989517212, 3.0121378898620605, 3.877053737640381, 0.134521484375, 0.21923828125, -0.836181640625
619, 3225973302, -5.351659774780273, -2.114750385284424, 7.802635669708252, -0.4995373487472534, 4.583553314208984, 4.696722984313965, 0.138427734375, 0.2177734375, -0.82958984375
620, 3225989969, -5.299407005310059, -2.268435001373291, 7.770554065704346, -2.3518099784851074, 6.491572856903076, 6.664215087890625, 0.137939453125, 0.21826171875, -0.83251953125
621, 3226006636, -5.260851860046387, -2.189549684524536, 7.846597194671631, -3.738790512084961, 9.70383071899414, 8.126626014709473, 0.14404296875, 0.21728515625, -0.829345703125
622, 3226023303, -5.147122383117676, -2.338167667388916, 7.924900054931641, -5.6887407302856445, 14.472644805908203, 10.612897872924805, 0.14501953125, 0.220703125, -0.828857421875
623, 3226039970, -5.01144552230835, -2.312591791152954, 8.189927101135254, -7.372006893157959, 22.743438720703125, 13.598155975341797, 0.15185546875, 0.220703125, -0.82421875
624, 3226056637, -4.8453593254089355, -1.8108376264572144, 8.609801292419434, -5.950675010681152, 39.84415817260742, 13.083492279052734, 0.163330078125, 0.219482421875, -0.821533203125
625, 3226073304, -4.871535778045654, -1.6484880447387695, 8.690881729125977, -8.894811630249023, 61.3927116394043, 9.946670532226562, 0.17724609375, 0.22216796875, -0.81982421875
626, 3226089971, -4.8973259925842285, -1.616253137588501, 8.830375671386719, -14.182700157165527, 87.74382781982422, 7.173133850097656, 0.19580078125, 0.225830078125, -0.814453125
627, 3226106638, -4.956291675567627, -2.17944598197937, 8.814702033996582, -20.803077697753906, 120.31784057617188, 8.370498657226562, 0.22119140625, 0.226806640625, -0.80078125
628, 3226123305, -4.897556781768799, -2.805626392364502, 9.108230590820312, -24.179855346679688, 158.60989379882812, 18.050344467163086, 0.257568359375, 0.233642578125, -0.78759765625
629, 3226139972, -4.84250020980835, -2.2329559326171875, 9.502920150756836, -24.431509017944336, 208.99974060058594, 30.946901321411133, 0.30615234375, 0.236083984375, -0.76806640625
630, 3226156639, -4.621173858642578, -4.113051891326904, 10.518906593322754, -31.39401626586914, 284.50262451171875, 50.80091094970703, 0.364990234375, 0.234619140625, -0.73779296875
631, 3226173306, -6.113032341003418, -6.082702159881592, 11.198737144470215, -23.78521728515625, 360.4219970703125, 99.47587585449219, 0.44384765625, 0.228759765625, -0.68896484375
632, 3226189973, -7.29342794418335, -4.701079368591309, 11.019086837768555, -29.17613410949707, 413.03314208984375, 152.63192749023438, 0.533447265625, 0.211181640625, -0.624755859375
633, 3226206640, -17.00908088684082, -6.651210308074951, 14.383088111877441, -50.17006301879883, 426.8899841308594, 170.91934204101562, 0.62109375, 0.1845703125, -0.54345703125
634, 3226223307, -20.69309425354004, -5.396717548370361, 16.400585174560547, -60.795692443847656, 372.90362548828125, 157.02926635742188, 0.693603515625, 0.161376953125, -0.45703125
635, 3226239974, -15.255338668823242, -6.407717227935791, 14.665833473205566, -54.98396301269531, 285.8062438964844, 152.31369018554688, 0.744873046875, 0.129638671875, -0.38916015625
636, 3226256641, -2.2292957305908203, -7.875475883483887, 13.127189636230469, -18.082866668701172, 245.42996215820312, 167.05572509765625, 0.782958984375, 0.087890625, -0.326171875
637, 3226273308, -14.30273151397705, -13.610892295837402, 22.270069122314453, -25.341350555419922, 169.71923828125, 97.8539047241211, 0.813232421875, 0.057861328125, -0.276123046875
638, 3226289975, -8.133063316345215, -14.314632415771484, 21.038118362426758, 2.2595009803771973, -27.925128936767578, -3.27189040184021, 0.826416015625, 0.050537109375, -0.27490234375
639, 3226306642, 2.1874120235443115, -9.827728271484375, 12.185795783996582, 54.173057556152344, -119.40300750732422, -48.3150634765625, 0.829345703125, 0.0546875, -0.3076171875
640, 3226323309, 4.810876369476318, -4.867242813110352, 8.128799438476562, 78.4071044921875, -133.3951873779297, -61.337764739990234, 0.82861328125, 0.062744140625, -0.34765625
641, 3226339976, 3.1509950160980225, -2.299333333969116, 7.212133407592773, 62.120201110839844, -133.19651794433594, -72.07969665527344, 0.821533203125, 0.079833984375, -0.396728515625
642, 3226356643, 0.495396226644516, -1.6498887538909912, 7.245974540710449, 30.306188583374023, -141.98854064941406, -85.74613952636719, 0.80029296875, 0.095947265625, -0.447509765625
643, 3226373310, -1.8117220401763916, -2.114734649658203, 7.205023288726807, 9.604818344116211, -160.6282196044922, -94.07950592041016, 0.770263671875, 0.118896484375, -0.50048828125
644, 3226389977, -3.9262943267822266, -2.6898298263549805, 7.269900798797607, 8.950176239013672, -185.3798065185547, -95.58671569824219, 0.724853515625, 0.14013671875, -0.550537109375
645, 3226406644, -5.786543846130371, -2.7950220108032227, 7.426138877868652, 19.461942672729492, -212.75389099121094, -93.97449493408203, 0.671875, 0.155517578125, -0.591552734375
646, 3226423311, -7.376840114593506, -2.373150587081909, 7.421332836151123, 26.8327579498291, -237.65667724609375, -94.4962387084961, 0.61669921875, 0.155029296875, -0.630126953125
647, 3226439978, -8.813425064086914, -2.3587276935577393, 8.095107078552246, 23.05782127380371, -256.265380859375, -95.87448120117188, 0.565185546875, 0.15576171875, -0.662841796875
648, 3226456645, -11.261101722717285, -2.5570898056030273, 9.08337116241455, 6.393456935882568, -276.58416748046875, -103.67691040039062, 0.521728515625, 0.159423828125, -0.6953125
649, 3226473312, -11.67747974395752, -3.2649412155151367, 8.71858024597168, -12.772994995117188, -297.73419189453125, -114.50374603271484, 0.4873046875, 0.1708984375, -0.73828125
650, 3226489979, -11.045835494995117, -2.8998708724975586, 8.364547729492188, -26.11039161682129, -293.9307861328125, -113.08915710449219, 0.453125, 0.188720703125, -0.79541015625
651, 3226506646, -12.55041217803955, -2.5352017879486084, 8.815215110778809, -46.937721252441406, -264.48052978515625, -99.94757080078125, 0.413330078125, 0.2236328125, -0.873291015625
652, 3226523313, -18.48102569580078, -2.90423846244812, 10.846184730529785, -86.34760284423828, -235.9916229248047, -92.57496643066406, 0.338623046875, 0.27294921875, -0.954345703125
653, 3226539980, -25.187835693359375, -5.3807854652404785, 10.190421104431152, -116.17019653320312, -244.5875244140625, -108.49618530273438, 0.2177734375, 0.327392578125, -1.000244140625
654, 3226556647, -27.80255889892578, -8.251179695129395, 5.740726947784424, -81.92188262939453, -271.3040466308594, -116.41490936279297, 0.078125, 0.3564453125, -0.998779296875
655, 3226573314, -26.88482666015625, -3.43049955368042, 0.6659965515136719, -29.3697452545166, -284.19122314453125, -108.2037124633789, -0.047607421875, 0.358642578125, -0.977294921875
