sep=,
DeviceTag:,B,,,,,,,,,,,,,,,,,
FirmwareVersion:,2.2.1,,,,,,,,,,,,,,,,,
AppVersion:,2022.0.1,,,,,,,,,,,,,,,,,
SyncStatus:,Synced,,,,,,,,,,,,,,,,,
OutputRate:,60Hz,,,,,,,,,,,,,,,,,
FilterProfile:,General,,,,,,,,,,,,,,,,,
Measurement Mode:,Inertial Mode - Rate quantities (with mag),,,,,,,,,,,,,,,,,
StartTime:,2022-08-05 16:37:46.150 +0300,,,,,,,,,,,,,,,,,
© Xsens Technologies B. V. 2005-2022,,,,,,,,,,,,,,,,,,,

PacketCounter,SampleTimeFine,Acc_X,Acc_Y,Acc_Z,Gyr_X,Gyr_Y,Gyr_Z,Mag_X,Mag_Y,Mag_Z
1, 2913183713, -5.375112533569336, -2.0547423362731934, 7.807200908660889, -0.5165312886238098, -0.5916662216186523, -1.0798826217651367, 0.037109375, 0.2041015625, -0.802734375
2, 2913200380, -5.395125389099121, -2.0503089427948, 7.8116583824157715, -0.5079382061958313, -0.6709118485450745, -1.0907679796218872, 0.0400390625, 0.20068359375, -0.802734375
3, 2913217047, -5.3601250648498535, -2.048175811767578, 7.788615703582764, -0.45547065138816833, -0.7571242451667786, -1.171793818473816, 0.0390625, 0.201171875, -0.8046875
4, 2913233714, -5.345288276672363, -2.058089256286621, 7.815913200378418, -0.42139291763305664, -0.726478636264801, -1.1159964799880981, 0.0390625, 0.20263671875, -0.80322265625
5, 2913250381, -5.364315032958984, -2.0665030479431152, 7.804734230041504, -0.3853430449962616, -0.4448029100894928, -1.022241234779358, 0.04052734375, 0.20361328125, -0.805908203125
6, 2913267048, -5.368659973144531, -2.0481982231140137, 7.777972221374512, -0.5000751614570618, -0.39223289489746094, -0.9684931039810181, 0.03955078125, 0.20263671875, -0.8037109375
7, 2913283715, -5.361020565032959, -2.067033290863037, 7.815343379974365, -0.45223063230514526, -0.40999528765678406, -0.9464020133018494, 0.03857421875, 0.2021484375, -0.805419921875
8, 2913300382, -5.3503737449646, -2.0631558895111084, 7.785983562469482, -0.47101759910583496, -0.3941282331943512, -1.0625172853469849, 0.03857421875, 0.201171875, -0.805419921875
9, 2913317049, -5.3669114112854, -2.061422109603882, 7.802944183349609, -0.3842417001724243, -0.3610493838787079, -1.0450365543365479, 0.0390625, 0.20166015625, -0.804931640625
10, 2913333716, -5.373600959777832, -2.05607533454895, 7.800657749176025, -0.41792184114456177, -0.3307949900627136, -0.9567685127258301, 0.037109375, 0.20263671875, -0.803955078125
11, 2913350383, -5.374635696411133, -2.0671417713165283, 7.794727802276611, -0.5937792658805847, -0.4347499907016754, -1.0379546880722046, 0.03857421875, 0.203125, -0.805419921875
12, 2913367050, -5.3753743171691895, -2.061725378036499, 7.778178691864014, -0.5954568386077881, -0.5101025700569153, -1.1685409545898438, 0.03857421875, 0.2021484375, -0.804931640625
13, 2913383717, -5.368337631225586, -2.064556121826172, 7.779189109802246, -0.5195024609565735, -0.7350588440895081, -1.2330336570739746, 0.0390625, 0.20458984375, -0.805419921875
14, 2913400384, -5.360020637512207, -2.0911552906036377, 7.787202835083008, -0.46344900131225586, -0.6972160339355469, -1.1296608448028564, 0.03955078125, 0.20166015625, -0.8037109375
15, 2913417051, -5.349070072174072, -2.0824406147003174, 7.7848358154296875, -0.21645291149616241, -0.7135570645332336, -0.9910963177680969, 0.03857421875, 0.2021484375, -0.80419921875
16, 2913433718, -5.353914737701416, -2.061809778213501, 7.788533687591553, -0.4469928443431854, -0.6470792889595032, -1.1232706308364868, 0.0390625, 0.2021484375, -0.805419921875
17, 2913450385, -5.34470272064209, -2.062734603881836, 7.786262035369873, -0.40835604071617126, -0.49730896949768066, -1.0547821521759033, 0.0390625, 0.203125, -0.806884765625
18, 2913467052, -5.3488054275512695, -2.0727648735046387, 7.798210144042969, -0.585006833076477, -0.3463989496231079, -1.030821442604065, 0.03759765625, 0.2021484375, -0.806884765625
19, 2913483719, -5.367711067199707, -2.084477663040161, 7.799717903137207, -0.6513949632644653, -0.21170175075531006, -1.0284651517868042, 0.04052734375, 0.203125, -0.80517578125
20, 2913500386, -5.347141265869141, -2.072509527206421, 7.765130996704102, -0.7307687997817993, -0.21663223206996918, -0.9624484777450562, 0.0390625, 0.20166015625, -0.80419921875
21, 2913517053, -5.357414722442627, -2.078833818435669, 7.786840438842773, -0.7146968245506287, -0.10023529827594757, -0.97078537940979, 0.03759765625, 0.203125, -0.804931640625
22, 2913533720, -5.373808860778809, -2.0742712020874023, 7.808741569519043, -0.8050584197044373, 0.06811057031154633, -0.9717074632644653, 0.03759765625, 0.20458984375, -0.804443359375
23, 2913550387, -5.383889675140381, -2.067535400390625, 7.789973258972168, -0.8235507607460022, -0.13344214856624603, -0.9534583687782288, 0.0400390625, 0.205078125, -0.80419921875
24, 2913567054, -5.385373115539551, -2.0804007053375244, 7.784026145935059, -1.1043555736541748, -0.01899181678891182, -1.1249353885650635, 0.03955078125, 0.20361328125, -0.8046875
25, 2913583721, -5.359642505645752, -2.075026750564575, 7.787347793579102, -0.9845009446144104, -0.08650688827037811, -1.0555633306503296, 0.03857421875, 0.20361328125, -0.805419921875
26, 2913600388, -5.370204448699951, -2.0891456604003906, 7.77763557434082, -0.9293054938316345, -0.1499367505311966, -1.069509506225586, 0.037109375, 0.20263671875, -0.80126953125
27, 2913617055, -5.401248455047607, -2.0575318336486816, 7.7498016357421875, -0.9777136445045471, -0.28772029280662537, -1.1894922256469727, 0.0390625, 0.203125, -0.802734375
28, 2913633722, -5.3494391441345215, -2.0957791805267334, 7.777389049530029, -0.9929530620574951, -0.31981295347213745, -1.2416012287139893, 0.03857421875, 0.2041015625, -0.8017578125
29, 2913650389, -5.372528553009033, -2.1038880348205566, 7.7817206382751465, -0.8624563813209534, -0.15438055992126465, -1.0929194688796997, 0.03955078125, 0.20458984375, -0.80419921875
30, 2913667056, -5.372653007507324, -2.0936074256896973, 7.765237331390381, -0.9210711121559143, -0.12968991696834564, -1.0206019878387451, 0.0390625, 0.20556640625, -0.804931640625
31, 2913683723, -5.404600620269775, -2.0922579765319824, 7.7804059982299805, -0.7987960577011108, -0.21182984113693237, -0.9796602129936218, 0.0390625, 0.20458984375, -0.8037109375
32, 2913700390, -5.403970241546631, -2.0864274501800537, 7.781047344207764, -0.8400838375091553, -0.2509020268917084, -1.1229376792907715, 0.03857421875, 0.203125, -0.80126953125
33, 2913717057, -5.3785505294799805, -2.083378791809082, 7.780498027801514, -0.7810977101325989, -0.25946947932243347, -1.141660451889038, 0.0400390625, 0.207763671875, -0.80029296875
34, 2913733724, -5.376947402954102, -2.0950441360473633, 7.790779113769531, -0.8737772107124329, -0.38938987255096436, -1.1893000602722168, 0.038330078125, 0.2060546875, -0.803466796875
35, 2913750391, -5.3795166015625, -2.1079795360565186, 7.760577201843262, -0.7789206504821777, -0.30554667115211487, -1.145681619644165, 0.0390625, 0.2041015625, -0.80322265625
36, 2913767058, -5.390150547027588, -2.0894668102264404, 7.773825645446777, -0.7233794331550598, -0.3166882395744324, -1.1832810640335083, 0.0390625, 0.20361328125, -0.802734375
37, 2913783725, -5.39506721496582, -2.094615936279297, 7.778358459472656, -0.7796633243560791, -0.35686174035072327, -1.1452205181121826, 0.03857421875, 0.205078125, -0.802734375
38, 2913800392, -5.3741254806518555, -2.1005396842956543, 7.771857261657715, -0.6417389512062073, -0.46638163924217224, -1.1482173204421997, 0.0380859375, 0.20556640625, -0.8017578125
39, 2913817059, -5.373394012451172, -2.099579334259033, 7.7550811767578125, -0.7113542556762695, -0.39715051651000977, -1.0749906301498413, 0.03955078125, 0.20458984375, -0.80078125
40, 2913833726, -5.393570423126221, -2.086639404296875, 7.777462959289551, -0.7456625699996948, -0.410443514585495, -1.143683910369873, 0.0400390625, 0.205810546875, -0.80224609375
41, 2913850393, -5.394023895263672, -2.1041128635406494, 7.79926061630249, -0.7540890574455261, -0.485898494720459, -1.2366323471069336, 0.039306640625, 0.207275390625, -0.804443359375
42, 2913867060, -5.379316329956055, -2.0865156650543213, 7.7875590324401855, -0.8353710174560547, -0.4638972282409668, -1.2794440984725952, 0.038818359375, 0.207275390625, -0.804443359375
43, 2913883727, -5.380764484405518, -2.1009254455566406, 7.769837856292725, -0.8839198350906372, -0.4026828706264496, -1.3806909322738647, 0.0400390625, 0.205810546875, -0.80224609375
44, 2913900394, -5.360095977783203, -2.0973317623138428, 7.794456481933594, -0.9585999846458435, -0.356242835521698, -1.3311975002288818, 0.0400390625, 0.20556640625, -0.8017578125
45, 2913917061, -5.360424995422363, -2.1269707679748535, 7.777649879455566, -0.9798521995544434, -0.18333569169044495, -1.2529220581054688, 0.03857421875, 0.205810546875, -0.80322265625
46, 2913933728, -5.361693382263184, -2.1027164459228516, 7.78560209274292, -1.0254813432693481, -0.0890425518155098, -1.2766777276992798, 0.04052734375, 0.207275390625, -0.8037109375
47, 2913950395, -5.374238014221191, -2.105565309524536, 7.777799129486084, -1.3463571071624756, -0.11589746922254562, -1.2733737230300903, 0.041015625, 0.206787109375, -0.80517578125
48, 2913967062, -5.391840934753418, -2.1032001972198486, 7.778529644012451, -1.4294062852859497, 0.0597224086523056, -1.3297600746154785, 0.041015625, 0.207763671875, -0.8037109375
49, 2913983729, -5.3843889236450195, -2.11309552192688, 7.764887809753418, -1.485856533050537, 0.15338802337646484, -1.407955527305603, 0.0400390625, 0.207763671875, -0.80419921875
50, 2914000396, -5.373600006103516, -2.11618971824646, 7.765571594238281, -1.4536484479904175, 0.16108466684818268, -1.2941327095031738, 0.0419921875, 0.206787109375, -0.80224609375
51, 2914017063, -5.379992485046387, -2.1479787826538086, 7.736522674560547, -1.4180086851119995, 0.12004031240940094, -1.3541818857192993, 0.040283203125, 0.208740234375, -0.80322265625
52, 2914033730, -5.41096830368042, -2.1279494762420654, 7.767942428588867, -1.5147349834442139, 0.28934022784233093, -1.2593636512756348, 0.039306640625, 0.207275390625, -0.80224609375
53, 2914050397, -5.382992744445801, -2.123167037963867, 7.769928932189941, -1.5228413343429565, 0.18101133406162262, -1.3962122201919556, 0.04150390625, 0.209228515625, -0.8046875
54, 2914067064, -5.409486293792725, -2.133000612258911, 7.753102779388428, -1.365707516670227, -0.13660535216331482, -1.403114914894104, 0.041259765625, 0.210205078125, -0.80419921875
55, 2914083731, -5.397985935211182, -2.151259660720825, 7.754766464233398, -1.0526180267333984, -0.3249739408493042, -1.3106403350830078, 0.040771484375, 0.209716796875, -0.80126953125
56, 2914100398, -5.4111480712890625, -2.1631791591644287, 7.7204084396362305, -0.7946853041648865, -0.5626726150512695, -1.2651522159576416, 0.041015625, 0.208740234375, -0.7998046875
57, 2914117065, -5.390321254730225, -2.149810791015625, 7.732817649841309, -0.5920119285583496, -0.6414699554443359, -1.2413322925567627, 0.039794921875, 0.208740234375, -0.80126953125
58, 2914133732, -5.401288986206055, -2.162623643875122, 7.775591850280762, -0.4352366328239441, -0.8648767471313477, -1.2651904821395874, 0.039306640625, 0.211181640625, -0.80224609375
59, 2914150399, -5.369104862213135, -2.1572418212890625, 7.762780666351318, -0.32042765617370605, -0.8905535340309143, -1.0434614419937134, 0.040771484375, 0.210693359375, -0.80322265625
60, 2914167066, -5.367483139038086, -2.1522746086120605, 7.743171691894531, -0.1737053245306015, -0.7044259905815125, -1.0484302043914795, 0.039306640625, 0.211181640625, -0.80078125
61, 2914183733, -5.3727707862854, -2.1451382637023926, 7.757173538208008, -0.31859636306762695, -0.5715985894203186, -1.042398452758789, 0.039306640625, 0.209228515625, -0.8017578125
62, 2914200400, -5.392363548278809, -2.1499810218811035, 7.760804176330566, -0.3390480875968933, -0.42998597025871277, -0.9788917303085327, 0.040283203125, 0.208740234375, -0.80322265625
63, 2914217067, -5.415352821350098, -2.135282039642334, 7.767228603363037, -0.2741071283817291, -0.46353867650032043, -1.0870542526245117, 0.040771484375, 0.209716796875, -0.80126953125
64, 2914233734, -5.392641544342041, -2.1385490894317627, 7.758417129516602, -0.26055797934532166, -0.6061757206916809, -1.095685601234436, 0.0419921875, 0.210693359375, -0.802734375
65, 2914250401, -5.388124942779541, -2.1447408199310303, 7.745272636413574, -0.3660823106765747, -0.6597831845283508, -1.1068785190582275, 0.040771484375, 0.210693359375, -0.802734375
66, 2914267068, -5.38614559173584, -2.157977342605591, 7.730307579040527, -0.33879196643829346, -0.6985223889350891, -1.0921127796173096, 0.04345703125, 0.209228515625, -0.802734375
67, 2914283735, -5.383921146392822, -2.150265693664551, 7.716092109680176, -0.19150613248348236, -0.8023689985275269, -1.0220746994018555, 0.040283203125, 0.208740234375, -0.80126953125
68, 2914300402, -5.386905193328857, -2.139146089553833, 7.749694347381592, -0.11235011368989944, -0.7313578724861145, -1.0415148735046387, 0.040283203125, 0.211181640625, -0.80126953125
69, 2914317069, -5.384117603302002, -2.1521949768066406, 7.745738506317139, -0.25434690713882446, -0.6643422245979309, -0.9967694282531738, 0.039794921875, 0.208740234375, -0.80029296875
70, 2914333736, -5.368339538574219, -2.1443991661071777, 7.754476547241211, -0.390055775642395, -0.5464469194412231, -1.0169137716293335, 0.040283203125, 0.210693359375, -0.80029296875
71, 2914350403, -5.377336502075195, -2.1452205181121826, 7.7473955154418945, -0.37129446864128113, -0.554937481880188, -1.0776158571243286, 0.04248046875, 0.210693359375, -0.80322265625
72, 2914367070, -5.377276420593262, -2.161376476287842, 7.754088401794434, -0.360473096370697, -0.5371239185333252, -1.0143654346466064, 0.039306640625, 0.209228515625, -0.80322265625
73, 2914383737, -5.395005226135254, -2.1632659435272217, 7.757358074188232, -0.3454640805721283, -0.5158398151397705, -1.0185273885726929, 0.038818359375, 0.210205078125, -0.80078125
74, 2914400404, -5.3705153465271, -2.162471294403076, 7.768067359924316, -0.4169619083404541, -0.3772750198841095, -0.9673275947570801, 0.041015625, 0.208251953125, -0.804931640625
75, 2914417071, -5.377140045166016, -2.160778522491455, 7.768906593322754, -0.40643510222435, -0.23320363461971283, -0.8945747017860413, 0.039794921875, 0.208740234375, -0.803955078125
76, 2914433738, -5.40087366104126, -2.1513400077819824, 7.724055290222168, -0.38653403520584106, -0.25288698077201843, -0.9262320399284363, 0.039306640625, 0.209716796875, -0.802734375
77, 2914450405, -5.391879558563232, -2.1510672569274902, 7.732906341552734, -0.36445215344429016, -0.48649123311042786, -1.0657954216003418, 0.040283203125, 0.210693359375, -0.80078125
78, 2914467072, -5.396152019500732, -2.1687190532684326, 7.760898590087891, -0.43148431181907654, -0.5494691729545593, -1.1517391204833984, 0.038818359375, 0.210205078125, -0.803466796875
79, 2914483739, -5.387988090515137, -2.1497764587402344, 7.757219314575195, -0.38287144899368286, -0.5295810103416443, -1.0797802209854126, 0.041259765625, 0.210205078125, -0.80224609375
80, 2914500406, -5.390347957611084, -2.1787195205688477, 7.754423141479492, -0.3139604926109314, -0.6222221851348877, -1.0280554294586182, 0.039794921875, 0.209228515625, -0.80224609375
81, 2914517073, -5.381558418273926, -2.149271011352539, 7.770707130432129, -0.37070539593696594, -0.4743856191635132, -1.0019816160202026, 0.0419921875, 0.210693359375, -0.802734375
82, 2914533740, -5.3856120109558105, -2.167156219482422, 7.764194965362549, -0.3286621570587158, -0.4376698434352875, -1.0274535417556763, 0.038818359375, 0.208740234375, -0.79931640625
83, 2914550407, -5.368068218231201, -2.156381607055664, 7.7460527420043945, -0.276002436876297, -0.3959338963031769, -0.9247464537620544, 0.040283203125, 0.211181640625, -0.8017578125
84, 2914567074, -5.402502059936523, -2.1701128482818604, 7.765223026275635, -0.22760725021362305, -0.43416085839271545, -0.8610733151435852, 0.04052734375, 0.208740234375, -0.80322265625
85, 2914583741, -5.40855073928833, -2.14709210395813, 7.7579193115234375, -0.10347529500722885, -0.5969295501708984, -0.9029499292373657, 0.040771484375, 0.210205078125, -0.8017578125
86, 2914600408, -5.398078918457031, -2.159391164779663, 7.765853404998779, -0.13020214438438416, -0.7080630660057068, -0.9848340153694153, 0.039794921875, 0.210205078125, -0.798828125
87, 2914617075, -5.381983280181885, -2.161466598510742, 7.750398635864258, -0.22832439839839935, -0.6562485098838806, -1.108901858329773, 0.041015625, 0.209228515625, -0.80029296875
88, 2914633742, -5.38226318359375, -2.163661241531372, 7.761081218719482, -0.2286830097436905, -0.7312682271003723, -1.021332025527954, 0.041259765625, 0.211181640625, -0.80029296875
89, 2914650409, -5.377352237701416, -2.165452241897583, 7.760751247406006, -0.09960779547691345, -0.8056091070175171, -0.9582223892211914, 0.038818359375, 0.209716796875, -0.803955078125
90, 2914667076, -5.381087303161621, -2.1719963550567627, 7.734821319580078, -4.098032368347049E-4, -0.7616704702377319, -0.9981653690338135, 0.039306640625, 0.210205078125, -0.80224609375
91, 2914683743, -5.382083892822266, -2.155519485473633, 7.755307674407959, -0.14733704924583435, -0.5905135869979858, -0.8924232721328735, 0.041259765625, 0.210693359375, -0.80224609375
92, 2914700410, -5.389624118804932, -2.1552178859710693, 7.748488426208496, -0.15257486701011658, -0.5879266858100891, -0.9522162079811096, 0.038818359375, 0.210205078125, -0.80078125
93, 2914717077, -5.37700080871582, -2.1616551876068115, 7.754303455352783, -0.011589745990931988, -0.7351228594779968, -0.815790057182312, 0.04052734375, 0.207763671875, -0.8017578125
94, 2914733744, -5.373485565185547, -2.162327766418457, 7.773621559143066, 0.09376168251037598, -0.8060956001281738, -0.7629126906394958, 0.038330078125, 0.210205078125, -0.802978515625
95, 2914750411, -5.365523815155029, -2.1512179374694824, 7.741319179534912, 0.16271106898784637, -0.8939728140830994, -0.7307431101799011, 0.04052734375, 0.209228515625, -0.80419921875
96, 2914767078, -5.375093460083008, -2.164808988571167, 7.758140563964844, 0.32354602217674255, -0.7177062034606934, -0.6994315385818481, 0.039794921875, 0.210205078125, -0.803955078125
97, 2914783745, -5.3682942390441895, -2.164407968521118, 7.765330791473389, 0.48609697818756104, -0.8552976250648499, -0.4690837860107422, 0.041259765625, 0.211669921875, -0.80078125
98, 2914800412, -5.395102024078369, -2.144501209259033, 7.771162033081055, 0.494741290807724, -0.7503752708435059, -0.5729176998138428, 0.038818359375, 0.209228515625, -0.80078125
99, 2914817079, -5.40197229385376, -2.1369688510894775, 7.789774417877197, 0.46401888132095337, -0.7434214353561401, -0.648833692073822, 0.038818359375, 0.208740234375, -0.802734375
100, 2914833746, -5.365949630737305, -2.143552780151367, 7.771306037902832, 0.2858313322067261, -0.7693543434143066, -0.68385910987854, 0.038818359375, 0.208740234375, -0.798828125
101, 2914850413, -5.3692755699157715, -2.134629726409912, 7.790921211242676, 0.1386735588312149, -0.6307640075683594, -0.7798811197280884, 0.037353515625, 0.211181640625, -0.80126953125
102, 2914867080, -5.3839335441589355, -2.1387221813201904, 7.759683132171631, 0.010584447532892227, -0.4021449685096741, -0.7083832621574402, 0.041015625, 0.208740234375, -0.80322265625
103, 2914883747, -5.389611721038818, -2.132629632949829, 7.77906608581543, -0.004738349001854658, -0.42131608724594116, -0.8249466419219971, 0.037841796875, 0.208251953125, -0.804443359375
104, 2914900414, -5.390842437744141, -2.1344149112701416, 7.741905689239502, -0.04364404454827309, -0.43019092082977295, -0.8350765109062195, 0.039794921875, 0.208251953125, -0.7998046875
105, 2914917081, -5.386595249176025, -2.1351754665374756, 7.766791343688965, -0.05227551609277725, -0.47670355439186096, -0.7875520586967468, 0.0400390625, 0.207763671875, -0.7998046875
106, 2914933748, -5.381200790405273, -2.136582612991333, 7.761959075927734, -0.09869854152202606, -0.6307511925697327, -0.8502520322799683, 0.038330078125, 0.209228515625, -0.803466796875
107, 2914950415, -5.398455619812012, -2.1138274669647217, 7.756409168243408, -0.22527647018432617, -0.5875168442726135, -0.8668873906135559, 0.0400390625, 0.208251953125, -0.803955078125
108, 2914967082, -5.385222434997559, -2.124621629714966, 7.763313293457031, -0.07432805746793747, -0.6740878820419312, -0.9695688486099243, 0.038818359375, 0.208740234375, -0.804443359375
109, 2914983749, -5.392335414886475, -2.1419522762298584, 7.753345012664795, -0.10830330848693848, -0.6536744832992554, -1.0075907707214355, 0.0390625, 0.206787109375, -0.8037109375
110, 2915000416, -5.3660969734191895, -2.150486707687378, 7.761543273925781, -0.13205906748771667, -0.7163487672805786, -0.9510123133659363, 0.04052734375, 0.206298828125, -0.80224609375
111, 2915017083, -5.364975452423096, -2.1513679027557373, 7.774619102478027, -0.035565365105867386, -0.6871531009674072, -0.9083831310272217, 0.038818359375, 0.208251953125, -0.80078125
112, 2915033750, -5.3646440505981445, -2.1344592571258545, 7.767523765563965, -0.01322895847260952, -0.6516510248184204, -0.8218986392021179, 0.04150390625, 0.207763671875, -0.802734375
113, 2915050417, -5.385859489440918, -2.142843723297119, 7.762112140655518, -0.10207940638065338, -0.49096980690956116, -0.8563477993011475, 0.039794921875, 0.209228515625, -0.802734375
114, 2915067084, -5.401546001434326, -2.136565923690796, 7.755834579467773, -0.18493647873401642, -0.45394665002822876, -0.8815890550613403, 0.04052734375, 0.207275390625, -0.805908203125
115, 2915083751, -5.378991603851318, -2.1410741806030273, 7.777843475341797, -0.13213591277599335, -0.6184313893318176, -0.8511099815368652, 0.04150390625, 0.205078125, -0.8037109375
116, 2915100418, -5.385457515716553, -2.141385316848755, 7.7754411697387695, -0.06144486367702484, -0.6109525561332703, -0.9411641955375671, 0.041015625, 0.206298828125, -0.802734375
117, 2915117085, -5.3768415451049805, -2.1494572162628174, 7.773347854614258, -0.11998268216848373, -0.6394210457801819, -0.9177926182746887, 0.04052734375, 0.207275390625, -0.802734375
118, 2915133752, -5.373907566070557, -2.134634494781494, 7.774921417236328, -0.1360802799463272, -0.6715777516365051, -0.884329617023468, 0.039306640625, 0.208251953125, -0.80224609375
119, 2915150419, -5.379035472869873, -2.1291234493255615, 7.759128570556641, -0.0933326780796051, -0.647053599357605, -0.9376681447029114, 0.039306640625, 0.208251953125, -0.80224609375
120, 2915167086, -5.394133567810059, -2.1422970294952393, 7.7613911628723145, -0.1654323935508728, -0.7001999616622925, -0.9418814182281494, 0.039794921875, 0.209228515625, -0.80322265625
121, 2915183753, -5.384340763092041, -2.1322638988494873, 7.784677028656006, -0.1441226452589035, -0.6338886618614197, -0.9732441306114197, 0.039794921875, 0.208251953125, -0.803955078125
122, 2915200420, -5.370665073394775, -2.133805751800537, 7.770330429077148, -0.10584447532892227, -0.7107651829719543, -0.918868362903595, 0.041015625, 0.207763671875, -0.80224609375
123, 2915217087, -5.378396511077881, -2.1214637756347656, 7.744218826293945, -0.03963565081357956, -0.7630278468132019, -0.9070224761962891, 0.041015625, 0.209228515625, -0.80126953125
124, 2915233754, -5.373908042907715, -2.119358539581299, 7.758440971374512, -0.1517680585384369, -0.8213096261024475, -1.0078725814819336, 0.0400390625, 0.207763671875, -0.8017578125
125, 2915250421, -5.3748908042907715, -2.130340814590454, 7.757040500640869, -0.12351725250482559, -0.7155163884162903, -1.0193341970443726, 0.037841796875, 0.208740234375, -0.803466796875
126, 2915267088, -5.388325214385986, -2.122943639755249, 7.770549297332764, -0.18501333892345428, -0.7637194395065308, -1.081060767173767, 0.039794921875, 0.207763671875, -0.80126953125
127, 2915283755, -5.372803688049316, -2.1623215675354004, 7.747018337249756, 0.06863563507795334, -0.8607916831970215, -0.9573259353637695, 0.039306640625, 0.209228515625, -0.803955078125
128, 2915300422, -5.37270450592041, -2.1511003971099854, 7.756704330444336, 0.3396179676055908, -0.898442268371582, -0.6753171682357788, 0.04296875, 0.205810546875, -0.802734375
129, 2915317089, -5.375080585479736, -2.112027645111084, 7.795714378356934, 0.09710414707660675, -0.8711519241333008, -0.7728375792503357, 0.039306640625, 0.207275390625, -0.80078125
130, 2915333756, -5.362608909606934, -2.136413812637329, 7.77448844909668, 0.07784339785575867, -0.786937415599823, -0.9190860390663147, 0.04052734375, 0.208740234375, -0.80322265625
131, 2915350423, -5.369486331939697, -2.1383233070373535, 7.762208938598633, -0.16659781336784363, -0.6526755690574646, -0.9874334931373596, 0.038818359375, 0.209228515625, -0.80224609375
132, 2915367090, -5.355987071990967, -2.1315650939941406, 7.767387866973877, -0.17104162275791168, -0.4951447546482086, -1.076220154762268, 0.039794921875, 0.208251953125, -0.804931640625
133, 2915383757, -5.389709949493408, -2.125765085220337, 7.748006820678711, -0.12041811645030975, -0.6460035443305969, -1.0012645721435547, 0.038330078125, 0.2060546875, -0.80322265625
134, 2915400424, -5.372733116149902, -2.1155102252960205, 7.759425163269043, -0.14895063638687134, -0.6077508926391602, -0.9488992094993591, 0.03955078125, 0.206298828125, -0.8017578125
135, 2915417091, -5.3722710609436035, -2.1399595737457275, 7.750773906707764, -0.12828119099140167, -0.6394209861755371, -0.9912626147270203, 0.037353515625, 0.20654296875, -0.79931640625
136, 2915433758, -5.371020793914795, -2.1279687881469727, 7.761878967285156, -0.08849187195301056, -0.8196191787719727, -0.9594261050224304, 0.038330078125, 0.207763671875, -0.80224609375
137, 2915450425, -5.347876071929932, -2.119079351425171, 7.791074275970459, -0.07188203930854797, -0.6930540204048157, -0.9020023941993713, 0.039306640625, 0.210693359375, -0.803466796875
138, 2915467092, -5.363043785095215, -2.135408878326416, 7.76825475692749, -0.0930253267288208, -0.579704999923706, -0.9547899961471558, 0.038330078125, 0.206787109375, -0.802734375
139, 2915483759, -5.3825836181640625, -2.125215530395508, 7.776626110076904, -0.2322559654712677, -0.38632917404174805, -0.8754549026489258, 0.0400390625, 0.208251953125, -0.802734375
140, 2915500426, -5.362115383148193, -2.125455141067505, 7.789723873138428, -0.2363027185201645, -0.41659051179885864, -0.9753187894821167, 0.036376953125, 0.206787109375, -0.803466796875
141, 2915517093, -5.36643648147583, -2.1396281719207764, 7.771530628204346, -0.24355114996433258, -0.355760395526886, -0.9436230063438416, 0.037353515625, 0.2060546875, -0.804931640625
142, 2915533760, -5.378085136413574, -2.1344642639160156, 7.783290386199951, -0.21934714913368225, -0.3728184401988983, -0.8706396222114563, 0.037841796875, 0.207275390625, -0.8017578125
143, 2915550427, -5.372380256652832, -2.123450756072998, 7.76570463180542, -0.30203777551651, -0.41031548380851746, -0.8281866908073425, 0.037841796875, 0.207763671875, -0.804443359375
144, 2915567094, -5.383886337280273, -2.1228785514831543, 7.772557735443115, -0.29347512125968933, -0.4962758421897888, -0.979155421257019, 0.039306640625, 0.208740234375, -0.80224609375
145, 2915583761, -5.359623908996582, -2.1269545555114746, 7.760138511657715, -0.25934141874313354, -0.495849072933197, -1.0040818452835083, 0.037841796875, 0.207275390625, -0.80126953125
146, 2915600428, -5.370423316955566, -2.1322414875030518, 7.771775245666504, -0.2627222537994385, -0.5043268203735352, -0.9773549437522888, 0.0400390625, 0.206298828125, -0.80126953125
147, 2915617095, -5.375112056732178, -2.130079984664917, 7.757382869720459, -0.26299116015434265, -0.463692307472229, -0.8678478598594666, 0.037841796875, 0.208740234375, -0.802978515625
148, 2915633762, -5.362542629241943, -2.128361701965332, 7.760744571685791, -0.18610186874866486, -0.5069777965545654, -0.9206870198249817, 0.039306640625, 0.207275390625, -0.8017578125
149, 2915650429, -5.365479946136475, -2.123232841491699, 7.769137859344482, -0.22289453446865082, -0.3609725832939148, -0.8686163425445557, 0.04052734375, 0.206298828125, -0.80322265625
150, 2915667096, -5.36929988861084, -2.1408255100250244, 7.76120662689209, -0.2745681405067444, -0.46882766485214233, -0.9127852916717529, 0.039306640625, 0.209228515625, -0.803466796875
151, 2915683763, -5.364391326904297, -2.1314704418182373, 7.762182235717773, -0.3007315397262573, -0.4051288962364197, -0.9428034424781799, 0.039794921875, 0.208740234375, -0.802734375
152, 2915700430, -5.371917247772217, -2.131673812866211, 7.76149320602417, -0.26690995693206787, -0.4323936104774475, -0.8748146295547485, 0.03857421875, 0.205078125, -0.80224609375
153, 2915717097, -5.387207508087158, -2.1213936805725098, 7.7561140060424805, -0.2236757129430771, -0.518695592880249, -0.9374505281448364, 0.0400390625, 0.206787109375, -0.80126953125
154, 2915733764, -5.371227264404297, -2.132903575897217, 7.77296781539917, -0.2581760287284851, -0.5351261496543884, -0.9847955703735352, 0.041015625, 0.207763671875, -0.80322265625
155, 2915750431, -5.359729290008545, -2.118774890899658, 7.7696757316589355, -0.25432130694389343, -0.46402522921562195, -0.9649455547332764, 0.04052734375, 0.207275390625, -0.80419921875
156, 2915767098, -5.385175704956055, -2.140035629272461, 7.7781453132629395, -0.3340151906013489, -0.4766267240047455, -0.9128877520561218, 0.038818359375, 0.209228515625, -0.805419921875
157, 2915783765, -5.376534461975098, -2.131108522415161, 7.779539585113525, -0.2785637080669403, -0.4023627042770386, -0.8507002592086792, 0.039306640625, 0.207763671875, -0.80322265625
158, 2915800432, -5.388190269470215, -2.1332919597625732, 7.75018310546875, -0.2806127369403839, -0.35042011737823486, -0.8738924860954285, 0.036865234375, 0.209228515625, -0.804931640625
159, 2915817099, -5.3767170906066895, -2.118497371673584, 7.767172813415527, -0.1865500956773758, -0.5377258062362671, -0.9091739654541016, 0.03955078125, 0.206787109375, -0.804931640625
160, 2915833766, -5.384950637817383, -2.1228320598602295, 7.779429912567139, -0.24301327764987946, -0.5499814748764038, -0.9280760884284973, 0.037841796875, 0.209228515625, -0.80078125
161, 2915850433, -5.366819858551025, -2.1351943016052246, 7.769625663757324, -0.14996233582496643, -0.5764905214309692, -0.865504264831543, 0.0400390625, 0.208251953125, -0.805419921875
162, 2915867100, -5.374508380889893, -2.1432690620422363, 7.778900146484375, -0.10736844688653946, -0.5548223853111267, -0.9677246809005737, 0.037841796875, 0.207763671875, -0.80224609375
163, 2915883767, -5.373873710632324, -2.133944272994995, 7.779392719268799, -0.09579148888587952, -0.5378411412239075, -0.8511356115341187, 0.039306640625, 0.208251953125, -0.803466796875
164, 2915900434, -5.379177093505859, -2.128405809402466, 7.775950908660889, -0.18407845497131348, -0.4684690833091736, -0.8988008499145508, 0.040283203125, 0.208740234375, -0.802734375
165, 2915917101, -5.363431930541992, -2.1296558380126953, 7.777041435241699, -0.12968990206718445, -0.4571738541126251, -0.8484846949577332, 0.039306640625, 0.208251953125, -0.802734375
166, 2915933768, -5.364963531494141, -2.1287648677825928, 7.776143550872803, -0.10192573070526123, -0.36030662059783936, -0.820656418800354, 0.039306640625, 0.207763671875, -0.80078125
167, 2915950435, -5.375407695770264, -2.138489007949829, 7.756958484649658, -0.10926378518342972, -0.327727347612381, -0.7732346653938293, 0.04052734375, 0.206298828125, -0.80322265625
168, 2915967102, -5.382709503173828, -2.122335195541382, 7.766087055206299, -0.006518432404845953, -0.5055307149887085, -0.857346773147583, 0.0400390625, 0.207763671875, -0.804931640625
169, 2915983769, -5.3902363777160645, -2.130249500274658, 7.75678825378418, -0.07968110591173172, -0.6207877993583679, -0.9223900437355042, 0.038818359375, 0.207275390625, -0.805419921875
170, 2916000436, -5.377010822296143, -2.142961025238037, 7.772780418395996, -0.03547359257936478, -0.6215817928314209, -0.8089130520820618, 0.038330078125, 0.206787109375, -0.80029296875
171, 2916017103, -5.388150691986084, -2.1270554065704346, 7.7501115798950195, -0.034103307873010635, -0.5556802749633789, -0.8720868825912476, 0.03857421875, 0.20556640625, -0.8017578125
172, 2916033770, -5.362550258636475, -2.120948553085327, 7.785397052764893, -0.04192798584699631, -0.5496100187301636, -0.7746304273605347, 0.038330078125, 0.207763671875, -0.804931640625
173, 2916050437, -5.379460334777832, -2.120356559753418, 7.766419887542725, -0.10972480475902557, -0.4755382239818573, -0.8073635101318359, 0.04150390625, 0.208251953125, -0.802734375
174, 2916067104, -5.3702778816223145, -2.12744402885437, 7.766157627105713, -0.07355967164039612, -0.6175093650817871, -0.7609276175498962, 0.038818359375, 0.207763671875, -0.803955078125
175, 2916083771, -5.37346076965332, -2.112527370452881, 7.769527435302734, -0.011769034899771214, -0.5793976187705994, -0.7357503771781921, 0.038818359375, 0.207763671875, -0.803955078125
176, 2916100438, -5.384992599487305, -2.1160128116607666, 7.7578020095825195, -0.11269586533308029, -0.5451022386550903, -0.7838638424873352, 0.038818359375, 0.207763671875, -0.8017578125
177, 2916117105, -5.3840131759643555, -2.1223104000091553, 7.796902656555176, -0.030530335381627083, -0.6478732824325562, -0.8544524312019348, 0.0390625, 0.206787109375, -0.8017578125
178, 2916133772, -5.367057800292969, -2.120469093322754, 7.787189483642578, 0.029424352571368217, -0.5752572417259216, -0.8155059218406677, 0.041015625, 0.206298828125, -0.80322265625
179, 2916150439, -5.376515865325928, -2.1125614643096924, 7.777655124664307, 0.027796180918812752, -0.6682737469673157, -0.8793351650238037, 0.039306640625, 0.209228515625, -0.80224609375
180, 2916167106, -5.370002269744873, -2.1214890480041504, 7.791862964630127, -0.08773630857467651, -0.5297091007232666, -0.8930380940437317, 0.0400390625, 0.207275390625, -0.807373046875
181, 2916183773, -5.354222774505615, -2.126350164413452, 7.7630438804626465, -0.13342933356761932, -0.5421311855316162, -0.8646591305732727, 0.037841796875, 0.205810546875, -0.806884765625
182, 2916200440, -5.3797101974487305, -2.1208860874176025, 7.746902942657471, -0.14818227291107178, -0.45301181077957153, -0.8763896822929382, 0.041015625, 0.205322265625, -0.80322265625
183, 2916217107, -5.360922336578369, -2.1321988105773926, 7.7653374671936035, -0.011090300045907497, -0.5332947969436646, -0.8012933135032654, 0.03955078125, 0.20458984375, -0.802734375
184, 2916233774, -5.379794120788574, -2.11055588722229, 7.775163650512695, -0.05070033296942711, -0.43203499913215637, -0.7785747647285461, 0.0419921875, 0.204833984375, -0.8046875
185, 2916250441, -5.373265743255615, -2.115631580352783, 7.768115520477295, -0.15531541407108307, -0.45881304144859314, -0.8277255296707153, 0.0419921875, 0.208740234375, -0.8037109375
186, 2916267108, -5.386488914489746, -2.110541582107544, 7.776518821716309, -0.2122524529695511, -0.5324112176895142, -0.9005041122436523, 0.03955078125, 0.206298828125, -0.802734375
187, 2916283775, -5.367701053619385, -2.1275930404663086, 7.775285243988037, -0.07892553508281708, -0.6171891093254089, -0.8288781046867371, 0.03857421875, 0.205810546875, -0.804443359375
188, 2916300442, -5.378035545349121, -2.118938684463501, 7.777527809143066, -0.047678038477897644, -0.5273526310920715, -0.875109076499939, 0.03857421875, 0.205810546875, -0.80224609375
189, 2916317109, -5.381943225860596, -2.1129534244537354, 7.758267879486084, -0.02822519652545452, -0.5619426965713501, -0.7494788765907288, 0.03857421875, 0.2041015625, -0.802734375
190, 2916333776, -5.383825778961182, -2.1119651794433594, 7.780163764953613, -0.008810767903923988, -0.5493155121803284, -0.7929819226264954, 0.03955078125, 0.206298828125, -0.80224609375
191, 2916350443, -5.366250991821289, -2.1001338958740234, 7.782248497009277, -0.09944130480289459, -0.47026199102401733, -0.7231489419937134, 0.04052734375, 0.205078125, -0.8037109375
192, 2916367110, -5.383359432220459, -2.109787702560425, 7.761048316955566, -0.08354862779378891, -0.4397572875022888, -0.7525395750999451, 0.04248046875, 0.207763671875, -0.8017578125
193, 2916383777, -5.380908966064453, -2.1244935989379883, 7.769373893737793, -0.09329425543546677, -0.501803994178772, -0.7330610156059265, 0.03955078125, 0.206787109375, -0.80419921875
194, 2916400444, -5.372167110443115, -2.119508981704712, 7.757318496704102, -0.04042964428663254, -0.4614127278327942, -0.8124732375144958, 0.04052734375, 0.205322265625, -0.80322265625
195, 2916417111, -5.363921642303467, -2.1251187324523926, 7.774403095245361, 0.07946979999542236, -0.4837982654571533, -0.672128438949585, 0.0390625, 0.206787109375, -0.8037109375
196, 2916433778, -5.376864910125732, -2.0967631340026855, 7.789133548736572, 0.007638987153768539, -0.5773870348930359, -0.8365107774734497, 0.0400390625, 0.205078125, -0.8037109375
197, 2916450445, -5.382852554321289, -2.1023097038269043, 7.7822651863098145, -0.02235988713800907, -0.6152682304382324, -0.9251691102981567, 0.038330078125, 0.207275390625, -0.802978515625
198, 2916467112, -5.368483066558838, -2.09971284866333, 7.76007080078125, -0.0965854823589325, -0.6468359231948853, -0.9728342890739441, 0.0390625, 0.206787109375, -0.8037109375
199, 2916483779, -5.376979351043701, -2.1041054725646973, 7.792575359344482, -0.07655635476112366, -0.6016166806221008, -0.9223900437355042, 0.03955078125, 0.206787109375, -0.8037109375
200, 2916500446, -5.368350505828857, -2.117764949798584, 7.772542953491211, 0.01751268282532692, -0.5950982570648193, -0.8579998016357422, 0.0400390625, 0.205078125, -0.80224609375
201, 2916517113, -5.3816914558410645, -2.122666835784912, 7.764278411865234, 0.06004257872700691, -0.5198610424995422, -0.7773327231407166, 0.0400390625, 0.20458984375, -0.80029296875
202, 2916533780, -5.386433124542236, -2.102220058441162, 7.784934997558594, 0.06908386200666428, -0.5807296633720398, -0.6484879851341248, 0.0419921875, 0.20263671875, -0.802734375
203, 2916550447, -5.380928039550781, -2.099970579147339, 7.794137001037598, 0.005487521179020405, -0.44744107127189636, -0.7545245885848999, 0.03955078125, 0.207275390625, -0.8017578125
204, 2916567114, -5.3710832595825195, -2.1047897338867188, 7.761373996734619, 2.2411110694520175E-4, -0.4548943340778351, -0.7622467279434204, 0.04052734375, 0.207763671875, -0.80419921875
205, 2916583781, -5.381484508514404, -2.1159260272979736, 7.786332607269287, -0.055989354848861694, -0.46270620822906494, -0.7757830619812012, 0.038330078125, 0.2060546875, -0.802734375
206, 2916600448, -5.3716206550598145, -2.1107919216156006, 7.773351669311523, 0.010610060766339302, -0.4479788839817047, -0.6998029351234436, 0.03955078125, 0.2041015625, -0.80078125
207, 2916617115, -5.379195213317871, -2.096605062484741, 7.773423194885254, 0.023057833313941956, -0.32982751727104187, -0.7146583199501038, 0.04150390625, 0.205810546875, -0.80078125
208, 2916633782, -5.383601188659668, -2.0960185527801514, 7.766385078430176, -0.035191845148801804, -0.4355055093765259, -0.714299738407135, 0.03955078125, 0.2041015625, -0.8017578125
209, 2916650449, -5.378262042999268, -2.1100378036499023, 7.758331298828125, -0.059575144201517105, -0.3797723054885864, -0.7429988384246826, 0.03955078125, 0.206787109375, -0.80322265625
210, 2916667116, -5.3844194412231445, -2.111191987991333, 7.8130292892456055, -0.1160639226436615, -0.352072149515152, -0.7132880091667175, 0.041015625, 0.207763671875, -0.804931640625
211, 2916683783, -5.3755974769592285, -2.1004695892333984, 7.763914585113525, -0.09843549132347107, -0.3978402614593506, -0.761319100856781, 0.0390625, 0.20556640625, -0.805908203125
212, 2916700450, -5.387175559997559, -2.097771167755127, 7.7721943855285645, -0.0541580505669117, -0.612028181552887, -0.7487488389015198, 0.041015625, 0.205078125, -0.802734375
213, 2916717117, -5.379923343658447, -2.093750238418579, 7.793913841247559, -0.01021946594119072, -0.6317501068115234, -0.8380730748176575, 0.0390625, 0.20556640625, -0.8017578125
214, 2916733784, -5.383289337158203, -2.0952558517456055, 7.78922176361084, -0.01007859781384468, -0.6731401085853577, -0.8373944163322449, 0.03955078125, 0.20556640625, -0.80322265625
215, 2916750451, -5.375580787658691, -2.097287178039551, 7.796750545501709, 0.0187677051872015, -0.6146535277366638, -0.8011524081230164, 0.0390625, 0.205078125, -0.804443359375
216, 2916767118, -5.373907566070557, -2.1163554191589355, 7.7944016456604, 0.015694182366132736, -0.5492770671844482, -0.7321133613586426, 0.039794921875, 0.208740234375, -0.804443359375
217, 2916783785, -5.392724990844727, -2.1013166904449463, 7.75960636138916, 0.06682993471622467, -0.4724262058734894, -0.6955128312110901, 0.0400390625, 0.206298828125, -0.804931640625
218, 2916800452, -5.400412559509277, -2.0858371257781982, 7.7845988273620605, -0.06755349040031433, -0.4008259177207947, -0.7183976769447327, 0.0400390625, 0.203125, -0.802734375
219, 2916817119, -5.395012855529785, -2.087538957595825, 7.772912979125977, -0.05162239447236061, -0.5005745887756348, -0.8036240339279175, 0.03857421875, 0.205810546875, -0.8037109375
220, 2916833786, -5.392848968505859, -2.0937230587005615, 7.780294895172119, 0.030319033190608025, -0.44078174233436584, -0.7500166296958923, 0.041015625, 0.2041015625, -0.8037109375
221, 2916850453, -5.379241466522217, -2.084338903427124, 7.75151252746582, -0.060868579894304276, -0.6163439750671387, -0.8271365165710449, 0.0400390625, 0.205322265625, -0.8037109375
222, 2916867120, -5.380972862243652, -2.0986247062683105, 7.769601821899414, -0.043567199259996414, -0.6008481979370117, -0.870998203754425, 0.041015625, 0.206298828125, -0.806396484375
223, 2916883787, -5.3696064949035645, -2.0969767570495605, 7.7648396492004395, -0.06827066093683243, -0.5493667721748352, -0.8073123693466187, 0.0419921875, 0.20361328125, -0.8046875
224, 2916900454, -5.3745856285095215, -2.101087808609009, 7.7926788330078125, -0.016853157430887222, -0.5979540944099426, -0.8661447167396545, 0.038330078125, 0.206298828125, -0.8017578125
225, 2916917121, -5.3689045906066895, -2.092884063720703, 7.780276775360107, -0.014573628082871437, -0.4204324781894684, -0.7987704873085022, 0.037353515625, 0.205078125, -0.802978515625
226, 2916933788, -5.386731147766113, -2.0937769412994385, 7.779932975769043, -0.0905793085694313, -0.48404157161712646, -0.7813665866851807, 0.0400390625, 0.20263671875, -0.805908203125
227, 2916950455, -5.388448238372803, -2.101006269454956, 7.7957916259765625, -0.10106770694255829, -0.44494378566741943, -0.7648463249206543, 0.0390625, 0.20458984375, -0.80419921875
228, 2916967122, -5.390868186950684, -2.0897960662841797, 7.767605304718018, 0.012595044448971748, -0.5035200715065002, -0.8301460146903992, 0.04052734375, 0.206787109375, -0.80419921875
229, 2916983789, -5.37991189956665, -2.094452142715454, 7.7793965339660645, -0.04229937121272087, -0.5361890196800232, -0.7345593571662903, 0.03857421875, 0.2041015625, -0.8037109375
230, 2917000456, -5.387283802032471, -2.097344398498535, 7.764001846313477, -0.04414348676800728, -0.5393906235694885, -0.8251898884773254, 0.03955078125, 0.205078125, -0.8017578125
231, 2917017123, -5.384663105010986, -2.0913984775543213, 7.787881374359131, -0.08217834681272507, -0.5083864331245422, -0.8766586184501648, 0.03955078125, 0.207275390625, -0.80224609375
232, 2917033790, -5.383328437805176, -2.099067449569702, 7.7728376388549805, -0.02200130932033062, -0.37060296535491943, -0.8147528171539307, 0.03857421875, 0.20556640625, -0.80322265625
233, 2917050457, -5.388049125671387, -2.0911612510681152, 7.779488563537598, -0.05491362512111664, -0.3664793372154236, -0.7891913056373596, 0.041015625, 0.20458984375, -0.8037109375
234, 2917067124, -5.377197742462158, -2.1001229286193848, 7.752339839935303, -0.12673163414001465, -0.3534040153026581, -0.85761559009552, 0.03955078125, 0.20361328125, -0.804931640625
235, 2917083791, -5.364478588104248, -2.099228858947754, 7.761509418487549, -0.12139137834310532, -0.21230365335941315, -0.8053529262542725, 0.0419921875, 0.206787109375, -0.8056640625
236, 2917100458, -5.398820877075195, -2.0738706588745117, 7.767822742462158, -0.09731545299291611, -0.26258140802383423, -0.6671083569526672, 0.041015625, 0.20458984375, -0.8037109375
237, 2917117125, -5.39423131942749, -2.0673718452453613, 7.767699718475342, -0.054708730429410934, -0.37080785632133484, -0.813997209072113, 0.04052734375, 0.2041015625, -0.805419921875
238, 2917133792, -5.403043746948242, -2.068586826324463, 7.782998085021973, -0.09466453641653061, -0.435403048992157, -0.9145654439926147, 0.041015625, 0.2041015625, -0.80419921875
239, 2917150459, -5.38998556137085, -2.079451084136963, 7.77852201461792, -0.13470999896526337, -0.53425532579422, -0.8640957474708557, 0.04052734375, 0.205810546875, -0.806884765625
240, 2917167126, -5.382697105407715, -2.081540584564209, 7.786758899688721, -0.1562630981206894, -0.46639445424079895, -0.8804237842559814, 0.04150390625, 0.204833984375, -0.80419921875
241, 2917183793, -5.3838114738464355, -2.100271463394165, 7.755856513977051, -0.06605514883995056, -0.5407993197441101, -0.7917141318321228, 0.041015625, 0.2041015625, -0.8037109375
242, 2917200460, -5.376351356506348, -2.0692977905273438, 7.769750118255615, -0.12355565279722214, -0.52488112449646, -0.8120378255844116, 0.04052734375, 0.205078125, -0.806884765625
243, 2917217127, -5.383200645446777, -2.0972137451171875, 7.799577236175537, -0.08730088919401169, -0.39333420991897583, -0.8377273678779602, 0.03857421875, 0.2041015625, -0.80078125
244, 2917233794, -5.376213073730469, -2.0894174575805664, 7.773068904876709, -0.10909728705883026, -0.39337262511253357, -0.7319852709770203, 0.0419921875, 0.203125, -0.80322265625
245, 2917250461, -5.383181095123291, -2.0788464546203613, 7.785828113555908, -0.15581141412258148, -0.47746220231056213, -0.8317455053329468, 0.04296875, 0.206298828125, -0.8037109375
246, 2917267128, -5.381157398223877, -2.0804600715637207, 7.764423847198486, -0.07564710825681686, -0.4262465238571167, -0.7941986322402954, 0.04052734375, 0.20361328125, -0.8046875
247, 2917283795, -5.388869762420654, -2.072568893432617, 7.755878925323486, -0.02205253392457962, -0.6306743025779724, -0.8509050607681274, 0.0400390625, 0.20263671875, -0.802734375
248, 2917300462, -5.388794422149658, -2.066519260406494, 7.7593841552734375, -0.03451310843229294, -0.6524835228919983, -0.8086568713188171, 0.03955078125, 0.205810546875, -0.802734375
249, 2917317129, -5.380526065826416, -2.0799341201782227, 7.774336338043213, -0.0577310211956501, -0.5547069907188416, -0.794032096862793, 0.03662109375, 0.20361328125, -0.802734375
250, 2917333796, -5.372105598449707, -2.0923256874084473, 7.774016380310059, -0.11501382291316986, -0.5036865472793579, -0.9250026345252991, 0.04052734375, 0.2021484375, -0.8046875
251, 2917350463, -5.384119033813477, -2.084338903427124, 7.792843341827393, -0.14206083118915558, -0.39081138372421265, -0.7805982232093811, 0.0400390625, 0.205322265625, -0.806884765625
252, 2917367130, -5.37490701675415, -2.0721914768218994, 7.780179500579834, -0.2686900794506073, -0.27054697275161743, -0.8587170839309692, 0.04150390625, 0.205810546875, -0.802734375
253, 2917383797, -5.3893046379089355, -2.062530040740967, 7.767918586730957, -0.1656501442193985, -0.4096366763114929, -0.8345129489898682, 0.0380859375, 0.20361328125, -0.804931640625
254, 2917400464, -5.3944854736328125, -2.079770803451538, 7.77607536315918, -0.13181576132774353, -0.45608529448509216, -0.851827085018158, 0.04248046875, 0.20361328125, -0.80078125
255, 2917417131, -5.394687175750732, -2.079519748687744, 7.75793981552124, -0.05353054404258728, -0.4778561592102051, -0.8451679348945618, 0.04052734375, 0.2041015625, -0.8037109375
256, 2917433798, -5.394189834594727, -2.072783946990967, 7.7641401290893555, -0.09011827409267426, -0.5563846230506897, -0.8339365720748901, 0.04052734375, 0.203125, -0.80078125
257, 2917450465, -5.387540340423584, -2.0727219581604004, 7.793547630310059, -0.1158718541264534, -0.47555097937583923, -0.9016053676605225, 0.04052734375, 0.206787109375, -0.80419921875
258, 2917467132, -5.388406753540039, -2.0767500400543213, 7.775857925415039, -0.20189210772514343, -0.3874048888683319, -0.9216346740722656, 0.04150390625, 0.20458984375, -0.8017578125
259, 2917483799, -5.407613277435303, -2.075762987136841, 7.7631025314331055, -0.1780978888273239, -0.39980143308639526, -0.8606507182121277, 0.03955078125, 0.20556640625, -0.80419921875
260, 2917500466, -5.391408920288086, -2.0860519409179688, 7.765509128570557, -0.14663270115852356, -0.4114808142185211, -0.8681551814079285, 0.0419921875, 0.20263671875, -0.806640625
261, 2917517133, -5.391519546508789, -2.083080291748047, 7.7700300216674805, -0.10881555825471878, -0.4598248302936554, -0.8722533583641052, 0.04150390625, 0.20361328125, -0.80322265625
262, 2917533800, -5.393583297729492, -2.068330764770508, 7.783842086791992, -0.16374196112155914, -0.4133889675140381, -0.7955816388130188, 0.04150390625, 0.205078125, -0.8017578125
263, 2917550467, -5.386415958404541, -2.073582649230957, 7.773484230041504, -0.17998044192790985, -0.4238261282444, -0.8596005439758301, 0.04345703125, 0.20361328125, -0.80419921875
264, 2917567134, -5.394878387451172, -2.078014612197876, 7.761487007141113, -0.1909426599740982, -0.4690069556236267, -0.9800571203231812, 0.04150390625, 0.205322265625, -0.80419921875
265, 2917583801, -5.381145477294922, -2.0829763412475586, 7.772451400756836, -0.1020922139286995, -0.4942994713783264, -0.88783860206604, 0.04296875, 0.20361328125, -0.80615234375
266, 2917600468, -5.396963119506836, -2.076258897781372, 7.780466079711914, -0.08176852762699127, -0.5268275737762451, -0.8897209763526917, 0.041015625, 0.20458984375, -0.802734375
267, 2917617135, -5.385868072509766, -2.070800542831421, 7.786709308624268, -0.1335190087556839, -0.5356512665748596, -0.8730985522270203, 0.0419921875, 0.20361328125, -0.80126953125
268, 2917633802, -5.393732070922852, -2.066671133041382, 7.7914886474609375, -0.18503893911838531, -0.4823767840862274, -0.9618208408355713, 0.04150390625, 0.201171875, -0.80517578125
269, 2917650469, -5.393205165863037, -2.0808565616607666, 7.782902240753174, -0.21408376097679138, -0.27196845412254333, -0.9558787941932678, 0.0390625, 0.2041015625, -0.805419921875
270, 2917667136, -5.395574569702148, -2.0611095428466797, 7.7837629318237305, -0.2130848467350006, -0.2404007762670517, -0.8962907195091248, 0.0390625, 0.2041015625, -0.804931640625
271, 2917683803, -5.4212870597839355, -2.0587518215179443, 7.760132789611816, -0.4124797284603119, -0.4834141135215759, -1.0580222606658936, 0.0439453125, 0.205322265625, -0.8046875
272, 2917700470, -5.384380340576172, -2.088744878768921, 7.767335414886475, -0.4603627026081085, -0.46055474877357483, -1.198110818862915, 0.04248046875, 0.2041015625, -0.80419921875
273, 2917717137, -5.419571876525879, -2.069949150085449, 7.78947639465332, -0.3896588087081909, -0.5199761986732483, -1.1960490942001343, 0.03955078125, 0.20166015625, -0.8037109375
274, 2917733804, -5.420145034790039, -2.065709114074707, 7.8032426834106445, -0.6592068672180176, -0.7312554121017456, -1.5040802955627441, 0.041015625, 0.20458984375, -0.80126953125
275, 2917750471, -5.422198295593262, -2.0658962726593018, 7.770481586456299, -0.5939841270446777, -1.1067758798599243, -1.6105520725250244, 0.04150390625, 0.2041015625, -0.8046875
276, 2917767138, -5.404737949371338, -2.060758113861084, 7.788547039031982, -0.5812289714813232, -1.1852532625198364, -1.9066864252090454, 0.041015625, 0.205078125, -0.8056640625
277, 2917783805, -5.413425922393799, -2.089209794998169, 7.767805576324463, -0.462257981300354, -1.2475178241729736, -1.8797799348831177, 0.04052734375, 0.20458984375, -0.80419921875
278, 2917800472, -5.371057987213135, -2.0926506519317627, 7.781750679016113, -0.5147640705108643, -1.2347114086151123, -1.9514572620391846, 0.0400390625, 0.205078125, -0.80224609375
279, 2917817139, -5.400101184844971, -2.0897092819213867, 7.761552810668945, -0.48248255252838135, -1.3426214456558228, -2.104478120803833, 0.03955078125, 0.203125, -0.80126953125
280, 2917833806, -5.404196739196777, -2.0394320487976074, 7.761409759521484, -0.5360866189002991, -1.520164966583252, -2.2525088787078857, 0.0380859375, 0.20263671875, -0.80126953125
281, 2917850473, -5.154221534729004, -2.1302249431610107, 7.738928318023682, -1.0810608863830566, -1.3872734308242798, -2.297459125518799, 0.04052734375, 0.205322265625, -0.802734375
282, 2917867140, -5.309462070465088, -2.075460910797119, 7.813085556030273, -1.6412359476089478, -0.04665352776646614, -1.913908839225769, 0.04150390625, 0.2041015625, -0.806396484375
283, 2917883807, -5.3715996742248535, -2.007725477218628, 7.839113235473633, -2.614659547805786, 0.8858088254928589, -2.3560099601745605, 0.03955078125, 0.206298828125, -0.80419921875
284, 2917900474, -5.476470947265625, -2.0489494800567627, 7.795926094055176, -3.578119993209839, 0.8860650062561035, -2.9640300273895264, 0.03955078125, 0.205810546875, -0.80126953125
285, 2917917141, -5.480005264282227, -2.0747530460357666, 7.754756927490234, -4.055322647094727, 0.6536681056022644, -3.68615460395813, 0.04052734375, 0.206787109375, -0.8017578125
286, 2917933808, -5.408963680267334, -2.1226658821105957, 7.714430332183838, -4.027290344238281, -0.011256782338023186, -3.957982301712036, 0.038330078125, 0.2060546875, -0.80078125
287, 2917950475, -5.326387882232666, -2.1629726886749268, 7.743274688720703, -3.8324930667877197, -0.7805471420288086, -3.9824554920196533, 0.039794921875, 0.212158203125, -0.80224609375
288, 2917967142, -5.353360652923584, -2.225480556488037, 7.750903606414795, -2.838271379470825, -1.0492243766784668, -3.357146978378296, 0.039306640625, 0.212158203125, -0.802978515625
289, 2917983809, -5.370477676391602, -2.168579339981079, 7.748510837554932, -2.303683280944824, -1.2331620454788208, -3.0559284687042236, 0.039306640625, 0.212158203125, -0.803955078125
290, 2918000476, -5.33146858215332, -2.2012579441070557, 7.762533187866211, -2.048734188079834, -1.3046725988388062, -2.9896554946899414, 0.039306640625, 0.210205078125, -0.802734375
291, 2918017143, -5.29464864730835, -2.247063636779785, 7.7607011795043945, -1.8858884572982788, -0.6935021877288818, -2.636033296585083, 0.036865234375, 0.210693359375, -0.801025390625
292, 2918033810, -5.306098461151123, -2.2579917907714844, 7.745517253875732, -1.499137043952942, -0.2578814923763275, -1.8925480842590332, 0.038330078125, 0.211181640625, -0.802001953125
293, 2918050477, -5.34228515625, -2.2462685108184814, 7.751306056976318, -0.9716178178787231, -0.06205957382917404, -1.203694462776184, 0.037841796875, 0.212646484375, -0.802490234375
294, 2918067144, -5.359143257141113, -2.2507083415985107, 7.760904312133789, -0.3733178675174713, -0.13889765739440918, -0.7491586208343506, 0.039306640625, 0.21533203125, -0.804443359375
295, 2918083811, -5.383858680725098, -2.1911423206329346, 7.738941192626953, -0.3424417972564697, -0.08696792274713516, -0.7122763395309448, 0.039306640625, 0.210693359375, -0.802734375
296, 2918100478, -5.326005935668945, -2.2274723052978516, 7.755702495574951, -0.43902724981307983, -0.018774107098579407, -0.7853749394416809, 0.037353515625, 0.212646484375, -0.801025390625
297, 2918117145, -5.375703811645508, -2.220362901687622, 7.735383033752441, -0.417704701423645, 0.312173992395401, -0.6860489845275879, 0.038818359375, 0.211181640625, -0.7998046875
298, 2918133812, -5.403935432434082, -2.211487293243408, 7.74927282333374, -0.21842510998249054, 0.29642221331596375, -0.3360898792743683, 0.037841796875, 0.212646484375, -0.80029296875
299, 2918150479, -5.405394077301025, -2.224010705947876, 7.768898963928223, 0.16673226654529572, 0.06478092074394226, -0.13203346729278564, 0.043212890625, 0.21435546875, -0.8037109375
300, 2918167146, -5.3898162841796875, -2.1913068294525146, 7.753178119659424, 0.4185307025909424, -0.3338487148284912, -0.018364304676651955, 0.039306640625, 0.211669921875, -0.803955078125
301, 2918183813, -5.394712448120117, -2.1786577701568604, 7.738612174987793, 0.36360427737236023, -0.4297042191028595, -0.27514439821243286, 0.039794921875, 0.211181640625, -0.804931640625
302, 2918200480, -5.373841285705566, -2.168865919113159, 7.765470027923584, 0.1396852433681488, -0.39394888281822205, -0.5733530521392822, 0.040283203125, 0.211181640625, -0.79931640625
303, 2918217147, -5.342642784118652, -2.1940853595733643, 7.7752790451049805, -0.2077573984861374, -0.26066043972969055, -0.7450990080833435, 0.040283203125, 0.210205078125, -0.80078125
304, 2918233814, -5.338450908660889, -2.2120566368103027, 7.766263484954834, -0.5102689862251282, 0.46898773312568665, -0.7694950699806213, 0.041748046875, 0.210693359375, -0.798828125
305, 2918250481, -5.30927848815918, -2.2628695964813232, 7.749716281890869, -0.43929624557495117, 1.1023130416870117, -0.4461732506752014, 0.040283203125, 0.211669921875, -0.80322265625
306, 2918267148, -5.294264316558838, -2.2190468311309814, 7.799849987030029, -0.9522160887718201, 2.2921383380889893, 0.13100256025791168, 0.038330078125, 0.213623046875, -0.802490234375
307, 2918283815, -5.339385509490967, -2.1515541076660156, 7.811054229736328, -2.7437093257904053, 4.473495006561279, -0.08718562871217728, 0.042724609375, 0.213134765625, -0.8017578125
308, 2918300482, -5.183053016662598, -2.300903081893921, 7.845591068267822, -4.2518110275268555, 7.21861457824707, 1.010273814201355, 0.043701171875, 0.2138671875, -0.80126953125
309, 2918317149, -5.171630382537842, -2.2398998737335205, 7.879230499267578, -6.572056770324707, 11.623903274536133, 2.77449107170105, 0.04638671875, 0.21240234375, -0.80029296875
310, 2918333816, -4.971291542053223, -2.327846050262451, 7.854853630065918, -9.636330604553223, 16.830429077148438, 5.357447147369385, 0.05029296875, 0.21435546875, -0.797119140625
311, 2918350483, -4.626009464263916, -2.5852863788604736, 8.092711448669434, -12.116766929626465, 26.625198364257812, 11.164592742919922, 0.0556640625, 0.2158203125, -0.798095703125
312, 2918367150, -4.036940574645996, -3.0674664974212646, 8.801491737365723, -16.386667251586914, 39.987083435058594, 23.80742645263672, 0.065185546875, 0.223388671875, -0.79736328125
313, 2918383817, -4.4819746017456055, -1.9398902654647827, 9.256513595581055, -20.318578720092773, 64.92903900146484, 32.846038818359375, 0.07958984375, 0.22216796875, -0.793701171875
314, 2918400484, -4.838698863983154, -2.3657050132751465, 9.599297523498535, -41.75519561767578, 91.33751678466797, 47.724449157714844, 0.10205078125, 0.227783203125, -0.783203125
315, 2918417151, -5.1517720222473145, -3.324064254760742, 9.973641395568848, -51.46588134765625, 114.12802124023438, 67.34856414794922, 0.131103515625, 0.236083984375, -0.773193359375
316, 2918433818, -6.158424377441406, -4.756888389587402, 9.805561065673828, -61.19439697265625, 134.80909729003906, 82.81513977050781, 0.16845703125, 0.243408203125, -0.762939453125
317, 2918450485, -5.642822265625, -5.026610374450684, 10.743633270263672, -57.796878814697266, 129.2688751220703, 96.66732788085938, 0.205322265625, 0.251220703125, -0.7451171875
318, 2918467152, -2.6559925079345703, -7.025933265686035, 15.88648509979248, -55.62202072143555, 99.53486633300781, 94.96697235107422, 0.238037109375, 0.254150390625, -0.7314453125
319, 2918483819, -0.01777099445462227, -9.65736198425293, 17.710790634155273, -38.780303955078125, 16.546358108520508, 48.96519470214844, 0.255615234375, 0.253662109375, -0.720458984375
320, 2918500486, 6.064029693603516, -6.328078746795654, 13.975135803222656, -8.513243675231934, -30.9488468170166, 5.501544952392578, 0.256103515625, 0.251708984375, -0.71044921875
321, 2918517153, 6.762553691864014, -2.8068599700927734, 13.182154655456543, -14.212130546569824, -43.75714874267578, -22.389074325561523, 0.253173828125, 0.250244140625, -0.703369140625
322, 2918533820, 5.054469585418701, -2.6947996616363525, 13.522279739379883, -18.871036529541016, -64.7275161743164, -36.78181457519531, 0.24951171875, 0.2509765625, -0.699951171875
323, 2918550487, 3.5274386405944824, -2.454367160797119, 13.344145774841309, -9.622710227966309, -92.13297271728516, -42.858314514160156, 0.236083984375, 0.25341796875, -0.697265625
324, 2918567154, 2.01971697807312, -2.2543208599090576, 12.70877742767334, -3.829324722290039, -112.85311889648438, -45.94989776611328, 0.22412109375, 0.25048828125, -0.698486328125
325, 2918583821, 0.11852309852838516, -2.6933634281158447, 11.767950057983398, -0.7760987877845764, -122.17063903808594, -46.59657287597656, 0.211669921875, 0.251220703125, -0.702880859375
326, 2918600488, -1.9456825256347656, -3.3394505977630615, 10.946449279785156, 3.0587496757507324, -119.87528228759766, -45.238037109375, 0.1982421875, 0.251220703125, -0.7060546875
327, 2918617155, -4.6071367263793945, -4.031562805175781, 10.524384498596191, 6.45387077331543, -113.01072692871094, -44.525699615478516, 0.189208984375, 0.259033203125, -0.71484375
328, 2918633822, -6.771694183349609, -4.456364631652832, 10.207612991333008, 9.884530067443848, -108.11933898925781, -44.53221130371094, 0.1787109375, 0.267578125, -0.729248046875
329, 2918650489, -8.138318061828613, -4.456998348236084, 9.665470123291016, 10.421402931213379, -101.73387145996094, -45.663665771484375, 0.16552734375, 0.28125, -0.748046875
330, 2918667156, -9.710102081298828, -4.3733930587768555, 9.336005210876465, 4.220738410949707, -94.92573547363281, -48.566314697265625, 0.142822265625, 0.296142578125, -0.768310546875
331, 2918683823, -10.500130653381348, -4.540975093841553, 8.776052474975586, -4.415952205657959, -94.0644760131836, -53.44683837890625, 0.1171875, 0.30908203125, -0.783447265625
332, 2918700490, -10.3952054977417, -4.441745758056641, 7.884673118591309, -9.11923885345459, -95.33201599121094, -57.18283462524414, 0.08203125, 0.31884765625, -0.792236328125
333, 2918717157, -10.010078430175781, -3.633958578109741, 6.902341365814209, -11.979363441467285, -93.52763366699219, -58.92698669433594, 0.047607421875, 0.323486328125, -0.801513671875
334, 2918733824, -9.63028335571289, -2.551060438156128, 6.080438137054443, -17.13534164428711, -86.89149475097656, -58.02162551879883, 0.013671875, 0.332763671875, -0.80126953125
335, 2918750491, -10.617621421813965, -1.4243957996368408, 5.944563865661621, -26.857418060302734, -81.71260070800781, -56.85856246948242, -0.017333984375, 0.339599609375, -0.802001953125
336, 2918767158, -12.673589706420898, -0.7031139135360718, 4.804335594177246, -36.62907028198242, -89.67345428466797, -56.10749816894531, -0.04638671875, 0.347900390625, -0.796142578125
337, 2918783825, -13.399174690246582, 0.06407869607210159, 1.9568672180175781, -32.707950592041016, -101.08311462402344, -42.01591873168945, -0.074951171875, 0.35498046875, -0.792724609375
338, 2918800492, -13.360044479370117, 1.9743672609329224, -1.4321955442428589, -25.541202545166016, -92.86727905273438, -16.032320022583008, -0.1005859375, 0.359375, -0.78662109375
339, 2918817159, -12.869160652160645, 3.274998903274536, -3.950655460357666, -28.438343048095703, -57.95424270629883, 13.668612480163574, -0.11865234375, 0.36181640625, -0.781982421875
340, 2918833826, -12.261061668395996, 2.420403480529785, -4.454399108886719, -32.06257629394531, -7.688815593719482, 41.74483108520508, -0.11962890625, 0.3701171875, -0.776123046875
341, 2918850493, -12.151201248168945, 0.34221965074539185, -2.738097906112671, -30.64904022216797, 36.70451736450195, 61.47796630859375, -0.109375, 0.37841796875, -0.77587890625
342, 2918867160, -5.191185474395752, -5.48219633102417, 2.5368967056274414, 44.45036697387695, 108.97042846679688, 83.3199234008789, -0.083251953125, 0.373046875, -0.77978515625
343, 2918883827, -3.3177921772003174, -6.408416748046875, 12.957756996154785, 20.15854835510254, 106.07614135742188, 50.05260467529297, -0.0517578125, 0.367431640625, -0.7841796875
344, 2918900494, 0.6999291777610779, -3.965761184692383, 3.7953386306762695, 10.215569496154785, 130.24681091308594, 33.16019821166992, -0.021240234375, 0.362060546875, -0.7841796875
345, 2918917161, -7.32311487197876, -2.512075662612915, 9.335616111755371, 0.25556984543800354, 167.3914031982422, 18.173734664916992, 0.01806640625, 0.36181640625, -0.78369140625
346, 2918933828, -11.146512031555176, -1.8578474521636963, 11.376884460449219, 7.8356614112854, 136.6021270751953, 20.551475524902344, 0.052978515625, 0.355712890625, -0.783447265625
347, 2918950495, -10.591241836547852, -0.06429148465394974, 11.251694679260254, 8.06119155883789, 98.97869873046875, 47.126102447509766, 0.08056640625, 0.3544921875, -0.781982421875
348, 2918967162, -8.466778755187988, -5.369744300842285, 8.240886688232422, 3.3566317558288574, 80.0434799194336, 38.979103088378906, 0.10009765625, 0.3525390625, -0.780517578125
349, 2918983829, -13.923866271972656, -7.519484519958496, 8.920365333557129, 64.40839385986328, 31.780651092529297, 41.05702590942383, 0.1181640625, 0.335693359375, -0.7822265625
350, 2919000496, -6.251855850219727, -1.8014118671417236, 9.136609077453613, 52.85248565673828, 13.565360069274902, 31.30035400390625, 0.125, 0.320556640625, -0.784423828125
351, 2919017163, -6.107336044311523, -2.769009590148926, 7.6851043701171875, 48.91712188720703, 1.2946652173995972, 25.553531646728516, 0.126708984375, 0.30810546875, -0.791748046875
352, 2919033830, -6.756580829620361, -1.0009273290634155, 9.114258766174316, 36.70311737060547, -2.4677212238311768, 17.666879653930664, 0.128662109375, 0.300537109375, -0.794677734375
353, 2919050497, -5.977166652679443, -1.6744450330734253, 8.613306999206543, 21.318073272705078, -3.9267799854278564, 8.928725242614746, 0.1318359375, 0.29150390625, -0.796142578125
354, 2919067164, -5.8312788009643555, -1.5497751235961914, 8.488255500793457, 8.151877403259277, -1.0106900930404663, 1.539701223373413, 0.12939453125, 0.29150390625, -0.799560546875
355, 2919083831, -5.501553535461426, -2.0948967933654785, 8.095864295959473, 0.5495908856391907, 1.473376989364624, -2.9004080295562744, 0.130859375, 0.28857421875, -0.799072265625
356, 2919100498, -5.370520114898682, -2.3137683868408203, 7.891982555389404, -2.2920546531677246, 2.519412040710449, -3.7196810245513916, 0.13037109375, 0.28955078125, -0.798095703125
357, 2919117165, -5.168426990509033, -2.671872138977051, 7.6832122802734375, -2.8429458141326904, 3.613600492477417, -3.1549088954925537, 0.1318359375, 0.291015625, -0.795166015625
358, 2919133832, -5.079910755157471, -2.7826054096221924, 7.516293048858643, -1.328505039215088, 4.203715801239014, -0.812780499458313, 0.1328125, 0.291015625, -0.79541015625
359, 2919150499, -5.350472927093506, -2.5925381183624268, 7.546982765197754, 0.5782259702682495, 3.720174789428711, 1.1482751369476318, 0.13232421875, 0.291015625, -0.794921875
360, 2919167166, -5.426681041717529, -2.240241527557373, 7.671369552612305, 1.6092138290405273, 2.3892743587493896, 1.4282985925674438, 0.1328125, 0.2900390625, -0.798583984375
361, 2919183833, -5.270410060882568, -2.404770612716675, 7.670536041259766, 1.8416492938995361, 1.5643020868301392, 0.770385205745697, 0.1318359375, 0.28955078125, -0.795654296875
362, 2919200500, -5.299578666687012, -2.6152968406677246, 7.538035869598389, 3.568995475769043, 0.31200751662254333, 1.5382413864135742, 0.135498046875, 0.28662109375, -0.7958984375
363, 2919217167, -5.382283687591553, -2.549931526184082, 7.570179462432861, 6.031876087188721, -1.7245547771453857, 3.0112411975860596, 0.134033203125, 0.287109375, -0.800537109375
364, 2919233834, -5.506931304931641, -2.3823423385620117, 7.6920599937438965, 7.5519633293151855, -3.339768409729004, 4.059760570526123, 0.136474609375, 0.285400390625, -0.798828125
365, 2919250501, -5.479742527008057, -2.2333738803863525, 7.805947780609131, 6.181568622589111, -3.307419776916504, 2.856860399246216, 0.134521484375, 0.284423828125, -0.801025390625
366, 2919267168, -5.330967426300049, -2.2721011638641357, 7.756126403808594, 5.5018839836120605, -2.5656116008758545, 2.3425698280334473, 0.135009765625, 0.283447265625, -0.800537109375
367, 2919283835, -5.175422191619873, -2.3898978233337402, 7.598845481872559, 5.553583145141602, -2.4687061309814453, 3.209752321243286, 0.133544921875, 0.280517578125, -0.799072265625
368, 2919300502, -5.11082649230957, -2.4637069702148438, 7.647188186645508, 7.761861324310303, -3.984158992767334, 5.460636138916016, 0.132568359375, 0.27783203125, -0.801513671875
369, 2919317169, -4.853237152099609, -2.675928831100464, 7.67268705368042, 8.64256763458252, -3.484161376953125, 7.3336944580078125, 0.133056640625, 0.2763671875, -0.802978515625
370, 2919333836, -5.159862518310547, -2.5089704990386963, 7.797954559326172, 8.670166969299316, -3.791694164276123, 11.081194877624512, 0.13330078125, 0.27294921875, -0.802001953125
371, 2919350503, -5.303142070770264, -2.1496262550354004, 8.024247169494629, 6.06710958480835, 0.5661884546279907, 13.60826301574707, 0.13525390625, 0.27001953125, -0.805419921875
372, 2919367170, -5.2145304679870605, -2.1511294841766357, 8.082456588745117, 1.8344923257827759, 8.537124633789062, 14.566295623779297, 0.13623046875, 0.2685546875, -0.8037109375
373, 2919383837, -4.98117208480835, -2.09382963180542, 8.1868896484375, -2.885929584503174, 18.20045280456543, 15.934237480163574, 0.144287109375, 0.2666015625, -0.80322265625
374, 2919400504, -4.81874942779541, -2.4531030654907227, 8.311636924743652, -6.711701393127441, 32.072723388671875, 18.551685333251953, 0.150146484375, 0.267578125, -0.801025390625
375, 2919417171, -4.353231430053711, -2.3832786083221436, 9.024701118469238, -5.2843194007873535, 52.302642822265625, 22.824066162109375, 0.16455078125, 0.2685546875, -0.797119140625
376, 2919433838, -4.693309783935547, -1.9547759294509888, 9.049871444702148, -7.422779083251953, 82.66704559326172, 22.26871681213379, 0.1826171875, 0.268798828125, -0.79345703125
377, 2919450505, -4.875391006469727, -1.8577200174331665, 9.226305961608887, -17.203994750976562, 116.90437316894531, 23.613895416259766, 0.20703125, 0.271484375, -0.784912109375
378, 2919467172, -5.1250481605529785, -2.1020102500915527, 9.253706932067871, -26.431150436401367, 157.33026123046875, 27.77857208251953, 0.240234375, 0.27490234375, -0.773193359375
379, 2919483839, -4.6134161949157715, -2.306952476501465, 9.89258098602295, -28.64959144592285, 204.64523315429688, 38.958675384521484, 0.287109375, 0.277587890625, -0.751220703125
380, 2919500506, -4.7952165603637695, -3.4696898460388184, 9.970492362976074, -28.528121948242188, 272.5444030761719, 57.03246307373047, 0.343994140625, 0.275146484375, -0.721923828125
381, 2919517173, -5.1536736488342285, -4.747819900512695, 10.056052207946777, -15.759917259216309, 344.0853271484375, 96.58879089355469, 0.413330078125, 0.26806640625, -0.681396484375
382, 2919533840, -7.45233154296875, -5.125554084777832, 11.54360580444336, -13.67908763885498, 399.5085144042969, 147.61790466308594, 0.495849609375, 0.252197265625, -0.622314453125
383, 2919550507, -17.103862762451172, -5.52582311630249, 15.009869575500488, -27.3499755859375, 410.91259765625, 171.3346710205078, 0.580078125, 0.22705078125, -0.55078125
384, 2919567174, -21.013341903686523, -8.047175407409668, 16.465211868286133, -38.08887481689453, 345.854248046875, 153.04782104492188, 0.645263671875, 0.203857421875, -0.475830078125
385, 2919583841, -13.106740951538086, -7.167050361633301, 14.664441108703613, -17.24273681640625, 276.41778564453125, 160.89346313476562, 0.6923828125, 0.1708984375, -0.409912109375
386, 2919600508, -4.082242012023926, -14.28541088104248, 19.159839630126953, 14.581103324890137, 234.66622924804688, 147.6573486328125, 0.7275390625, 0.1337890625, -0.354248046875
387, 2919617175, -10.561107635498047, -20.137805938720703, 26.080734252929688, 39.84463119506836, 88.01221466064453, 0.18042819201946259, 0.744140625, 0.11669921875, -0.315673828125
388, 2919633842, 3.145667552947998, -13.396541595458984, 18.810447692871094, 96.2839584350586, -47.74702072143555, -83.68741607666016, 0.742431640625, 0.120849609375, -0.314697265625
389, 2919650509, 6.942643642425537, -5.70836877822876, 13.966394424438477, 113.2655029296875, -80.4170150756836, -103.17682647705078, 0.745849609375, 0.12890625, -0.318359375
390, 2919667176, 4.333400726318359, -1.6821386814117432, 13.365043640136719, 77.36056518554688, -104.97733306884766, -109.38202667236328, 0.750244140625, 0.140625, -0.335205078125
391, 2919683843, 2.010108470916748, -0.5537182092666626, 12.016719818115234, 26.62760353088379, -141.5756378173828, -108.54178619384766, 0.758544921875, 0.160888671875, -0.36279296875
392, 2919700510, 0.41182461380958557, -0.5001271963119507, 10.50397777557373, -5.0814595222473145, -171.83273315429688, -92.00978088378906, 0.76708984375, 0.18603515625, -0.4140625
393, 2919717177, -2.410922050476074, -0.5517896413803101, 9.994758605957031, -20.67057991027832, -197.87864685058594, -70.3555679321289, 0.75830078125, 0.2099609375, -0.490234375
394, 2919733844, -5.486842155456543, -0.9482892155647278, 10.045906066894531, -34.13372802734375, -226.51443481445312, -58.574363708496094, 0.713623046875, 0.231689453125, -0.572021484375
395, 2919750511, -7.901169776916504, -1.3712934255599976, 9.849298477172852, -47.045928955078125, -257.11181640625, -56.86985397338867, 0.64208984375, 0.25048828125, -0.64404296875
396, 2919767178, -9.208438873291016, -1.751554250717163, 9.681825637817383, -58.82686233520508, -282.0494689941406, -59.34819030761719, 0.55810546875, 0.262451171875, -0.685791015625
397, 2919783845, -10.269122123718262, -2.5483598709106445, 9.70340633392334, -68.15943145751953, -296.9877014160156, -68.92872619628906, 0.490478515625, 0.28955078125, -0.71240234375
398, 2919800512, -11.319160461425781, -3.6118643283843994, 9.982410430908203, -69.66458129882812, -303.5206298828125, -82.98020935058594, 0.4365234375, 0.32373046875, -0.743896484375
399, 2919817179, -12.680068969726562, -4.104844093322754, 10.654511451721191, -68.01067352294922, -298.7688903808594, -98.10377502441406, 0.363525390625, 0.365478515625, -0.7939453125
400, 2919833846, -15.95852279663086, -4.361227512359619, 10.82970142364502, -67.80596923828125, -284.3669128417969, -110.33336639404297, 0.25830078125, 0.407958984375, -0.828369140625
401, 2919850513, -21.74773597717285, -4.79127311706543, 11.901546478271484, -72.56494140625, -271.92462158203125, -126.78820037841797, 0.138671875, 0.4375, -0.826171875
402, 2919867180, -27.834211349487305, -6.673121929168701, 9.984326362609863, -61.9241828918457, -287.5987243652344, -153.8926544189453, 0.03466796875, 0.44873046875, -0.802734375
403, 2919883847, -28.369314193725586, -7.6551833152771, 2.6064562797546387, 0.429389089345932, -305.0688171386719, -156.3328094482422, -0.058349609375, 0.442626953125, -0.786376953125
404, 2919900514, -27.325870513916016, -0.7915782928466797, -3.9291515350341797, 42.89257049560547, -276.5793762207031, -131.25839233398438, -0.137451171875, 0.42431640625, -0.771728515625
405, 2919917181, -30.503816604614258, 7.843267917633057, -9.096845626831055, -16.44489097595215, -212.2946319580078, -111.89683532714844, -0.197021484375, 0.40673828125, -0.7568359375
406, 2919933848, -32.430179595947266, 14.84287166595459, -18.598173141479492, -112.3346176147461, -127.41521453857422, -94.01746368408203, -0.24072265625, 0.41845703125, -0.730712890625
407, 2919950515, -21.968547821044922, 10.284073829650879, -25.88962745666504, -61.2234001159668, 64.62506866455078, 0.13238932192325592, -0.244384765625, 0.433349609375, -0.716796875
408, 2919967182, -20.477170944213867, 5.560191631317139, -5.872222423553467, 48.423221588134766, 200.1341552734375, 112.92628479003906, -0.193359375, 0.429931640625, -0.726318359375
409, 2919983849, -14.05155086517334, -16.5150089263916, 18.561256408691406, 84.85579681396484, 117.32794952392578, 88.10640716552734, -0.15234375, 0.415283203125, -0.741455078125
410, 2920000516, 2.505744218826294, -4.002758502960205, 3.154792308807373, 82.91329193115234, 120.60867309570312, 68.41783142089844, -0.12451171875, 0.395263671875, -0.7529296875
411, 2920017183, -7.504122734069824, 2.297105550765991, 11.58421516418457, 30.771739959716797, 212.16024780273438, 22.69329833984375, -0.0771484375, 0.38525390625, -0.753173828125
412, 2920033850, -15.804652214050293, 4.272769451141357, 15.581040382385254, 20.078489303588867, 161.04737854003906, 50.67789840698242, -0.037109375, 0.376953125, -0.7548828125
413, 2920050517, -11.356989860534668, -4.832107067108154, 9.746538162231445, 7.235800743103027, 104.7103271484375, 64.95394897460938, -0.006591796875, 0.376220703125, -0.7548828125
414, 2920067184, -12.050748825073242, -10.78514289855957, 8.961298942565918, 50.1285285949707, 87.61398315429688, 49.31101989746094, 0.021484375, 0.370849609375, -0.7578125
415, 2920083851, -10.225741386413574, 1.0543370246887207, 10.164884567260742, 52.20134735107422, 32.1303825378418, 32.941123962402344, 0.03271484375, 0.35498046875, -0.75927734375
416, 2920100518, -5.191122055053711, -4.199339866638184, 7.599354267120361, 42.52156448364258, 20.438859939575195, 27.24599266052246, 0.041259765625, 0.343017578125, -0.76318359375
417, 2920117185, -7.19304084777832, -2.2695839405059814, 8.449712753295898, 34.14628219604492, 16.100393295288086, 20.324504852294922, 0.046875, 0.33544921875, -0.762451171875
418, 2920133852, -5.492709159851074, -2.981137990951538, 7.8922953605651855, 28.815120697021484, 11.226969718933105, 15.493142127990723, 0.049072265625, 0.326904296875, -0.769287109375
419, 2920150519, -6.018489360809326, -2.101003885269165, 8.459155082702637, 23.871736526489258, 8.448546409606934, 12.159502029418945, 0.051513671875, 0.32080078125, -0.767333984375
420, 2920167186, -5.605146884918213, -2.3254268169403076, 8.128271102905273, 16.256792068481445, 8.141397476196289, 9.262441635131836, 0.0556640625, 0.3154296875, -0.770751953125
421, 2920183853, -5.689530372619629, -2.154982566833496, 7.959012508392334, 8.698213577270508, 7.901887893676758, 5.561244487762451, 0.058837890625, 0.3115234375, -0.772705078125
422, 2920200520, -5.317606449127197, -2.6039817333221436, 7.589237213134766, 4.600407600402832, 8.942121505737305, 3.8315017223358154, 0.063720703125, 0.310546875, -0.77099609375
423, 2920217187, -5.124896049499512, -3.185739278793335, 7.49833345413208, 4.465979099273682, 9.317511558532715, 5.448367595672607, 0.062255859375, 0.31201171875, -0.77099609375
424, 2920233854, -5.685286998748779, -3.1321053504943848, 7.4380669593811035, 5.941477298736572, 7.425055027008057, 8.124614715576172, 0.064697265625, 0.31005859375, -0.7724609375
425, 2920250521, -5.536453723907471, -2.792861223220825, 7.390469074249268, 7.119801998138428, 3.9011168479919434, 8.981218338012695, 0.06787109375, 0.307373046875, -0.77197265625
426, 2920267188, -5.222198963165283, -2.624324321746826, 7.84652042388916, 6.759893894195557, 4.198160648345947, 11.026050567626953, 0.06982421875, 0.306396484375, -0.772216796875
427, 2920283855, -5.692335605621338, -2.740572690963745, 7.571246147155762, 5.962941646575928, 7.493468284606934, 10.68908977508545, 0.07275390625, 0.303955078125, -0.773193359375
428, 2920300522, -5.652802467346191, -2.6763434410095215, 7.555350303649902, 4.782451152801514, 7.935607433319092, 10.67181396484375, 0.07275390625, 0.301513671875, -0.770751953125
429, 2920317189, -5.694388389587402, -2.4734787940979004, 7.4796247482299805, 2.698575258255005, 9.057854652404785, 12.4595308303833, 0.074951171875, 0.298095703125, -0.775146484375
430, 2920333856, -5.224850177764893, -2.635377883911133, 7.920839309692383, -4.917020320892334, 12.9870023727417, 18.255569458007812, 0.081298828125, 0.302001953125, -0.77197265625
431, 2920350523, -5.173150539398193, -2.59678316116333, 8.038811683654785, -16.161376953125, 18.45210075378418, 25.6791934967041, 0.08837890625, 0.3017578125, -0.767822265625
432, 2920367190, -5.117274761199951, -2.0858752727508545, 8.370142936706543, -5.862848281860352, 35.796607971191406, 22.000560760498047, 0.09716796875, 0.30322265625, -0.76611328125
433, 2920383857, -5.193258762359619, -2.0721893310546875, 8.446786880493164, -9.840911865234375, 58.40787124633789, 14.366024017333984, 0.109375, 0.30322265625, -0.763427734375
434, 2920400524, -5.171935081481934, -2.068714141845703, 8.606139183044434, -13.836997985839844, 86.0366439819336, 12.705455780029297, 0.130126953125, 0.304931640625, -0.758056640625
435, 2920417191, -5.211339950561523, -1.9394104480743408, 8.585892677307129, -19.663843154907227, 119.46498107910156, 11.621042251586914, 0.153564453125, 0.3076171875, -0.74853515625
436, 2920433858, -5.2917890548706055, -2.4130451679229736, 8.583911895751953, -29.187355041503906, 158.5044403076172, 14.83525276184082, 0.186279296875, 0.3115234375, -0.739013671875
437, 2920450525, -5.1776885986328125, -3.127232074737549, 8.822270393371582, -36.45960235595703, 205.44102478027344, 25.068084716796875, 0.229736328125, 0.32177734375, -0.721923828125
438, 2920467192, -4.92063045501709, -4.061758518218994, 8.726317405700684, -31.448802947998047, 261.5361022949219, 43.99655532836914, 0.281982421875, 0.32421875, -0.700927734375
439, 2920483859, -5.38918399810791, -5.292551040649414, 9.281156539916992, -27.897504806518555, 332.1950378417969, 79.5166015625, 0.351318359375, 0.3203125, -0.660888671875
440, 2920500526, -8.037490844726562, -6.902660369873047, 11.05943775177002, -13.352073669433594, 393.37347412109375, 141.18409729003906, 0.43115234375, 0.304443359375, -0.60986328125
441, 2920517193, -15.385519027709961, -7.067461013793945, 13.969549179077148, -26.82984161376953, 439.8201599121094, 176.9383087158203, 0.519775390625, 0.28076171875, -0.540283203125
442, 2920533860, -21.043609619140625, -5.468097686767578, 16.062368392944336, -50.93287658691406, 392.33367919921875, 160.801513671875, 0.596923828125, 0.255615234375, -0.46533203125
443, 2920550527, -19.947362899780273, -7.589646816253662, 16.201566696166992, -60.28241729736328, 306.1431884765625, 151.3089599609375, 0.655029296875, 0.23095703125, -0.396728515625
444, 2920567194, -8.636713027954102, -8.483631134033203, 15.222225189208984, -28.557262420654297, 233.17031860351562, 169.24563598632812, 0.696533203125, 0.197998046875, -0.341796875
445, 2920583861, -6.993985652923584, -21.34927749633789, 20.9699764251709, 37.022544860839844, 179.49525451660156, 109.54845428466797, 0.725341796875, 0.160888671875, -0.294921875
446, 2920600528, -10.770447731018066, -21.084230422973633, 27.45672035217285, 114.36563110351562, -30.12019920349121, -32.42707443237305, 0.727783203125, 0.146728515625, -0.2880859375
447, 2920617195, 4.756834030151367, -10.824408531188965, 17.531587600708008, 187.53851318359375, -139.33053588867188, -83.49745178222656, 0.720947265625, 0.13916015625, -0.312744140625
448, 2920633862, 7.28422212600708, -3.180433988571167, 13.490778923034668, 181.55296325683594, -154.13963317871094, -87.083984375, 0.70849609375, 0.132080078125, -0.34619140625
449, 2920650529, 4.793533802032471, 0.4222191572189331, 12.75076675415039, 114.86102294921875, -163.1717987060547, -90.55917358398438, 0.698486328125, 0.130126953125, -0.3779296875
450, 2920667196, 1.4790133237838745, 0.5215516090393066, 11.877664566040039, 35.88546371459961, -185.42764282226562, -91.06163787841797, 0.6875, 0.144287109375, -0.4189453125
451, 2920683863, -1.416695475578308, -1.2127900123596191, 10.27718448638916, -4.933836936950684, -215.53538513183594, -75.53631591796875, 0.664794921875, 0.164306640625, -0.4716796875
452, 2920700530, -4.412133693695068, -2.1049985885620117, 9.28897762298584, -13.292960166931152, -245.96018981933594, -56.241764068603516, 0.62060546875, 0.18115234375, -0.5283203125
453, 2920717197, -7.303823947906494, -2.168983221054077, 8.966480255126953, -20.009485244750977, -272.4953918457031, -47.75764083862305, 0.547607421875, 0.195068359375, -0.588134765625
454, 2920733864, -9.292272567749023, -2.3958048820495605, 8.976835250854492, -36.364253997802734, -292.4550476074219, -51.477352142333984, 0.459716796875, 0.20556640625, -0.619140625
455, 2920750531, -10.9137601852417, -3.101482629776001, 9.21367073059082, -56.91895294189453, -306.8094177246094, -63.33359909057617, 0.3740234375, 0.20263671875, -0.625
456, 2920767198, -11.977518081665039, -4.212257385253906, 9.887802124023438, -72.01860046386719, -314.7694091796875, -78.17381286621094, 0.308837890625, 0.18798828125, -0.611083984375
457, 2920783865, -14.354704856872559, -4.659837245941162, 10.512887954711914, -80.20115661621094, -316.57049560546875, -90.14788055419922, 0.286376953125, 0.16015625, -0.580322265625
458, 2920800532, -18.758684158325195, -3.577997922897339, 11.086142539978027, -98.82064819335938, -314.9287109375, -99.8576431274414, 0.333984375, 0.14697265625, -0.580078125
459, 2920817199, -24.46703338623047, -2.2403640747070312, 11.145065307617188, -134.51364135742188, -319.20263671875, -120.5663070678711, 0.403076171875, 0.19189453125, -0.659912109375
460, 2920833866, -28.436403274536133, -2.066880226135254, 8.089049339294434, -153.98228454589844, -330.9356384277344, -144.68942260742188, 0.385009765625, 0.3037109375, -0.778564453125
461, 2920850533, -28.731639862060547, -3.8144991397857666, 2.4177932739257812, -114.08003234863281, -330.00531005859375, -135.01377868652344, 0.267578125, 0.41552734375, -0.85693359375
462, 2920867200, -29.583078384399414, 0.2151123583316803, -3.7378621101379395, -49.18621826171875, -300.25146484375, -92.03184509277344, 0.132080078125, 0.48095703125, -0.880859375
463, 2920883867, -34.22731018066406, 7.064899444580078, -13.339485168457031, -38.00120544433594, -244.16896057128906, -68.00540161132812, 0.020751953125, 0.515625, -0.873779296875
464, 2920900534, -38.65476989746094, 14.284299850463867, -24.255849838256836, -73.49664306640625, -148.48110961914062, -70.87199401855469, -0.052490234375, 0.548583984375, -0.85693359375
465, 2920917201, -23.298099517822266, 8.768392562866211, -27.8638916015625, -22.927398681640625, 65.42267608642578, -10.110261917114258, -0.072265625, 0.574462890625, -0.846923828125
466, 2920933868, -9.04201602935791, -1.5844939947128296, 0.6014477610588074, 85.64385986328125, 233.14796447753906, 88.66343688964844, -0.010009765625, 0.568603515625, -0.863037109375
467, 2920950535, -11.997029304504395, -19.543678283691406, 15.020280838012695, 132.84962463378906, 147.91502380371094, 52.667823791503906, 0.037841796875, 0.550048828125, -0.882080078125
468, 2920967202, -1.537550687789917, 1.4624665975570679, 4.157650470733643, 145.0194854736328, 144.0508270263672, 74.27694702148438, 0.07666015625, 0.523193359375, -0.90478515625
469, 2920983869, -8.694698333740234, 5.641142845153809, 14.604697227478027, 86.82565307617188, 183.99444580078125, 44.159912109375, 0.124755859375, 0.506591796875, -0.914306640625
470, 2921000536, -14.613485336303711, 6.548976898193359, 15.686201095581055, 50.31993865966797, 143.67291259765625, 55.9882926940918, 0.173828125, 0.496337890625, -0.916748046875
471, 2921017203, -11.426911354064941, 0.8878844380378723, 12.409114837646484, 15.182607650756836, 104.30811309814453, 65.9538803100586, 0.209228515625, 0.4931640625, -0.911376953125
472, 2921033870, -12.57122802734375, -9.2659330368042, 10.673249244689941, 35.83173370361328, 90.67378234863281, 54.28957748413086, 0.24072265625, 0.490478515625, -0.912109375
473, 2921050537, -9.663370132446289, 0.059643082320690155, 9.291522026062012, 34.74549102783203, 46.73129653930664, 21.734357833862305, 0.25927734375, 0.4755859375, -0.913818359375
474, 2921067204, -7.049283981323242, -4.296899795532227, 8.147957801818848, 17.086519241333008, 29.144636154174805, 11.501453399658203, 0.272216796875, 0.47265625, -0.91650390625
475, 2921083871, -6.59124755859375, -3.6021950244903564, 7.77640962600708, 6.095312118530273, 17.73442840576172, 3.8451690673828125, 0.2783203125, 0.46875, -0.910888671875
476, 2921100538, -4.999369144439697, -4.068808555603027, 6.993343830108643, 10.355820655822754, 11.466336250305176, 8.55823040008545, 0.281494140625, 0.466552734375, -0.913330078125
477, 2921117205, -5.846947193145752, -2.746699810028076, 7.735502243041992, 14.2673921585083, 9.176513671875, 13.124090194702148, 0.284912109375, 0.462646484375, -0.9150390625
478, 2921133872, -6.837777614593506, -1.7429814338684082, 0.017000854015350342, 13.880654335021973, 12.75060749053955, 12.975690841674805, 0.2890625, 0.459228515625, -0.9130859375
479, 2921150539, -5.526300430297852, -2.202474594116211, 7.784535884857178, 8.822308540344238, 10.354218482971191, 8.227005004882812, 0.2939453125, 0.456298828125, -0.913818359375
480, 2921167206, -5.585672378540039, -2.7985002994537354, 7.662657260894775, 8.470026969909668, 11.666045188903809, 8.676362037658691, 0.296142578125, 0.45166015625, -0.916748046875
481, 2921183873, -5.491072654724121, -3.017648935317993, 7.42620325088501, 8.312346458435059, 9.950804710388184, 10.466324806213379, 0.302490234375, 0.45166015625, -0.918212890625
482, 2921200540, -5.761119365692139, -2.9017221927642822, 7.364173889160156, 9.348392486572266, 8.15709400177002, 11.122241020202637, 0.30517578125, 0.44580078125, -0.916015625
483, 2921217207, -5.673036575317383, -2.7922470569610596, 7.473112106323242, 8.459053993225098, 6.215009689331055, 11.083141326904297, 0.3095703125, 0.44287109375, -0.916015625
484, 2921233874, -5.753894329071045, -2.467242479324341, 7.506570816040039, 5.074934482574463, 6.32381010055542, 9.859426498413086, 0.311767578125, 0.44091796875, -0.916015625
485, 2921250541, -5.352482795715332, -2.885957717895508, 7.277254581451416, 4.332947731018066, 7.9100446701049805, 9.848210334777832, 0.315185546875, 0.43994140625, -0.91650390625
486, 2921267208, -5.459039211273193, -2.86759090423584, 7.091385364532471, 6.083348274230957, 8.885904312133789, 12.285186767578125, 0.319580078125, 0.4404296875, -0.9189453125
487, 2921283875, -5.51057767868042, -2.852994680404663, 7.221662998199463, 8.465606689453125, 10.859270095825195, 15.981025695800781, 0.322265625, 0.434326171875, -0.917724609375
488, 2921300542, -5.518115043640137, -2.5459916591644287, 7.588740348815918, 4.501063346862793, 11.482037544250488, 21.709901809692383, 0.328369140625, 0.431396484375, -0.9150390625
489, 2921317209, -5.441622257232666, -2.6109871864318848, 7.811679363250732, -2.92697811126709, 10.922553062438965, 29.26837921142578, 0.334716796875, 0.429931640625, -0.9169921875
490, 2921333876, -5.618579864501953, -2.550382375717163, 7.968395233154297, -5.851515769958496, 16.99351692199707, 30.600887298583984, 0.341796875, 0.428466796875, -0.911865234375
491, 2921350543, -5.380773067474365, -1.7163547277450562, 8.768292427062988, 1.2605443000793457, 38.292503356933594, 22.804189682006836, 0.353271484375, 0.424072265625, -0.909423828125
492, 2921367210, -5.202819347381592, -1.956803798675537, 8.889028549194336, -7.385608196258545, 65.98226928710938, 17.592573165893555, 0.371826171875, 0.4248046875, -0.904052734375
493, 2921383877, -5.435874938964844, -1.6398011445999146, 8.750919342041016, -14.411141395568848, 98.56200408935547, 14.756942749023438, 0.39453125, 0.430419921875, -0.8896484375
494, 2921400544, -5.369593143463135, -1.8363091945648193, 8.743374824523926, -21.421613693237305, 135.50563049316406, 11.942173957824707, 0.426513671875, 0.4306640625, -0.869873046875
495, 2921417211, -5.370098114013672, -2.6309173107147217, 8.79073715209961, -33.16549301147461, 178.345458984375, 18.311813354492188, 0.46923828125, 0.4384765625, -0.841064453125
496, 2921433878, -4.747865676879883, -4.684523582458496, 9.42665958404541, -33.09163284301758, 234.05499267578125, 36.46221923828125, 0.525146484375, 0.44189453125, -0.80126953125
497, 2921450545, -4.9156317710876465, -5.637585163116455, 9.472105979919434, -27.821701049804688, 311.3349914550781, 71.81550598144531, 0.596923828125, 0.43798828125, -0.7470703125
498, 2921467212, -8.365081787109375, -7.2671685218811035, 12.410978317260742, -14.584235191345215, 386.8351745605469, 137.54254150390625, 0.684814453125, 0.42138671875, -0.67138671875
499, 2921483879, -13.987296104431152, -6.330702781677246, 14.573036193847656, -20.30877113342285, 438.3400573730469, 185.76173400878906, 0.781005859375, 0.3857421875, -0.572265625
500, 2921500546, -19.975971221923828, -8.250152587890625, 17.52186393737793, -41.823734283447266, 399.2100830078125, 179.36114501953125, 0.85595703125, 0.347900390625, -0.46728515625
501, 2921517213, -19.033864974975586, -8.595636367797852, 17.242286682128906, -28.709712982177734, 312.3471374511719, 188.22100830078125, 0.904541015625, 0.29736328125, -0.37353515625
502, 2921533880, -7.823789119720459, -8.465682983398438, 17.281641006469727, -12.86413860321045, 246.10105895996094, 194.84503173828125, 0.9375, 0.245849609375, -0.3046875
503, 2921550547, -6.461543083190918, -20.35992431640625, 23.80339813232422, 25.794570922851562, 186.2236328125, 122.41092681884766, 0.954345703125, 0.199462890625, -0.246826171875
504, 2921567214, -10.05532169342041, -20.997587203979492, 29.16063117980957, 65.24232482910156, -41.4318962097168, -43.29490280151367, 0.943603515625, 0.20556640625, -0.253662109375
505, 2921583881, 7.645803928375244, -12.033937454223633, 16.210783004760742, 129.60675048828125, -138.7018585205078, -107.05526733398438, 0.91748046875, 0.228515625, -0.300048828125
506, 2921600548, 8.161840438842773, -4.138332366943359, 12.716643333435059, 136.19642639160156, -141.80946350097656, -116.0259017944336, 0.88623046875, 0.25244140625, -0.3515625
507, 2921617215, 4.192906379699707, -0.7280301451683044, 12.363044738769531, 86.7698745727539, -155.96791076660156, -123.65127563476562, 0.848388671875, 0.283447265625, -0.4052734375
508, 2921633882, 1.6407206058502197, -0.33996784687042236, 11.217622756958008, 34.24018096923828, -181.01722717285156, -119.5367660522461, 0.81005859375, 0.31689453125, -0.46142578125
509, 2921650549, -1.2731155157089233, -0.8782283067703247, 10.245676040649414, 11.816329956054688, -206.8355712890625, -95.86347198486328, 0.757568359375, 0.350341796875, -0.5205078125
510, 2921667216, -6.104536056518555, -1.3795831203460693, 10.287959098815918, 0.5261834859848022, -240.14459228515625, -76.70333862304688, 0.68798828125, 0.368408203125, -0.586669921875
511, 2921683883, -9.847018241882324, -1.8915115594863892, 10.181418418884277, -14.84411907196045, -281.05413818359375, -76.78536224365234, 0.606689453125, 0.374267578125, -0.64111328125
512, 2921700550, -11.0892915725708, -2.366138458251953, 9.48939037322998, -32.368282318115234, -318.6559753417969, -85.65386199951172, 0.509521484375, 0.375732421875, -0.685546875
513, 2921717217, -10.70223617553711, -1.7707500457763672, 8.00600814819336, -47.29331588745117, -336.1385803222656, -89.48397064208984, 0.409423828125, 0.374267578125, -0.71875
514, 2921733884, -11.845165252685547, -0.800727367401123, 7.972733974456787, -72.41989135742188, -321.2118225097656, -84.74223327636719, 0.31201171875, 0.3740234375, -0.725830078125
515, 2921750551, -15.041267395019531, -1.652056097984314, 8.961071968078613, -104.05889892578125, -300.8526916503906, -79.03922271728516, 0.2333984375, 0.371337890625, -0.71337890625
516, 2921767218, -21.01444435119629, -4.946468830108643, 9.884835243225098, -120.95740509033203, -292.19964599609375, -79.50174713134766, 0.179443359375, 0.374267578125, -0.701416015625
517, 2921783885, -26.899211883544922, -7.400203227996826, 8.80290412902832, -104.17112731933594, -311.8683166503906, -105.72786712646484, 0.126953125, 0.38330078125, -0.69189453125
518, 2921800552, -26.016881942749023, -5.281589031219482, 4.6259846687316895, -61.47714614868164, -328.6073913574219, -134.07025146484375, 0.06884765625, 0.393310546875, -0.6953125
519, 2921817219, -24.57861328125, -0.3978852331638336, 0.8052665591239929, -33.77452850341797, -301.50213623046875, -139.15557861328125, 0.007568359375, 0.395263671875, -0.702392578125
520, 2921833886, -24.735767364501953, 1.5572433471679688, -2.871246576309204, -27.3836669921875, -252.12196350097656, -126.89952087402344, -0.0498046875, 0.4013671875, -0.712646484375
521, 2921850553, -27.403833389282227, 3.594125986099243, -7.881844520568848, -21.63556480407715, -202.81338500976562, -90.48023986816406, -0.099853515625, 0.404052734375, -0.7197265625
522, 2921867220, -29.38195037841797, 9.025158882141113, -13.555169105529785, -43.53535461425781, -135.45655822753906, -43.486698150634766, -0.138427734375, 0.412109375, -0.720703125
523, 2921883887, -27.134017944335938, 11.716160774230957, -16.163284301757812, -84.87909698486328, -25.31161117553711, -8.769124031066895, -0.152587890625, 0.425537109375, -0.71484375
524, 2921900554, -22.563886642456055, 0.2538670301437378, -14.129781723022461, -15.715184211730957, 115.45824432373047, 35.364654541015625, -0.1357421875, 0.4384765625, -0.711669921875
525, 2921917221, -7.698822021484375, -9.000692367553711, 12.148514747619629, 75.64019775390625, 181.4981689453125, 65.30321502685547, -0.085205078125, 0.42138671875, -0.7294921875
526, 2921933888, 0.48420923948287964, -13.243820190429688, 5.562691688537598, 124.65223693847656, 137.9539031982422, 59.62248992919922, -0.05029296875, 0.39501953125, -0.750244140625
527, 2921950555, -3.9267404079437256, 3.606733798980713, 9.588238716125488, 91.45631408691406, 198.62623596191406, 47.80954360961914, -0.0029296875, 0.372802734375, -0.765625
528, 2921967222, -17.30417823791504, 5.1278462409973145, 17.443281173706055, 37.64956283569336, 171.4535369873047, 18.145238876342773, 0.044921875, 0.363037109375, -0.772216796875
529, 2921983889, -13.86052131652832, 4.379021644592285, 15.728320121765137, 13.971210479736328, 107.56373596191406, 60.445884704589844, 0.078125, 0.3564453125, -0.77392578125
530, 2922000556, -7.454903602600098, -4.801820755004883, 8.874795913696289, -6.724706649780273, 93.13584899902344, 46.81767654418945, 0.1044921875, 0.3544921875, -0.7744140625
531, 2922017223, -6.232680797576904, -4.742585182189941, 8.02098274230957, -9.51686954498291, 101.77670288085938, 30.51507568359375, 0.12890625, 0.353759765625, -0.76904296875
532, 2922033890, -13.389155387878418, -8.997292518615723, 7.052706241607666, 56.62645721435547, 50.9776496887207, 49.08629608154297, 0.151123046875, 0.342041015625, -0.77392578125
533, 2922050557, -4.635589599609375, -3.6883983612060547, 7.514652252197266, 54.1838493347168, 43.75315856933594, 37.48189163208008, 0.163818359375, 0.32861328125, -0.779541015625
534, 2922067224, -7.908854007720947, -3.1375832557678223, 8.437447547912598, 51.92443084716797, 30.4157657623291, 36.95198059082031, 0.176025390625, 0.314453125, -0.78271484375
535, 2922083891, -5.573145389556885, -2.1927132606506348, 8.598817825317383, 41.75598907470703, 15.576444625854492, 28.203857421875, 0.18408203125, 0.302490234375, -0.78759765625
536, 2922100558, -6.759406566619873, -1.3984172344207764, 9.03615665435791, 29.197221755981445, 10.109045028686523, 21.2092342376709, 0.188232421875, 0.2939453125, -0.787353515625
537, 2922117225, -5.906043529510498, -2.340928554534912, 8.168657302856445, 19.02047348022461, 7.420136451721191, 13.95661449432373, 0.19091796875, 0.285400390625, -0.788818359375
538, 2922133892, -5.731517791748047, -2.6851189136505127, 7.603966236114502, 15.225446701049805, 5.630210876464844, 12.021114349365234, 0.1923828125, 0.281982421875, -0.790771484375
539, 2922150559, -5.328601837158203, -3.4607675075531006, 7.100674152374268, 19.809436798095703, 1.323583960533142, 15.958417892456055, 0.1943359375, 0.278076171875, -0.791259765625
540, 2922167226, -5.668974876403809, -3.6918869018554688, 6.703409671783447, 28.847076416015625, -8.425569534301758, 21.7633113861084, 0.196044921875, 0.26953125, -0.79248046875
541, 2922183893, -5.910127639770508, -2.359285831451416, 7.732263088226318, 28.430139541625977, -10.322105407714844, 18.3514347076416, 0.19677734375, 0.262451171875, -0.798583984375
542, 2922200560, -5.92458438873291, -1.862738847732544, 7.978423595428467, 24.485172271728516, -13.480180740356445, 15.409675598144531, 0.197265625, 0.25439453125, -0.799072265625
543, 2922217227, -5.600799560546875, -2.1762144565582275, 7.8970046043396, 20.19247817993164, -13.299195289611816, 11.38535213470459, 0.19384765625, 0.248779296875, -0.802490234375
544, 2922233894, -5.335882663726807, -2.237366199493408, 7.890819072723389, 16.854141235351562, -9.818633079528809, 10.659250259399414, 0.19189453125, 0.2431640625, -0.806640625
545, 2922250561, -5.377263069152832, -2.035313844680786, 7.945368766784668, 11.967268943786621, -3.748037815093994, 8.873380661010742, 0.192138671875, 0.24072265625, -0.8076171875
546, 2922267228, -5.249714374542236, -2.5381836891174316, 7.88065242767334, 10.168012619018555, 1.0006183385849, 10.357354164123535, 0.191162109375, 0.23681640625, -0.810546875
547, 2922283895, -5.457881927490234, -2.4911410808563232, 7.710376262664795, 9.418346405029297, 3.4548838138580322, 14.13690185546875, 0.192626953125, 0.232666015625, -0.81103515625
548, 2922300562, -5.220073223114014, -2.497889995574951, 7.924532413482666, 3.049253225326538, 7.192368507385254, 17.194536209106445, 0.19677734375, 0.228759765625, -0.810302734375
549, 2922317229, -4.770334720611572, -2.351736068725586, 8.364969253540039, -0.10628015547990799, 17.516983032226562, 20.05828285217285, 0.201171875, 0.227294921875, -0.809326171875
550, 2922333896, -4.725656032562256, -2.2348809242248535, 8.813690185546875, -5.2209906578063965, 34.69398880004883, 25.42985725402832, 0.209716796875, 0.229248046875, -0.80810546875
551, 2922350563, -4.664780616760254, -1.1609078645706177, 9.159892082214355, -5.886666774749756, 66.08525085449219, 20.575498580932617, 0.224609375, 0.2275390625, -0.802734375
552, 2922367230, -4.783015251159668, -1.4997915029525757, 9.194766998291016, -16.28021240234375, 103.24170684814453, 15.457902908325195, 0.24560546875, 0.233154296875, -0.7998046875
553, 2922383897, -4.672220706939697, -2.2633042335510254, 9.413080215454102, -20.403005599975586, 146.30003356933594, 17.554515838623047, 0.275390625, 0.2353515625, -0.787109375
554, 2922400564, -3.7202298641204834, -4.075533866882324, 10.45402717590332, -16.721954345703125, 203.39569091796875, 33.65627670288086, 0.3173828125, 0.234619140625, -0.769287109375
555, 2922417231, -3.749206304550171, -5.26681661605835, 10.679325103759766, -20.114776611328125, 288.42864990234375, 74.60237121582031, 0.378173828125, 0.231201171875, -0.736572265625
556, 2922433898, -4.01599645614624, -5.3977274894714355, 12.44857120513916, -13.99955940246582, 387.3863220214844, 143.5204620361328, 0.455078125, 0.21923828125, -0.689208984375
557, 2922450565, -10.993040084838867, -6.308038711547852, 15.141531944274902, -28.93657875061035, 440.0682678222656, 199.96624755859375, 0.545166015625, 0.1962890625, -0.62353515625
558, 2922467232, -19.935026168823242, -8.270472526550293, 17.49483871459961, -44.72467803955078, 417.8353576660156, 204.269287109375, 0.626220703125, 0.16748046875, -0.548828125
559, 2922483899, -19.69744873046875, -7.859563827514648, 18.221118927001953, -11.983604431152344, 338.6419677734375, 197.08441162109375, 0.68017578125, 0.132080078125, -0.478759765625
560, 2922500566, -8.038540840148926, -12.889545440673828, 23.513410568237305, 6.694614887237549, 259.7658996582031, 170.5025634765625, 0.714111328125, 0.090576171875, -0.41552734375
561, 2922517233, -6.2610626220703125, -23.115331649780273, 23.803064346313477, 27.786060333251953, 109.38438415527344, 18.11920166015625, 0.723388671875, 0.078125, -0.385498046875
562, 2922533900, 6.980038642883301, -15.532888412475586, 17.42767333984375, 98.61975860595703, 26.518795013427734, -64.05810546875, 0.71435546875, 0.078857421875, -0.374267578125
563, 2922550567, 4.138095378875732, -6.927480697631836, 18.226089477539062, 101.26495361328125, -8.470837593078613, -105.43053436279297, 0.703857421875, 0.079345703125, -0.369384765625
564, 2922567234, 2.616436719894409, -3.9837493896484375, 17.259639739990234, 53.20712661743164, -81.06291198730469, -131.40142822265625, 0.687255859375, 0.09326171875, -0.368896484375
565, 2922583901, 1.0090131759643555, -2.9110331535339355, 13.953505516052246, 28.6455078125, -147.9830780029297, -130.80206298828125, 0.66748046875, 0.105224609375, -0.37890625
566, 2922600568, -1.174342155456543, -1.5135239362716675, 11.280107498168945, 19.86127281188965, -205.9926300048828, -121.02590942382812, 0.6513671875, 0.11865234375, -0.39892578125
567, 2922617235, -2.710545301437378, -0.5062410831451416, 9.106413841247559, 9.547986030578613, -245.71714782714844, -108.78184509277344, 0.63671875, 0.132080078125, -0.429931640625
568, 2922633902, -4.481730937957764, -0.06331982463598251, 7.865143299102783, -5.6111578941345215, -266.9693603515625, -96.17877197265625, 0.635009765625, 0.15087890625, -0.474609375
569, 2922650569, -5.846033573150635, -0.38331618905067444, 7.288035869598389, -22.130985260009766, -277.9902038574219, -85.43910217285156, 0.62646484375, 0.1845703125, -0.54833984375
570, 2922667236, -7.73847770690918, -0.7371098399162292, 7.9977827072143555, -38.52540969848633, -282.7900390625, -79.2020492553711, 0.5849609375, 0.230224609375, -0.640380859375
571, 2922683903, -9.495862007141113, -1.1184734106063843, 8.929617881774902, -55.77662658691406, -287.8899230957031, -80.47830200195312, 0.49169921875, 0.279052734375, -0.718505859375
572, 2922700570, -11.180973052978516, -1.8229604959487915, 9.988835334777832, -68.62195587158203, -292.1209716796875, -85.81367492675781, 0.372802734375, 0.316162109375, -0.744140625
573, 2922717237, -12.891011238098145, -2.7856435775756836, 11.016999244689941, -74.423828125, -293.800048828125, -89.17727661132812, 0.2744140625, 0.329833984375, -0.726806640625
574, 2922733904, -15.827713966369629, -3.5015549659729004, 11.639740943908691, -79.6378173828125, -284.453369140625, -90.0908203125, 0.221435546875, 0.33837890625, -0.71435546875
575, 2922750571, -21.03942108154297, -3.447099208831787, 11.47122573852539, -92.04051208496094, -275.0345764160156, -106.00292205810547, 0.185302734375, 0.3505859375, -0.720703125
576, 2922767238, -25.528179168701172, -5.172235012054443, 8.293400764465332, -85.5752944946289, -273.1858825683594, -125.04330444335938, 0.1396484375, 0.37158203125, -0.745849609375
577, 2922783905, -28.48598289489746, -6.126796722412109, 2.56019926071167, -33.44992446899414, -277.2707214355469, -124.82389068603516, 0.074462890625, 0.386962890625, -0.779296875
578, 2922800572, -28.019624710083008, -0.34066081047058105, -3.7299489974975586, 5.537420272827148, -253.49058532714844, -117.51155090332031, -0.001708984375, 0.389404296875, -0.801025390625
579, 2922817239, -29.32761001586914, 7.389745235443115, -10.424769401550293, -19.00426483154297, -186.05982971191406, -105.37540435791016, -0.067138671875, 0.389892578125, -0.81591796875
580, 2922833906, -32.998382568359375, 12.511025428771973, -18.92873764038086, -52.35729217529297, -95.4066390991211, -85.87246704101562, -0.11572265625, 0.399658203125, -0.81591796875
581, 2922850573, -24.810476303100586, 10.575939178466797, -20.371559143066406, -15.967170715332031, 51.350433349609375, -8.472893714904785, -0.122802734375, 0.408447265625, -0.817626953125
582, 2922867240, -12.472898483276367, 3.798571825027466, -6.068860054016113, 60.046207427978516, 197.3182830810547, 118.74046325683594, -0.072265625, 0.3994140625, -0.83056640625
583, 2922883907, -11.52830696105957, -16.787832260131836, 16.05570411682129, 82.5692367553711, 156.71066284179688, 99.55436706542969, -0.01513671875, 0.384521484375, -0.847412109375
584, 2922900574, 0.3295406997203827, -5.59290885925293, 2.908158779144287, 81.99172973632812, 152.54550170898438, 74.91375732421875, 0.028076171875, 0.362060546875, -0.85986328125
585, 2922917241, -10.902521133422852, 2.7755343914031982, 13.115310668945312, 41.90779113769531, 226.04147338867188, 32.34980392456055, 0.088623046875, 0.34716796875, -0.863037109375
586, 2922933908, -17.62977409362793, 6.764311790466309, 17.35490608215332, 22.299882888793945, 159.1958770751953, 50.259986877441406, 0.1396484375, 0.340576171875, -0.866455078125
587, 2922950575, -10.33177375793457, -2.1606624126434326, 10.063846588134766, -4.3524627685546875, 107.24220275878906, 74.89753723144531, 0.177001953125, 0.33837890625, -0.86328125
588, 2922967242, -16.03744888305664, -14.265430450439453, 7.167967319488525, 82.42684936523438, 64.68017578125, 58.928497314453125, 0.201416015625, 0.320556640625, -0.8681640625
589, 2922983909, -8.57800006866455, 1.895491123199463, 11.79051399230957, 55.23524856567383, 34.79526901245117, 37.630126953125, 0.218017578125, 0.300537109375, -0.8720703125
590, 2923000576, -5.877102851867676, -4.366224765777588, 7.20198917388916, 40.6729621887207, 17.87680435180664, 23.093339920043945, 0.224609375, 0.2900390625, -0.87353515625
591, 2923017243, -6.775654315948486, -2.0112204551696777, 8.691974639892578, 27.873992919921875, 9.12829303741455, 16.931425094604492, 0.22998046875, 0.279541015625, -0.875244140625
592, 2923033910, -6.310193061828613, -1.9789283275604248, 8.633930206298828, 17.848230361938477, 5.408968448638916, 11.003776550292969, 0.2314453125, 0.2724609375, -0.878173828125
593, 2923050577, -5.995385646820068, -1.1682052612304688, 7.461307525634766, 5.261355400085449, 6.162371635437012, 4.974992275238037, 0.235107421875, 0.26904296875, -0.875732421875
594, 2923067244, -5.860935688018799, -2.206423044204712, 8.072698593139648, -3.3328797817230225, 10.120357513427734, 0.5325074791908264, 0.236572265625, 0.27099609375, -0.8759765625
595, 2923083911, -5.512641429901123, -2.750934600830078, 7.547988414764404, -6.930173397064209, 10.967884063720703, -0.5748389959335327, 0.239501953125, 0.2734375, -0.877685546875
596, 2923100578, -5.317856311798096, -3.128108024597168, 7.1937336921691895, -4.494940757751465, 10.17788314819336, 2.5905911922454834, 0.242431640625, 0.2724609375, -0.8740234375
597, 2923117245, -5.485897064208984, -3.4006614685058594, 6.997558116912842, 0.6451649069786072, 8.354385375976562, 5.640744686126709, 0.24755859375, 0.272216796875, -0.8759765625
598, 2923133912, -5.643710136413574, -2.9938619136810303, 7.128856658935547, 4.742469310760498, 5.851627826690674, 7.67019510269165, 0.24951171875, 0.271484375, -0.874267578125
599, 2923150579, -5.71551513671875, -2.563981056213379, 7.403979778289795, 6.451323986053467, 3.8918709754943848, 7.987278938293457, 0.2509765625, 0.2685546875, -0.875244140625
600, 2923167246, -5.792309284210205, -2.4026012420654297, 7.4867424964904785, 5.359119415283203, 3.7992794513702393, 6.951614856719971, 0.25341796875, 0.267578125, -0.874267578125
601, 2923183913, -5.634115219116211, -2.772061347961426, 7.370693206787109, 5.597932815551758, 3.2766659259796143, 6.346208095550537, 0.256103515625, 0.26708984375, -0.876708984375
602, 2923200580, -5.735661506652832, -2.756424903869629, 7.353772163391113, 6.67453670501709, 1.5590262413024902, 7.3633646965026855, 0.255615234375, 0.265625, -0.876220703125
603, 2923217247, -5.64426326751709, -2.8168067932128906, 7.390614032745361, 8.1002197265625, -0.9962577223777771, 9.027514457702637, 0.255615234375, 0.258544921875, -0.881591796875
604, 2923233914, -5.546438217163086, -2.5542495250701904, 7.442977428436279, 7.727606296539307, -2.3862853050231934, 10.548232078552246, 0.257568359375, 0.256103515625, -0.879150390625
605, 2923250581, -5.457542419433594, -2.381314516067505, 7.6393232345581055, 5.026052474975586, -0.7458805441856384, 10.826473236083984, 0.257568359375, 0.254638671875, -0.882080078125
606, 2923267248, -5.326626300811768, -2.4119009971618652, 7.695699214935303, 1.920690894126892, 5.364563941955566, 9.985750198364258, 0.25830078125, 0.251953125, -0.880615234375
607, 2923283915, -5.12149715423584, -2.5973947048187256, 7.981760501861572, -5.290375232696533, 13.65981674194336, 13.660368919372559, 0.2626953125, 0.252197265625, -0.87939453125
608, 2923300582, -5.041092872619629, -2.907968044281006, 8.26285457611084, -13.081199645996094, 23.9853572845459, 18.937467575073242, 0.270263671875, 0.253173828125, -0.877197265625
609, 2923317249, -4.76751708984375, -1.9851518869400024, 8.84392261505127, -4.334889888763428, 50.942691802978516, 13.966403007507324, 0.2802734375, 0.253173828125, -0.87451171875
610, 2923333916, -4.756065845489502, -2.383162260055542, 8.981273651123047, -15.74615478515625, 80.80879211425781, 14.349926948547363, 0.299560546875, 0.25537109375, -0.86767578125
611, 2923350583, -4.709691047668457, -1.9615154266357422, 9.329349517822266, -23.70302963256836, 121.15609741210938, 15.769942283630371, 0.325439453125, 0.2607421875, -0.855224609375
612, 2923367250, -4.507013320922852, -2.4205169677734375, 9.529851913452148, -41.01053237915039, 176.77188110351562, 20.765470504760742, 0.36279296875, 0.2666015625, -0.8349609375
613, 2923383917, -3.9405317306518555, -4.5293192863464355, 10.518607139587402, -57.467506408691406, 249.02255249023438, 40.83795928955078, 0.41845703125, 0.2763671875, -0.8046875
614, 2923400584, -3.6905837059020996, -5.375809192657471, 10.424140930175781, -50.653892517089844, 341.5866394042969, 81.16825103759766, 0.49365234375, 0.280029296875, -0.756103515625
615, 2923417251, -6.82585334777832, -7.009724140167236, 12.202590942382812, -40.477359771728516, 441.28369140625, 146.71998596191406, 0.58642578125, 0.26904296875, -0.684326171875
616, 2923433918, -13.598852157592773, -5.9181952476501465, 14.535717964172363, -36.787269592285156, 482.0075378417969, 192.80148315429688, 0.68408203125, 0.239013671875, -0.5947265625
617, 2923450585, -25.5257511138916, -10.957986831665039, 18.336013793945312, -48.98822021484375, 415.3163146972656, 180.22642517089844, 0.76220703125, 0.20849609375, -0.499267578125
618, 2923467252, -19.313674926757812, -8.269973754882812, 17.15099334716797, -10.529839515686035, 292.1836853027344, 193.11233520507812, 0.8046875, 0.16943359375, -0.42724609375
619, 2923483919, -3.70874285697937, -15.634973526000977, 18.47800636291504, 37.941532135009766, 238.6230926513672, 186.96478271484375, 0.832763671875, 0.12060546875, -0.373291015625
620, 2923500586, -12.52167797088623, -22.405643463134766, 27.738346099853516, 82.19905853271484, 98.21123504638672, 45.24522399902344, 0.84130859375, 0.093017578125, -0.34521484375
621, 2923517253, 3.6526269912719727, -13.525723457336426, 20.51980209350586, 133.54319763183594, -54.00703811645508, -45.38755798339844, 0.82080078125, 0.09130859375, -0.36376953125
622, 2923533920, 6.786440849304199, -5.307501316070557, 15.451595306396484, 140.13043212890625, -92.66150665283203, -66.47960662841797, 0.7958984375, 0.09130859375, -0.392822265625
623, 2923550587, 5.4396843910217285, -1.2123265266418457, 13.890581130981445, 91.06546783447266, -130.0211639404297, -74.41727447509766, 0.766357421875, 0.09765625, -0.427001953125
624, 2923567254, 3.1825711727142334, -0.5523253679275513, 12.008345603942871, 29.030920028686523, -174.27304077148438, -75.26824951171875, 0.725830078125, 0.107421875, -0.462646484375
625, 2923583921, 0.7703696489334106, -1.436739206314087, 9.933601379394531, -9.710951805114746, -212.3238067626953, -67.33343505859375, 0.677490234375, 0.1201171875, -0.497802734375
626, 2923600588, -2.398267984390259, -2.1303391456604004, 9.020333290100098, -24.661489486694336, -241.0147247314453, -58.320064544677734, 0.62646484375, 0.1298828125, -0.531005859375
627, 2923617255, -5.753385066986084, -2.4452342987060547, 8.757040977478027, -33.071800231933594, -269.35089111328125, -59.49076461791992, 0.571533203125, 0.1328125, -0.55615234375
628, 2923633922, -7.704195976257324, -2.8181087970733643, 8.389820098876953, -40.08718490600586, -295.9001770019531, -69.59426879882812, 0.53369140625, 0.133056640625, -0.57861328125
629, 2923650589, -8.92292308807373, -3.1947762966156006, 8.426606178283691, -44.898033142089844, -313.00994873046875, -81.46607971191406, 0.508544921875, 0.137939453125, -0.619140625
630, 2923667256, -11.029831886291504, -3.2307498455047607, 9.232447624206543, -54.71036911010742, -323.69000244140625, -94.12821197509766, 0.47998046875, 0.1513671875, -0.681640625
631, 2923683923, -12.248346328735352, -2.537278175354004, 9.444210052490234, -75.24679565429688, -326.9071044921875, -107.75460815429688, 0.423828125, 0.180419921875, -0.749267578125
632, 2923700590, -13.44502067565918, -2.6902225017547607, 9.803887367248535, -96.99555969238281, -308.9127502441406, -108.65924835205078, 0.348388671875, 0.217529296875, -0.806640625
633, 2923717257, -18.359163284301758, -4.5349907875061035, 10.432138442993164, -108.6620101928711, -277.6462707519531, -97.45042419433594, 0.27001953125, 0.2626953125, -0.84423828125
634, 2923733924, -25.903135299682617, -5.7408905029296875, 10.058948516845703, -113.75667572021484, -267.94586181640625, -114.19451141357422, 0.18359375, 0.306640625, -0.865966796875
635, 2923750591, -29.445751190185547, -6.689123630523682, 5.4719624519348145, -88.44602966308594, -265.70977783203125, -140.65267944335938, 0.089599609375, 0.3515625, -0.865478515625
636, 2923767258, -30.60895538330078, -3.6227834224700928, -0.44431424140930176, -29.966093063354492, -262.59759521484375, -151.79965209960938, -0.0029296875, 0.371337890625, -0.85546875
637, 2923783925, -28.34125518798828, 4.826281547546387, -6.676366329193115, -8.329626083374023, -226.35191345214844, -150.26182556152344, -0.082275390625, 0.378173828125, -0.8427734375
638, 2923800592, -29.8853759765625, 9.35031509399414, -13.075666427612305, -18.341869354248047, -153.0342254638672, -127.57608032226562, -0.13916015625, 0.376708984375, -0.8251953125
639, 2923817259, -31.32540512084961, 10.780149459838867, -17.26698875427246, 3.111992120742798, -75.6259536743164, -72.15805053710938, -0.170166015625, 0.37548828125, -0.815185546875
640, 2923833926, -25.1123046875, 11.199199676513672, -16.057756423950195, 42.91035461425781, 51.30720520019531, 16.064186096191406, -0.171875, 0.369384765625, -0.81689453125
641, 2923850593, -8.333409309387207, 1.5789326429367065, 1.4385302066802979, 55.87657165527344, 173.09503173828125, 93.38557434082031, -0.1240234375, 0.35986328125, -0.827392578125
642, 2923867260, -5.986941337585449, -15.473003387451172, 14.754831314086914, 81.59818267822266, 117.93049621582031, 78.94547271728516, -0.0849609375, 0.347412109375, -0.83154296875
643, 2923883927, 0.1946122646331787, -0.18543952703475952, 4.561139106750488, 54.8984375, 158.2078857421875, 56.24517059326172, -0.0458984375, 0.334716796875, -0.833984375
644, 2923900594, -15.815540313720703, 2.942889451980591, 16.532625198364258, 5.120179653167725, 191.7796630859375, 15.786955833435059, 0.004150390625, 0.332275390625, -0.830078125
645, 2923917261, -15.27717113494873, 3.1064891815185547, 15.019889831542969, -10.979344367980957, 109.556396484375, 41.84455108642578, 0.03857421875, 0.33447265625, -0.82373046875
646, 2923933928, -6.4757561683654785, -5.895388126373291, 7.756230354309082, -24.71199607849121, 90.10517883300781, 36.682621002197266, 0.06494140625, 0.337158203125, -0.8193359375
647, 2923950595, -12.653478622436523, -9.966170310974121, 10.182730674743652, 11.176045417785645, 84.1734390258789, 25.396608352661133, 0.0908203125, 0.339111328125, -0.81591796875
648, 2923967262, -8.694743156433105, -1.9733296632766724, 7.97971773147583, 13.954741477966309, 25.878355026245117, 11.556589126586914, 0.099853515625, 0.33642578125, -0.81298828125
649, 2923983929, -4.791694164276123, -4.787114143371582, 7.272516250610352, 15.758373260498047, 26.551799774169922, 13.84318733215332, 0.10693359375, 0.33251953125, -0.81396484375
650, 2924000596, -6.474557399749756, -3.645531415939331, 7.405711650848389, 14.792339324951172, 17.8751163482666, 12.95184326171875, 0.114501953125, 0.32763671875, -0.815185546875
651, 2924017263, -4.807847499847412, -3.494234085083008, 7.293807029724121, 17.880874633789062, 17.05906105041504, 15.254411697387695, 0.120361328125, 0.322265625, -0.816650390625
652, 2924033930, -5.233554363250732, -3.097743511199951, 7.417373180389404, 24.87317657470703, 22.033048629760742, 19.716814041137695, 0.12451171875, 0.313232421875, -0.81591796875
653, 2924050597, -6.22490930557251, -2.276754140853882, 8.456693649291992, 20.441736221313477, 20.501270294189453, 16.52804946899414, 0.133544921875, 0.313232421875, -0.816650390625
654, 2924067264, -5.604496479034424, -2.906296968460083, 7.75791597366333, 14.809737205505371, 16.07425308227539, 11.911783218383789, 0.13671875, 0.308837890625, -0.816162109375
