sep=,
DeviceTag:,B,,,,,,,,,,,,,,,,,
FirmwareVersion:,2.2.1,,,,,,,,,,,,,,,,,
AppVersion:,2022.0.1,,,,,,,,,,,,,,,,,
SyncStatus:,Synced,,,,,,,,,,,,,,,,,
OutputRate:,60Hz,,,,,,,,,,,,,,,,,
FilterProfile:,General,,,,,,,,,,,,,,,,,
Measurement Mode:,Inertial Mode - Rate quantities (with mag),,,,,,,,,,,,,,,,,
StartTime:,2022-08-05 16:24:23.353 +0300,,,,,,,,,,,,,,,,,
© Xsens Technologies B. V. 2005-2022,,,,,,,,,,,,,,,,,,,

PacketCounter,SampleTimeFine,Acc_X,Acc_Y,Acc_Z,Gyr_X,Gyr_Y,Gyr_Z,Mag_X,Mag_Y,Mag_Z
1, 2110417658, -5.337629795074463, -1.9921115636825562, 7.840338706970215, -0.19360637664794922, -0.465305894613266, -0.8003071546554565, 0.04931640625, 0.21826171875, -0.8056640625
2, 2110434325, -5.344264984130859, -1.982430338859558, 7.86263370513916, -0.1691334843635559, -0.2892826199531555, -0.8186460137367249, 0.05029296875, 0.2177734375, -0.80419921875
3, 2110450992, -5.361625671386719, -1.992749810218811, 7.840377330780029, -0.13383916020393372, -0.4613487720489502, -0.8595494627952576, 0.04931640625, 0.21728515625, -0.80712890625
4, 2110467659, -5.35936164855957, -2.0008091926574707, 7.8217620849609375, -0.11024986207485199, -0.5456401109695435, -0.8084008097648621, 0.0498046875, 0.218994140625, -0.811279296875
5, 2110484326, -5.342294692993164, -2.010680675506592, 7.838437080383301, 0.011493699625134468, -0.5450639128684998, -0.8131008148193359, 0.04833984375, 0.216796875, -0.807861328125
6, 2110500993, -5.3583083152771, -1.979481816291809, 7.8153815269470215, -0.024319255724549294, -0.4630007743835449, -0.7000975012779236, 0.05126953125, 0.21826171875, -0.8076171875
7, 2110517660, -5.360409736633301, -1.9918090105056763, 7.844267845153809, -0.13573451340198517, -0.3443243205547333, -0.7799323201179504, 0.04931640625, 0.2158203125, -0.8056640625
8, 2110534327, -5.357480525970459, -1.9850382804870605, 7.845308303833008, -0.1933886855840683, -0.3343353867530823, -0.744176983833313, 0.05078125, 0.218505859375, -0.80810546875
9, 2110550994, -5.349541187286377, -1.9893618822097778, 7.8428802490234375, -0.05428612232208252, -0.21421179175376892, -0.7572266459465027, 0.048828125, 0.21630859375, -0.80224609375
10, 2110567661, -5.382585525512695, -1.9826993942260742, 7.8282928466796875, -0.1314571648836136, -0.19296607375144958, -0.7549727559089661, 0.048828125, 0.21728515625, -0.80810546875
11, 2110584328, -5.365612506866455, -2.008995294570923, 7.839640140533447, 0.007856694981455803, -0.4747953712940216, -0.6869838237762451, 0.05078125, 0.2177734375, -0.80615234375
12, 2110600995, -5.369155406951904, -2.002802610397339, 7.839696407318115, 0.16555409133434296, -0.7207541465759277, -0.5676158666610718, 0.04833984375, 0.21826171875, -0.80615234375
13, 2110617662, -5.346279621124268, -2.0060644149780273, 7.821690082550049, 0.644319474697113, -0.8081703782081604, -0.41151928901672363, 0.04833984375, 0.2177734375, -0.806640625
14, 2110634329, -5.3714280128479, -1.9533586502075195, 7.821272373199463, 0.3644879162311554, -0.8044564723968506, -0.5158397555351257, 0.048828125, 0.216796875, -0.80615234375
15, 2110650996, -5.3679986000061035, -1.9510453939437866, 7.833059310913086, 0.3452143967151642, -0.7149401307106018, -0.5087707042694092, 0.052734375, 0.218017578125, -0.80615234375
16, 2110667663, -5.351484775543213, -1.9557055234909058, 7.82479190826416, 0.46510738134384155, -0.769456684589386, -0.5821638107299805, 0.0517578125, 0.21728515625, -0.80810546875
17, 2110684330, -5.361934661865234, -1.972558856010437, 7.820916652679443, 0.510621190071106, -0.8166992664337158, -0.6148713231086731, 0.05078125, 0.21728515625, -0.809814453125
18, 2110700997, -5.364729404449463, -1.987409234046936, 7.824357509613037, 0.6279658079147339, -0.9062925577163696, -0.5619938969612122, 0.04931640625, 0.2177734375, -0.808349609375
19, 2110717664, -5.353673458099365, -1.993206262588501, 7.803597450256348, 0.7522514462471008, -1.107006549835205, -0.5235620141029358, 0.0458984375, 0.21630859375, -0.808349609375
20, 2110734331, -5.348567008972168, -1.9562464952468872, 7.8465399742126465, 0.6304118037223816, -1.029220700263977, -0.4889976978302002, 0.0498046875, 0.21435546875, -0.80517578125
21, 2110750998, -5.356460094451904, -1.9538240432739258, 7.863921165466309, 0.3819429576396942, -0.8358063697814941, -0.5634666085243225, 0.0478515625, 0.21630859375, -0.80419921875
22, 2110767665, -5.358276844024658, -1.941101312637329, 7.8276872634887695, 0.013299394398927689, -0.6965757012367249, -0.7462772727012634, 0.04931640625, 0.21728515625, -0.80615234375
23, 2110784332, -5.347902774810791, -1.9473011493682861, 7.84569787979126, -0.17393584549427032, -0.5222429633140564, -0.8970847129821777, 0.05078125, 0.216796875, -0.80517578125
24, 2110800999, -5.362929344177246, -1.9618260860443115, 7.839582443237305, -0.32940492033958435, -0.48811396956443787, -0.9922102689743042, 0.048828125, 0.21728515625, -0.80712890625
25, 2110817666, -5.364368438720703, -1.9682824611663818, 7.838658809661865, -0.4141053855419159, -0.6099902391433716, -1.0414620637893677, 0.05126953125, 0.2158203125, -0.80712890625
26, 2110834333, -5.3532304763793945, -1.9566607475280762, 7.8377861976623535, -0.3414173126220703, -0.6719620227813721, -1.0025193691253662, 0.048828125, 0.21484375, -0.80615234375
27, 2110851000, -5.364109992980957, -1.9657756090164185, 7.836354732513428, -0.32257914543151855, -0.6750482320785522, -1.0476617813110352, 0.046875, 0.21337890625, -0.8046875
28, 2110867667, -5.349399566650391, -1.9536995887756348, 7.8420939445495605, -0.4501047730445862, -0.7674844861030579, -1.1109251976013184, 0.04931640625, 0.21435546875, -0.80615234375
29, 2110884334, -5.338437080383301, -1.9802886247634888, 7.843820571899414, -0.5168386697769165, -0.5886950492858887, -1.1435686349868774, 0.05029296875, 0.2158203125, -0.8095703125
30, 2110901001, -5.356777191162109, -1.9704434871673584, 7.825992584228516, -0.45831364393234253, -0.5934975743293762, -1.0555378198623657, 0.0498046875, 0.21630859375, -0.80712890625
31, 2110917668, -5.360265254974365, -1.9578869342803955, 7.83283805847168, -0.2868109941482544, -0.6659300923347473, -0.9421631097793579, 0.0498046875, 0.21533203125, -0.8056640625
32, 2110934335, -5.368196964263916, -1.9868050813674927, 7.840839385986328, -0.22631381452083588, -0.6974849700927734, -0.8771196603775024, 0.04833984375, 0.21533203125, -0.80517578125
33, 2110951002, -5.3542985916137695, -1.9775553941726685, 7.854315280914307, -0.2241879403591156, -0.7149528861045837, -0.8729832172393799, 0.048828125, 0.2158203125, -0.80810546875
34, 2110967669, -5.348437309265137, -1.9699422121047974, 7.827640056610107, -0.1597336083650589, -0.5817028284072876, -0.8546958565711975, 0.0498046875, 0.21533203125, -0.806640625
35, 2110984336, -5.341642379760742, -1.9636437892913818, 7.825939178466797, -0.08728808909654617, -0.5313867330551147, -0.8193374276161194, 0.05126953125, 0.21630859375, -0.8076171875
36, 2111001003, -5.354783535003662, -1.9682269096374512, 7.8430328369140625, -0.15906764566898346, -0.42314738035202026, -0.9084951877593994, 0.0498046875, 0.216796875, -0.80810546875
37, 2111017670, -5.350573539733887, -1.96538245677948, 7.841945648193359, -0.17831560969352722, -0.400659441947937, -0.8435413837432861, 0.04833984375, 0.21533203125, -0.8076171875
38, 2111034337, -5.364396572113037, -1.963898777961731, 7.825249671936035, -0.19146771728992462, -0.5720468759536743, -0.9432772994041443, 0.0498046875, 0.2158203125, -0.80712890625
39, 2111051004, -5.359038352966309, -1.9489527940750122, 7.819170951843262, -0.22181877493858337, -0.49616923928260803, -1.0212552547454834, 0.048828125, 0.2158203125, -0.80810546875
40, 2111067671, -5.359965801239014, -1.9547629356384277, 7.848784923553467, -0.21677307784557343, -0.6550575494766235, -0.9983060956001282, 0.0478515625, 0.21728515625, -0.8046875
41, 2111084338, -5.358361721038818, -1.9730188846588135, 7.837628364562988, -0.21048516035079956, -0.6538410186767578, -0.9861785769462585, 0.048828125, 0.21630859375, -0.806640625
42, 2111101005, -5.343066692352295, -1.9652748107910156, 7.851135730743408, -0.14240659773349762, -0.6818484663963318, -0.9517550468444824, 0.04736328125, 0.21533203125, -0.8076171875
43, 2111117672, -5.354715824127197, -1.9676002264022827, 7.816547393798828, -0.16077090799808502, -0.6984454393386841, -0.9327760934829712, 0.05078125, 0.21630859375, -0.80712890625
44, 2111134339, -5.361827373504639, -1.9643123149871826, 7.835651874542236, -0.1958474963903427, -0.5740830302238464, -0.8765177726745605, 0.0478515625, 0.21533203125, -0.8076171875
45, 2111151006, -5.361047744750977, -1.9656928777694702, 7.798229217529297, -0.2862987816333771, -0.5574091672897339, -0.8203107714653015, 0.04931640625, 0.21435546875, -0.80419921875
46, 2111167673, -5.361080646514893, -1.965522050857544, 7.840185642242432, -0.19657748937606812, -0.5329107046127319, -0.8322591185569763, 0.04931640625, 0.2177734375, -0.809326171875
47, 2111184340, -5.339895725250244, -1.9844812154769897, 7.85379695892334, -0.09823750704526901, -0.5495715737342834, -0.7905102372169495, 0.04931640625, 0.21533203125, -0.8046875
48, 2111201007, -5.354125022888184, -1.9576233625411987, 7.861025810241699, -0.13155962526798248, -0.500510573387146, -0.9530357122421265, 0.05078125, 0.21435546875, -0.806640625
49, 2111217674, -5.347484588623047, -1.983708143234253, 7.853675842285156, -0.09866011887788773, -0.5273142457008362, -0.9282553791999817, 0.0498046875, 0.2138671875, -0.80810546875
50, 2111234341, -5.3514485359191895, -1.9494248628616333, 7.8288068771362305, -0.09745632112026215, -0.5612254738807678, -0.8507642149925232, 0.0478515625, 0.21240234375, -0.80810546875
51, 2111251008, -5.351317405700684, -1.964433193206787, 7.856139659881592, -0.12177558988332748, -0.6352974772453308, -0.92725670337677, 0.04638671875, 0.2158203125, -0.80517578125
52, 2111267675, -5.348217010498047, -1.9564971923828125, 7.842633247375488, -0.20952467620372772, -0.5895146727561951, -0.8554385304450989, 0.04638671875, 0.21484375, -0.808349609375
53, 2111284342, -5.3658318519592285, -1.9463201761245728, 7.839658260345459, -0.17388460040092468, -0.6559668183326721, -0.8595749139785767, 0.0498046875, 0.21484375, -0.8056640625
54, 2111301009, -5.355815887451172, -1.9561604261398315, 7.816115379333496, -0.2412203997373581, -0.7431396842002869, -0.9738717675209045, 0.05029296875, 0.2158203125, -0.80615234375
55, 2111317676, -5.359823226928711, -1.9683728218078613, 7.819352626800537, -0.16160333156585693, -0.7100608944892883, -1.0087817907333374, 0.0498046875, 0.2158203125, -0.80517578125
56, 2111334343, -5.347903728485107, -1.970422625541687, 7.84151029586792, -0.21076691150665283, -0.6940785646438599, -1.004927158355713, 0.05029296875, 0.216796875, -0.8056640625
57, 2111351010, -5.341969966888428, -1.9633853435516357, 7.853123188018799, -0.22432881593704224, -0.7613502740859985, -0.9343000054359436, 0.05126953125, 0.21630859375, -0.806640625
58, 2111367677, -5.343478202819824, -1.9690169095993042, 7.8254923820495605, -0.22088393568992615, -0.6815539002418518, -0.9905455112457275, 0.04833984375, 0.2177734375, -0.80615234375
59, 2111384344, -5.3541483879089355, -1.9534276723861694, 7.836243629455566, -0.09989552199840546, -0.8157621026039124, -1.0404629707336426, 0.0478515625, 0.216796875, -0.80615234375
60, 2111401011, -5.33745002746582, -1.9815599918365479, 7.8245086669921875, -0.09638059139251709, -0.7944419980049133, -1.045023798942566, 0.0498046875, 0.2158203125, -0.80712890625
61, 2111417678, -5.365434646606445, -1.965842843055725, 7.867699146270752, -0.1610654592514038, -0.7516815662384033, -0.9755237102508545, 0.04931640625, 0.21435546875, -0.8056640625
62, 2111434345, -5.345226764678955, -1.960434913635254, 7.838916301727295, -0.22686447203159332, -0.6331074833869934, -0.9538169503211975, 0.0478515625, 0.21435546875, -0.80712890625
63, 2111451012, -5.3567094802856445, -1.959208607673645, 7.8438286781311035, -0.32758644223213196, -0.5529781579971313, -0.9916723966598511, 0.05126953125, 0.21533203125, -0.80712890625
64, 2111467679, -5.355807781219482, -1.983346939086914, 7.836208343505859, -0.22829878330230713, -0.7018775343894958, -1.0204867124557495, 0.04736328125, 0.2158203125, -0.80615234375
65, 2111484346, -5.340078353881836, -1.9825178384780884, 7.836500644683838, -0.19611643254756927, -0.651407778263092, -0.920353889465332, 0.0498046875, 0.216796875, -0.8076171875
66, 2111501013, -5.3623504638671875, -1.9655402898788452, 7.8617119789123535, -0.08723686635494232, -0.6697081327438354, -0.9228255748748779, 0.0498046875, 0.21826171875, -0.8076171875
67, 2111517680, -5.349270820617676, -1.9513241052627563, 7.8611884117126465, -0.12510524690151215, -0.5892841815948486, -0.9615904092788696, 0.05126953125, 0.21630859375, -0.80615234375
68, 2111534347, -5.354543685913086, -1.9599173069000244, 7.862970352172852, -0.23517578840255737, -0.6697975993156433, -1.0688434839248657, 0.048828125, 0.21630859375, -0.808837890625
69, 2111551014, -5.357950210571289, -1.968593955039978, 7.832943916320801, -0.2546798884868622, -0.7451502680778503, -1.0480717420578003, 0.0478515625, 0.21484375, -0.80615234375
70, 2111567681, -5.345892906188965, -1.97383451461792, 7.850502014160156, -0.22284328937530518, -0.6636122465133667, -1.0675244331359863, 0.04736328125, 0.21728515625, -0.808837890625
71, 2111584348, -5.346974849700928, -1.9640724658966064, 7.834271430969238, -0.18058234453201294, -0.6897628307342529, -1.0177206993103027, 0.04736328125, 0.21484375, -0.808349609375
72, 2111601015, -5.352517604827881, -1.951690435409546, 7.833664417266846, -0.14763158559799194, -0.738029956817627, -0.9827337265014648, 0.046875, 0.21630859375, -0.809814453125
73, 2111617682, -5.356878757476807, -1.9500689506530762, 7.8596954345703125, -0.12417036294937134, -0.6907360553741455, -0.9870365262031555, 0.04931640625, 0.21435546875, -0.80712890625
74, 2111634349, -5.353055000305176, -1.9748584032058716, 7.834912300109863, -0.10984005779027939, -0.7988856434822083, -1.0421422719955444, 0.048828125, 0.21533203125, -0.808837890625
75, 2111651016, -5.333694934844971, -1.9513559341430664, 7.832839488983154, 0.005372264422476292, -0.9676990509033203, -0.9493475556373596, 0.05029296875, 0.21484375, -0.809814453125
76, 2111667683, -5.350809097290039, -1.9463677406311035, 7.833580493927002, -0.09568905085325241, -1.003300666809082, -0.9826440811157227, 0.046875, 0.2158203125, -0.807861328125
77, 2111684350, -5.349697113037109, -1.9752343893051147, 7.828020095825195, -0.10201539099216461, -1.1620482206344604, -1.2208806276321411, 0.04638671875, 0.2158203125, -0.808837890625
78, 2111701017, -5.317238807678223, -1.9481476545333862, 7.8759765625, -0.1390129178762436, -0.9393712878227234, -1.0390304327011108, 0.04833984375, 0.2158203125, -0.80615234375
79, 2111717684, -5.339937210083008, -1.9794747829437256, 7.842855930328369, -0.25996890664100647, -0.7242119312286377, -1.0504920482635498, 0.04833984375, 0.21533203125, -0.80810546875
80, 2111734351, -5.352046966552734, -1.988608717918396, 7.793991565704346, -0.11300322413444519, -0.8859561085700989, -0.8590884208679199, 0.04736328125, 0.21240234375, -0.8056640625
81, 2111751018, -5.342569351196289, -1.977503776550293, 7.826448440551758, -0.06500502675771713, -1.0257117748260498, -0.8941777944564819, 0.0458984375, 0.21435546875, -0.8046875
82, 2111767685, -5.342998027801514, -1.9742642641067505, 7.833184242248535, 0.023749375715851784, -1.1041762828826904, -0.9762920141220093, 0.0478515625, 0.2138671875, -0.80419921875
83, 2111784352, -5.341917037963867, -1.952621340751648, 7.845917224884033, -0.08233202993869781, -1.0608651638031006, -1.0622739791870117, 0.04931640625, 0.21728515625, -0.80810546875
84, 2111801019, -5.338398456573486, -1.9544439315795898, 7.842848300933838, -0.2399013489484787, -0.9704651832580566, -1.209905743598938, 0.0478515625, 0.21533203125, -0.807861328125
85, 2111817686, -5.318531036376953, -1.9569487571716309, 7.862626552581787, -0.24503669142723083, -0.9295104146003723, -1.1887109279632568, 0.04736328125, 0.2158203125, -0.807861328125
86, 2111834353, -5.31257438659668, -1.9633667469024658, 7.891347408294678, -0.3003217279911041, -0.6658405065536499, -1.0868878364562988, 0.04736328125, 0.2158203125, -0.8056640625
87, 2111851020, -5.3241658210754395, -1.9754973649978638, 7.847104072570801, -0.2587651014328003, -0.6776736378669739, -0.9935935139656067, 0.04541015625, 0.2158203125, -0.80517578125
88, 2111867687, -5.339107990264893, -1.9770965576171875, 7.824660778045654, -0.11902221292257309, -0.6993675231933594, -0.9885604977607727, 0.0478515625, 0.21728515625, -0.80712890625
89, 2111884354, -5.327099323272705, -1.960901141166687, 7.828150272369385, -0.10470472276210785, -0.8338342308998108, -0.9102240800857544, 0.04736328125, 0.2158203125, -0.80712890625
90, 2111901021, -5.314385890960693, -1.9515247344970703, 7.850123405456543, 0.00284941284917295, -0.9232737421989441, -0.8668745756149292, 0.04638671875, 0.216796875, -0.807373046875
91, 2111917688, -5.32321834564209, -1.9427332878112793, 7.875582695007324, -0.016827544197440147, -0.686996579170227, -0.8477803468704224, 0.0478515625, 0.21484375, -0.807861328125
92, 2111934355, -5.3116455078125, -1.9421064853668213, 7.835620403289795, -0.07615936547517776, -0.7205491662025452, -0.9632807970046997, 0.0478515625, 0.21484375, -0.806640625
93, 2111951022, -5.312009811401367, -1.9618785381317139, 7.850865364074707, 0.015733541920781136, -0.533672571182251, -0.7686318755149841, 0.04541015625, 0.21435546875, -0.80615234375
94, 2111967689, -5.32515811920166, -1.9676719903945923, 7.843034267425537, -0.00822167657315731, -0.4896380305290222, -0.6048055291175842, 0.046875, 0.21630859375, -0.806640625
95, 2111984356, -5.346461296081543, -1.9540927410125732, 7.840609073638916, 0.053063105791807175, -0.4494132101535797, -0.7060012221336365, 0.0458984375, 0.21630859375, -0.808349609375
96, 2112001023, -5.327138423919678, -1.9457286596298218, 7.871405601501465, -0.005404280032962561, -0.4741167426109314, -0.7488897442817688, 0.0458984375, 0.21630859375, -0.807373046875
97, 2112017690, -5.342864990234375, -1.9537979364395142, 7.8356170654296875, -0.1776881068944931, -0.4267331659793854, -0.846320390701294, 0.0458984375, 0.21240234375, -0.807373046875
98, 2112034357, -5.341624736785889, -1.9539027214050293, 7.8615570068359375, -0.11167136579751968, -0.5503785014152527, -0.8779264688491821, 0.04736328125, 0.2158203125, -0.807861328125
99, 2112051024, -5.346028804779053, -1.9733198881149292, 7.847562789916992, -0.12169873714447021, -0.5385197997093201, -0.9056779742240906, 0.0478515625, 0.21484375, -0.808349609375
100, 2112067691, -5.329660415649414, -1.953690767288208, 7.8613176345825195, -0.06106066331267357, -0.5470616221427917, -0.7681120038032532, 0.04541015625, 0.2138671875, -0.807373046875
101, 2112084358, -5.338384628295898, -1.9527620077133179, 7.865251064300537, -0.07198449224233627, -0.46709877252578735, -0.809489369392395, 0.048828125, 0.21484375, -0.80859375
102, 2112101025, -5.328943729400635, -1.9434831142425537, 7.864635467529297, -0.08897851407527924, -0.5164288282394409, -0.8811920881271362, 0.0478515625, 0.2138671875, -0.809326171875
103, 2112117692, -5.332737445831299, -1.962171196937561, 7.864917755126953, -0.06699001789093018, -0.5667962431907654, -0.7973618507385254, 0.0478515625, 0.21728515625, -0.80712890625
104, 2112134359, -5.331784248352051, -1.957619071006775, 7.863476753234863, -0.05738524720072746, -0.6280488967895508, -0.713211178779602, 0.04736328125, 0.2138671875, -0.80615234375
105, 2112151026, -5.341598033905029, -1.9549643993377686, 7.8571391105651855, 0.05034815892577171, -0.6032430529594421, -0.7551263570785522, 0.04541015625, 0.21484375, -0.80615234375
106, 2112167693, -5.331386089324951, -1.9374724626541138, 7.830654621124268, -0.12837086617946625, -0.514840841293335, -0.7886149883270264, 0.048828125, 0.2158203125, -0.80810546875
107, 2112184360, -5.34248161315918, -1.9457625150680542, 7.846892356872559, -0.15199856460094452, -0.5062478184700012, -0.9390767216682434, 0.0478515625, 0.216796875, -0.80615234375
108, 2112201027, -5.315280437469482, -1.97659170627594, 7.840359210968018, -0.14764441549777985, -0.5211416482925415, -0.8930507898330688, 0.04736328125, 0.2158203125, -0.807861328125
109, 2112217694, -5.336730480194092, -1.9492334127426147, 7.856532573699951, 0.039181023836135864, -0.6386398077011108, -0.8062748908996582, 0.04736328125, 0.21337890625, -0.808349609375
110, 2112234361, -5.337544918060303, -1.9565128087997437, 7.850461006164551, -0.021130479872226715, -0.5801661014556885, -0.7197809815406799, 0.0458984375, 0.21435546875, -0.807373046875
111, 2112251028, -5.338201999664307, -1.9513272047042847, 7.854091167449951, 0.015181927010416985, -0.6362578272819519, -0.8180311322212219, 0.048828125, 0.21533203125, -0.80810546875
112, 2112267695, -5.346283435821533, -1.9495929479599, 7.84283447265625, -0.16822421550750732, -0.6739469170570374, -0.8804109692573547, 0.04736328125, 0.21240234375, -0.80712890625
113, 2112284362, -5.33031702041626, -1.9386731386184692, 7.850310325622559, -0.09950533509254456, -0.7044004201889038, -0.8972640037536621, 0.04833984375, 0.21435546875, -0.810302734375
114, 2112301029, -5.335468769073486, -1.9327818155288696, 7.84778356552124, -0.13173893094062805, -0.7419999241828918, -0.9195472002029419, 0.04736328125, 0.21484375, -0.8076171875
115, 2112317696, -5.337154865264893, -1.9513028860092163, 7.856846332550049, -0.2506842613220215, -0.7013653516769409, -1.0305653810501099, 0.0458984375, 0.2119140625, -0.80712890625
116, 2112334363, -5.32720947265625, -1.9548571109771729, 7.859534740447998, -0.04381052404642105, -0.7459185719490051, -1.0271332263946533, 0.0478515625, 0.2119140625, -0.80859375
117, 2112351030, -5.324759006500244, -1.9564632177352905, 7.834257125854492, -0.031849391758441925, -0.8233843445777893, -0.9930043816566467, 0.046875, 0.21435546875, -0.8046875
118, 2112367697, -5.321427345275879, -1.958070158958435, 7.855341911315918, 0.006780961994081736, -0.6484366655349731, -0.8504824638366699, 0.04736328125, 0.21533203125, -0.80615234375
119, 2112384364, -5.328728675842285, -1.9426509141921997, 7.841019153594971, -0.15831206738948822, -0.6070721745491028, -0.871446430683136, 0.046875, 0.2158203125, -0.80712890625
120, 2112401031, -5.333191394805908, -1.9385182857513428, 7.853424072265625, -0.2193984091281891, -0.4786757230758667, -0.950141429901123, 0.04931640625, 0.21435546875, -0.80517578125
121, 2112417698, -5.324129581451416, -1.9652296304702759, 7.845801830291748, -0.26299118995666504, -0.5620322823524475, -0.9452238082885742, 0.046875, 0.21484375, -0.807373046875
122, 2112434365, -5.334830284118652, -1.9415391683578491, 7.8594231605529785, -0.17159228026866913, -0.5178247094154358, -0.8937551379203796, 0.04736328125, 0.21240234375, -0.8076171875
123, 2112451032, -5.340284824371338, -1.9392348527908325, 7.880880355834961, -0.17539577186107635, -0.5238053202629089, -0.8828569054603577, 0.044921875, 0.21435546875, -0.805908203125
124, 2112467699, -5.333919048309326, -1.937139630317688, 7.858070373535156, -0.23513734340667725, -0.5492515563964844, -0.8840863108634949, 0.0478515625, 0.21484375, -0.8076171875
125, 2112484366, -5.334475994110107, -1.9453610181808472, 7.859218120574951, -0.10683055967092514, -0.6683121919631958, -0.9544060230255127, 0.046875, 0.21435546875, -0.807861328125
126, 2112501033, -5.314294338226318, -1.9658747911453247, 7.870869159698486, -0.11785108596086502, -0.5795347690582275, -0.9848929047584534, 0.04736328125, 0.2138671875, -0.809814453125
127, 2112517700, -5.320016384124756, -1.9456324577331543, 7.871987342834473, -0.21688832342624664, -0.5700490474700928, -0.90717613697052, 0.0478515625, 0.21240234375, -0.80810546875
128, 2112534367, -5.310056686401367, -1.9472768306732178, 7.897589206695557, -0.1374889761209488, -0.5016631484031677, -0.8505337834358215, 0.04931640625, 0.209716796875, -0.8056640625
129, 2112551034, -5.326352119445801, -1.9460899829864502, 7.876259803771973, -0.27797460556030273, -0.46251410245895386, -0.8607403635978699, 0.0478515625, 0.21337890625, -0.810791015625
130, 2112567701, -5.336121082305908, -1.961937427520752, 7.8717522621154785, -0.21262384951114655, -0.3153820037841797, -0.8113335371017456, 0.04638671875, 0.21484375, -0.808349609375
131, 2112584368, -5.329029560089111, -1.9466544389724731, 7.841343879699707, -0.12879344820976257, -0.3726903796195984, -0.7715184688568115, 0.0458984375, 0.21533203125, -0.808837890625
132, 2112601035, -5.335349082946777, -1.9498860836029053, 7.8271355628967285, -0.24268031120300293, -0.3906320631504059, -0.8205540180206299, 0.04736328125, 0.21875, -0.809326171875
133, 2112617702, -5.326956748962402, -1.9439131021499634, 7.844563007354736, -0.23394638299942017, -0.4021577835083008, -0.8525955080986023, 0.0478515625, 0.2119140625, -0.8076171875
134, 2112634369, -5.323339462280273, -1.9422868490219116, 7.8658623695373535, -0.3071346580982208, -0.4339815676212311, -0.8392256498336792, 0.0458984375, 0.21630859375, -0.807373046875
135, 2112651036, -5.337692737579346, -1.9457275867462158, 7.85795783996582, -0.3785301148891449, -0.325383722782135, -0.94629967212677, 0.044921875, 0.21240234375, -0.808349609375
136, 2112667703, -5.329449653625488, -1.949314832687378, 7.84938383102417, -0.3354495167732239, -0.42374929785728455, -0.7879234552383423, 0.0478515625, 0.2138671875, -0.80615234375
137, 2112684370, -5.323151111602783, -1.9571533203125, 7.871606826782227, -0.3980085849761963, -0.32658758759498596, -0.8190173506736755, 0.0478515625, 0.2158203125, -0.8076171875
138, 2112701037, -5.34161376953125, -1.9460268020629883, 7.85594367980957, -0.5019704699516296, -0.24665027856826782, -0.7896651029586792, 0.04736328125, 0.2138671875, -0.808349609375
139, 2112717704, -5.329544544219971, -1.9662610292434692, 7.866053581237793, -0.41651368141174316, -0.06362194567918777, -0.8542218804359436, 0.04736328125, 0.2138671875, -0.806640625
140, 2112734371, -5.338117599487305, -1.9342414140701294, 7.849964618682861, -0.37867099046707153, -0.13225117325782776, -0.6340680122375488, 0.04833984375, 0.21728515625, -0.80712890625
141, 2112751038, -5.363261699676514, -1.9004991054534912, 7.854599952697754, -0.3689509332180023, -0.20732197165489197, -0.8486127257347107, 0.0478515625, 0.21435546875, -0.80517578125
142, 2112767705, -5.333645820617676, -1.976956844329834, 7.835358142852783, -0.24936522543430328, -0.3870590925216675, -0.7483774423599243, 0.04931640625, 0.21435546875, -0.8056640625
143, 2112784372, -5.325348377227783, -1.9287720918655396, 7.863209247589111, -0.18356621265411377, -0.5324240326881409, -0.7020440697669983, 0.04833984375, 0.216796875, -0.80712890625
144, 2112801039, -5.348598957061768, -1.9564249515533447, 7.829920291900635, -0.24165581166744232, -0.4980132579803467, -0.7987447381019592, 0.046875, 0.21533203125, -0.806640625
145, 2112817706, -5.328973293304443, -1.935759425163269, 7.841245651245117, -0.27460652589797974, -0.6189692616462708, -0.9475545287132263, 0.0478515625, 0.212890625, -0.80810546875
146, 2112834373, -5.31980037689209, -1.9562759399414062, 7.842123031616211, -0.2277609258890152, -0.5776944756507874, -0.867630124092102, 0.0498046875, 0.21533203125, -0.8046875
147, 2112851040, -5.351406097412109, -1.9519202709197998, 7.866018772125244, -0.1949254274368286, -0.4423825144767761, -0.7491074204444885, 0.0478515625, 0.2138671875, -0.806640625
148, 2112867707, -5.342714309692383, -1.926509976387024, 7.848766326904297, -0.2640797197818756, -0.326203316450119, -0.6712960004806519, 0.048828125, 0.212890625, -0.80615234375
149, 2112884374, -5.330430507659912, -1.9411416053771973, 7.847295761108398, -0.3756742477416992, -0.40752363204956055, -0.8093868494033813, 0.0498046875, 0.21484375, -0.809326171875
150, 2112901041, -5.34637451171875, -1.9461604356765747, 7.862947463989258, -0.3510476052761078, -0.4290255010128021, -0.8386877775192261, 0.04833984375, 0.21630859375, -0.809814453125
151, 2112917708, -5.353006839752197, -1.9607317447662354, 7.827758312225342, -0.3232322633266449, -0.29307329654693604, -0.8605738282203674, 0.048828125, 0.2138671875, -0.80859375
152, 2112934375, -5.336954593658447, -1.9552416801452637, 7.822604656219482, -0.3132305443286896, -0.35593968629837036, -0.7296289205551147, 0.0478515625, 0.21435546875, -0.8056640625
153, 2112951042, -5.344561576843262, -1.9294089078903198, 7.84416389465332, -0.37069258093833923, -0.44703125953674316, -0.7597623467445374, 0.04931640625, 0.21435546875, -0.80810546875
154, 2112967709, -5.344633102416992, -1.9450640678405762, 7.830078601837158, -0.3621892035007477, -0.32310420274734497, -0.9763175845146179, 0.04638671875, 0.21484375, -0.807373046875
155, 2112984376, -5.36990213394165, -1.9438778162002563, 7.829037189483643, -0.35990968346595764, -0.3912596106529236, -0.8864426612854004, 0.04736328125, 0.216796875, -0.807373046875
156, 2113001043, -5.3408284187316895, -1.9599469900131226, 7.833666801452637, -0.27517005801200867, -0.5348443984985352, -0.9652529358863831, 0.046875, 0.21630859375, -0.808349609375
157, 2113017710, -5.338143348693848, -1.9607748985290527, 7.849964618682861, -0.24617645144462585, -0.5214489102363586, -0.9020023941993713, 0.04833984375, 0.21630859375, -0.809814453125
158, 2113034377, -5.35529088973999, -1.9386639595031738, 7.866065979003906, -0.2058364301919937, -0.43659403920173645, -0.7669722437858582, 0.04736328125, 0.21435546875, -0.807861328125
159, 2113051044, -5.365801811218262, -1.9363692998886108, 7.811593055725098, -0.25424444675445557, -0.42211008071899414, -0.8604201674461365, 0.04833984375, 0.21533203125, -0.8037109375
160, 2113067711, -5.341408729553223, -1.9463553428649902, 7.8545637130737305, -0.22726233303546906, -0.40435919165611267, -0.8630973696708679, 0.048828125, 0.21435546875, -0.808837890625
161, 2113084378, -5.351617336273193, -1.9574391841888428, 7.848787784576416, -0.25302785634994507, -0.375443696975708, -0.8238708972930908, 0.0478515625, 0.21533203125, -0.807861328125
162, 2113101045, -5.348647117614746, -1.9544421434402466, 7.838674545288086, -0.2277609258890152, -0.3503561019897461, -0.8132032155990601, 0.04833984375, 0.2158203125, -0.8076171875
163, 2113117712, -5.346142292022705, -1.9280459880828857, 7.843681335449219, -0.3247818350791931, -0.3475642800331116, -0.7771788239479065, 0.0478515625, 0.21484375, -0.80712890625
164, 2113134379, -5.364972114562988, -1.9298954010009766, 7.876943111419678, -0.3366148769855499, -0.3665817379951477, -0.8076964020729065, 0.04931640625, 0.212890625, -0.80810546875
165, 2113151046, -5.362048625946045, -1.9449782371520996, 7.856851577758789, -0.32216939330101013, -0.30166640877723694, -0.9075988531112671, 0.05078125, 0.21435546875, -0.806640625
166, 2113167713, -5.3578033447265625, -1.9495080709457397, 7.839023113250732, -0.3609597384929657, -0.22810667753219604, -0.8404294848442078, 0.04833984375, 0.21435546875, -0.8056640625
167, 2113184380, -5.3558669090271, -1.9427993297576904, 7.839659690856934, -0.40681931376457214, -0.21268784999847412, -0.7773966193199158, 0.048828125, 0.21826171875, -0.8076171875
168, 2113201047, -5.361031532287598, -1.9433708190917969, 7.833433628082275, -0.4452383518218994, -0.2843649685382843, -0.8681296110153198, 0.05126953125, 0.2158203125, -0.8095703125
169, 2113217714, -5.3700971603393555, -1.9437530040740967, 7.838712692260742, -0.5082199573516846, -0.3049960434436798, -0.9727959036827087, 0.0478515625, 0.2138671875, -0.8076171875
170, 2113234381, -5.356114864349365, -1.9510879516601562, 7.821167469024658, -0.3677087426185608, -0.435249388217926, -0.9149624109268188, 0.046875, 0.21533203125, -0.806640625
171, 2113251048, -5.362911224365234, -1.953616976737976, 7.8449296951293945, -0.3108612895011902, -0.48095524311065674, -0.7986551523208618, 0.048828125, 0.21484375, -0.80712890625
172, 2113267715, -5.340702056884766, -1.9492521286010742, 7.826047897338867, -0.32665154337882996, -0.5277240872383118, -0.7157852649688721, 0.04833984375, 0.21435546875, -0.806640625
173, 2113284382, -5.368564128875732, -1.9266233444213867, 7.826643943786621, -0.23148757219314575, -0.40664002299308777, -0.7771020531654358, 0.04833984375, 0.21533203125, -0.809326171875
174, 2113301049, -5.35581111907959, -1.9283167123794556, 7.837183952331543, -0.2188989222049713, -0.4544845223426819, -0.8954454660415649, 0.05078125, 0.21484375, -0.80615234375
175, 2113317716, -5.34820556640625, -1.9484775066375732, 7.847469329833984, -0.21015220880508423, -0.43989816308021545, -1.0046453475952148, 0.05126953125, 0.2158203125, -0.8056640625
176, 2113334383, -5.342834949493408, -1.9578213691711426, 7.856128215789795, -0.2355215698480606, -0.436017781496048, -0.8935118317604065, 0.0478515625, 0.21533203125, -0.80419921875
177, 2113351050, -5.359466075897217, -1.9514446258544922, 7.8521013259887695, -0.2634778320789337, -0.39283475279808044, -0.8670154809951782, 0.05078125, 0.21533203125, -0.80712890625
178, 2113367717, -5.358280658721924, -1.9632502794265747, 7.844214916229248, -0.3008852005004883, -0.33430978655815125, -0.897661030292511, 0.05078125, 0.21337890625, -0.80712890625
179, 2113384384, -5.362259864807129, -1.9587711095809937, 7.836042881011963, -0.24782848358154297, -0.403412789106369, -0.869359016418457, 0.04931640625, 0.21533203125, -0.80712890625
180, 2113401051, -5.365671157836914, -1.9518715143203735, 7.8179545402526855, -0.2472265660762787, -0.4118521809577942, -0.8817427754402161, 0.048828125, 0.2138671875, -0.80712890625
181, 2113417718, -5.350694179534912, -1.939178466796875, 7.838380336761475, -0.23262733221054077, -0.5480477213859558, -0.8520320057868958, 0.048828125, 0.2158203125, -0.80615234375
182, 2113434385, -5.3548994064331055, -1.951682209968567, 7.848742961883545, -0.20336483418941498, -0.45822399854660034, -0.9252331256866455, 0.04931640625, 0.2158203125, -0.808837890625
183, 2113451052, -5.359189510345459, -1.9432952404022217, 7.854692459106445, -0.21060042083263397, -0.39232248067855835, -0.9190988540649414, 0.05029296875, 0.2138671875, -0.80810546875
184, 2113467719, -5.360663890838623, -1.962740421295166, 7.811702728271484, -0.28646522760391235, -0.4119802713394165, -0.9117863774299622, 0.04931640625, 0.2158203125, -0.80712890625
185, 2113484386, -5.369914531707764, -1.9555790424346924, 7.813665390014648, -0.33632034063339233, -0.4531782567501068, -0.9161150455474854, 0.0498046875, 0.21484375, -0.80712890625
186, 2113501053, -5.357780933380127, -1.945700764656067, 7.83700704574585, -0.3073523938655853, -0.5178247094154358, -0.9622434377670288, 0.04833984375, 0.21630859375, -0.808837890625
187, 2113517720, -5.36752986907959, -1.9434149265289307, 7.829239845275879, -0.20682254433631897, -0.5577293038368225, -0.9753187894821167, 0.0498046875, 0.21484375, -0.8076171875
188, 2113534387, -5.372526168823242, -1.9551732540130615, 7.821320533752441, -0.2711360454559326, -0.4598376452922821, -0.9187403917312622, 0.04931640625, 0.212890625, -0.80908203125
189, 2113551054, -5.356833457946777, -1.960533618927002, 7.844586372375488, -0.24138689041137695, -0.5289150476455688, -0.908841073513031, 0.05029296875, 0.21240234375, -0.80810546875
190, 2113567721, -5.37336540222168, -1.939936637878418, 7.827754020690918, -0.20955030620098114, -0.4975651502609253, -0.9245288968086243, 0.05126953125, 0.21533203125, -0.8076171875
191, 2113584388, -5.3540358543396, -1.9309470653533936, 7.809515476226807, -0.23351097106933594, -0.6057402491569519, -0.8875055909156799, 0.052734375, 0.2158203125, -0.80615234375
192, 2113601055, -5.361499786376953, -1.9415957927703857, 7.840005397796631, -0.29390570521354675, -0.5522481799125671, -0.9674172401428223, 0.0517578125, 0.21533203125, -0.80712890625
193, 2113617722, -5.363070011138916, -1.963302731513977, 7.841330528259277, -0.2691415846347809, -0.570608377456665, -0.9637740850448608, 0.05078125, 0.21484375, -0.8076171875
194, 2113634389, -5.359270095825195, -1.9632775783538818, 7.8679890632629395, -0.18578170239925385, -0.6460291147232056, -1.031807541847229, 0.05029296875, 0.2158203125, -0.80615234375
195, 2113651056, -5.35333776473999, -1.9553359746932983, 7.815302848815918, -0.18019814789295197, -0.6306487321853638, -1.0208836793899536, 0.0498046875, 0.2138671875, -0.80419921875
196, 2113667723, -5.361259460449219, -1.9451446533203125, 7.839000225067139, -0.16365234553813934, -0.7213048338890076, -0.9678911566734314, 0.05126953125, 0.21533203125, -0.80517578125
197, 2113684390, -5.357814311981201, -1.9547483921051025, 7.81815242767334, -0.1680065095424652, -0.6817204356193542, -1.0062845945358276, 0.05078125, 0.21826171875, -0.806640625
198, 2113701057, -5.3601393699646, -1.9624148607254028, 7.8254618644714355, -0.17583118379116058, -0.7052584290504456, -0.9507946968078613, 0.0517578125, 0.21533203125, -0.8046875
199, 2113717724, -5.358888626098633, -1.9512258768081665, 7.835858345031738, -0.13960202038288116, -0.7517455816268921, -1.0011876821517944, 0.0498046875, 0.2138671875, -0.80859375
200, 2113734391, -5.351012229919434, -1.9430532455444336, 7.839905261993408, -0.16009214520454407, -0.647104799747467, -0.9549053907394409, 0.05078125, 0.21533203125, -0.8056640625
201, 2113751058, -5.369618892669678, -1.9528535604476929, 7.814507007598877, -0.28731048107147217, -0.5382893681526184, -0.9942466616630554, 0.04931640625, 0.21435546875, -0.80810546875
202, 2113767725, -5.371742248535156, -1.9535709619522095, 7.834771156311035, -0.29850319027900696, -0.6940656900405884, -1.0017766952514648, 0.04931640625, 0.21533203125, -0.8076171875
203, 2113784392, -5.349877834320068, -1.948053002357483, 7.8161749839782715, -0.2928555905818939, -0.7034784555435181, -0.9678782820701599, 0.048828125, 0.21435546875, -0.80615234375
204, 2113801059, -5.344221115112305, -1.9494305849075317, 7.836920261383057, -0.2568569779396057, -0.6761369109153748, -1.0035055875778198, 0.05126953125, 0.2177734375, -0.806640625
205, 2113817726, -5.343572616577148, -1.9399842023849487, 7.839100360870361, -0.31737977266311646, -0.5419647097587585, -1.0044149160385132, 0.05126953125, 0.21533203125, -0.80517578125
206, 2113834393, -5.376276969909668, -1.948716402053833, 7.822272777557373, -0.2814067006111145, -0.5161983370780945, -0.9731416702270508, 0.0498046875, 0.212890625, -0.80615234375
207, 2113851060, -5.37837028503418, -1.9437434673309326, 7.845820426940918, -0.2756310701370239, -0.5138803720474243, -0.9668921828269958, 0.0478515625, 0.2158203125, -0.806640625
208, 2113867727, -5.364204406738281, -1.9556708335876465, 7.827767372131348, -0.2669483721256256, -0.5031487345695496, -1.1099519729614258, 0.04931640625, 0.21484375, -0.80810546875
209, 2113884394, -5.360034942626953, -1.9487906694412231, 7.830682754516602, -0.23029658198356628, -0.5807807445526123, -0.9375016093254089, 0.05126953125, 0.21435546875, -0.8095703125
210, 2113901061, -5.367701530456543, -1.9511688947677612, 7.839119911193848, -0.23018132150173187, -0.5929979085922241, -0.9179590940475464, 0.0498046875, 0.21533203125, -0.809814453125
211, 2113917728, -5.359375476837158, -1.9394824504852295, 7.85982084274292, -0.24125882983207703, -0.6099792718887329, -1.0542187690734863, 0.0498046875, 0.2138671875, -0.8076171875
212, 2113934395, -5.355896949768066, -1.9630274772644043, 7.836703300476074, -0.2312442809343338, -0.6041267514228821, -1.0227023363113403, 0.0498046875, 0.2158203125, -0.8046875
213, 2113951062, -5.358177661895752, -1.9574812650680542, 7.851594924926758, -0.24399936199188232, -0.539313793182373, -1.0093451738357544, 0.0498046875, 0.21484375, -0.8056640625
214, 2113967729, -5.351832389831543, -1.9584046602249146, 7.84150505065918, -0.27257034182548523, -0.549930214881897, -0.9918901324272156, 0.05029296875, 0.21484375, -0.806640625
215, 2113984396, -5.346841812133789, -1.9752315282821655, 7.8345513343811035, -0.34604036808013916, -0.35786062479019165, -0.9723604917526245, 0.05126953125, 0.21728515625, -0.806640625
216, 2114001063, -5.358825206756592, -1.9643292427062988, 7.853817462921143, -0.47240063548088074, -0.09712336212396622, -0.9459154605865479, 0.05126953125, 0.21533203125, -0.80908203125
217, 2114017730, -5.384189128875732, -1.9315067529678345, 7.814244270324707, -0.42414629459381104, -0.24210406839847565, -1.0179767608642578, 0.05078125, 0.21435546875, -0.80859375
218, 2114034397, -5.368727684020996, -1.949751377105713, 7.829388618469238, -0.47575581073760986, -0.3952167332172394, -1.1457328796386719, 0.052734375, 0.21484375, -0.80810546875
219, 2114051064, -5.366725444793701, -1.9780793190002441, 7.805417060852051, -0.3723702132701874, -0.4867309629917145, -1.1049829721450806, 0.04931640625, 0.2158203125, -0.80712890625
220, 2114067731, -5.370297431945801, -1.9461742639541626, 7.83105993270874, -0.3615745007991791, -0.572264552116394, -1.0514655113220215, 0.048828125, 0.21484375, -0.80615234375
221, 2114084398, -5.356576442718506, -1.947508692741394, 7.817826747894287, -0.34349191188812256, -0.5284924507141113, -1.07821786403656, 0.05078125, 0.21728515625, -0.806640625
222, 2114101065, -5.356761932373047, -1.9610337018966675, 7.848041534423828, -0.31892937421798706, -0.5555650591850281, -1.1535576581954956, 0.04931640625, 0.21630859375, -0.80712890625
223, 2114117732, -5.344996452331543, -1.9614157676696777, 7.839483737945557, -0.32053014636039734, -0.5323472023010254, -1.1306854486465454, 0.05126953125, 0.21630859375, -0.80615234375
224, 2114134399, -5.3657073974609375, -1.9640223979949951, 7.833766937255859, -0.30228111147880554, -0.7675229907035828, -1.0172979831695557, 0.05029296875, 0.21435546875, -0.8076171875
225, 2114151066, -5.347813606262207, -1.9549643993377686, 7.831079006195068, -0.2663464844226837, -0.7846322655677795, -1.0846081972122192, 0.048828125, 0.2158203125, -0.80517578125
226, 2114167733, -5.3534674644470215, -1.954602837562561, 7.83841609954834, -0.2937904894351959, -0.7483646273612976, -1.1101438999176025, 0.048828125, 0.21435546875, -0.806640625
227, 2114184400, -5.346956253051758, -1.9815623760223389, 7.841163158416748, -0.24251557886600494, -0.7602818012237549, -1.104882836341858, 0.04931640625, 0.21630859375, -0.808837890625
228, 2114201067, -5.351198673248291, -1.9782384634017944, 7.822098255157471, -0.2913316786289215, -0.7703531384468079, -1.0227408409118652, 0.05029296875, 0.2138671875, -0.80859375
229, 2114217734, -5.357537269592285, -1.9654953479766846, 7.836373329162598, -0.21670907735824585, -0.7077301740646362, -0.9695304036140442, 0.05078125, 0.21728515625, -0.80615234375
230, 2114234401, -5.356472015380859, -1.9582852125167847, 7.8120341300964355, -0.2628759443759918, -0.6504729390144348, -1.0366483926773071, 0.04931640625, 0.21337890625, -0.80810546875
231, 2114251068, -5.348711013793945, -1.9604811668395996, 7.816932201385498, -0.3126414120197296, -0.6236692667007446, -1.0049270391464233, 0.05029296875, 0.21533203125, -0.80859375
232, 2114267735, -5.365445137023926, -1.9671876430511475, 7.846435070037842, -0.2353038638830185, -0.7130447626113892, -1.0407207012176514, 0.0498046875, 0.21728515625, -0.80615234375
233, 2114284402, -5.378118515014648, -1.9631075859069824, 7.830255031585693, -0.17918644845485687, -0.6792487502098083, -1.0178742408752441, 0.04931640625, 0.21630859375, -0.8076171875
234, 2114301069, -5.359198570251465, -1.9599179029464722, 7.835418224334717, -0.22403426468372345, -0.6585025191307068, -1.0247128009796143, 0.048828125, 0.216796875, -0.809814453125
235, 2114317736, -5.351332187652588, -1.9614206552505493, 7.815873622894287, -0.28780993819236755, -0.6270501017570496, -1.0007010698318481, 0.048828125, 0.21240234375, -0.8076171875
236, 2114334403, -5.348978519439697, -1.950626015663147, 7.821508407592773, -0.2534376382827759, -0.6817716360092163, -0.9641516208648682, 0.048828125, 0.21630859375, -0.8056640625
237, 2114351070, -5.360603332519531, -1.950713872909546, 7.828412055969238, -0.3179432153701782, -0.6441210508346558, -0.9981781840324402, 0.05078125, 0.21630859375, -0.8056640625
238, 2114367737, -5.3670806884765625, -1.966480016708374, 7.8298821449279785, -0.32430797815322876, -0.5480220913887024, -0.9739741086959839, 0.048828125, 0.21728515625, -0.806640625
239, 2114384404, -5.364323139190674, -1.962425708770752, 7.841602325439453, -0.29116517305374146, -0.6269604563713074, -1.039670705795288, 0.04931640625, 0.21630859375, -0.80517578125
240, 2114401071, -5.3723344802856445, -1.9647470712661743, 7.819354057312012, -0.28176528215408325, -0.5942402482032776, -1.0140835046768188, 0.05126953125, 0.2158203125, -0.80615234375
241, 2114417738, -5.354874134063721, -1.9586557149887085, 7.846197605133057, -0.3045862317085266, -0.6051256656646729, -1.0765658617019653, 0.05029296875, 0.2158203125, -0.80810546875
242, 2114434405, -5.3412322998046875, -1.9777604341506958, 7.847012042999268, -0.19662868976593018, -0.6759703159332275, -1.0188219547271729, 0.05029296875, 0.21826171875, -0.80517578125
243, 2114451072, -5.347462177276611, -1.9818379878997803, 7.8550920486450195, -0.23809564113616943, -0.5613406896591187, -0.8994411826133728, 0.0498046875, 0.21533203125, -0.80517578125
244, 2114467739, -5.349253177642822, -1.9706671237945557, 7.867671489715576, -0.19714094698429108, -0.5566151738166809, -0.9517550468444824, 0.0498046875, 0.21826171875, -0.80615234375
245, 2114484406, -5.358253479003906, -1.9620918035507202, 7.804595470428467, -0.1783027946949005, -0.5692550539970398, -1.0087816715240479, 0.0498046875, 0.2138671875, -0.806640625
246, 2114501073, -5.3604912757873535, -1.9641972780227661, 7.818267345428467, -0.24625329673290253, -0.6035633087158203, -0.9628069400787354, 0.0478515625, 0.2158203125, -0.8056640625
247, 2114517740, -5.372676372528076, -1.9711774587631226, 7.833676338195801, -0.24186070263385773, -0.6424177885055542, -1.016478419303894, 0.05029296875, 0.2177734375, -0.8076171875
248, 2114534407, -5.362035751342773, -1.9664720296859741, 7.81356954574585, -0.20792387425899506, -0.6772381067276001, -0.9406903982162476, 0.0498046875, 0.2158203125, -0.80615234375
249, 2114551074, -5.345814228057861, -1.9550532102584839, 7.83969783782959, -0.18580733239650726, -0.7469431757926941, -1.0030701160430908, 0.05126953125, 0.21533203125, -0.80615234375
250, 2114567741, -5.349978446960449, -1.9702301025390625, 7.837655067443848, -0.24141250550746918, -0.6904928088188171, -1.0134944915771484, 0.046875, 0.2158203125, -0.807373046875
251, 2114584408, -5.360614776611328, -1.9638926982879639, 7.824509143829346, -0.2616209089756012, -0.6641116738319397, -0.9408825039863586, 0.0498046875, 0.216796875, -0.80517578125
252, 2114601075, -5.345910549163818, -1.940182089805603, 7.833456993103027, -0.24220648407936096, -0.6107476353645325, -0.9672379493713379, 0.048828125, 0.216796875, -0.8046875
253, 2114617742, -5.350016117095947, -1.9625340700149536, 7.861643314361572, -0.32183638215065, -0.5784884095191956, -1.0256606340408325, 0.048828125, 0.21826171875, -0.80517578125
254, 2114634409, -5.345335483551025, -1.9597759246826172, 7.83658504486084, -0.2694584131240845, -0.6734219789505005, -1.0309624671936035, 0.048828125, 0.21533203125, -0.8056640625
255, 2114651076, -5.328535556793213, -1.9769974946975708, 7.828681945800781, -0.2495957463979721, -0.5250859260559082, -0.9473752975463867, 0.0478515625, 0.2158203125, -0.8037109375
256, 2114667743, -5.348933696746826, -1.9730515480041504, 7.870944976806641, -0.3447853922843933, -0.3327089846134186, -0.9279993772506714, 0.05029296875, 0.2158203125, -0.80615234375
257, 2114684410, -5.366122245788574, -1.9627271890640259, 7.8233466148376465, -0.5421952605247498, -0.3956393599510193, -1.053873062133789, 0.0498046875, 0.2177734375, -0.80810546875
258, 2114701077, -5.357015132904053, -1.9629771709442139, 7.829957485198975, -0.4838879108428955, -0.4419727027416229, -1.0712896585464478, 0.04833984375, 0.2177734375, -0.806640625
259, 2114717744, -5.343540668487549, -1.9728587865829468, 7.830634117126465, -0.3898124694824219, -0.5581135749816895, -1.0529766082763672, 0.05078125, 0.21533203125, -0.80712890625
260, 2114734411, -5.354671478271484, -1.9733504056930542, 7.8177714347839355, -0.28766068816185, -0.700088381767273, -1.0858515501022339, 0.046875, 0.2138671875, -0.8056640625
261, 2114751078, -5.351375579833984, -1.9858015775680542, 7.814657211303711, -0.34983107447624207, -0.864057183265686, -1.0917540788650513, 0.04931640625, 0.21630859375, -0.806640625
262, 2114767745, -5.340433597564697, -1.960476040840149, 7.836078643798828, -0.3273302912712097, -0.6949365735054016, -1.0554865598678589, 0.048828125, 0.21728515625, -0.80810546875
263, 2114784412, -5.347249984741211, -1.9711252450942993, 7.852776050567627, -0.32808586955070496, -0.5786933302879333, -1.0555249452590942, 0.05029296875, 0.21826171875, -0.808837890625
264, 2114801079, -5.356583595275879, -1.96548330783844, 7.81721830368042, -0.3687075972557068, -0.5880675315856934, -1.0627092123031616, 0.04736328125, 0.2177734375, -0.8056640625
265, 2114817746, -5.350002765655518, -1.9847413301467896, 7.829630374908447, -0.2571130692958832, -0.485898494720459, -0.9924280047416687, 0.05029296875, 0.216796875, -0.8037109375
266, 2114834413, -5.362280368804932, -1.9838793277740479, 7.840432167053223, -0.22656992077827454, -0.6063550114631653, -0.9910449981689453, 0.048828125, 0.2158203125, -0.80517578125
267, 2114851080, -5.362756729125977, -1.970118522644043, 7.82625675201416, -0.3181353509426117, -0.6610509753227234, -1.035956859588623, 0.04931640625, 0.21435546875, -0.80517578125
268, 2114867747, -5.353718280792236, -1.9585835933685303, 7.829361915588379, -0.23973488807678223, -0.8300947546958923, -1.0882707834243774, 0.04833984375, 0.2158203125, -0.8056640625
269, 2114884414, -5.333720684051514, -1.9845590591430664, 7.848114967346191, -0.15814562141895294, -0.7733114361763, -1.041860580444336, 0.04931640625, 0.21875, -0.80615234375
270, 2114901081, -5.349532127380371, -1.9844517707824707, 7.84086275100708, -0.1536249965429306, -0.7058860063552856, -0.9817860126495361, 0.05029296875, 0.2177734375, -0.8046875
271, 2114917748, -5.348104953765869, -1.9741722345352173, 7.835700035095215, -0.1014903113245964, -0.6112982630729675, -0.9565958380699158, 0.04833984375, 0.2158203125, -0.8046875
272, 2114934415, -5.351492404937744, -1.9729865789413452, 7.8354058265686035, -0.13907694816589355, -0.5734810829162598, -0.9983189105987549, 0.05029296875, 0.2158203125, -0.8056640625
273, 2114951082, -5.349202632904053, -1.9724595546722412, 7.85746431350708, -0.24148932099342346, -0.6045749187469482, -1.0056058168411255, 0.046875, 0.21435546875, -0.806640625
274, 2114967749, -5.353539943695068, -1.983603596687317, 7.835224151611328, -0.25648555159568787, -0.5603162050247192, -0.9821701049804688, 0.0478515625, 0.21826171875, -0.80517578125
275, 2114984416, -5.345757961273193, -1.9773821830749512, 7.817630767822266, -0.24394816160202026, -0.6882132291793823, -1.025391697883606, 0.05029296875, 0.21630859375, -0.80908203125
276, 2115001083, -5.339513778686523, -1.9950716495513916, 7.844503402709961, -0.23270417749881744, -0.6922472715377808, -0.9808255434036255, 0.04931640625, 0.21630859375, -0.8076171875
277, 2115017750, -5.358165264129639, -1.9866055250167847, 7.828253746032715, -0.1512814164161682, -0.6919398307800293, -0.8608043789863586, 0.0498046875, 0.21630859375, -0.8076171875
278, 2115034417, -5.348407745361328, -1.9469311237335205, 7.834994316101074, -0.2862219214439392, -0.6205317378044128, -0.9858840107917786, 0.0498046875, 0.21484375, -0.810302734375
279, 2115051084, -5.347221374511719, -1.9808003902435303, 7.826206684112549, -0.21985940635204315, -0.693732738494873, -1.0247896909713745, 0.048828125, 0.21533203125, -0.8076171875
280, 2115067751, -5.359227657318115, -1.9824550151824951, 7.821003437042236, -0.35327598452568054, -0.7164512872695923, -1.0152618885040283, 0.0478515625, 0.2158203125, -0.808837890625
281, 2115084418, -5.346146583557129, -1.9833898544311523, 7.823002338409424, -0.21375077962875366, -0.753551185131073, -1.0348809957504272, 0.04833984375, 0.21728515625, -0.806640625
282, 2115101085, -5.339413166046143, -1.9741287231445312, 7.8154473304748535, -0.18384797871112823, -0.8216170072555542, -0.9862425923347473, 0.05029296875, 0.21533203125, -0.8095703125
283, 2115117752, -5.360163688659668, -1.969692349433899, 7.847548007965088, -0.21252138912677765, -0.7689188718795776, -1.0281833410263062, 0.04736328125, 0.21728515625, -0.806640625
284, 2115134419, -5.348214626312256, -1.9638707637786865, 7.8430328369140625, -0.2851846218109131, -0.7683553695678711, -0.9994843006134033, 0.0478515625, 0.2177734375, -0.806640625
285, 2115151086, -5.353781223297119, -1.9736441373825073, 7.827817916870117, -0.19853682816028595, -0.7466869950294495, -0.982631266117096, 0.048828125, 0.21923828125, -0.806640625
286, 2115167753, -5.344460487365723, -1.9878439903259277, 7.8302130699157715, -0.26974013447761536, -0.7786388993263245, -1.023777961730957, 0.04833984375, 0.216796875, -0.8046875
287, 2115184420, -5.343742370605469, -1.9737485647201538, 7.842125415802002, -0.2462148815393448, -0.6715521812438965, -0.9367972612380981, 0.04833984375, 0.216796875, -0.808837890625
288, 2115201087, -5.354788780212402, -1.9568328857421875, 7.833353042602539, -0.2639900743961334, -0.7224574089050293, -0.966046929359436, 0.0478515625, 0.21630859375, -0.806640625
289, 2115217754, -5.355420112609863, -1.975371241569519, 7.813429832458496, -0.29797816276550293, -0.7914708852767944, -1.0896539688110352, 0.04833984375, 0.21728515625, -0.80615234375
290, 2115234421, -5.346823692321777, -1.9812681674957275, 7.823624610900879, -0.34940844774246216, -0.7640525102615356, -1.1136914491653442, 0.048828125, 0.2158203125, -0.806640625
291, 2115251088, -5.335639953613281, -2.004439353942871, 7.837159633636475, -0.3151642382144928, -0.7526804208755493, -1.0754643678665161, 0.04833984375, 0.2177734375, -0.8056640625
292, 2115267755, -5.346037864685059, -1.9938806295394897, 7.842665195465088, -0.3050984740257263, -0.5942658185958862, -1.0287468433380127, 0.0478515625, 0.21533203125, -0.8056640625
293, 2115284422, -5.359378814697266, -1.9798692464828491, 7.8250508308410645, -0.30698102712631226, -0.6733962893486023, -1.0042227506637573, 0.046875, 0.21728515625, -0.8056640625
294, 2115301089, -5.3442182540893555, -1.9603193998336792, 7.819817066192627, -0.22539249062538147, -0.6392544507980347, -0.9982763528823853, 0.0478515625, 0.2177734375, -0.806640625
295, 2115317756, -5.356344223022461, -1.9750534296035767, 7.8355326652526855, -0.2790631353855133, -0.6014757752418518, -1.0408616065979004, 0.0478515625, 0.2177734375, -0.808349609375
296, 2115334423, -5.352940082550049, -1.977521300315857, 7.819280624389648, -0.3963693380355835, -0.5308615565299988, -0.9825286865234375, 0.048828125, 0.21435546875, -0.808837890625
297, 2115351090, -5.351867198944092, -1.9712979793548584, 7.823739528656006, -0.3666714131832123, -0.6613967418670654, -1.0150184631347656, 0.046875, 0.2177734375, -0.80615234375
298, 2115367757, -5.336136817932129, -1.9795094728469849, 7.837053298950195, -0.24375605583190918, -0.7176806330680847, -1.0766427516937256, 0.0498046875, 0.21630859375, -0.809326171875
299, 2115384424, -5.351506233215332, -1.9717128276824951, 7.832679748535156, -0.3293409049510956, -0.6456961631774902, -1.0055161714553833, 0.04931640625, 0.21826171875, -0.810791015625
300, 2115401091, -5.331188201904297, -1.9785559177398682, 7.831372261047363, -0.2745681703090668, -0.6116184592247009, -0.9816579818725586, 0.046875, 0.21630859375, -0.807861328125
301, 2115417758, -5.3289713859558105, -1.984827995300293, 7.835173606872559, -0.2296818643808365, -0.6189180016517639, -0.9425345063209534, 0.04736328125, 0.21630859375, -0.80615234375
302, 2115434425, -5.3423309326171875, -1.9883673191070557, 7.83507776260376, -0.23539350926876068, -0.5389679670333862, -0.8599079251289368, 0.04833984375, 0.21826171875, -0.807861328125
303, 2115451092, -5.336798667907715, -1.9840905666351318, 7.852622985839844, -0.15265168249607086, -0.5195408463478088, -0.8858152031898499, 0.04736328125, 0.216796875, -0.8046875
304, 2115467759, -5.346982479095459, -1.9995019435882568, 7.827852249145508, -0.2607244551181793, -0.5476891398429871, -0.8635961413383484, 0.048828125, 0.2177734375, -0.807861328125
305, 2115484426, -5.347774505615234, -1.9873427152633667, 7.869377613067627, -0.3148697018623352, -0.5415804982185364, -0.986524224281311, 0.048828125, 0.21826171875, -0.80517578125
306, 2115501093, -5.335878849029541, -1.9796279668807983, 7.825046062469482, -0.2364308387041092, -0.5486881136894226, -0.8973537683486938, 0.04833984375, 0.21728515625, -0.806640625
307, 2115517760, -5.34091854095459, -1.98520028591156, 7.833797454833984, -0.23115460574626923, -0.5140212178230286, -0.9945282936096191, 0.04736328125, 0.21875, -0.808349609375
308, 2115534427, -5.345934867858887, -1.9728251695632935, 7.837884426116943, -0.22697973251342773, -0.5250731706619263, -0.960745096206665, 0.0517578125, 0.216796875, -0.8056640625
309, 2115551094, -5.333003997802734, -1.995918869972229, 7.824741840362549, -0.25228506326675415, -0.589309811592102, -0.9156028628349304, 0.0478515625, 0.21826171875, -0.80712890625
310, 2115567761, -5.339820384979248, -1.9925495386123657, 7.84270715713501, -0.18072320520877838, -0.5857239961624146, -0.9521135687828064, 0.04833984375, 0.2177734375, -0.806640625
311, 2115584428, -5.34725284576416, -1.9847946166992188, 7.826358318328857, -0.18436022102832794, -0.6660710573196411, -0.8701401948928833, 0.04833984375, 0.219482421875, -0.809814453125
312, 2115601095, -5.330211162567139, -1.976104974746704, 7.851127624511719, -0.20354411005973816, -0.5359712839126587, -1.017195463180542, 0.04833984375, 0.2177734375, -0.80615234375
313, 2115617762, -5.328268051147461, -1.9938467741012573, 7.819766998291016, -0.23319081962108612, -0.6157676577568054, -0.9606682658195496, 0.0478515625, 0.21728515625, -0.807861328125
314, 2115634429, -5.350162982940674, -1.9842582941055298, 7.8330078125, -0.1845010668039322, -0.5813954472541809, -0.9894057512283325, 0.04833984375, 0.21875, -0.8056640625
315, 2115651096, -5.353260040283203, -1.9831480979919434, 7.836766719818115, -0.22071745991706848, -0.6295345425605774, -0.9739742279052734, 0.04833984375, 0.2177734375, -0.80517578125
316, 2115667763, -5.3484601974487305, -1.9762474298477173, 7.825068473815918, -0.20090600848197937, -0.6635994911193848, -0.8974305391311646, 0.04931640625, 0.216796875, -0.8076171875
317, 2115684430, -5.346113204956055, -1.9662113189697266, 7.839621067047119, -0.2192959040403366, -0.6577340960502625, -0.957172155380249, 0.04931640625, 0.21826171875, -0.80712890625
318, 2115701097, -5.342040061950684, -1.9935470819473267, 7.84246826171875, -0.13500455021858215, -0.572700023651123, -0.9022713899612427, 0.04931640625, 0.21435546875, -0.80908203125
319, 2115717764, -5.354360103607178, -1.9758514165878296, 7.827912330627441, -0.2522338628768921, -0.6871887445449829, -0.9383212327957153, 0.0478515625, 0.2177734375, -0.808349609375
320, 2115734431, -5.33637809753418, -1.9827862977981567, 7.8112359046936035, -0.12674443423748016, -0.6449662446975708, -0.9276278614997864, 0.0498046875, 0.21630859375, -0.809326171875
321, 2115751098, -5.349706172943115, -1.9821205139160156, 7.839990615844727, -0.12094315886497498, -0.5455376505851746, -0.9463635683059692, 0.04638671875, 0.21630859375, -0.806884765625
322, 2115767765, -5.34832763671875, -1.9704608917236328, 7.836823463439941, -0.2816244065761566, -0.5562566518783569, -0.9566599130630493, 0.04931640625, 0.2158203125, -0.809326171875
323, 2115784432, -5.3407182693481445, -1.9930195808410645, 7.834564208984375, -0.24356399476528168, -0.5808320641517639, -1.0676524639129639, 0.04833984375, 0.2177734375, -0.808837890625
324, 2115801099, -5.339016437530518, -1.9867141246795654, 7.83804988861084, -0.31433185935020447, -0.6452735662460327, -0.9290238618850708, 0.05078125, 0.21728515625, -0.80615234375
325, 2115817766, -5.330911159515381, -1.9825458526611328, 7.857503414154053, -0.19844716787338257, -0.5383020639419556, -0.844886064529419, 0.048828125, 0.21533203125, -0.80712890625
326, 2115834433, -5.347216606140137, -1.9809722900390625, 7.8484272956848145, -0.2731594741344452, -0.5931517481803894, -0.866144597530365, 0.0478515625, 0.216796875, -0.80712890625
327, 2115851100, -5.342649459838867, -1.966889500617981, 7.843438625335693, -0.24679315090179443, -0.5750779509544373, -0.9424245953559875, 0.0478515625, 0.21875, -0.8056640625
328, 2115867767, -5.338439464569092, -1.974800944328308, 7.818995952606201, -0.18496209383010864, -0.5853270292282104, -0.9672892689704895, 0.046875, 0.21533203125, -0.80712890625
329, 2115884434, -5.340698719024658, -1.9781163930892944, 7.8307037353515625, -0.18575608730316162, -0.6593860387802124, -0.9641388654708862, 0.0498046875, 0.21630859375, -0.80859375
330, 2115901101, -5.340722560882568, -1.9976087808609009, 7.846718788146973, -0.17935293912887573, -0.6746256947517395, -0.8751475214958191, 0.046875, 0.216796875, -0.808837890625
331, 2115917768, -5.3385396003723145, -1.9831091165542603, 7.848683834075928, -0.1903279721736908, -0.5906672477722168, -0.8671307563781738, 0.0478515625, 0.2158203125, -0.808837890625
332, 2115934435, -5.340137004852295, -1.9856390953063965, 7.849526882171631, -0.216657817363739, -0.4893690347671509, -0.8649151921272278, 0.04736328125, 0.2138671875, -0.8076171875
333, 2115951102, -5.353696346282959, -1.9770302772521973, 7.851569175720215, -0.283852756023407, -0.4516415297985077, -0.9775470495223999, 0.046875, 0.21435546875, -0.807373046875
334, 2115967769, -5.3510847091674805, -1.9921765327453613, 7.825721740722656, -0.38151392340660095, -0.36560842394828796, -0.9187787175178528, 0.04833984375, 0.216796875, -0.80615234375
335, 2115984436, -5.353725910186768, -1.969531536102295, 7.827320575714111, -0.4444955587387085, -0.3647376596927643, -0.9612317681312561, 0.04736328125, 0.2177734375, -0.806884765625
336, 2116001103, -5.353623390197754, -1.9786300659179688, 7.827569007873535, -0.41365790367126465, -0.3541339933872223, -1.1235651969909668, 0.046630859375, 0.2177734375, -0.8056640625
337, 2116017770, -5.33922815322876, -1.9746752977371216, 7.835965156555176, -0.3078518509864807, -0.33605143427848816, -1.0793192386627197, 0.046875, 0.2177734375, -0.807861328125
338, 2116034437, -5.333566188812256, -1.9851326942443848, 7.8548197746276855, -0.3364868462085724, -0.49150773882865906, -1.0335620641708374, 0.0478515625, 0.21875, -0.807373046875
339, 2116051104, -5.349586009979248, -1.9883809089660645, 7.845621585845947, -0.502444326877594, -0.3880964517593384, -1.024367094039917, 0.0478515625, 0.21533203125, -0.809326171875
340, 2116067771, -5.3444905281066895, -1.9933409690856934, 7.8484320640563965, -0.40541061758995056, -0.3925914466381073, -0.9845137000083923, 0.047607421875, 0.219970703125, -0.809814453125
341, 2116084438, -5.339832305908203, -1.996790885925293, 7.840704441070557, -0.2877330482006073, -0.46830257773399353, -0.8858664035797119, 0.0478515625, 0.21826171875, -0.807861328125
342, 2116101105, -5.3586626052856445, -1.987538456916809, 7.840121269226074, -0.1638060212135315, -0.5447180867195129, -0.9071506261825562, 0.048828125, 0.21875, -0.808837890625
343, 2116117772, -5.3408589363098145, -1.9839723110198975, 7.84010648727417, -0.12228783965110779, -0.4669707417488098, -0.82316654920578, 0.04833984375, 0.21728515625, -0.806640625
344, 2116134439, -5.358709335327148, -1.987426996231079, 7.810241222381592, -0.3021273910999298, -0.3961388170719147, -0.8476394414901733, 0.04833984375, 0.2177734375, -0.8076171875
345, 2116151106, -5.349186897277832, -1.992573618888855, 7.850444793701172, -0.10147750377655029, -0.4453408122062683, -0.8525570631027222, 0.04736328125, 0.21728515625, -0.80517578125
346, 2116167773, -5.347792625427246, -1.984771490097046, 7.813699722290039, -0.1348380595445633, -0.5627493858337402, -0.885763943195343, 0.05078125, 0.2158203125, -0.80712890625
347, 2116184440, -5.348880767822266, -1.9722882509231567, 7.816475868225098, -0.17575432360172272, -0.511677622795105, -0.8630967140197754, 0.0498046875, 0.216796875, -0.80859375
348, 2116201107, -5.351387977600098, -1.9680495262145996, 7.8256049156188965, -0.21172736585140228, -0.5268275737762451, -0.8803724646568298, 0.0517578125, 0.218994140625, -0.810302734375
349, 2116217774, -5.34048318862915, -1.9878665208816528, 7.839015007019043, -0.099851094186306, -0.556653618812561, -0.8756213188171387, 0.04638671875, 0.21630859375, -0.80517578125
350, 2116234441, -5.3519673347473145, -1.9970324039459229, 7.84250545501709, -0.15559716522693634, -0.4547279179096222, -0.7939425110816956, 0.046875, 0.2177734375, -0.8037109375
351, 2116251108, -5.34922981262207, -1.9746991395950317, 7.851010322570801, -0.11798489093780518, -0.37676283717155457, -0.8073123097419739, 0.0498046875, 0.216796875, -0.8076171875
352, 2116267775, -5.346961498260498, -1.9742921590805054, 7.823581695556641, -0.1618722677230835, -0.4266051650047302, -0.815815806388855, 0.046875, 0.21728515625, -0.80615234375
353, 2116284442, -5.345154285430908, -1.9836841821670532, 7.847242832183838, -0.16191068291664124, -0.41815292835235596, -0.8099631667137146, 0.048828125, 0.21826171875, -0.806640625
354, 2116301109, -5.342689514160156, -1.9854403734207153, 7.829181671142578, -0.24220648407936096, -0.37531566619873047, -0.8871470093727112, 0.0498046875, 0.21875, -0.80810546875
355, 2116317776, -5.349252223968506, -1.9673584699630737, 7.8469367027282715, -0.19342710077762604, -0.5070161819458008, -0.9087386727333069, 0.04931640625, 0.2158203125, -0.80810546875
356, 2116334443, -5.336444854736328, -1.9946441650390625, 7.828396320343018, -0.2002144753932953, -0.51826012134552, -0.8810896277427673, 0.04931640625, 0.2158203125, -0.806640625
357, 2116351110, -5.358949184417725, -1.9824827909469604, 7.807756423950195, -0.14143331348896027, -0.5880292057991028, -0.7817124128341675, 0.04638671875, 0.21630859375, -0.806640625
358, 2116367777, -5.329003810882568, -2.000894546508789, 7.824141502380371, -0.03022298403084278, -0.399199515581131, -0.7859640717506409, 0.0498046875, 0.21826171875, -0.806640625
359, 2116384444, -5.346141338348389, -1.9870811700820923, 7.839600563049316, -0.06786084175109863, -0.3453488349914551, -0.7628102898597717, 0.047119140625, 0.21875, -0.809326171875
360, 2116401111, -5.353806018829346, -1.9701000452041626, 7.8133697509765625, -0.10442297160625458, -0.3100929260253906, -0.7887558341026306, 0.0498046875, 0.2177734375, -0.80810546875
361, 2116417778, -5.357172966003418, -1.9833062887191772, 7.839720249176025, -0.14091669023036957, -0.3060132563114166, -0.7965897917747498, 0.04833984375, 0.21533203125, -0.808349609375
362, 2116434445, -5.35203218460083, -1.9806594848632812, 7.84395170211792, -0.2040948122739792, -0.3444523811340332, -0.7925978302955627, 0.048828125, 0.21728515625, -0.8076171875
363, 2116451112, -5.358598232269287, -1.9876515865325928, 7.796027660369873, -0.1518705040216446, -0.3371911942958832, -0.8327840566635132, 0.04833984375, 0.216796875, -0.8056640625
364, 2116467779, -5.360013008117676, -1.98004150390625, 7.837377548217773, -0.12198048084974289, -0.3665817677974701, -0.7692261934280396, 0.0498046875, 0.2177734375, -0.80810546875
365, 2116484446, -5.35595703125, -1.9710861444473267, 7.838640213012695, -6.787364836782217E-4, -0.382000595331192, -0.7645262479782104, 0.04833984375, 0.21826171875, -0.8056640625
366, 2116501113, -5.365978240966797, -1.9668370485305786, 7.83298921585083, -0.15940062701702118, -0.543130099773407, -0.7616704702377319, 0.0498046875, 0.2177734375, -0.80859375
367, 2116517780, -5.3502326011657715, -1.9560643434524536, 7.83983850479126, -0.10020968317985535, -0.5966862440109253, -0.8790790438652039, 0.0498046875, 0.21484375, -0.8076171875
368, 2116534447, -5.364835262298584, -1.9786196947097778, 7.821432113647461, -0.16905660927295685, -0.5711759924888611, -0.9822981953620911, 0.0498046875, 0.2158203125, -0.8037109375
369, 2116551114, -5.360196590423584, -1.9847570657730103, 7.837771892547607, -0.17337235808372498, -0.5201427340507507, -0.8296337723731995, 0.04833984375, 0.21728515625, -0.80615234375
370, 2116567781, -5.352263927459717, -1.9675097465515137, 7.854185104370117, -0.14439159631729126, -0.5427971482276917, -0.873751699924469, 0.0498046875, 0.216796875, -0.8046875
371, 2116584448, -5.351008892059326, -1.9675124883651733, 7.837775230407715, -0.1853335201740265, -0.5615072846412659, -0.7852470278739929, 0.05029296875, 0.2158203125, -0.8076171875
372, 2116601115, -5.354599952697754, -1.9658108949661255, 7.823019027709961, -0.20916609466075897, -0.47811222076416016, -0.8070945143699646, 0.0517578125, 0.218994140625, -0.80615234375
373, 2116617782, -5.358767986297607, -1.9602694511413574, 7.825854778289795, -0.17530611157417297, -0.471926748752594, -0.8777216076850891, 0.05126953125, 0.2177734375, -0.80810546875
374, 2116634449, -5.370392322540283, -1.960837483406067, 7.84144926071167, -0.09620129317045212, -0.5978004336357117, -0.8305301666259766, 0.04833984375, 0.216796875, -0.80419921875
375, 2116651116, -5.3521833419799805, -1.973284125328064, 7.828456878662109, -0.07220219820737839, -0.625487744808197, -0.734866738319397, 0.0498046875, 0.216796875, -0.80419921875
376, 2116667783, -5.354335308074951, -1.9681953191757202, 7.832070827484131, -0.27158424258232117, -0.6151785850524902, -0.8617264628410339, 0.05126953125, 0.216796875, -0.80859375
377, 2116684450, -5.350976467132568, -1.9749599695205688, 7.83474588394165, -0.17283450067043304, -0.5431429147720337, -0.8718562722206116, 0.04931640625, 0.218994140625, -0.8076171875
378, 2116701117, -5.346834659576416, -1.9797306060791016, 7.83031702041626, -0.1620771437883377, -0.6140260100364685, -0.914283812046051, 0.0517578125, 0.2177734375, -0.80810546875
379, 2116717784, -5.349077224731445, -1.9890401363372803, 7.862158298492432, -0.1443403661251068, -0.588323712348938, -0.8705499768257141, 0.046875, 0.21484375, -0.80419921875
380, 2116734451, -5.366299152374268, -1.977062702178955, 7.830130100250244, -0.17041409015655518, -0.4898300766944885, -0.8753523826599121, 0.048828125, 0.21630859375, -0.8076171875
381, 2116751118, -5.343544960021973, -1.9618607759475708, 7.824685573577881, -0.19965098798274994, -0.44230568408966064, -0.9203923344612122, 0.04833984375, 0.21484375, -0.80615234375
382, 2116767785, -5.362929821014404, -1.977784514427185, 7.828300952911377, -0.219206303358078, -0.5578318238258362, -0.8654403686523438, 0.0498046875, 0.2158203125, -0.809326171875
383, 2116784452, -5.357118606567383, -1.9607571363449097, 7.833866119384766, -0.20182806253433228, -0.45538097620010376, -0.9962700009346008, 0.05078125, 0.218994140625, -0.80810546875
384, 2116801119, -5.353415489196777, -1.9746111631393433, 7.821691989898682, -0.20047059655189514, -0.5076565146446228, -0.8992619514465332, 0.048828125, 0.2158203125, -0.8076171875
385, 2116817786, -5.366579532623291, -1.9672874212265015, 7.857857704162598, -0.12187804281711578, -0.5776560306549072, -0.9497573375701904, 0.048828125, 0.216796875, -0.80810546875
386, 2116834453, -5.361654281616211, -1.9664186239242554, 7.8183674812316895, -0.2252252697944641, -0.6240149736404419, -1.005068063735962, 0.05078125, 0.21484375, -0.80419921875
387, 2116851120, -5.3401360511779785, -1.9684345722198486, 7.816997051239014, -0.1628967672586441, -0.5769389271736145, -1.0360465049743652, 0.048828125, 0.21484375, -0.806640625
388, 2116867787, -5.363348960876465, -1.9810254573822021, 7.838136672973633, -0.14660710096359253, -0.4899453818798065, -0.9518064260482788, 0.0498046875, 0.21484375, -0.8046875
389, 2116884454, -5.355044364929199, -1.9686851501464844, 7.830134391784668, -0.19815263152122498, -0.48831889033317566, -0.9014388918876648, 0.05078125, 0.216796875, -0.80859375
390, 2116901121, -5.354549407958984, -1.9689538478851318, 7.853768348693848, -0.17476825416088104, -0.42898714542388916, -0.8494324088096619, 0.05029296875, 0.21875, -0.8056640625
391, 2116917788, -5.357762336730957, -1.9743088483810425, 7.8279709815979, -0.18799719214439392, -0.3838062584400177, -0.8230512142181396, 0.05078125, 0.216796875, -0.80712890625
392, 2116934455, -5.354647159576416, -1.9851003885269165, 7.834630966186523, -0.11456560343503952, -0.39052969217300415, -0.8721893429756165, 0.048828125, 0.216796875, -0.8076171875
393, 2116951122, -5.352792739868164, -1.9730197191238403, 7.822358131408691, -0.20459423959255219, -0.34636053442955017, -0.8365619778633118, 0.04931640625, 0.21533203125, -0.8056640625
394, 2116967789, -5.36799955368042, -1.9733384847640991, 7.82390832901001, -0.20819249749183655, -0.27809375524520874, -0.9052454233169556, 0.05029296875, 0.21728515625, -0.806640625
395, 2116984456, -5.353974342346191, -1.963391900062561, 7.819400787353516, -0.17713740468025208, -0.4306391179561615, -0.9539706110954285, 0.05126953125, 0.2158203125, -0.80908203125
396, 2117001123, -5.343814373016357, -1.969091773033142, 7.850770950317383, -0.17639465630054474, -0.4599272310733795, -0.9072273373603821, 0.04931640625, 0.21875, -0.809814453125
397, 2117017790, -5.361696720123291, -1.9748523235321045, 7.819217205047607, -0.2166450172662735, -0.47004422545433044, -0.970119297504425, 0.05078125, 0.21484375, -0.806640625
398, 2117034457, -5.359435081481934, -1.9703073501586914, 7.827630043029785, -0.19372163712978363, -0.47496187686920166, -0.9423296451568604, 0.05224609375, 0.21484375, -0.80517578125
399, 2117051124, -5.365743637084961, -1.9658910036087036, 7.83144998550415, -0.24770040810108185, -0.5771694183349609, -0.9775086045265198, 0.048828125, 0.21435546875, -0.80419921875
400, 2117067791, -5.3550214767456055, -1.9662615060806274, 7.834228992462158, -0.3575916886329651, -0.5914356112480164, -0.9898155331611633, 0.05224609375, 0.216796875, -0.8046875
401, 2117084458, -5.357059001922607, -1.9616806507110596, 7.855805397033691, -0.34563058614730835, -0.4832475781440735, -0.9418301582336426, 0.0498046875, 0.21728515625, -0.808837890625
402, 2117101125, -5.372957229614258, -1.9670758247375488, 7.853888511657715, -0.5553857684135437, -0.5127789974212646, -1.088104248046875, 0.05224609375, 0.2158203125, -0.80615234375
403, 2117117792, -5.371833324432373, -1.955180287361145, 7.861429214477539, -1.1132817268371582, -0.2451263666152954, -1.3289790153503418, 0.048828125, 0.21728515625, -0.808837890625
404, 2117134459, -5.348360061645508, -1.9669952392578125, 7.817630767822266, -1.3772715330123901, -0.26155683398246765, -1.5512970685958862, 0.048828125, 0.21533203125, -0.80712890625
405, 2117151126, -5.39171028137207, -1.967244267463684, 7.825811386108398, -1.2480555772781372, -0.1826697736978531, -1.475893259048462, 0.04931640625, 0.21630859375, -0.80615234375
406, 2117167793, -5.345882415771484, -2.0177035331726074, 7.830672740936279, -0.8760567307472229, -0.2839551866054535, -1.3579853773117065, 0.05029296875, 0.21728515625, -0.806640625
407, 2117184460, -5.3623833656311035, -1.998162865638733, 7.803061008453369, -0.7348796129226685, -0.3497413992881775, -1.1606650352478027, 0.052734375, 0.218017578125, -0.8056640625
408, 2117201127, -5.369173049926758, -1.9950138330459595, 7.809224605560303, -0.49180227518081665, -0.6281130909919739, -1.079664945602417, 0.05029296875, 0.216796875, -0.8056640625
409, 2117217794, -5.364832878112793, -1.9918242692947388, 7.813850402832031, -0.40967509150505066, -0.60407555103302, -1.035828709602356, 0.05078125, 0.2158203125, -0.806640625
410, 2117234461, -5.365981101989746, -2.004620313644409, 7.831324100494385, -0.2593926191329956, -0.6915301084518433, -0.978955864906311, 0.0517578125, 0.216796875, -0.80615234375
411, 2117251128, -5.368271350860596, -2.0010986328125, 7.8198418617248535, -0.1932734251022339, -0.6209799647331238, -0.9105570912361145, 0.0498046875, 0.21728515625, -0.80712890625
412, 2117267795, -5.3519392013549805, -2.002598762512207, 7.821647644042969, -0.1604507565498352, -0.7032734751701355, -0.8681039810180664, 0.0517578125, 0.21728515625, -0.8046875
413, 2117284462, -5.35695743560791, -1.9975849390029907, 7.828909397125244, -0.07153626531362534, -0.6547630429267883, -0.8595108985900879, 0.05029296875, 0.219970703125, -0.80615234375
414, 2117301129, -5.35993766784668, -1.9782023429870605, 7.831465244293213, -0.10438454896211624, -0.6010531783103943, -0.9369381666183472, 0.0498046875, 0.2177734375, -0.80517578125
415, 2117317796, -5.367722034454346, -1.9879775047302246, 7.807870864868164, -0.01228128932416439, -0.6581695079803467, -0.9836044311523438, 0.05029296875, 0.216796875, -0.8046875
416, 2117334463, -5.36167049407959, -1.9986811876296997, 7.827155113220215, -0.062021154910326004, -0.7959786653518677, -0.8860712647438049, 0.0517578125, 0.2158203125, -0.806640625
417, 2117351130, -5.360429286956787, -2.001802444458008, 7.8158111572265625, -0.004110837820917368, -0.7891656756401062, -0.8290318846702576, 0.05029296875, 0.21826171875, -0.80712890625
418, 2117367797, -5.3553948402404785, -1.9729905128479004, 7.84512186050415, -0.13084247708320618, -0.7714160680770874, -0.9065231084823608, 0.04833984375, 0.2158203125, -0.8037109375
419, 2117384464, -5.368565559387207, -1.9745911359786987, 7.844057083129883, -0.12592484056949615, -0.7255181074142456, -0.9070480465888977, 0.04931640625, 0.21728515625, -0.806640625
420, 2117401131, -5.353753089904785, -1.9973981380462646, 7.8114237785339355, -0.06198273226618767, -0.7150554060935974, -0.9143734574317932, 0.05078125, 0.21875, -0.8056640625
421, 2117417798, -5.355363368988037, -1.9889588356018066, 7.831477642059326, -0.18080005049705505, -0.7267219424247742, -0.8601641654968262, 0.05224609375, 0.218017578125, -0.80859375
422, 2117434465, -5.352107524871826, -1.9946019649505615, 7.842772483825684, -0.11004496365785599, -0.7710318565368652, -0.9058059453964233, 0.05029296875, 0.21875, -0.8076171875
423, 2117451132, -5.353274822235107, -1.9938749074935913, 7.832193374633789, -0.04083945229649544, -0.7807520031929016, -0.8255614042282104, 0.04931640625, 0.216796875, -0.80810546875
424, 2117467799, -5.351884365081787, -1.9850717782974243, 7.837716579437256, -0.1111719161272049, -0.7308967709541321, -0.8177109956741333, 0.04931640625, 0.216796875, -0.8076171875
425, 2117484466, -5.358074188232422, -1.9703744649887085, 7.819554805755615, -0.12767930328845978, -0.7031198143959045, -0.8532998561859131, 0.052734375, 0.2177734375, -0.80859375
426, 2117501133, -5.367938041687012, -1.9787389039993286, 7.823287010192871, -0.22423917055130005, -0.7117000818252563, -0.9755620360374451, 0.05078125, 0.2177734375, -0.8056640625
427, 2117517800, -5.354485988616943, -1.9928921461105347, 7.835972309112549, -0.2207430750131607, -0.655275285243988, -0.996564507484436, 0.05126953125, 0.216796875, -0.8076171875
428, 2117534467, -5.349904537200928, -1.9860576391220093, 7.847232818603516, -0.23063057661056519, -0.6566977500915527, -1.0266826152801514, 0.05029296875, 0.2158203125, -0.80908203125
429, 2117551134, -5.364529609680176, -1.9632302522659302, 7.825505256652832, -0.15155033767223358, -0.7674717307090759, -1.019334077835083, 0.05029296875, 0.2177734375, -0.80615234375
430, 2117567801, -5.3446946144104, -2.0130276679992676, 7.823109149932861, -0.2835710346698761, -0.6482573747634888, -0.8776447176933289, 0.05029296875, 0.219970703125, -0.8076171875
431, 2117584468, -5.373538494110107, -1.9707947969436646, 7.823981761932373, -0.2735308110713959, -0.5761704444885254, -0.9712719321250916, 0.05078125, 0.21826171875, -0.80615234375
432, 2117601135, -5.369410037994385, -1.987986445426941, 7.823067665100098, -0.26674342155456543, -0.5742495059967041, -0.9834507703781128, 0.05078125, 0.218994140625, -0.80517578125
433, 2117617802, -5.365868091583252, -1.9962043762207031, 7.824798583984375, -0.24169422686100006, -0.5878498554229736, -1.0692020654678345, 0.04833984375, 0.21630859375, -0.808837890625
434, 2117634469, -5.367140769958496, -1.9798158407211304, 7.8324689865112305, -0.16052761673927307, -0.7256974577903748, -0.9566982984542847, 0.05029296875, 0.2177734375, -0.80419921875
435, 2117651136, -5.358975410461426, -1.9904847145080566, 7.849964141845703, -0.22881107032299042, -0.6485648155212402, -0.9910451173782349, 0.05224609375, 0.21728515625, -0.806640625
436, 2117667803, -5.348652362823486, -1.968261480331421, 7.839829921722412, -0.1655604988336563, -0.7523858547210693, -1.0297073125839233, 0.04736328125, 0.216796875, -0.806640625
437, 2117684470, -5.353461265563965, -1.9939296245574951, 7.82187032699585, -0.10937903076410294, -0.760722815990448, -0.9703498482704163, 0.05029296875, 0.218994140625, -0.80517578125
438, 2117701137, -5.354136943817139, -1.9750944375991821, 7.845731735229492, -0.19122441112995148, -0.799385130405426, -0.9886245131492615, 0.05224609375, 0.21728515625, -0.806640625
439, 2117717804, -5.3472700119018555, -1.978513479232788, 7.849094867706299, -0.2740558683872223, -0.7106883525848389, -0.9958601593971252, 0.0498046875, 0.21630859375, -0.80615234375
440, 2117734471, -5.349929332733154, -1.9901143312454224, 7.819329738616943, -0.3390224874019623, -0.5673468708992004, -0.9814144372940063, 0.04931640625, 0.216796875, -0.808837890625
441, 2117751138, -5.349844932556152, -2.005258560180664, 7.859346866607666, -0.2628631293773651, -0.5107427835464478, -1.0101392269134521, 0.048828125, 0.21826171875, -0.80712890625
442, 2117767805, -5.359979629516602, -1.9773973226547241, 7.833670139312744, -0.2639516592025757, -0.582727313041687, -0.938257098197937, 0.04833984375, 0.21630859375, -0.80419921875
443, 2117784472, -5.363268852233887, -1.990081548690796, 7.833655834197998, -0.1524852216243744, -0.674843430519104, -0.9036543965339661, 0.0498046875, 0.2177734375, -0.80615234375
444, 2117801139, -5.35998010635376, -1.9782801866531372, 7.830774307250977, -0.15144789218902588, -0.5498278141021729, -0.9486047625541687, 0.048828125, 0.2177734375, -0.80517578125
445, 2117817806, -5.3430585861206055, -1.981384038925171, 7.823948383331299, -0.20791110396385193, -0.7607868909835815, -0.9561861753463745, 0.0498046875, 0.21728515625, -0.8076171875
446, 2117834473, -5.3592209815979, -1.9870282411575317, 7.82919454574585, -0.2204229086637497, -0.6283692121505737, -0.976740300655365, 0.04833984375, 0.2158203125, -0.80517578125
447, 2117851140, -5.3458428382873535, -1.9952231645584106, 7.830522060394287, -0.16959448158740997, -0.6112086176872253, -0.9569416642189026, 0.048828125, 0.2158203125, -0.80419921875
448, 2117867807, -5.353200435638428, -1.9791871309280396, 7.860313415527344, -0.24773883819580078, -0.6421871781349182, -0.9552255272865295, 0.048828125, 0.21630859375, -0.80615234375
449, 2117884474, -5.353531360626221, -1.9892940521240234, 7.832457542419434, -0.07791383564472198, -0.45824962854385376, -0.8418126702308655, 0.05224609375, 0.218505859375, -0.80615234375
450, 2117901141, -5.336163520812988, -1.9989091157913208, 7.826681613922119, -0.0011013459879904985, -0.4555346667766571, -0.9008497595787048, 0.0498046875, 0.21728515625, -0.8056640625
451, 2117917808, -5.344988822937012, -1.979020118713379, 7.829281330108643, 0.12828759849071503, -0.21252135932445526, -1.140533447265625, 0.04833984375, 0.216796875, -0.806640625
452, 2117934475, -5.3645501136779785, -2.0133440494537354, 7.816417217254639, 0.05673852935433388, -0.1339288055896759, -0.8765689730644226, 0.048828125, 0.216796875, -0.8076171875
453, 2117951142, -5.372857093811035, -1.96649968624115, 7.8412556648254395, -0.0651715099811554, -0.16170577704906464, -0.9156796932220459, 0.05029296875, 0.21728515625, -0.8056640625
454, 2117967809, -5.368893146514893, -1.9969618320465088, 7.818089962005615, -0.024524156004190445, -0.3384077847003937, -0.8337317705154419, 0.05126953125, 0.216796875, -0.80419921875
455, 2117984476, -5.361883640289307, -1.9609456062316895, 7.8219709396362305, -0.05582287535071373, -0.45637986063957214, -0.8826264142990112, 0.05126953125, 0.216796875, -0.8046875
456, 2118001143, -5.358206748962402, -1.9879016876220703, 7.813287258148193, -0.036318808794021606, -0.6399844884872437, -0.848651111125946, 0.0517578125, 0.216796875, -0.80615234375
457, 2118017810, -5.364730358123779, -1.9800511598587036, 7.813772678375244, 0.24900023639202118, -0.6704891920089722, -0.7550879120826721, 0.04931640625, 0.21630859375, -0.808837890625
458, 2118034477, -5.36526346206665, -1.9597177505493164, 7.8525004386901855, 0.1340760588645935, -0.8694742918014526, -0.7213559746742249, 0.04833984375, 0.2177734375, -0.80615234375
459, 2118051144, -5.346094608306885, -1.9690550565719604, 7.840993881225586, 0.3075893521308899, -0.8655300140380859, -0.7750787734985352, 0.0498046875, 0.21630859375, -0.80712890625
460, 2118067811, -5.3655171394348145, -1.9809377193450928, 7.833491802215576, 0.17003631591796875, -0.8168274164199829, -0.6500119566917419, 0.04638671875, 0.21728515625, -0.80615234375
461, 2118084478, -5.375921726226807, -1.9577364921569824, 7.8399529457092285, -0.10602376610040665, -0.6948340535163879, -0.7953510880470276, 0.048828125, 0.2158203125, -0.806640625
462, 2118101145, -5.3692121505737305, -1.9677250385284424, 7.848333358764648, -0.15217415988445282, -0.712408721446991, -0.8628923296928406, 0.052734375, 0.2177734375, -0.80810546875
463, 2118117812, -5.355365753173828, -1.9698562622070312, 7.813157558441162, -0.1165890097618103, -0.6928491592407227, -0.9012981057167053, 0.05029296875, 0.21728515625, -0.8056640625
464, 2118134479, -5.347778797149658, -1.9869025945663452, 7.8359856605529785, -0.17496035993099213, -0.8129215240478516, -0.908111035823822, 0.04931640625, 0.21728515625, -0.80517578125
465, 2118151146, -5.337717533111572, -1.987459659576416, 7.844202995300293, -0.06914147734642029, -0.8567575216293335, -0.7879105806350708, 0.04931640625, 0.216796875, -0.80712890625
466, 2118167813, -5.34881591796875, -1.9729766845703125, 7.836363315582275, -0.051737651228904724, -0.8715490102767944, -0.8315802812576294, 0.048828125, 0.21630859375, -0.80517578125
467, 2118184480, -5.355071067810059, -1.969419002532959, 7.820746898651123, -0.11194030195474625, -0.7485055923461914, -0.8705757260322571, 0.04931640625, 0.21875, -0.8076171875
468, 2118201147, -5.356205940246582, -1.9754854440689087, 7.822600841522217, -0.1162816509604454, -0.750029444694519, -0.8399172425270081, 0.048828125, 0.21630859375, -0.8076171875
469, 2118217814, -5.363546371459961, -1.9691580533981323, 7.851771831512451, -0.14591553807258606, -0.7276951670646667, -0.8805261850357056, 0.05029296875, 0.21533203125, -0.80859375
470, 2118234481, -5.3580803871154785, -1.988581657409668, 7.8350324630737305, -0.09371686726808548, -0.666019856929779, -0.8861609101295471, 0.04931640625, 0.21435546875, -0.8076171875
471, 2118251148, -5.370068073272705, -1.9742647409439087, 7.830467700958252, -0.19066092371940613, -0.6426610350608826, -0.8420943021774292, 0.04833984375, 0.21484375, -0.806640625
472, 2118267815, -5.351778507232666, -1.9648245573043823, 7.82498836517334, -0.09743069857358932, -0.6565302014350891, -0.8324255347251892, 0.05029296875, 0.21728515625, -0.80810546875
473, 2118284482, -5.351664066314697, -1.9673923254013062, 7.827548503875732, -0.20488879084587097, -0.6644062399864197, -0.7224702835083008, 0.04833984375, 0.21728515625, -0.807861328125
474, 2118301149, -5.357163429260254, -1.9681899547576904, 7.838650703430176, -0.09539449214935303, -0.6675949692726135, -0.7350204586982727, 0.04931640625, 0.21484375, -0.810302734375
475, 2118317816, -5.347756862640381, -1.9681422710418701, 7.833827018737793, -0.0889529138803482, -0.8240630030632019, -0.8669003248214722, 0.048828125, 0.2158203125, -0.8076171875
476, 2118334483, -5.351217746734619, -1.9867744445800781, 7.8221635818481445, -0.09086103737354279, -0.665302574634552, -0.8794888257980347, 0.0498046875, 0.2138671875, -0.80615234375
477, 2118351150, -5.3545427322387695, -1.9821274280548096, 7.85737419128418, -0.0770045816898346, -0.6794793605804443, -0.8620593547821045, 0.04931640625, 0.2138671875, -0.8076171875
478, 2118367817, -5.34783411026001, -1.978771448135376, 7.849236965179443, -0.06729736924171448, -0.5502375960350037, -0.7766538858413696, 0.048828125, 0.21630859375, -0.808349609375
479, 2118384484, -5.356006622314453, -1.9649301767349243, 7.839162349700928, -0.1776752769947052, -0.4488625228404999, -0.7980915904045105, 0.048828125, 0.21630859375, -0.809814453125
480, 2118401151, -5.35134744644165, -1.962791085243225, 7.826390266418457, -0.14345671236515045, -0.4677775204181671, -0.707512378692627, 0.04931640625, 0.21630859375, -0.808837890625
481, 2118417818, -5.340377330780029, -1.9827929735183716, 7.850001811981201, -0.06760472059249878, -0.5390063524246216, -0.743600606918335, 0.05029296875, 0.21630859375, -0.806640625
482, 2118434485, -5.362787246704102, -1.9673324823379517, 7.837286949157715, 0.04653186723589897, -0.478867769241333, -0.6787236332893372, 0.0498046875, 0.21533203125, -0.80615234375
483, 2118451152, -5.36366081237793, -1.9622145891189575, 7.82102632522583, 0.008304917253553867, -0.5853654742240906, -0.73055100440979, 0.05126953125, 0.2158203125, -0.80712890625
484, 2118467819, -5.376729488372803, -1.9550344944000244, 7.841004848480225, 0.015835052356123924, -0.586889386177063, -0.6736780405044556, 0.05126953125, 0.2177734375, -0.80859375
485, 2118484486, -5.3356032371521, -1.968021273612976, 7.859416961669922, -0.06903902441263199, -0.6855366826057434, -0.8434773683547974, 0.0498046875, 0.218994140625, -0.8076171875
486, 2118501153, -5.352329730987549, -1.9812836647033691, 7.85256290435791, -0.14587712287902832, -0.5952391624450684, -0.8611885905265808, 0.0498046875, 0.2158203125, -0.8056640625
487, 2118517820, -5.3625030517578125, -1.952741026878357, 7.829622268676758, -0.15477755665779114, -0.5718163251876831, -0.8453856706619263, 0.048828125, 0.21484375, -0.80712890625
488, 2118534487, -5.357461452484131, -1.9636696577072144, 7.840613842010498, -0.23261453211307526, -0.6151018142700195, -0.8279944658279419, 0.0498046875, 0.21728515625, -0.806640625
489, 2118551154, -5.35663366317749, -1.9845428466796875, 7.83254337310791, -0.2132897526025772, -0.6180216073989868, -0.8691413402557373, 0.04931640625, 0.21435546875, -0.80859375
490, 2118567821, -5.344808578491211, -1.9753934144973755, 7.838845252990723, -0.21171456575393677, -0.640957772731781, -0.8818196058273315, 0.0517578125, 0.2158203125, -0.80712890625
491, 2118584488, -5.368566513061523, -1.9748154878616333, 7.827667236328125, -0.16812175512313843, -0.6512796878814697, -0.7717105746269226, 0.0498046875, 0.21875, -0.80712890625
492, 2118601155, -5.36417293548584, -1.9862021207809448, 7.828577995300293, -0.03147800639271736, -0.590462327003479, -0.853248655796051, 0.048828125, 0.2177734375, -0.807861328125
493, 2118617822, -5.340888023376465, -1.9301645755767822, 7.854606628417969, -0.13600343465805054, -0.5557060241699219, -0.9205589294433594, 0.05029296875, 0.21630859375, -0.80810546875
494, 2118634489, -5.35521125793457, -1.960947871208191, 7.852005481719971, -0.2485712617635727, -0.45917168259620667, -0.9655347466468811, 0.048828125, 0.2158203125, -0.8056640625
495, 2118651156, -5.353466033935547, -1.9762040376663208, 7.797285079956055, -0.3023888170719147, -0.5420483946800232, -0.9677954316139221, 0.0498046875, 0.216796875, -0.8056640625
496, 2118667823, -5.342311859130859, -1.9551129341125488, 7.835937023162842, -0.23850545287132263, -0.6433013677597046, -0.970413863658905, 0.05126953125, 0.216796875, -0.80615234375
497, 2118684490, -5.343462944030762, -1.9710978269577026, 7.8395209312438965, -0.25711309909820557, -0.6065343618392944, -0.9904686808586121, 0.048828125, 0.216796875, -0.80712890625
498, 2118701157, -5.355106353759766, -1.9876309633255005, 7.839816570281982, -0.18384794890880585, -0.5340502858161926, -0.9645614624023438, 0.048828125, 0.2158203125, -0.80615234375
499, 2118717824, -5.354060649871826, -1.9660587310791016, 7.832600116729736, -0.220730260014534, -0.5178375840187073, -0.9080214500427246, 0.04736328125, 0.21435546875, -0.8056640625
500, 2118734491, -5.34984016418457, -1.9458402395248413, 7.820244312286377, -0.11489856243133545, -0.5259566903114319, -0.9158332943916321, 0.05029296875, 0.2138671875, -0.80712890625
501, 2118751158, -5.350610733032227, -1.953442096710205, 7.845669269561768, -0.13312199711799622, -0.4827481210231781, -0.9270772933959961, 0.048828125, 0.216796875, -0.80517578125
502, 2118767825, -5.346911907196045, -1.9463801383972168, 7.846235752105713, -0.18181173503398895, -0.6203651428222656, -1.0095244646072388, 0.04931640625, 0.2177734375, -0.806640625
503, 2118784492, -5.36318826675415, -1.9612765312194824, 7.85032844543457, -0.1739102452993393, -0.5143542885780334, -1.0010722875595093, 0.05029296875, 0.21630859375, -0.80712890625
504, 2118801159, -5.377274990081787, -1.9615191221237183, 7.8259053230285645, -0.18456511199474335, -0.5395314693450928, -1.0019303560256958, 0.05078125, 0.2177734375, -0.80615234375
505, 2118817826, -5.362257957458496, -1.9648751020431519, 7.821579456329346, -0.28829652070999146, -0.628010630607605, -1.0343561172485352, 0.05029296875, 0.2158203125, -0.80615234375
506, 2118834493, -5.356490612030029, -1.9645233154296875, 7.81988525390625, -0.20942223072052002, -0.6457601189613342, -0.9399091601371765, 0.0498046875, 0.216796875, -0.8076171875
507, 2118851160, -5.343902587890625, -1.96904718875885, 7.805603981018066, -0.15459826588630676, -0.6853318214416504, -0.9004272818565369, 0.048828125, 0.216796875, -0.80517578125
508, 2118867827, -5.337252616882324, -1.9632983207702637, 7.8266777992248535, -0.21127915382385254, -0.6929003596305847, -0.8317211270332336, 0.0498046875, 0.2138671875, -0.80615234375
509, 2118884494, -5.353588104248047, -1.9457306861877441, 7.822697639465332, -0.2614288032054901, -0.6241046190261841, -0.8870317935943604, 0.0498046875, 0.21728515625, -0.8076171875
510, 2118901161, -5.352888107299805, -1.9647526741027832, 7.8230085372924805, -0.18843261897563934, -0.5846994519233704, -0.8655170798301697, 0.04931640625, 0.21826171875, -0.80810546875
511, 2118917828, -5.355798721313477, -1.98335862159729, 7.861973762512207, -0.14217609167099, -0.5996829271316528, -0.806684672832489, 0.05029296875, 0.2158203125, -0.809814453125
512, 2118934495, -5.366413116455078, -1.9575787782669067, 7.831293106079102, -0.17015795409679413, -0.5261488556861877, -0.841018557548523, 0.05078125, 0.21630859375, -0.80712890625
513, 2118951162, -5.374050140380859, -1.9717049598693848, 7.849415302276611, -0.13978131115436554, -0.6675437092781067, -0.7849907279014587, 0.05078125, 0.21630859375, -0.8076171875
514, 2118967829, -5.35447359085083, -1.9627660512924194, 7.8148627281188965, -0.19150616228580475, -0.6347595453262329, -0.8852133750915527, 0.0498046875, 0.2177734375, -0.806640625
515, 2118984496, -5.3580169677734375, -1.9546681642532349, 7.820736408233643, -0.1541115939617157, -0.770097017288208, -0.8579613566398621, 0.04833984375, 0.2177734375, -0.807861328125
516, 2119001163, -5.346052169799805, -1.9673233032226562, 7.8257222175598145, -0.09171907603740692, -0.7438696026802063, -0.9166144728660583, 0.05078125, 0.21630859375, -0.80712890625
517, 2119017830, -5.348560333251953, -1.9593086242675781, 7.817537784576416, -0.15507206320762634, -0.6742671728134155, -0.8960089683532715, 0.05224609375, 0.2158203125, -0.80517578125
518, 2119034497, -5.35117769241333, -1.9563759565353394, 7.842637538909912, -0.1031167134642601, -0.49006056785583496, -0.871933102607727, 0.05078125, 0.2158203125, -0.80615234375
519, 2119051164, -5.353026390075684, -1.9628677368164062, 7.832291126251221, -0.19167263805866241, -0.6038450002670288, -0.8394177556037903, 0.0498046875, 0.216796875, -0.8056640625
520, 2119067831, -5.348898887634277, -1.9453866481781006, 7.815975666046143, -0.18720322847366333, -0.532385528087616, -0.8679503202438354, 0.05029296875, 0.21484375, -0.80712890625
521, 2119084498, -5.354736328125, -1.9720726013183594, 7.81871223449707, -0.22779935598373413, -0.5624420642852783, -0.8465765118598938, 0.05078125, 0.21435546875, -0.8076171875
522, 2119101165, -5.336519718170166, -1.9796477556228638, 7.824350357055664, -0.11781841516494751, -0.6233235001564026, -0.7976563572883606, 0.05078125, 0.2158203125, -0.8095703125
523, 2119117832, -5.35096549987793, -1.9578592777252197, 7.8322649002075195, -0.09693126380443573, -0.6050487756729126, -0.9167553782463074, 0.04931640625, 0.2158203125, -0.806640625
524, 2119134499, -5.3549604415893555, -1.9804496765136719, 7.855617046356201, -0.1786101758480072, -0.5471768975257874, -0.8755701780319214, 0.04736328125, 0.2138671875, -0.8056640625
525, 2119151166, -5.361941337585449, -1.9272563457489014, 7.850949764251709, -0.16475367546081543, -0.557217001914978, -0.88041090965271, 0.05078125, 0.21484375, -0.80615234375
526, 2119167833, -5.365264415740967, -1.9717377424240112, 7.8456339836120605, -0.20830807089805603, -0.5861594080924988, -0.9414715766906738, 0.0498046875, 0.21630859375, -0.8056640625
527, 2119184500, -5.355068683624268, -1.9659730195999146, 7.845917224884033, -0.25167039036750793, -0.5766698718070984, -0.8735851049423218, 0.05029296875, 0.21484375, -0.80810546875
528, 2119201167, -5.349573612213135, -1.9558314085006714, 7.841287136077881, -0.1819782257080078, -0.4112374782562256, -0.9324559569358826, 0.04931640625, 0.21533203125, -0.808837890625
529, 2119217834, -5.34554386138916, -1.9544514417648315, 7.832592964172363, -0.24014624953269958, -0.45453742146492004, -0.8429132103919983, 0.04931640625, 0.21533203125, -0.8076171875
530, 2119234501, -5.360942363739014, -1.9547529220581055, 7.836333751678467, -0.24018307030200958, -0.5270196795463562, -0.9356703162193298, 0.04833984375, 0.21435546875, -0.8076171875
531, 2119251168, -5.363077163696289, -1.9655627012252808, 7.832252025604248, -0.3352702260017395, -0.5524146556854248, -0.9023353457450867, 0.048828125, 0.21435546875, -0.80712890625
532, 2119267835, -5.34966516494751, -1.9541165828704834, 7.862253665924072, -0.1965518593788147, -0.7356351613998413, -0.9212631583213806, 0.04833984375, 0.21728515625, -0.8046875
533, 2119284502, -5.354878902435303, -1.9666519165039062, 7.810861587524414, -0.10950709134340286, -0.6987144947052002, -0.9775086045265198, 0.04736328125, 0.2177734375, -0.806884765625
534, 2119301169, -5.351589679718018, -1.955344557762146, 7.853546142578125, -0.21472406387329102, -0.6459778547286987, -0.9215320944786072, 0.048828125, 0.21533203125, -0.806640625
535, 2119317836, -5.350378513336182, -1.9569679498672485, 7.848855972290039, -0.3733307421207428, -0.4713761806488037, -0.9679039716720581, 0.0498046875, 0.2177734375, -0.8076171875
536, 2119334503, -5.366087436676025, -1.9527227878570557, 7.8448805809021, -0.30908122658729553, -0.6038193702697754, -0.9151289463043213, 0.05126953125, 0.21435546875, -0.8076171875
537, 2119351170, -5.346912860870361, -1.973950743675232, 7.8212385177612305, -0.23192299902439117, -0.5747489333152771, -0.8750066161155701, 0.05224609375, 0.2177734375, -0.8056640625
538, 2119367837, -5.360311508178711, -1.9798837900161743, 7.821700572967529, -0.22281768918037415, -0.5379948616027832, -0.8513277769088745, 0.048828125, 0.2158203125, -0.80810546875
539, 2119384504, -5.3465495109558105, -1.9291006326675415, 7.857071876525879, -0.15546908974647522, -0.64198237657547, -1.0584577322006226, 0.04931640625, 0.21630859375, -0.808837890625
540, 2119401171, -5.359492301940918, -1.9721020460128784, 7.841667652130127, -0.2237909436225891, -0.621184766292572, -0.9955655932426453, 0.0498046875, 0.216796875, -0.808837890625
541, 2119417838, -5.356423377990723, -1.973523497581482, 7.828225612640381, -0.23671256005764008, -0.525290846824646, -0.8276872038841248, 0.0517578125, 0.2158203125, -0.8095703125
542, 2119434505, -5.3561015129089355, -1.9556331634521484, 7.842578411102295, -0.18725447356700897, -0.5826377272605896, -0.8544524908065796, 0.04931640625, 0.21533203125, -0.806640625
543, 2119451172, -5.346250057220459, -1.9390437602996826, 7.854564189910889, -0.32675400376319885, -0.6237717270851135, -1.0016744136810303, 0.048828125, 0.21484375, -0.806640625
544, 2119467839, -5.351025104522705, -1.9642912149429321, 7.831676006317139, -0.4909442365169525, -0.48954838514328003, -1.1007442474365234, 0.0478515625, 0.216796875, -0.8076171875
545, 2119484506, -5.3520121574401855, -1.9642384052276611, 7.8247575759887695, -0.3696168065071106, -0.40784379839897156, -1.0373655557632446, 0.05126953125, 0.21728515625, -0.80615234375
546, 2119501173, -5.364070892333984, -1.9586639404296875, 7.8503217697143555, -0.4024267792701721, -0.5420671701431274, -1.013609766960144, 0.0517578125, 0.21435546875, -0.8076171875
547, 2119517840, -5.358056545257568, -1.9750438928604126, 7.824343681335449, -0.27158424258232117, -0.5687940120697021, -0.9314570426940918, 0.04931640625, 0.21435546875, -0.80615234375
548, 2119534507, -5.354933261871338, -1.9615713357925415, 7.804142475128174, -0.2627350091934204, -0.4412171542644501, -0.8747376799583435, 0.04931640625, 0.21630859375, -0.808837890625
549, 2119551174, -5.353826999664307, -1.967331886291504, 7.832852363586426, -0.2816372215747833, -0.5033791661262512, -0.8205028176307678, 0.05029296875, 0.2158203125, -0.8037109375
550, 2119567841, -5.353261470794678, -1.9556615352630615, 7.8296380043029785, -0.4097263514995575, -0.4445852041244507, -0.8899517059326172, 0.048828125, 0.2177734375, -0.806640625
551, 2119584508, -5.372791290283203, -1.977776288986206, 7.852748394012451, -0.3207094371318817, -0.48258164525032043, -0.9581326246261597, 0.046875, 0.216796875, -0.80615234375
552, 2119601175, -5.356427192687988, -1.9796671867370605, 7.830467224121094, -0.3266259729862213, -0.5565383434295654, -0.8945106863975525, 0.048828125, 0.21630859375, -0.808349609375
553, 2119617842, -5.35972785949707, -1.9834014177322388, 7.841465950012207, -0.18984133005142212, -0.5425281524658203, -0.7827752828598022, 0.04931640625, 0.216796875, -0.808837890625
554, 2119634509, -5.361692428588867, -1.9666296243667603, 7.850072383880615, -0.22017955780029297, -0.6583872437477112, -0.7241606116294861, 0.05029296875, 0.2138671875, -0.80712890625
555, 2119651176, -5.368222236633301, -1.9609357118606567, 7.838383197784424, -0.1365797221660614, -0.6736395955085754, -0.7836717367172241, 0.05029296875, 0.21630859375, -0.80615234375
556, 2119667843, -5.342294216156006, -1.9508761167526245, 7.830656051635742, -0.017467858269810677, -0.6435574293136597, -0.8651072978973389, 0.05029296875, 0.21533203125, -0.8076171875
557, 2119684510, -5.350828170776367, -1.9692838191986084, 7.839006423950195, -0.012537417933344841, -0.6077765822410583, -0.8513917922973633, 0.052734375, 0.2177734375, -0.80908203125
558, 2119701177, -5.361505508422852, -1.945839285850525, 7.814454555511475, -0.11210677772760391, -0.5103073716163635, -0.9311752915382385, 0.0537109375, 0.21533203125, -0.80712890625
559, 2119717844, -5.361499786376953, -1.951613426208496, 7.83514404296875, -0.07026843726634979, -0.560085654258728, -0.8654658794403076, 0.05029296875, 0.21484375, -0.80810546875
560, 2119734511, -5.372951507568359, -1.9491164684295654, 7.8438029289245605, -0.33859989047050476, -0.4484655261039734, -0.9520367980003357, 0.04833984375, 0.21337890625, -0.80712890625
561, 2119751178, -5.335729598999023, -1.9504104852676392, 7.853633880615234, -0.7395282983779907, -0.46251416206359863, -1.2634745836257935, 0.04931640625, 0.2158203125, -0.808837890625
562, 2119767845, -5.374011039733887, -1.952305555343628, 7.8294596672058105, -0.9194101691246033, -0.362723171710968, -1.2199931144714355, 0.0498046875, 0.216796875, -0.80517578125
563, 2119784512, -5.363520622253418, -1.9598608016967773, 7.858714580535889, -0.9614110589027405, -0.193900927901268, -1.2768954038619995, 0.04736328125, 0.21728515625, -0.80517578125
564, 2119801179, -5.3584885597229, -1.960667371749878, 7.81880521774292, -1.0367252826690674, -0.06249498948454857, -1.4187259674072266, 0.04736328125, 0.21728515625, -0.807861328125
565, 2119817846, -5.361997127532959, -1.9925072193145752, 7.8135762214660645, -0.9198545813560486, -0.18315643072128296, -1.2676621675491333, 0.048828125, 0.21826171875, -0.8076171875
566, 2119834513, -5.36030387878418, -1.9772651195526123, 7.828593730926514, -0.5127790570259094, -0.13451790809631348, -1.1240901947021484, 0.05029296875, 0.2158203125, -0.80615234375
567, 2119851180, -5.352356910705566, -2.0114150047302246, 7.832296371459961, -0.2623765468597412, -0.30523937940597534, -0.9057675004005432, 0.05078125, 0.21630859375, -0.80517578125
568, 2119867847, -5.368367671966553, -1.9879766702651978, 7.837406158447266, -0.21714448928833008, -0.46430703997612, -0.7529877424240112, 0.05224609375, 0.21826171875, -0.80517578125
569, 2119884514, -5.370939254760742, -1.9454513788223267, 7.803175926208496, -0.36909180879592896, -0.4735659956932068, -0.869359016418457, 0.048828125, 0.21826171875, -0.806640625
570, 2119901181, -5.369862079620361, -1.9682132005691528, 7.823770523071289, -0.5218716263771057, -0.334053635597229, -1.0766810178756714, 0.05029296875, 0.2177734375, -0.8056640625
571, 2119917848, -5.368129253387451, -1.9729183912277222, 7.8219523429870605, -0.5942146182060242, -0.35236668586730957, -1.0804972648620605, 0.052734375, 0.21630859375, -0.806640625
572, 2119934515, -5.366528034210205, -1.9813920259475708, 7.819436550140381, -0.4463652968406677, -0.3441578149795532, -1.093098759651184, 0.0517578125, 0.21728515625, -0.806640625
573, 2119951182, -5.345932960510254, -1.9881983995437622, 7.827149868011475, -0.41875481605529785, -0.46793121099472046, -1.0019559860229492, 0.05126953125, 0.21728515625, -0.80615234375
574, 2119967849, -5.351025581359863, -1.987771987915039, 7.831106185913086, -0.5556291341781616, -0.27788498997688293, -0.9219163060188293, 0.05224609375, 0.21826171875, -0.806640625
575, 2119984516, -5.367704391479492, -1.9637627601623535, 7.825150489807129, -0.5527604818344116, -0.13705356419086456, -0.9346587061882019, 0.05029296875, 0.2158203125, -0.80712890625
576, 2120001183, -5.369781970977783, -1.9731287956237793, 7.813243389129639, -0.7946212887763977, -0.07962989062070847, -1.2217386960983276, 0.05078125, 0.21826171875, -0.806640625
577, 2120017850, -5.374317169189453, -1.9817520380020142, 7.830216407775879, -0.6212232708930969, -0.17670200765132904, -1.1661077737808228, 0.0498046875, 0.2177734375, -0.806640625
578, 2120034517, -5.371883869171143, -2.004805564880371, 7.801543712615967, -0.4088939130306244, -0.22484107315540314, -1.0337157249450684, 0.05224609375, 0.21728515625, -0.806640625
579, 2120051184, -5.3696393966674805, -2.003511428833008, 7.824003219604492, -0.20942223072052002, -0.3255757987499237, -0.9191501140594482, 0.05029296875, 0.220458984375, -0.802734375
580, 2120067851, -5.375570297241211, -1.9680324792861938, 7.809370517730713, -0.5125997066497803, -0.3133713901042938, -0.9948100447654724, 0.0517578125, 0.218505859375, -0.80615234375
581, 2120084518, -5.34338903427124, -1.9992276430130005, 7.844298362731934, -0.4622451663017273, -0.29983505606651306, -1.0289517641067505, 0.05029296875, 0.21728515625, -0.80712890625
582, 2120101185, -5.382509708404541, -1.987856149673462, 7.824178218841553, -0.5804221630096436, -0.2358161211013794, -1.034407138824463, 0.04931640625, 0.2177734375, -0.80712890625
583, 2120117852, -5.363908290863037, -1.9863437414169312, 7.822208404541016, -0.3873792290687561, -0.3975602984428406, -0.9899564385414124, 0.05029296875, 0.219482421875, -0.80810546875
584, 2120134519, -5.3595099449157715, -1.992702603340149, 7.818478107452393, -0.4578142464160919, -0.42162343859672546, -1.0260576009750366, 0.05029296875, 0.2177734375, -0.80615234375
585, 2120151186, -5.369567394256592, -1.9973170757293701, 7.821793556213379, -0.3818597197532654, -0.4339943528175354, -0.8831771016120911, 0.05029296875, 0.21826171875, -0.80322265625
586, 2120167853, -5.382559299468994, -1.9954431056976318, 7.808592796325684, -0.3384334146976471, -0.3283035457134247, -0.9216601848602295, 0.05029296875, 0.2177734375, -0.80517578125
587, 2120184520, -5.365923881530762, -2.002495288848877, 7.80765962600708, -0.09828873723745346, -0.4980902075767517, -0.7849652171134949, 0.05126953125, 0.218994140625, -0.80615234375
588, 2120201187, -5.3825249671936035, -2.0327346324920654, 7.80146598815918, 0.5165632963180542, -0.6994571685791016, -0.37196046113967896, 0.052734375, 0.218994140625, -0.80712890625
589, 2120217854, -5.366569995880127, -1.982751727104187, 7.803664207458496, 0.9349979758262634, -0.8284043669700623, -0.0833309143781662, 0.05126953125, 0.21728515625, -0.80810546875
590, 2120234521, -5.377490043640137, -1.9836022853851318, 7.832098484039307, 1.1888710260391235, -0.8650305271148682, 0.05506090447306633, 0.05126953125, 0.21826171875, -0.8056640625
591, 2120251188, -5.370180130004883, -1.9926280975341797, 7.84678316116333, 1.2878258228302002, -0.8239862322807312, 0.2112087458372116, 0.05078125, 0.2158203125, -0.80615234375
592, 2120267855, -5.377881050109863, -2.003302574157715, 7.797953128814697, 1.3738716840744019, -0.875544548034668, 0.13197584450244904, 0.05224609375, 0.21484375, -0.80712890625
593, 2120284522, -5.375995635986328, -1.9677988290786743, 7.858152866363525, 1.1757574081420898, -0.9686852097511292, 0.06499862670898438, 0.05078125, 0.2177734375, -0.806640625
594, 2120301189, -5.3511643409729, -1.9230276346206665, 7.822746276855469, 1.0348362922668457, -0.7806751132011414, 0.05652082338929176, 0.05078125, 0.2158203125, -0.80859375
595, 2120317856, -5.396182537078857, -1.9500157833099365, 7.882519721984863, 0.5850260853767395, -0.7424609661102295, -0.17315466701984406, 0.0517578125, 0.21630859375, -0.80810546875
596, 2120334523, -5.346982479095459, -1.908117413520813, 7.836350917816162, 0.6239691376686096, -0.4151683449745178, -0.3505948483943939, 0.0498046875, 0.21533203125, -0.8076171875
597, 2120351190, -5.374202728271484, -1.9536606073379517, 7.818593978881836, 0.29009583592414856, -0.3366020917892456, -0.572123646736145, 0.05322265625, 0.21630859375, -0.8076171875
598, 2120367857, -5.360245227813721, -1.9468698501586914, 7.808917045593262, 0.3072051405906677, -0.46139994263648987, -0.5708557963371277, 0.052734375, 0.21337890625, -0.8076171875
599, 2120384524, -5.3737382888793945, -1.9189326763153076, 7.814442157745361, 0.28316760063171387, -0.432790607213974, -0.6540715098381042, 0.0517578125, 0.21435546875, -0.8095703125
600, 2120401191, -5.383108615875244, -1.9553508758544922, 7.849601745605469, 0.2818613350391388, -0.3344250023365021, -0.8145478367805481, 0.05078125, 0.2158203125, -0.80859375
601, 2120417858, -5.380650043487549, -1.9306812286376953, 7.836986541748047, 0.165080264210701, -0.3452592194080353, -0.817518949508667, 0.05224609375, 0.2158203125, -0.80908203125
602, 2120434525, -5.3708953857421875, -1.927893877029419, 7.8429412841796875, -0.3662872016429901, -0.15704424679279327, -0.979032576084137, 0.05224609375, 0.212890625, -0.80517578125
603, 2120451192, -5.365982532501221, -1.948176383972168, 7.855038642883301, -0.3812066316604614, 0.671033501625061, -1.0094478130340576, 0.05029296875, 0.2138671875, -0.8095703125
604, 2120467859, -5.426866054534912, -1.9539753198623657, 7.877772331237793, -1.4471431970596313, 1.4952244758605957, -1.1400341987609863, 0.0546875, 0.217529296875, -0.8076171875
605, 2120484526, -5.513951778411865, -1.8743836879730225, 7.881096363067627, -2.9107046127319336, 1.8164209127426147, -1.9189037084579468, 0.05322265625, 0.21728515625, -0.806640625
606, 2120501193, -5.432199478149414, -1.907956838607788, 7.8788251876831055, -4.354619979858398, 2.7827370166778564, -2.591813325881958, 0.0537109375, 0.216796875, -0.80859375
607, 2120517860, -5.313926696777344, -2.0523102283477783, 7.93949031829834, -5.906123638153076, 4.941516876220703, -2.850271463394165, 0.05615234375, 0.217529296875, -0.80615234375
608, 2120534527, -5.185903549194336, -2.140436887741089, 7.972710609436035, -8.740797996520996, 8.89686393737793, -2.0636162757873535, 0.05859375, 0.218994140625, -0.8056640625
609, 2120551194, -5.009807586669922, -2.1168148517608643, 8.058334350585938, -9.035158157348633, 14.070830345153809, -0.6782761812210083, 0.0576171875, 0.223876953125, -0.803466796875
610, 2120567861, -5.013715744018555, -2.264742851257324, 8.071348190307617, -8.44994068145752, 22.152576446533203, 1.117708444595337, 0.065673828125, 0.224609375, -0.802001953125
611, 2120584528, -4.87109899520874, -1.8849505186080933, 8.834805488586426, -8.72317123413086, 33.46086120605469, 2.2423949241638184, 0.070556640625, 0.2255859375, -0.80322265625
612, 2120601195, -5.022154808044434, -2.338433027267456, 8.745107650756836, -12.596829414367676, 44.116737365722656, 5.56135892868042, 0.0830078125, 0.227783203125, -0.799560546875
613, 2120617862, -4.7370076179504395, -2.2796437740325928, 8.869718551635742, -9.70829963684082, 58.63411331176758, 12.69086742401123, 0.093994140625, 0.231201171875, -0.794921875
614, 2120634529, -5.282368183135986, -2.2696001529693604, 9.29613971710205, -11.038673400878906, 71.17655181884766, 18.102901458740234, 0.1142578125, 0.2294921875, -0.788818359375
615, 2120651196, -5.59076452255249, -2.354612350463867, 9.186461448669434, -20.893524169921875, 76.23112487792969, 20.014263153076172, 0.1318359375, 0.233642578125, -0.78564453125
616, 2120667863, -4.336245536804199, -3.2743031978607178, 9.966621398925781, -12.807415962219238, 79.28108978271484, 21.56543731689453, 0.150634765625, 0.232666015625, -0.778076171875
617, 2120684530, -1.8295294046401978, -1.8162977695465088, 12.292654991149902, -1.7746468782424927, 67.38163757324219, 25.751373291015625, 0.171142578125, 0.232421875, -0.771240234375
618, 2120701197, -1.5933629274368286, -2.3100295066833496, 13.744831085205078, -3.2106502056121826, 36.44464874267578, 23.85561752319336, 0.18603515625, 0.2314453125, -0.764892578125
619, 2120717864, 0.6000882387161255, -3.1416988372802734, 12.86904239654541, 0.4793742597103119, 5.543395042419434, 18.12652015686035, 0.190185546875, 0.22705078125, -0.76220703125
620, 2120734531, 1.4750062227249146, -2.832096576690674, 12.135798454284668, 2.5156619548797607, -12.079368591308594, 9.937459945678711, 0.19140625, 0.220458984375, -0.752685546875
621, 2120751198, 1.287853717803955, -3.1202545166015625, 11.66800594329834, 2.182776689529419, -25.375659942626953, 0.837300181388855, 0.1884765625, 0.21484375, -0.74169921875
622, 2120767865, 0.8224804997444153, -3.0587289333343506, 11.394086837768555, 3.528762102127075, -36.84745788574219, -7.513919353485107, 0.18505859375, 0.21044921875, -0.7412109375
623, 2120784532, 0.017630450427532196, -2.9451799392700195, 11.255721092224121, 2.8396975994110107, -47.13092803955078, -14.377452850341797, 0.18017578125, 0.204345703125, -0.7353515625
624, 2120801199, -0.973006010055542, -2.9460370540618896, 11.241314888000488, 0.9435389041900635, -56.512020111083984, -19.5056095123291, 0.17822265625, 0.20166015625, -0.733154296875
625, 2120817866, -2.336164951324463, -3.1007487773895264, 11.264443397521973, -2.0834362506866455, -64.79661560058594, -23.999876022338867, 0.173095703125, 0.195556640625, -0.729248046875
626, 2120834533, -3.835979700088501, -3.5592150688171387, 11.416279792785645, -2.806675434112549, -73.86824035644531, -27.72166633605957, 0.164306640625, 0.194580078125, -0.7265625
627, 2120851200, -5.388626575469971, -3.8779585361480713, 11.490731239318848, -0.5375375151634216, -88.15853881835938, -31.417661666870117, 0.15869140625, 0.197021484375, -0.72998046875
628, 2120867867, -5.943001747131348, -3.8473289012908936, 10.9420804977417, 2.8386070728302, -105.9034194946289, -34.32166290283203, 0.147705078125, 0.200927734375, -0.7314453125
629, 2120884534, -5.671199321746826, -3.3611581325531006, 9.966412544250488, 3.106858253479004, -117.61421966552734, -35.690330505371094, 0.133056640625, 0.205810546875, -0.74072265625
630, 2120901201, -5.463503360748291, -2.840075969696045, 9.07175064086914, -2.0068905353546143, -119.76583862304688, -34.56989669799805, 0.117431640625, 0.2158203125, -0.751708984375
631, 2120917868, -5.500906467437744, -2.33878231048584, 8.526022911071777, -10.478793144226074, -115.51841735839844, -31.808027267456055, 0.098876953125, 0.226318359375, -0.7626953125
632, 2120934535, -5.33064603805542, -2.0864198207855225, 8.179609298706055, -18.72852325439453, -107.36318969726562, -28.614147186279297, 0.076904296875, 0.2392578125, -0.775634765625
633, 2120951202, -6.301774978637695, -2.1053736209869385, 8.714582443237305, -24.759511947631836, -99.02207946777344, -26.662546157836914, 0.05419921875, 0.2509765625, -0.78125
634, 2120967869, -7.667870044708252, -2.4203362464904785, 9.223801612854004, -27.59259605407715, -101.57471466064453, -27.597217559814453, 0.026123046875, 0.264404296875, -0.791015625
635, 2120984536, -8.305639266967773, -2.889324903488159, 9.118490219116211, -26.682207107543945, -113.76541900634766, -30.877756118774414, -0.001953125, 0.27880859375, -0.797119140625
636, 2121001203, -7.877201080322266, -2.6840550899505615, 7.733799457550049, -18.510862350463867, -124.98818969726562, -31.124462127685547, -0.03857421875, 0.2890625, -0.802490234375
637, 2121017870, -7.2890119552612305, -1.3379194736480713, 5.939000606536865, -16.213741302490234, -120.91216278076172, -25.812999725341797, -0.074462890625, 0.292724609375, -0.8046875
638, 2121034537, -7.39749002456665, -0.345538854598999, 4.665603160858154, -26.678770065307617, -105.13298797607422, -17.156204223632812, -0.105224609375, 0.299560546875, -0.80078125
639, 2121051204, -7.693692684173584, -0.3669452667236328, 3.875755548477173, -34.883480072021484, -84.60257720947266, -4.189695835113525, -0.132080078125, 0.306396484375, -0.79345703125
640, 2121067871, -8.59134578704834, -0.7044499516487122, 3.978461742401123, -37.737735748291016, -66.26078033447266, 7.390550136566162, -0.149169921875, 0.317626953125, -0.7919921875
641, 2121084538, -8.768648147583008, -1.3288507461547852, 3.537410259246826, -35.713809967041016, -56.89372634887695, 12.252158164978027, -0.162841796875, 0.32763671875, -0.7841796875
642, 2121101205, -7.205449104309082, -1.9553955793380737, 2.5796995162963867, -21.861549377441406, -41.36602020263672, 15.997387886047363, -0.175537109375, 0.3330078125, -0.784423828125
643, 2121117872, -6.580451965332031, -2.1072909832000732, 2.8083243370056152, -8.237496376037598, -16.853919982910156, 15.838536262512207, -0.179931640625, 0.33740234375, -0.781982421875
644, 2121134539, -7.096182823181152, -2.752906560897827, 3.423431158065796, -0.412607878446579, 2.880321502685547, 10.421087265014648, -0.178466796875, 0.338134765625, -0.780517578125
645, 2121151206, -7.1597771644592285, -3.0843417644500732, 3.4500913619995117, 7.76289176940918, 17.78383445739746, 3.568589687347412, -0.177978515625, 0.33447265625, -0.780517578125
646, 2121167873, -7.054614067077637, -2.8519527912139893, 3.3441507816314697, 13.480094909667969, 33.66497802734375, -2.373706340789795, -0.173583984375, 0.3349609375, -0.786865234375
647, 2121184540, -4.29332160949707, -2.5685625076293945, 4.806514739990234, 11.858681678771973, 49.54056167602539, -7.050588130950928, -0.16455078125, 0.33203125, -0.78564453125
648, 2121201207, 4.887083053588867, -4.054126262664795, 11.16474437713623, 7.963378429412842, 95.12174987792969, 7.6620097160339355, -0.14599609375, 0.329345703125, -0.790771484375
649, 2121217874, 2.0426290035247803, -1.4271090030670166, 5.204041004180908, 5.838732719421387, 125.32625579833984, 36.12812805175781, -0.116455078125, 0.32958984375, -0.79638671875
650, 2121234541, -9.076998710632324, -2.3097915649414062, 10.722004890441895, -18.221521377563477, 147.9176788330078, 15.082596778869629, -0.08154296875, 0.330322265625, -0.797119140625
651, 2121251208, -8.588488578796387, -3.0579841136932373, 11.538533210754395, -24.396493911743164, 120.9679946899414, -0.3559843599796295, -0.05419921875, 0.335205078125, -0.795166015625
652, 2121267875, -7.8593363761901855, -0.3916606605052948, 11.665188789367676, -19.121477127075195, 99.63294219970703, 21.569059371948242, -0.029541015625, 0.33984375, -0.797607421875
653, 2121284542, -6.626583099365234, -1.6717076301574707, 10.27216911315918, -24.41992950439453, 80.5576400756836, 30.99290657043457, -0.006103515625, 0.345703125, -0.791259765625
654, 2121301209, -5.232213020324707, -5.651282787322998, 8.060981750488281, -23.699092864990234, 74.89772033691406, 29.209516525268555, 0.01416015625, 0.352294921875, -0.788818359375
