sep=,
DeviceTag:,B,,,,,,,,,,,,,,,,,
FirmwareVersion:,2.2.1,,,,,,,,,,,,,,,,,
AppVersion:,2022.0.1,,,,,,,,,,,,,,,,,
SyncStatus:,Synced,,,,,,,,,,,,,,,,,
OutputRate:,60Hz,,,,,,,,,,,,,,,,,
FilterProfile:,General,,,,,,,,,,,,,,,,,
Measurement Mode:,Inertial Mode - Rate quantities (with mag),,,,,,,,,,,,,,,,,
StartTime:,2022-08-05 16:28:19.828 +0300,,,,,,,,,,,,,,,,,
© Xsens Technologies B. V. 2005-2022,,,,,,,,,,,,,,,,,,,

PacketCounter,SampleTimeFine,Acc_X,Acc_Y,Acc_Z,Gyr_X,Gyr_Y,Gyr_Z,Mag_X,Mag_Y,Mag_Z
1, 2346872387, -5.43954610824585, -2.2702255249023438, 7.70512580871582, -0.02339719980955124, -0.6679791212081909, -0.8462563157081604, 0.043701171875, 0.1806640625, -0.799072265625
2, 2346889054, -5.439064025878906, -2.248875379562378, 7.681014537811279, -0.13470999896526337, -0.5981333255767822, -0.9399989247322083, 0.042236328125, 0.18212890625, -0.799072265625
3, 2346905721, -5.457291603088379, -2.2698686122894287, 7.684199810028076, 0.02948661707341671, -0.733931839466095, -0.899684488773346, 0.044189453125, 0.18212890625, -0.799560546875
4, 2346922388, -5.442359447479248, -2.2786173820495605, 7.671990871429443, 0.15185129642486572, -0.8760695457458496, -0.8090923428535461, 0.0439453125, 0.1806640625, -0.797607421875
5, 2346939055, -5.427960395812988, -2.273496389389038, 7.705981254577637, 0.2142694592475891, -0.9698505997657776, -0.8052632808685303, 0.043701171875, 0.18310546875, -0.800537109375
6, 2346955722, -5.431522369384766, -2.2690908908843994, 7.693422794342041, 0.1521458476781845, -0.8571930527687073, -0.7147223949432373, 0.043701171875, 0.1806640625, -0.802978515625
7, 2346972389, -5.440709114074707, -2.26356840133667, 7.699070930480957, -0.0034449079539626837, -0.6784931421279907, -0.7742206454277039, 0.043212890625, 0.18017578125, -0.799560546875
8, 2346989056, -5.4501495361328125, -2.25596284866333, 7.73879861831665, -0.13550397753715515, -0.564888060092926, -0.9353758692741394, 0.044189453125, 0.18115234375, -0.799072265625
9, 2347005723, -5.445223808288574, -2.2735235691070557, 7.697042942047119, -0.1694151908159256, -0.6068416237831116, -0.8923976421356201, 0.04248046875, 0.178955078125, -0.798095703125
10, 2347022390, -5.449674606323242, -2.260894536972046, 7.697785377502441, -0.1344282478094101, -0.6167793869972229, -0.9009265899658203, 0.041748046875, 0.180419921875, -0.796142578125
11, 2347039057, -5.437009334564209, -2.266878604888916, 7.649903297424316, -0.11949605494737625, -0.7750659584999084, -0.8938192129135132, 0.043212890625, 0.1806640625, -0.798095703125
12, 2347055724, -5.47562313079834, -2.2596771717071533, 7.721787929534912, -0.1515759527683258, -0.6434422731399536, -1.019206166267395, 0.04443359375, 0.18017578125, -0.799072265625
13, 2347072391, -5.43403434753418, -2.270002841949463, 7.695034027099609, -0.21956488490104675, -0.7573676109313965, -1.0020840167999268, 0.042236328125, 0.1806640625, -0.800048828125
14, 2347089058, -5.44235372543335, -2.266341209411621, 7.701270580291748, -0.11345144361257553, -0.8539145588874817, -0.9714255928993225, 0.0439453125, 0.1806640625, -0.800048828125
15, 2347105725, -5.430839538574219, -2.2471964359283447, 7.688289642333984, 0.05330643430352211, -1.0296945571899414, -0.8775936365127563, 0.042724609375, 0.18212890625, -0.801025390625
16, 2347122392, -5.441015720367432, -2.253746271133423, 7.686111927032471, 0.07932253926992416, -1.1386253833770752, -0.9597206711769104, 0.041259765625, 0.18115234375, -0.802490234375
17, 2347139059, -5.441781997680664, -2.263941526412964, 7.709060192108154, 0.04137091338634491, -1.2359153032302856, -0.9253867864608765, 0.042724609375, 0.18115234375, -0.802001953125
18, 2347155726, -5.426026344299316, -2.250502586364746, 7.698673725128174, -0.040480874478816986, -1.1136913299560547, -1.068023920059204, 0.041259765625, 0.179931640625, -0.798583984375
19, 2347172393, -5.433558464050293, -2.262054681777954, 7.7158331871032715, -0.06791207194328308, -1.0542571544647217, -1.0786147117614746, 0.043701171875, 0.181640625, -0.799072265625
20, 2347189060, -5.43415641784668, -2.251035213470459, 7.7047810554504395, -0.09926202893257141, -1.1206836700439453, -1.147986888885498, 0.043212890625, 0.18017578125, -0.801025390625
21, 2347205727, -5.446730136871338, -2.250823497772217, 7.72536563873291, -0.0668107271194458, -1.0308854579925537, -1.1995835304260254, 0.042236328125, 0.178955078125, -0.798095703125
22, 2347222394, -5.41410493850708, -2.2759010791778564, 7.673742294311523, 0.12883828580379486, -1.155465841293335, -1.073812484741211, 0.041259765625, 0.1806640625, -0.796630859375
23, 2347239061, -5.440695762634277, -2.254648208618164, 7.693999290466309, -0.005570762790739536, -1.3274422883987427, -1.0620818138122559, 0.041748046875, 0.179931640625, -0.800537109375
24, 2347255728, -5.426380157470703, -2.247962236404419, 7.705201625823975, -0.05189133435487747, -1.395405650138855, -1.1425697803497314, 0.0439453125, 0.1806640625, -0.799072265625
25, 2347272395, -5.413535118103027, -2.249274730682373, 7.697958946228027, -0.06528677046298981, -1.4032429456710815, -1.2258877754211426, 0.039794921875, 0.181640625, -0.799072265625
26, 2347289062, -5.411275386810303, -2.260690689086914, 7.753733158111572, -0.10105490684509277, -1.1169826984405518, -1.111181378364563, 0.039306640625, 0.179931640625, -0.798583984375
27, 2347305729, -5.401978969573975, -2.2615747451782227, 7.714827537536621, -0.2111382782459259, -1.2201250791549683, -1.1198256015777588, 0.042236328125, 0.18017578125, -0.799560546875
28, 2347322396, -5.419969081878662, -2.2483363151550293, 7.701329231262207, -0.13001006841659546, -1.3197200298309326, -1.1306341886520386, 0.040283203125, 0.18212890625, -0.796630859375
29, 2347339063, -5.407381534576416, -2.2763707637786865, 7.7001166343688965, -0.07239428907632828, -1.1947810649871826, -1.1983157396316528, 0.041259765625, 0.180419921875, -0.798095703125
30, 2347355730, -5.3935041427612305, -2.2716383934020996, 7.707057476043701, -0.1092381700873375, -1.0690228939056396, -1.1116039752960205, 0.041259765625, 0.18115234375, -0.799072265625
31, 2347372397, -5.38873291015625, -2.266521692276001, 7.715215682983398, -0.006774559151381254, -0.8400325775146484, -0.9555714130401611, 0.0439453125, 0.1796875, -0.798583984375
32, 2347389064, -5.4118194580078125, -2.2556800842285156, 7.717010498046875, -0.12007953971624374, -0.6992174386978149, -0.9292716979980469, 0.039794921875, 0.179931640625, -0.798583984375
33, 2347405731, -5.4126176834106445, -2.2653326988220215, 7.72110652923584, -0.25496163964271545, -0.7179111838340759, -1.0995532274246216, 0.038818359375, 0.1826171875, -0.8017578125
34, 2347422398, -5.395638942718506, -2.26214599609375, 7.702341079711914, -0.24315418303012848, -0.7312554121017456, -1.1736507415771484, 0.040771484375, 0.1826171875, -0.802001953125
35, 2347439065, -5.392336845397949, -2.2688491344451904, 7.723677158355713, -0.15420125424861908, -0.7368261218070984, -1.0350604057312012, 0.039794921875, 0.180908203125, -0.799560546875
36, 2347455732, -5.41731071472168, -2.258661985397339, 7.718705654144287, -0.0773119404911995, -0.7055530548095703, -1.0189499855041504, 0.041748046875, 0.181640625, -0.801025390625
37, 2347472399, -5.402348041534424, -2.262744665145874, 7.718223571777344, -0.07289373874664307, -0.6545068621635437, -0.979173481464386, 0.042724609375, 0.18212890625, -0.802490234375
38, 2347489066, -5.406750202178955, -2.2423787117004395, 7.698999404907227, -0.1246441900730133, -0.6071106791496277, -1.0299122333526611, 0.038330078125, 0.180419921875, -0.800537109375
39, 2347505733, -5.39080286026001, -2.2754504680633545, 7.709616661071777, -0.034052081406116486, -0.6083655953407288, -1.0189627408981323, 0.040283203125, 0.181640625, -0.799560546875
40, 2347522400, -5.3973307609558105, -2.2677202224731445, 7.664989471435547, 0.1339736133813858, -0.6071106195449829, -0.9129518270492554, 0.040771484375, 0.180419921875, -0.800537109375
41, 2347539067, -5.410515308380127, -2.2675507068634033, 7.71560001373291, 0.30783262848854065, -0.6831547021865845, -0.7562533617019653, 0.042724609375, 0.1826171875, -0.801025390625
42, 2347555734, -5.4141316413879395, -2.2549450397491455, 7.716492652893066, 0.32979556918144226, -0.6990090608596802, -0.7563046813011169, 0.042724609375, 0.1806640625, -0.798095703125
43, 2347572401, -5.396921157836914, -2.254196882247925, 7.741435527801514, 0.20248758792877197, -0.6958330273628235, -0.7716465592384338, 0.039794921875, 0.179443359375, -0.80224609375
44, 2347589068, -5.416866779327393, -2.250152587890625, 7.7207465171813965, 0.2105811983346939, -0.7188459634780884, -0.795530378818512, 0.039794921875, 0.178466796875, -0.800537109375
45, 2347605735, -5.410336971282959, -2.2595033645629883, 7.708913803100586, 0.1793721318244934, -0.752052903175354, -0.7338038086891174, 0.042236328125, 0.179443359375, -0.800537109375
46, 2347622402, -5.413918495178223, -2.26399564743042, 7.702571392059326, 0.3232770562171936, -0.8035087585449219, -0.6066239476203918, 0.041748046875, 0.179931640625, -0.799560546875
47, 2347639069, -5.4081268310546875, -2.2256085872650146, 7.7298078536987305, 0.09493987262248993, -0.8440408706665039, -0.742896318435669, 0.043212890625, 0.18017578125, -0.800048828125
48, 2347655736, -5.418207168579102, -2.2515997886657715, 7.71249532699585, -0.04181273281574249, -0.7343160510063171, -0.8679631352424622, 0.038330078125, 0.179443359375, -0.8017578125
49, 2347672403, -5.408531188964844, -2.2479724884033203, 7.697867393493652, 9.668793645687401E-4, -0.8318492770195007, -0.9052041172981262, 0.039794921875, 0.179443359375, -0.801025390625
50, 2347689070, -5.408893585205078, -2.257985830307007, 7.726734161376953, 0.01871647872030735, -0.8456032276153564, -0.9242982268333435, 0.040771484375, 0.178955078125, -0.798095703125
51, 2347705737, -5.404419422149658, -2.248806953430176, 7.683986186981201, 0.1044934093952179, -0.8440664410591125, -0.9394482374191284, 0.037841796875, 0.179931640625, -0.800537109375
52, 2347722404, -5.4013848304748535, -2.249479055404663, 7.735066890716553, 0.08377274125814438, -0.8318620324134827, -0.8068768382072449, 0.039794921875, 0.178955078125, -0.802001953125
53, 2347739071, -5.416820526123047, -2.2375659942626953, 7.730331897735596, 0.16646331548690796, -0.5801660418510437, -0.7844657301902771, 0.041259765625, 0.178466796875, -0.799560546875
54, 2347755738, -5.408387660980225, -2.2339582443237305, 7.730842590332031, -0.08417613059282303, -0.6230673789978027, -0.9224284887313843, 0.041748046875, 0.18115234375, -0.800537109375
55, 2347772405, -5.40477991104126, -2.2510266304016113, 7.71932315826416, -0.14145894348621368, -0.7648720741271973, -1.0679599046707153, 0.039306640625, 0.178955078125, -0.801513671875
56, 2347789072, -5.388659954071045, -2.2575628757476807, 7.728853225708008, -0.19588591158390045, -0.6896219849586487, -1.0234322547912598, 0.038818359375, 0.177978515625, -0.799560546875
57, 2347805739, -5.386552810668945, -2.2450263500213623, 7.7154059410095215, -0.20718111097812653, -0.6228111982345581, -0.9283065795898438, 0.041748046875, 0.179931640625, -0.799560546875
58, 2347822406, -5.414018154144287, -2.24570369720459, 7.7259202003479, -0.2710335850715637, -0.45915883779525757, -0.9828744530677795, 0.039306640625, 0.179443359375, -0.801025390625
59, 2347839073, -5.418890476226807, -2.2398688793182373, 7.707137584686279, -0.3252812922000885, -0.47574305534362793, -1.0318971872329712, 0.039306640625, 0.18115234375, -0.80224609375
60, 2347855740, -5.415837287902832, -2.2543859481811523, 7.719612121582031, -0.30849215388298035, -0.6884309649467468, -0.9697481393814087, 0.039794921875, 0.180908203125, -0.801025390625
61, 2347872407, -5.382288932800293, -2.274113416671753, 7.722329139709473, -0.14119000732898712, -0.6369110345840454, -0.8422735929489136, 0.039306640625, 0.176513671875, -0.799072265625
62, 2347889074, -5.408056735992432, -2.2265360355377197, 7.716049671173096, -0.2113560140132904, -0.5149176716804504, -0.8190813064575195, 0.040771484375, 0.178955078125, -0.800048828125
63, 2347905741, -5.405524253845215, -2.239978551864624, 7.717749118804932, -0.25944381952285767, -0.5135346055030823, -0.936413049697876, 0.041259765625, 0.179443359375, -0.797607421875
64, 2347922408, -5.4234795570373535, -2.245743751525879, 7.714383602142334, -0.32464098930358887, -0.5935487151145935, -1.0456129312515259, 0.039794921875, 0.180419921875, -0.800048828125
65, 2347939075, -5.397614002227783, -2.2627768516540527, 7.713003635406494, -0.2845485210418701, -0.4929971992969513, -0.987544059753418, 0.039306640625, 0.180908203125, -0.799560546875
66, 2347955742, -5.399960517883301, -2.2628931999206543, 7.7148213386535645, -0.30276769399642944, -0.34807658195495605, -0.9399732351303101, 0.039306640625, 0.18212890625, -0.80126953125
67, 2347972409, -5.399086952209473, -2.260305881500244, 7.732501983642578, -0.33847182989120483, -0.31411412358283997, -0.8971360921859741, 0.039794921875, 0.180419921875, -0.800537109375
68, 2347989076, -5.426954746246338, -2.2361907958984375, 7.730475425720215, -0.4152458906173706, -0.1938881278038025, -0.9182408452033997, 0.039306640625, 0.179931640625, -0.800537109375
69, 2348005743, -5.40219783782959, -2.269990921020508, 7.691699028015137, -0.4332132339477539, -0.27791059017181396, -0.8728294968605042, 0.039306640625, 0.178466796875, -0.801025390625
70, 2348022410, -5.424389362335205, -2.217648983001709, 7.7173357009887695, -0.35569635033607483, -0.31565091013908386, -1.1049189567565918, 0.038330078125, 0.177978515625, -0.798095703125
71, 2348039077, -5.413936614990234, -2.2417595386505127, 7.693839073181152, -0.3919895589351654, -0.5490210056304932, -1.1080052852630615, 0.040771484375, 0.18212890625, -0.800537109375
72, 2348055744, -5.398796081542969, -2.2463552951812744, 7.710747718811035, -0.4806094765663147, -0.6379482746124268, -1.2106866836547852, 0.040283203125, 0.180419921875, -0.801513671875
73, 2348072411, -5.403273582458496, -2.260890245437622, 7.701042175292969, -0.4885621964931488, -0.5468310713768005, -1.2027851343154907, 0.040283203125, 0.179443359375, -0.802001953125
74, 2348089078, -5.394952297210693, -2.253753185272217, 7.742117881774902, -0.4249531328678131, -0.5248042345046997, -1.137498378753662, 0.040771484375, 0.180419921875, -0.800048828125
75, 2348105745, -5.394413948059082, -2.255075693130493, 7.727312088012695, -0.4403591752052307, -0.537469744682312, -1.013597011566162, 0.041748046875, 0.179443359375, -0.798583984375
76, 2348122412, -5.411671161651611, -2.262704849243164, 7.720271110534668, -0.4002624452114105, -0.662664532661438, -1.0867468118667603, 0.038818359375, 0.18115234375, -0.799560546875
77, 2348139079, -5.416666507720947, -2.273977279663086, 7.711293697357178, -0.33156922459602356, -0.808490514755249, -1.1030110120773315, 0.040771484375, 0.1806640625, -0.798095703125
78, 2348155746, -5.438118934631348, -2.224672555923462, 7.733143329620361, -0.4132865369319916, -1.0306422710418701, -1.234365701675415, 0.040283203125, 0.18310546875, -0.799560546875
79, 2348172413, -5.429537296295166, -2.2352724075317383, 7.728612899780273, -0.4358513057231903, -1.1899787187576294, -1.3669496774673462, 0.04345703125, 0.1796875, -0.801513671875
80, 2348189080, -5.4242401123046875, -2.265528440475464, 7.722914695739746, -0.295301616191864, -1.249259352684021, -1.4484492540359497, 0.040283203125, 0.179443359375, -0.798583984375
81, 2348205747, -5.4151082038879395, -2.252751588821411, 7.72934103012085, -0.18138910830020905, -1.4389469623565674, -1.4120408296585083, 0.037841796875, 0.179443359375, -0.799560546875
82, 2348222414, -5.409112930297852, -2.251720905303955, 7.751150608062744, -0.38695666193962097, -1.561824083328247, -1.5529749393463135, 0.039794921875, 0.18115234375, -0.799072265625
83, 2348239081, -5.404904842376709, -2.241650104522705, 7.7281975746154785, -0.5323600172996521, -1.5254156589508057, -1.6392384767532349, 0.039794921875, 0.180419921875, -0.800537109375
84, 2348255748, -5.389675617218018, -2.26770281791687, 7.723349094390869, -0.5554370284080505, -1.29940927028656, -1.677478313446045, 0.038330078125, 0.18115234375, -0.80078125
85, 2348272415, -5.408005237579346, -2.2384679317474365, 7.734842300415039, -0.862853467464447, -1.2570585012435913, -1.9533398151397705, 0.038330078125, 0.18115234375, -0.80078125
86, 2348289082, -5.405877113342285, -2.2313430309295654, 7.721853733062744, -0.3837167024612427, -1.1629958152770996, -1.80766761302948, 0.039306640625, 0.181640625, -0.801025390625
87, 2348305749, -5.347750186920166, -2.2993874549865723, 7.765444278717041, -0.6752275228500366, -1.3525426387786865, -1.8654881715774536, 0.036376953125, 0.179443359375, -0.80029296875
88, 2348322416, -5.394006729125977, -2.3013668060302734, 7.718743801116943, -0.6310840845108032, -1.3902060985565186, -1.8555376529693604, 0.035888671875, 0.181396484375, -0.80078125
89, 2348339083, -5.375451564788818, -2.273707628250122, 7.734701156616211, -0.4197409451007843, -1.5410265922546387, -1.7826439142227173, 0.037353515625, 0.179443359375, -0.800048828125
90, 2348355750, -5.4143524169921875, -2.239708423614502, 7.713085651397705, -0.16301202774047852, -1.708367109298706, -1.683343529701233, 0.038818359375, 0.18115234375, -0.80126953125
91, 2348372417, -5.406970500946045, -2.2589752674102783, 7.746891021728516, -0.4329058825969696, -1.8470468521118164, -1.9093371629714966, 0.035400390625, 0.1826171875, -0.80029296875
92, 2348389084, -5.3850297927856445, -2.271218776702881, 7.751063823699951, -0.42984509468078613, -1.735465407371521, -2.160341501235962, 0.037353515625, 0.179931640625, -0.8017578125
93, 2348405751, -5.381896018981934, -2.247330665588379, 7.72230863571167, -0.7732730507850647, -1.6392384767532349, -2.372222661972046, 0.035888671875, 0.181396484375, -0.797607421875
94, 2348422418, -5.360817909240723, -2.2581653594970703, 7.760209083557129, -1.1681183576583862, -1.7181512117385864, -2.6387226581573486, 0.034423828125, 0.181884765625, -0.8017578125
95, 2348439085, -5.377215385437012, -2.2873663902282715, 7.755919933319092, -1.1138451099395752, -1.5131726264953613, -2.686298370361328, 0.037353515625, 0.18310546875, -0.799560546875
96, 2348455752, -5.354099750518799, -2.310422420501709, 7.752150535583496, -1.2176789045333862, -1.4818228483200073, -2.7486653327941895, 0.034423828125, 0.182373046875, -0.79833984375
97, 2348472419, -5.34691858291626, -2.3160147666931152, 7.743038654327393, -1.4375638961791992, -1.2297425270080566, -2.9162490367889404, 0.03369140625, 0.18359375, -0.80029296875
98, 2348489086, -5.3281378746032715, -2.3089728355407715, 7.747750759124756, -1.4503830671310425, -1.1268690824508667, -2.9129834175109863, 0.035400390625, 0.18359375, -0.7998046875
99, 2348505753, -5.311028003692627, -2.3088510036468506, 7.757640361785889, -1.6701505184173584, -0.9114697575569153, -3.005753517150879, 0.03369140625, 0.18359375, -0.7998046875
100, 2348522420, -5.287709712982178, -2.3588507175445557, 7.692887306213379, -1.7222875356674194, -0.8784899115562439, -2.6029162406921387, 0.035400390625, 0.185546875, -0.80078125
101, 2348539087, -5.302335739135742, -2.3501927852630615, 7.764458656311035, -1.3534518480300903, -0.7960681915283203, -2.4101293087005615, 0.035400390625, 0.18505859375, -0.80126953125
102, 2348555754, -5.346907615661621, -2.3347063064575195, 7.726124286651611, -1.392101526260376, -0.922377347946167, -2.3455088138580322, 0.03369140625, 0.18701171875, -0.8037109375
103, 2348572421, -5.331313610076904, -2.3493287563323975, 7.759212017059326, -1.4696567058563232, -0.7667930126190186, -2.447664976119995, 0.03271484375, 0.185546875, -0.7998046875
104, 2348589088, -5.315751075744629, -2.3437371253967285, 7.735290050506592, -1.761526346206665, -0.6693751215934753, -2.417147397994995, 0.0322265625, 0.1865234375, -0.80078125
105, 2348605755, -5.324636459350586, -2.3584680557250977, 7.725808143615723, -1.5980403423309326, -0.619430422782898, -2.331409215927124, 0.03125, 0.1845703125, -0.79833984375
106, 2348622422, -5.2743120193481445, -2.3968923091888428, 7.698755741119385, -1.3611868619918823, -0.5964429378509521, -2.0727076530456543, 0.03515625, 0.1884765625, -0.79833984375
107, 2348639089, -5.29884147644043, -2.4112460613250732, 7.702001571655273, -0.7436006665229797, -0.716528058052063, -1.5701353549957275, 0.0322265625, 0.18701171875, -0.80078125
108, 2348655756, -5.28291654586792, -2.419595956802368, 7.695185661315918, -0.37511080503463745, -0.6385887265205383, -1.276767611503601, 0.03466796875, 0.18798828125, -0.7998046875
109, 2348672423, -5.297049045562744, -2.3752434253692627, 7.731991291046143, -0.34103307127952576, -0.5136114358901978, -1.07218599319458, 0.0341796875, 0.1875, -0.80322265625
110, 2348689090, -5.30597448348999, -2.3577394485473633, 7.741685390472412, -0.512612521648407, -0.16306324303150177, -0.9436742067337036, 0.03271484375, 0.18505859375, -0.80126953125
111, 2348705757, -5.3406596183776855, -2.3269803524017334, 7.774575233459473, -0.5766059160232544, -0.1360802799463272, -1.063644289970398, 0.03466796875, 0.1884765625, -0.7978515625
112, 2348722424, -5.350222587585449, -2.3634040355682373, 7.722386837005615, -0.5806398987770081, -0.10739404708147049, -1.0835579633712769, 0.033203125, 0.18701171875, -0.7978515625
113, 2348739091, -5.307345390319824, -2.391535520553589, 7.708911895751953, -0.28828370571136475, -0.3758407533168793, -1.0009185075759888, 0.03271484375, 0.19091796875, -0.79931640625
114, 2348755758, -5.321700572967529, -2.396803140640259, 7.709308624267578, -0.12733352184295654, -0.27278804779052734, -0.7227007746696472, 0.03369140625, 0.1875, -0.798828125
115, 2348772425, -5.325620174407959, -2.3799588680267334, 7.7335662841796875, 0.012928009033203125, -0.3457586169242859, -0.7056939005851746, 0.0361328125, 0.18701171875, -0.80322265625
116, 2348789092, -5.331871032714844, -2.353773832321167, 7.731477737426758, -0.08660934865474701, -0.3094782829284668, -0.6044597625732422, 0.0341796875, 0.1865234375, -0.80029296875
117, 2348805759, -5.340163707733154, -2.3528506755828857, 7.716063976287842, -0.16328094899654388, -0.2995789349079132, -0.6878418326377869, 0.03515625, 0.185546875, -0.7998046875
118, 2348822426, -5.34537935256958, -2.3590683937072754, 7.730696201324463, -0.21620959043502808, -0.28380152583122253, -0.8387773633003235, 0.03466796875, 0.18798828125, -0.7998046875
119, 2348839093, -5.3234944343566895, -2.38027286529541, 7.702611923217773, -0.13308358192443848, -0.37367644906044006, -0.7564326524734497, 0.0341796875, 0.18701171875, -0.80078125
120, 2348855760, -5.338794708251953, -2.3590593338012695, 7.753918170928955, -0.024319259449839592, -0.37265196442604065, -0.6456321477890015, 0.0361328125, 0.18896484375, -0.80078125
121, 2348872427, -5.346033096313477, -2.3470520973205566, 7.734860420227051, -0.15242119133472443, -0.3632521331310272, -0.8194015622138977, 0.03564453125, 0.1884765625, -0.80126953125
122, 2348889094, -5.333625793457031, -2.3846657276153564, 7.741337299346924, -0.02761048823595047, -0.39987826347351074, -0.7378890514373779, 0.035400390625, 0.185546875, -0.80126953125
123, 2348905761, -5.31818151473999, -2.380405902862549, 7.734785556793213, 0.1360226422548294, -0.4229809045791626, -0.6093389391899109, 0.03271484375, 0.1865234375, -0.7998046875
124, 2348922428, -5.331724643707275, -2.377674102783203, 7.72538948059082, 0.49910828471183777, -0.40634551644325256, -0.3439785838127136, 0.033203125, 0.18603515625, -0.79833984375
125, 2348939095, -5.346680164337158, -2.3344552516937256, 7.75303840637207, 0.3035809099674225, -0.22937451303005219, -0.31378114223480225, 0.03466796875, 0.18701171875, -0.80224609375
126, 2348955762, -5.354343891143799, -2.3238940238952637, 7.735937118530273, 0.17695172131061554, -0.19139088690280914, -0.33000680804252625, 0.03515625, 0.1884765625, -0.7978515625
127, 2348972429, -5.330426216125488, -2.3568673133850098, 7.7514472007751465, 0.1436552107334137, -0.29021748900413513, -0.4673420786857605, 0.03369140625, 0.1865234375, -0.80078125
128, 2348989096, -5.341423034667969, -2.343614339828491, 7.723538398742676, 0.1258159726858139, -0.10702266544103622, -0.431855708360672, 0.036376953125, 0.18310546875, -0.80029296875
129, 2349005763, -5.335855007171631, -2.352811813354492, 7.735905170440674, 0.0691991075873375, -0.08489328622817993, -0.2870158851146698, 0.03466796875, 0.18505859375, -0.80126953125
130, 2349022430, -5.34744930267334, -2.341371536254883, 7.71109676361084, 0.024658624082803726, 0.022097354754805565, -0.3460403382778168, 0.037353515625, 0.1845703125, -0.796630859375
131, 2349039097, -5.371878147125244, -2.341503858566284, 7.757333755493164, -0.1461716741323471, 0.1531447321176529, -0.4502328336238861, 0.0341796875, 0.1865234375, -0.7998046875
132, 2349055764, -5.328863143920898, -2.348721504211426, 7.754518508911133, -0.26405712962150574, 0.03956758603453636, -0.49103766679763794, 0.0341796875, 0.18701171875, -0.7998046875
133, 2349072431, -5.341491222381592, -2.3514885902404785, 7.717322826385498, -0.19714096188545227, 0.046864841133356094, -0.5318989753723145, 0.03515625, 0.185546875, -0.8017578125
134, 2349089098, -5.335010528564453, -2.361233711242676, 7.705968379974365, -0.0854695737361908, 0.13260334730148315, -0.3826152980327606, 0.036865234375, 0.1865234375, -0.8017578125
135, 2349105765, -5.346079349517822, -2.359438419342041, 7.731888771057129, -0.0910787507891655, 0.19990071654319763, -0.3452335596084595, 0.037353515625, 0.18701171875, -0.7998046875
136, 2349122432, -5.341383934020996, -2.341496706008911, 7.719479560852051, -0.08714720606803894, 0.2240406721830368, -0.35976874828338623, 0.037841796875, 0.18798828125, -0.7998046875
137, 2349139099, -5.3377509117126465, -2.3433167934417725, 7.724958896636963, -0.07012756913900375, 0.45194247364997864, -0.20753969252109528, 0.034912109375, 0.18408203125, -0.80078125
138, 2349155766, -5.370837688446045, -2.3456201553344727, 7.724214553833008, -0.187779501080513, 0.4270981252193451, -0.32635700702667236, 0.036865234375, 0.18505859375, -0.80224609375
139, 2349172433, -5.3606953620910645, -2.345888376235962, 7.723041534423828, -0.1523827463388443, 0.4448605477809906, -0.3389328122138977, 0.035888671875, 0.18408203125, -0.79931640625
140, 2349189100, -5.366749286651611, -2.355630397796631, 7.714264392852783, -0.10119577497243881, 0.3493123948574066, -0.27993398904800415, 0.03515625, 0.18603515625, -0.80224609375
141, 2349205767, -5.371173858642578, -2.323272228240967, 7.698426246643066, 0.055829279124736786, 0.22012190520763397, -0.28136828541755676, 0.036865234375, 0.18408203125, -0.80029296875
142, 2349222434, -5.372196674346924, -2.328035831451416, 7.714422702789307, 0.33445703983306885, 0.09496548026800156, -0.18242645263671875, 0.037353515625, 0.18505859375, -0.7998046875
143, 2349239101, -5.369493007659912, -2.325800657272339, 7.702639102935791, 0.10681135207414627, 0.17148342728614807, -0.1880868524312973, 0.037841796875, 0.18359375, -0.80029296875
144, 2349255768, -5.392580986022949, -2.3113884925842285, 7.745131492614746, 0.0189213827252388, 0.26837629079818726, -0.05172485113143921, 0.038330078125, 0.18603515625, -0.80029296875
145, 2349272435, -5.370304584503174, -2.3217239379882812, 7.734234809875488, -0.19657748937606812, 0.39691364765167236, -0.20497846603393555, 0.037841796875, 0.185546875, -0.8017578125
146, 2349289102, -5.383261203765869, -2.3366901874542236, 7.7036261558532715, -0.02566392533481121, 0.38463228940963745, -0.10277095437049866, 0.038818359375, 0.18212890625, -0.799560546875
147, 2349305769, -5.360916614532471, -2.3416829109191895, 7.688591003417969, -0.08173011988401413, 0.3617217242717743, -0.15377865731716156, 0.038330078125, 0.18408203125, -0.799072265625
148, 2349322436, -5.38022518157959, -2.3414359092712402, 7.709988594055176, -0.16106544435024261, 0.4603690505027771, -0.0015111492248252034, 0.038330078125, 0.18408203125, -0.798583984375
149, 2349339103, -5.401121139526367, -2.3222603797912598, 7.695211887359619, -0.05943426489830017, 0.44605153799057007, -0.020835930481553078, 0.038330078125, 0.185546875, -0.799072265625
150, 2349355770, -5.404882907867432, -2.3081414699554443, 7.725409030914307, -0.07544220238924026, 0.37555262446403503, -0.06031790003180504, 0.038818359375, 0.1865234375, -0.799560546875
151, 2349372437, -5.420328617095947, -2.317779302597046, 7.707148551940918, -0.12288972735404968, 0.3004177510738373, -0.1676735281944275, 0.040283203125, 0.18408203125, -0.800537109375
152, 2349389104, -5.4351806640625, -2.301013946533203, 7.706597805023193, -0.15143507719039917, 0.19239617884159088, -0.317802369594574, 0.041259765625, 0.1845703125, -0.798095703125
153, 2349405771, -5.402347564697266, -2.332109212875366, 7.713289260864258, -0.1360802799463272, 0.12421519309282303, -0.33090323209762573, 0.039306640625, 0.18212890625, -0.798583984375
154, 2349422438, -5.384809970855713, -2.3217668533325195, 7.693637847900391, -0.14457088708877563, 0.20446619391441345, -0.2779874801635742, 0.040771484375, 0.18505859375, -0.798583984375
155, 2349439105, -5.41025447845459, -2.316495418548584, 7.712555885314941, -0.26975294947624207, 0.29366880655288696, -0.2871439456939697, 0.041259765625, 0.18603515625, -0.799560546875
156, 2349455772, -5.40031623840332, -2.3352417945861816, 7.690798282623291, -0.3324144184589386, 0.3223422169685364, -0.1812482625246048, 0.041748046875, 0.18505859375, -0.800048828125
157, 2349472439, -5.434168338775635, -2.3043434619903564, 7.686306476593018, -0.0725223496556282, 0.23419611155986786, -0.15179365873336792, 0.040771484375, 0.18408203125, -0.800048828125
158, 2349489106, -5.427370071411133, -2.302816390991211, 7.719647407531738, -0.04649985581636429, 0.29516714811325073, -0.20015043020248413, 0.042236328125, 0.18212890625, -0.797119140625
159, 2349505773, -5.436679363250732, -2.289480447769165, 7.716697692871094, -0.1025148257613182, 0.37689727544784546, -0.18251608312129974, 0.039794921875, 0.1826171875, -0.798583984375
160, 2349522440, -5.436568260192871, -2.2873170375823975, 7.703883647918701, -0.1508331596851349, 0.3818276822566986, -0.3358977437019348, 0.042236328125, 0.18212890625, -0.796630859375
161, 2349539107, -5.420246124267578, -2.2939085960388184, 7.673768997192383, -0.18633237481117249, 0.38839736580848694, -0.30675050616264343, 0.043212890625, 0.18408203125, -0.800048828125
162, 2349555774, -5.416448593139648, -2.334794759750366, 7.684607982635498, 0.022558385506272316, 0.23186536133289337, -0.20602858066558838, 0.042724609375, 0.18408203125, -0.799072265625
163, 2349572441, -5.428346633911133, -2.3166821002960205, 7.66718053817749, 0.1241767629981041, 0.13871195912361145, -0.07274007052183151, 0.040771484375, 0.18359375, -0.798583984375
164, 2349589108, -5.4330315589904785, -2.293797254562378, 7.6762895584106445, 0.21115751564502716, 0.012134017422795296, -0.06045877933502197, 0.041748046875, 0.18212890625, -0.799072265625
165, 2349605775, -5.457907199859619, -2.280597448348999, 7.680988788604736, 0.31609272956848145, 0.004565463867038488, -0.12948501110076904, 0.043701171875, 0.18310546875, -0.798583984375
166, 2349622442, -5.418832778930664, -2.311859607696533, 7.680826663970947, 0.020523404702544212, -0.31474772095680237, -0.3720339834690094, 0.04443359375, 0.181640625, -0.797607421875
167, 2349639109, -5.451680660247803, -2.268979072570801, 7.672702789306641, 0.23429860174655914, -0.12788422405719757, -0.23973487317562103, 0.042724609375, 0.185546875, -0.799560546875
168, 2349655776, -5.426490306854248, -2.2993545532226562, 7.688405990600586, 0.3956073224544525, -0.17029882967472076, -0.14509594440460205, 0.040283203125, 0.185546875, -0.799560546875
169, 2349672443, -5.425421237945557, -2.2975451946258545, 7.667541980743408, 0.5468758940696716, -0.3120907247066498, -0.12315866351127625, 0.042724609375, 0.1845703125, -0.800537109375
170, 2349689110, -5.452486038208008, -2.2862730026245117, 7.693212032318115, 0.6225614547729492, -0.4168594479560852, -0.06939759850502014, 0.043701171875, 0.18359375, -0.798095703125
171, 2349705777, -5.410762786865234, -2.2941370010375977, 7.692095756530762, 0.509737491607666, -0.5360737442970276, -0.0983271524310112, 0.044189453125, 0.18212890625, -0.797607421875
172, 2349722444, -5.434075355529785, -2.277228593826294, 7.690698146820068, 0.48867106437683105, -0.43464750051498413, -0.082306407392025, 0.042724609375, 0.181640625, -0.796142578125
173, 2349739111, -5.453934192657471, -2.2734522819519043, 7.683971405029297, 0.5192526578903198, -0.3821030557155609, -0.05072594806551933, 0.043212890625, 0.18115234375, -0.798095703125
174, 2349755778, -5.4488630294799805, -2.264983654022217, 7.677891731262207, 0.47031956911087036, -0.4709150791168213, -0.15292061865329742, 0.044677734375, 0.18310546875, -0.800537109375
175, 2349772445, -5.440435409545898, -2.2656056880950928, 7.690021514892578, 0.6272358894348145, -0.5233955383300781, -0.20066271722316742, 0.04638671875, 0.1826171875, -0.802490234375
176, 2349789112, -5.438385486602783, -2.281323194503784, 7.655540943145752, 0.7838830351829529, -0.5817027688026428, -0.09151417016983032, 0.043212890625, 0.179931640625, -0.798583984375
177, 2349805779, -5.4277167320251465, -2.2742860317230225, 7.716122150421143, 0.796369194984436, -0.7147864103317261, -0.1218908354640007, 0.044189453125, 0.18212890625, -0.801513671875
178, 2349822446, -5.451049327850342, -2.278740167617798, 7.690046787261963, 1.008852243423462, -0.8980580568313599, 0.09976786375045776, 0.042236328125, 0.18212890625, -0.798583984375
179, 2349839113, -5.454113483428955, -2.2515125274658203, 7.674344539642334, 1.2020615339279175, -1.0418989658355713, 0.1831371784210205, 0.04443359375, 0.18017578125, -0.799560546875
180, 2349855780, -5.44795560836792, -2.2358996868133545, 7.705695629119873, 1.0714240074157715, -0.8247416615486145, 0.1564231663942337, 0.04345703125, 0.1796875, -0.801513671875
181, 2349872447, -5.4336042404174805, -2.203050374984741, 7.7400593757629395, 0.6835068464279175, -0.5028412938117981, 0.03148441016674042, 0.04541015625, 0.1796875, -0.800537109375
182, 2349889114, -5.442969799041748, -2.2469990253448486, 7.742574691772461, 0.3637835681438446, -0.19153174757957458, -0.1448269933462143, 0.0458984375, 0.177978515625, -0.800048828125
183, 2349905781, -5.444586753845215, -2.2310025691986084, 7.704874515533447, 0.27169308066368103, 0.010110612958669662, -0.2492883801460266, 0.0439453125, 0.1796875, -0.799560546875
184, 2349922448, -5.449263572692871, -2.2285027503967285, 7.679594039916992, 0.24317339062690735, 0.058147236704826355, -0.18903455138206482, 0.04443359375, 0.179443359375, -0.800048828125
185, 2349939115, -5.453404903411865, -2.227508544921875, 7.690873622894287, 0.3560229241847992, -0.12245431542396545, -0.1754341870546341, 0.04443359375, 0.18017578125, -0.798095703125
186, 2349955782, -5.437243938446045, -2.2569117546081543, 7.6822896003723145, 0.6428083181381226, -0.34675753116607666, -0.07946339249610901, 0.04541015625, 0.177490234375, -0.799072265625
187, 2349972449, -5.429251670837402, -2.2806196212768555, 7.715316295623779, 1.277106761932373, -0.6990857720375061, 0.2857544720172882, 0.0458984375, 0.18017578125, -0.800048828125
188, 2349989116, -5.46672248840332, -2.234707832336426, 7.6695709228515625, 1.5458096265792847, -1.0027755498886108, 0.41851791739463806, 0.04443359375, 0.178466796875, -0.802490234375
189, 2350005783, -5.439751148223877, -2.2011499404907227, 7.699378967285156, 1.5246409177780151, -0.8236276507377625, 0.42279526591300964, 0.0458984375, 0.175537109375, -0.800048828125
190, 2350022450, -5.44860315322876, -2.160029888153076, 7.714324474334717, 0.770308256149292, -0.43250882625579834, 0.06822582334280014, 0.04345703125, 0.176025390625, -0.799560546875
191, 2350039117, -5.43629264831543, -2.16416335105896, 7.705868244171143, 0.24090664088726044, 0.02853894792497158, -0.18245206773281097, 0.0439453125, 0.177978515625, -0.802001953125
192, 2350055784, -5.450132846832275, -2.2182998657226562, 7.710102558135986, -0.05312073603272438, 0.4236404299736023, -0.26185142993927, 0.0439453125, 0.177001953125, -0.801513671875
193, 2350072451, -5.459724426269531, -2.2223265171051025, 7.682004928588867, 0.09461971372365952, 0.5351454019546509, -0.22019238770008087, 0.04638671875, 0.178955078125, -0.800537109375
194, 2350089118, -5.463404178619385, -2.2326154708862305, 7.703075408935547, 0.21339860558509827, 0.3309096395969391, -0.16326814889907837, 0.04345703125, 0.174560546875, -0.801513671875
195, 2350105785, -5.493505001068115, -2.177692174911499, 7.708389759063721, 0.2658534049987793, -0.03969968110322952, -0.2272358536720276, 0.04541015625, 0.178466796875, -0.800537109375
196, 2350122452, -5.4720587730407715, -2.198627471923828, 7.695435523986816, 0.019638538360595703, -0.28442904353141785, -0.3068273365497589, 0.0458984375, 0.177001953125, -0.800048828125
197, 2350139119, -5.453544616699219, -2.1549296379089355, 7.725316047668457, 0.04353518784046173, -0.08174292743206024, -0.31184741854667664, 0.044921875, 0.176513671875, -0.798095703125
198, 2350155786, -5.449021339416504, -2.1813113689422607, 7.730594158172607, -0.190123051404953, 0.010110612958669662, -0.38968437910079956, 0.04736328125, 0.177490234375, -0.801025390625
199, 2350172453, -5.458305358886719, -2.18344783782959, 7.7064409255981445, -0.1111401617527008, -0.0016008896054700017, -0.4254780411720276, 0.0458984375, 0.17919921875, -0.801513671875
200, 2350189120, -5.474413871765137, -2.1916210651397705, 7.672856330871582, -0.16723814606666565, 0.022545579820871353, -0.4058588743209839, 0.0478515625, 0.175048828125, -0.796875
201, 2350205787, -5.484142303466797, -2.18734073638916, 7.688069820404053, -0.24425549805164337, -0.07368773967027664, -0.3840239942073822, 0.0458984375, 0.175048828125, -0.796875
202, 2350222454, -5.465159893035889, -2.1962954998016357, 7.675188064575195, -0.204094797372818, -0.2582528293132782, -0.41326090693473816, 0.046875, 0.178466796875, -0.801025390625
203, 2350239121, -5.457592964172363, -2.192383050918579, 7.698047161102295, -0.19648782908916473, -0.23173092305660248, -0.5261361002922058, 0.04443359375, 0.177490234375, -0.799072265625
204, 2350255788, -5.473538875579834, -2.1914567947387695, 7.696928024291992, -0.19219771027565002, -0.10948149114847183, -0.4137859642505646, 0.04736328125, 0.176025390625, -0.800048828125
205, 2350272455, -5.48695707321167, -2.1670851707458496, 7.703104019165039, -0.32450011372566223, -0.2476491928100586, -0.4899709224700928, 0.0478515625, 0.176513671875, -0.800537109375
206, 2350289122, -5.483595371246338, -2.1718342304229736, 7.668947696685791, -0.264079749584198, -0.28716957569122314, -0.6254236698150635, 0.04931640625, 0.175537109375, -0.798828125
207, 2350305789, -5.476925849914551, -2.184601068496704, 7.67353630065918, -0.18743373453617096, -0.40539783239364624, -0.7356223464012146, 0.04638671875, 0.177001953125, -0.802001953125
208, 2350322456, -5.468900680541992, -2.1952762603759766, 7.681861400604248, -0.23835180699825287, -0.304291695356369, -0.6448381543159485, 0.04638671875, 0.176513671875, -0.799560546875
209, 2350339123, -5.46737003326416, -2.1802167892456055, 7.689296245574951, -0.1786869764328003, -0.22098635137081146, -0.522767961025238, 0.046875, 0.176513671875, -0.79931640625
210, 2350355790, -5.488426685333252, -2.1928515434265137, 7.679372310638428, -0.08299795538187027, -0.2252124398946762, -0.5039810538291931, 0.046875, 0.177001953125, -0.799560546875
211, 2350372457, -5.499194622039795, -2.182298183441162, 7.679119110107422, -0.08951637893915176, -0.2683442234992981, -0.43587690591812134, 0.046875, 0.177978515625, -0.801513671875
212, 2350389124, -5.474701881408691, -2.183307409286499, 7.701426982879639, -0.07450734823942184, -0.2974530756473541, -0.560329020023346, 0.04736328125, 0.175048828125, -0.7998046875
213, 2350405791, -5.479160785675049, -2.176762342453003, 7.693873882293701, -3.7138411425985396E-4, -0.17234782874584198, -0.6135905981063843, 0.048828125, 0.176025390625, -0.80029296875
214, 2350422458, -5.480888366699219, -2.1737771034240723, 7.689043998718262, -0.2454080879688263, -0.36889976263046265, -0.740885853767395, 0.0478515625, 0.176513671875, -0.79833984375
215, 2350439125, -5.487416744232178, -2.190096616744995, 7.700161933898926, -0.35532495379447937, -0.37194764614105225, -0.7585200667381287, 0.0478515625, 0.177978515625, -0.79833984375
216, 2350455792, -5.503763675689697, -2.1758012771606445, 7.702381134033203, -0.4154379665851593, -0.3123212456703186, -0.8173267245292664, 0.04931640625, 0.176025390625, -0.801513671875
217, 2350472459, -5.493069171905518, -2.1510043144226074, 7.668330192565918, -0.3613952100276947, -0.40233710408210754, -0.9097503423690796, 0.046875, 0.177978515625, -0.799072265625
218, 2350489126, -5.481976509094238, -2.1974949836730957, 7.6965179443359375, -0.22422635555267334, -0.45475345849990845, -0.732779324054718, 0.048828125, 0.177001953125, -0.79833984375
219, 2350505793, -5.495606899261475, -2.188800811767578, 7.692408084869385, -0.06061245873570442, -0.4819542169570923, -0.772555947303772, 0.0478515625, 0.176025390625, -0.7978515625
220, 2350522460, -5.4831647872924805, -2.185138463973999, 7.704448699951172, -0.10003039240837097, -0.5912947654724121, -0.6195839643478394, 0.04736328125, 0.176513671875, -0.79833984375
221, 2350539127, -5.481366157531738, -2.1671242713928223, 7.688591957092285, -0.08763384819030762, -0.5111014246940613, -0.6736651659011841, 0.04931640625, 0.177001953125, -0.80029296875
222, 2350555794, -5.474000453948975, -2.1733691692352295, 7.690967082977295, -0.08719842880964279, -0.4708254337310791, -0.7868989109992981, 0.048828125, 0.177001953125, -0.800537109375
223, 2350572461, -5.476024627685547, -2.187640905380249, 7.696255207061768, -0.05016246810555458, -0.4696599841117859, -0.7180776000022888, 0.04833984375, 0.176025390625, -0.801025390625
224, 2350589128, -5.472823619842529, -2.1791727542877197, 7.678610801696777, -0.09712335467338562, -0.3233475387096405, -0.6695287823677063, 0.04833984375, 0.174072265625, -0.801025390625
225, 2350605795, -5.491816520690918, -2.1828060150146484, 7.681711673736572, 0.08888888359069824, -0.4527813494205475, -0.47313061356544495, 0.04736328125, 0.175537109375, -0.800537109375
226, 2350622462, -5.478342056274414, -2.2019710540771484, 7.703958511352539, 0.06302643567323685, -0.5924344658851624, -0.48696139454841614, 0.04638671875, 0.176025390625, -0.800537109375
227, 2350639129, -5.450992584228516, -2.197411298751831, 7.7316484451293945, -0.8413386940956116, -0.7225470542907715, -0.6978435516357422, 0.04638671875, 0.173583984375, -0.79931640625
228, 2350655796, -5.483160495758057, -2.1254024505615234, 7.702253341674805, -1.0272101163864136, -0.5206805467605591, -0.3826921582221985, 0.04931640625, 0.176513671875, -0.80078125
229, 2350672463, -5.47528076171875, -2.190455675125122, 7.666848659515381, -0.5258159041404724, -0.27401742339134216, -0.1657525599002838, 0.04833984375, 0.176025390625, -0.800537109375
230, 2350689130, -5.4894819259643555, -2.1944358348846436, 7.6342549324035645, 0.021956484764814377, -0.28778427839279175, 0.26142239570617676, 0.04931640625, 0.177490234375, -0.80029296875
231, 2350705797, -5.5065436363220215, -2.1637449264526367, 7.6656646728515625, 0.4767996072769165, -0.4072931110858917, 0.35538262128829956, 0.0478515625, 0.176025390625, -0.800048828125
232, 2350722464, -5.534764289855957, -2.1469082832336426, 7.647909164428711, 0.3609021306037903, -0.633863091468811, 0.12394625693559647, 0.0478515625, 0.175537109375, -0.800537109375
233, 2350739131, -5.516231060028076, -2.1221442222595215, 7.685812473297119, 0.30240803956985474, -0.7800815105438232, -0.19455289840698242, 0.04638671875, 0.177001953125, -0.800537109375
234, 2350755798, -5.518658638000488, -2.136376142501831, 7.695657253265381, 0.19053925573825836, -0.8392640352249146, -0.6811313033103943, 0.04931640625, 0.177001953125, -0.79931640625
235, 2350772465, -5.512423515319824, -2.135192632675171, 7.672146797180176, 0.189066544175148, -0.9911090135574341, -0.9937983155250549, 0.048828125, 0.174072265625, -0.80029296875
236, 2350789132, -5.484804153442383, -2.1695659160614014, 7.673351764678955, 0.16394048929214478, -0.9472728371620178, -1.0728775262832642, 0.05029296875, 0.175537109375, -0.79833984375
237, 2350805799, -5.482731342315674, -2.1607463359832764, 7.6810760498046875, 0.07036449015140533, -1.0116889476776123, -1.0503640174865723, 0.04833984375, 0.176513671875, -0.7998046875
238, 2350822466, -5.482913970947266, -2.1558468341827393, 7.677657604217529, 0.006678510922938585, -0.9816706776618958, -1.0060027837753296, 0.046875, 0.177490234375, -0.79833984375
239, 2350839133, -5.474546909332275, -2.1433968544006348, 7.703249454498291, -0.136464461684227, -0.7890119552612305, -1.1417884826660156, 0.048828125, 0.177978515625, -0.798828125
240, 2350855800, -5.470206260681152, -2.1642637252807617, 7.701251029968262, -0.14814385771751404, -0.7318957448005676, -1.1533912420272827, 0.048828125, 0.175537109375, -0.80078125
241, 2350872467, -5.490764141082764, -2.1701362133026123, 7.68876314163208, -0.32000505924224854, -0.7115592360496521, -1.07137930393219, 0.04833984375, 0.174072265625, -0.79931640625
242, 2350889134, -5.497591495513916, -2.154076099395752, 7.697107315063477, -0.3579374849796295, -0.7244679927825928, -1.204706072807312, 0.04736328125, 0.173583984375, -0.801025390625
243, 2350905801, -5.495914459228516, -2.152733564376831, 7.696810245513916, -0.44110187888145447, -0.7563813328742981, -1.3297728300094604, 0.04638671875, 0.175048828125, -0.79931640625
244, 2350922468, -5.497803688049316, -2.147691011428833, 7.7083539962768555, -0.674318253993988, -0.7904078364372253, -1.4219144582748413, 0.04833984375, 0.177001953125, -0.7978515625
245, 2350939135, -5.479282855987549, -2.1742749214172363, 7.6910786628723145, -0.7559202313423157, -0.8026378154754639, -1.484883189201355, 0.04736328125, 0.176025390625, -0.79833984375
246, 2350955802, -5.4804911613464355, -2.1596782207489014, 7.6961846351623535, -0.89493328332901, -0.8040337562561035, -1.6494576930999756, 0.04833984375, 0.176025390625, -0.801025390625
247, 2350972469, -5.471025466918945, -2.181680679321289, 7.69082498550415, -0.5228960514068604, -0.853479266166687, -1.3707149028778076, 0.04736328125, 0.175537109375, -0.7978515625
248, 2350989136, -5.487022399902344, -2.1683948040008545, 7.644406318664551, -0.3935391306877136, -1.0857863426208496, -1.4138338565826416, 0.04833984375, 0.177001953125, -0.800537109375
249, 2351005803, -5.499908447265625, -2.16387939453125, 7.683279514312744, -0.2820470333099365, -1.137511134147644, -1.5245190858840942, 0.0478515625, 0.174560546875, -0.798828125
250, 2351022470, -5.445117473602295, -2.231022357940674, 7.700298309326172, -0.06993547827005386, -1.056754231452942, -1.1780688762664795, 0.046875, 0.173583984375, -0.7978515625
251, 2351039137, -5.454270839691162, -2.1479978561401367, 7.713143825531006, -0.18056952953338623, -0.7545244693756104, -1.0558706521987915, 0.0458984375, 0.176513671875, -0.800048828125
252, 2351055804, -5.4673943519592285, -2.1483840942382812, 7.691127300262451, -0.5762345790863037, -0.49353110790252686, -1.2998318672180176, 0.0478515625, 0.175537109375, -0.801025390625
253, 2351072471, -5.457627296447754, -2.172736883163452, 7.707314968109131, -0.6302516460418701, -0.43559515476226807, -1.340197205543518, 0.04638671875, 0.178466796875, -0.799560546875
254, 2351089138, -5.494874954223633, -2.184802532196045, 7.680468559265137, -0.523946225643158, -0.4808144271373749, -1.2866411209106445, 0.04736328125, 0.177001953125, -0.799560546875
255, 2351105805, -5.4853715896606445, -2.210674524307251, 7.678936004638672, -0.2783844470977783, -0.7178342938423157, -1.1710255146026611, 0.0458984375, 0.177978515625, -0.801025390625
256, 2351122472, -5.470985412597656, -2.2123236656188965, 7.668485641479492, -0.13176454603672028, -0.907701313495636, -0.9971920251846313, 0.04541015625, 0.177490234375, -0.799560546875
257, 2351139139, -5.46799898147583, -2.2018892765045166, 7.687352180480957, -0.09652145206928253, -0.8437078595161438, -0.8713696002960205, 0.046875, 0.176513671875, -0.800048828125
258, 2351155806, -5.485503673553467, -2.175452470779419, 7.709059715270996, -0.059920910745859146, -0.8054296970367432, -0.8148424029350281, 0.046875, 0.178955078125, -0.798583984375
259, 2351172473, -5.461605072021484, -2.1832432746887207, 7.711267471313477, -0.06739981472492218, -0.652842104434967, -0.7830698490142822, 0.0458984375, 0.175537109375, -0.800048828125
260, 2351189140, -5.476027488708496, -2.177103281021118, 7.69375467300415, -0.1009780615568161, -0.42199480533599854, -0.8442969918251038, 0.04541015625, 0.177001953125, -0.798583984375
261, 2351205807, -5.468710899353027, -2.212726593017578, 7.67990779876709, -0.015354814007878304, -0.482351154088974, -0.7069233655929565, 0.04833984375, 0.176025390625, -0.798828125
262, 2351222474, -5.472498416900635, -2.2016379833221436, 7.705609321594238, -0.025907248258590698, -0.5526068210601807, -0.6638556718826294, 0.04541015625, 0.177001953125, -0.798095703125
263, 2351239141, -5.4941558837890625, -2.179866313934326, 7.692289352416992, -0.001946565113030374, -0.5553473234176636, -0.5638763308525085, 0.0458984375, 0.176513671875, -0.801513671875
264, 2351255808, -5.474717140197754, -2.1725122928619385, 7.695786952972412, 0.00255486648529768, -0.5260463953018188, -0.6941681504249573, 0.04541015625, 0.177001953125, -0.801513671875
265, 2351272475, -5.474424839019775, -2.165623903274536, 7.699406623840332, -0.10246359556913376, -0.6025130748748779, -0.6851781010627747, 0.0478515625, 0.175537109375, -0.798828125
266, 2351289142, -5.481684684753418, -2.160036087036133, 7.696206569671631, -0.08705757558345795, -0.6703996062278748, -0.8111029863357544, 0.04638671875, 0.174560546875, -0.801513671875
267, 2351305809, -5.469551086425781, -2.1768100261688232, 7.683184623718262, 0.05065855383872986, -0.7486785054206848, -0.8303494453430176, 0.04833984375, 0.176513671875, -0.7998046875
268, 2351322476, -5.477531909942627, -2.1563479900360107, 7.68870735168457, 0.0954137071967125, -0.8613039255142212, -0.9314187169075012, 0.04833984375, 0.175537109375, -0.798828125
269, 2351339143, -5.502774238586426, -2.1221108436584473, 7.670604228973389, -0.11487294733524323, -0.848395049571991, -1.1838574409484863, 0.0478515625, 0.174560546875, -0.801025390625
270, 2351355810, -5.440438270568848, -2.16634464263916, 7.700496196746826, -0.10927657783031464, -0.8121915459632874, -1.3327441215515137, 0.0458984375, 0.177490234375, -0.799072265625
271, 2351372477, -5.480432033538818, -2.178948163986206, 7.673387050628662, -0.10044020414352417, -0.9499109983444214, -1.3056331872940063, 0.04541015625, 0.177001953125, -0.801025390625
272, 2351389144, -5.474536895751953, -2.175910234451294, 7.692510604858398, 0.25021687150001526, -1.0983622074127197, -1.1416219472885132, 0.046875, 0.174560546875, -0.802001953125
273, 2351405811, -5.479639530181885, -2.165604829788208, 7.691646099090576, 0.43325796723365784, -1.255086064338684, -1.079229474067688, 0.04541015625, 0.176513671875, -0.801025390625
274, 2351422478, -5.474355697631836, -2.1271302700042725, 7.681826114654541, 0.39919313788414, -1.3677948713302612, -1.2415755987167358, 0.04296875, 0.174560546875, -0.799072265625
275, 2351439145, -5.41908073425293, -2.154784679412842, 7.70513916015625, 0.47859248518943787, -1.3081812858581543, -1.2360304594039917, 0.0458984375, 0.176513671875, -0.800048828125
276, 2351455812, -5.448165416717529, -2.18989634513855, 7.717981338500977, 0.31793686747550964, -1.0565111637115479, -1.3695752620697021, 0.04638671875, 0.176025390625, -0.800537109375
277, 2351472479, -5.448641300201416, -2.2022716999053955, 7.7292866706848145, 0.19311335682868958, -0.8471143841743469, -1.241370677947998, 0.04736328125, 0.175048828125, -0.800048828125
278, 2351489146, -5.478952407836914, -2.1488280296325684, 7.7134904861450195, 0.27763527631759644, -0.7619906663894653, -1.0888855457305908, 0.0458984375, 0.173095703125, -0.796875
279, 2351505813, -5.464006423950195, -2.127952814102173, 7.72109317779541, -0.2885655164718628, -0.6429939866065979, -1.3752483129501343, 0.046875, 0.175048828125, -0.800048828125
280, 2351522480, -5.503856658935547, -2.1136014461517334, 7.751718997955322, -0.29413625597953796, -0.15449580550193787, -1.5857847929000854, 0.044921875, 0.174560546875, -0.801025390625
281, 2351539147, -5.536777973175049, -2.132115125656128, 7.7423319816589355, -0.7568424940109253, 0.05078358203172684, -2.2342472076416016, 0.0458984375, 0.176513671875, -0.798583984375
282, 2351555814, -5.515090465545654, -2.1977951526641846, 7.7690863609313965, -1.6629172563552856, 0.4327073097229004, -2.310034990310669, 0.0439453125, 0.175048828125, -0.799560546875
283, 2351572481, -5.488796710968018, -2.189359426498413, 7.791085720062256, -3.4654626846313477, 1.9923800230026245, -2.298637628555298, 0.044921875, 0.177001953125, -0.801025390625
284, 2351589148, -5.469302177429199, -2.2077009677886963, 7.748495101928711, -5.294657230377197, 3.720046281814575, -2.4165842533111572, 0.04833984375, 0.176513671875, -0.800537109375
285, 2351605815, -5.3058390617370605, -2.3396313190460205, 7.762796878814697, -6.2931952476501465, 5.144932746887207, -2.3888325691223145, 0.04833984375, 0.17919921875, -0.800048828125
286, 2351622482, -5.120675563812256, -2.420956611633301, 7.815738677978516, -6.295372486114502, 7.629173755645752, -0.858729898929596, 0.05029296875, 0.18115234375, -0.796875
287, 2351639149, -5.195988655090332, -2.3734049797058105, 8.0208101272583, -8.421539306640625, 12.94234561920166, 0.824467122554779, 0.05078125, 0.181640625, -0.796875
288, 2351655816, -5.138662815093994, -2.159055709838867, 8.214794158935547, -12.840861320495605, 19.078392028808594, 3.9281561374664307, 0.05712890625, 0.184814453125, -0.796875
289, 2351672483, -4.520401477813721, -1.37869393825531, 9.263195991516113, -35.763031005859375, 23.76963996887207, 20.786516189575195, 0.064697265625, 0.1923828125, -0.793701171875
290, 2351689150, -4.270594596862793, -3.520329713821411, 8.522303581237793, -41.690425872802734, 32.76439666748047, 38.98795700073242, 0.070556640625, 0.198974609375, -0.7900390625
291, 2351705817, -4.822433948516846, -3.3596532344818115, 8.67259693145752, -46.16690444946289, 49.03078842163086, 47.724586486816406, 0.0859375, 0.20458984375, -0.78369140625
292, 2351722484, -4.989941120147705, -2.973435878753662, 9.53915023803711, -48.05763244628906, 58.79610061645508, 59.449405670166016, 0.10302734375, 0.21435546875, -0.776611328125
293, 2351739151, -5.145044326782227, -2.552769899368286, 9.567014694213867, -53.99734878540039, 65.5410385131836, 71.5723876953125, 0.122314453125, 0.2255859375, -0.772216796875
294, 2351755818, -3.8683066368103027, -3.63777756690979, 10.489168167114258, -58.58110427856445, 68.82432556152344, 79.20347595214844, 0.141845703125, 0.232177734375, -0.76123046875
295, 2351772485, -3.153459072113037, -4.192286968231201, 12.644026756286621, -42.778236389160156, 52.729820251464844, 85.81090545654297, 0.16455078125, 0.2353515625, -0.75341796875
296, 2351789152, -1.4711476564407349, -5.720077991485596, 13.309221267700195, -32.87615203857422, 24.540332794189453, 71.86922454833984, 0.181640625, 0.235595703125, -0.743896484375
297, 2351805819, 1.242003083229065, -6.111341953277588, 12.608268737792969, -18.7628116607666, 2.5647566318511963, 46.286067962646484, 0.1884765625, 0.234619140625, -0.73583984375
298, 2351822486, 2.630248546600342, -5.488230228424072, 12.09061050415039, -10.395992279052734, -9.580636024475098, 14.340571403503418, 0.193115234375, 0.233154296875, -0.72705078125
299, 2351839153, 2.7089040279388428, -4.998684406280518, 12.017965316772461, -6.889012813568115, -19.265993118286133, -15.061800003051758, 0.196044921875, 0.232177734375, -0.72265625
300, 2351855820, 1.6445757150650024, -4.445495128631592, 12.341408729553223, -0.7083162069320679, -31.36538314819336, -36.57793426513672, 0.198974609375, 0.231689453125, -0.715576171875
301, 2351872487, 0.37801799178123474, -3.711021661758423, 12.384902954101562, 5.9408345222473145, -48.20268249511719, -50.80504608154297, 0.194091796875, 0.23046875, -0.714111328125
302, 2351889154, -0.4491511285305023, -3.0791685581207275, 11.85463809967041, 11.075228691101074, -63.614593505859375, -57.78908920288086, 0.191162109375, 0.22705078125, -0.711669921875
303, 2351905821, -1.4325555562973022, -2.656280994415283, 11.436833381652832, 13.385903358459473, -74.05045318603516, -58.995323181152344, 0.1826171875, 0.225341796875, -0.71337890625
304, 2351922488, -3.2181589603424072, -2.3798677921295166, 11.43864631652832, 9.257430076599121, -83.65231323242188, -58.08146286010742, 0.17626953125, 0.226806640625, -0.71630859375
305, 2351939155, -4.842093467712402, -2.85066819190979, 11.090888977050781, 5.026269435882568, -96.26065826416016, -55.580543518066406, 0.170166015625, 0.232421875, -0.719970703125
306, 2351955822, -5.690520286560059, -3.19185209274292, 10.323811531066895, 7.940002918243408, -109.120849609375, -49.835811614990234, 0.157470703125, 0.24169921875, -0.7314453125
307, 2351972489, -6.424160480499268, -2.939093828201294, 9.595568656921387, 7.786500453948975, -116.46293640136719, -43.81472396850586, 0.14306640625, 0.250732421875, -0.744873046875
308, 2351989156, -7.518934726715088, -2.811965227127075, 9.092276573181152, -1.162947177886963, -120.8980941772461, -39.92638397216797, 0.121337890625, 0.263671875, -0.763916015625
309, 2352005823, -8.251696586608887, -2.9978768825531006, 8.356508255004883, -10.973867416381836, -126.07850646972656, -36.2954216003418, 0.09423828125, 0.275634765625, -0.775146484375
310, 2352022490, -8.279153823852539, -2.8466358184814453, 7.595556259155273, -18.28231430053711, -128.27378845214844, -31.682031631469727, 0.0595703125, 0.288330078125, -0.786376953125
311, 2352039157, -8.35617733001709, -2.450045585632324, 7.023807525634766, -27.807146072387695, -124.11331176757812, -27.45330047607422, 0.026123046875, 0.299560546875, -0.793212890625
312, 2352055824, -8.780647277832031, -2.326610803604126, 6.380709648132324, -36.772483825683594, -118.6990966796875, -24.00404930114746, -0.012451171875, 0.3134765625, -0.800048828125
313, 2352072491, -8.931624412536621, -2.149663209915161, 5.524245262145996, -39.86025619506836, -112.84394073486328, -21.13129234313965, -0.043701171875, 0.32421875, -0.80078125
314, 2352089158, -9.159866333007812, -1.7548307180404663, 4.367770195007324, -38.90802764892578, -102.98217010498047, -18.372909545898438, -0.0751953125, 0.33203125, -0.7958984375
315, 2352105825, -9.727239608764648, -1.257383108139038, 3.456845283508301, -35.638343811035156, -90.13191986083984, -14.69013500213623, -0.101318359375, 0.34033203125, -0.791015625
316, 2352122492, -10.310515403747559, -0.5064629316329956, 2.6138226985931396, -33.238582611083984, -76.28279876708984, -9.802862167358398, -0.122802734375, 0.3505859375, -0.7880859375
317, 2352139159, -10.466914176940918, 0.1722376048564911, 1.093077540397644, -28.97983741760254, -57.864986419677734, -1.120367169380188, -0.142333984375, 0.35400390625, -0.781982421875
318, 2352155826, -10.494744300842285, 0.44841837882995605, 0.03466447442770004, -20.800216674804688, -29.330045700073242, 11.305996894836426, -0.15087890625, 0.363037109375, -0.777587890625
319, 2352172493, -10.877178192138672, -0.14639902114868164, 0.1626444309949875, -11.461913108825684, 2.5283310413360596, 22.13787841796875, -0.151123046875, 0.365478515625, -0.776611328125
320, 2352189160, -11.370726585388184, -1.1366840600967407, 1.063830852508545, -2.6261343955993652, 27.357297897338867, 25.79570770263672, -0.14404296875, 0.366943359375, -0.776123046875
321, 2352205827, -5.252711772918701, -3.727144241333008, 6.543397903442383, 4.572072505950928, 65.38948059082031, 29.961458206176758, -0.132080078125, 0.36572265625, -0.77978515625
322, 2352222494, 2.086221218109131, -7.545717716217041, 11.494894981384277, 15.85446548461914, 76.87305450439453, 39.02973175048828, -0.107666015625, 0.36474609375, -0.78125
323, 2352239161, -0.04191260784864426, -2.4181928634643555, 4.621356964111328, 22.361770629882812, 100.4313735961914, 56.257896423339844, -0.08203125, 0.361083984375, -0.788818359375
324, 2352255828, -7.35494327545166, -3.7118940353393555, 10.195785522460938, 6.340473651885986, 117.81794738769531, 34.73786544799805, -0.05322265625, 0.361328125, -0.791748046875
325, 2352272495, -7.976017951965332, -4.565330982208252, 10.473017692565918, 7.9015889167785645, 90.63477325439453, 22.279373168945312, -0.02783203125, 0.3583984375, -0.793212890625
326, 2352289162, -6.844631195068359, -2.821556568145752, 9.49284839630127, 1.4255897998809814, 77.58255767822266, 19.17711067199707, -0.0107421875, 0.357666015625, -0.79150390625
327, 2352305829, -5.231215476989746, -3.150131940841675, 8.698699951171875, -11.936742782592773, 80.5374755859375, 0.47495371103286743, 0.01025390625, 0.35888671875, -0.79150390625
328, 2352322496, -5.491520404815674, -4.763054847717285, 8.195119857788086, -9.68099308013916, 80.65390014648438, -2.8752973079681396, 0.029052734375, 0.359619140625, -0.7861328125
329, 2352339163, -5.4731268882751465, -4.581730842590332, 7.402757167816162, 3.9901068210601807, 74.35595703125, 0.7586948871612549, 0.04443359375, 0.360595703125, -0.786865234375
330, 2352355830, -4.73039436340332, -2.209199905395508, 8.640719413757324, 9.938630104064941, 72.86420440673828, 8.995847702026367, 0.0625, 0.357421875, -0.786865234375
331, 2352372497, -6.585773944854736, -1.4003708362579346, 9.378959655761719, 5.815405368804932, 61.24064636230469, 21.357925415039062, 0.07763671875, 0.3564453125, -0.7861328125
332, 2352389164, -6.520451068878174, -3.290393590927124, 8.027233123779297, 5.814193248748779, 46.563720703125, 26.518735885620117, 0.092041015625, 0.35302734375, -0.783203125
333, 2352405831, -5.166233539581299, -4.846327304840088, 7.560940265655518, 11.397415161132812, 47.46708679199219, 22.509599685668945, 0.108154296875, 0.35107421875, -0.786865234375
334, 2352422498, -9.734627723693848, -3.9749155044555664, 8.486432075500488, 40.49610137939453, 25.059959411621094, 27.909574508666992, 0.1162109375, 0.338134765625, -0.78662109375
335, 2352439165, -5.663109302520752, -2.1678946018218994, 8.595623016357422, 30.15132713317871, 17.781400680541992, 18.856348037719727, 0.120849609375, 0.33203125, -0.78662109375
336, 2352455832, -6.054275035858154, -2.6996302604675293, 8.17182445526123, 25.540239334106445, 14.605613708496094, 14.718501091003418, 0.1279296875, 0.326171875, -0.791259765625
337, 2352472499, -6.031270980834961, -2.3590853214263916, 8.352866172790527, 18.176307678222656, 9.963095664978027, 9.087267875671387, 0.1328125, 0.32080078125, -0.791748046875
338, 2352489166, -5.2336931228637695, -2.5909199714660645, 7.919987678527832, 13.599414825439453, 8.917792320251465, 6.45222282409668, 0.133544921875, 0.316162109375, -0.793212890625
339, 2352505833, -5.5675048828125, -2.720203399658203, 7.876671314239502, 10.858686447143555, 9.61824893951416, 5.541869163513184, 0.136962890625, 0.313232421875, -0.79150390625
340, 2352522500, -5.700494766235352, -2.577796697616577, 7.897843360900879, 7.349048137664795, 8.714154243469238, 3.8333194255828857, 0.138671875, 0.309814453125, -0.7939453125
341, 2352539167, -5.3692307472229, -2.763822078704834, 7.695329189300537, 5.445704936981201, 7.883790969848633, 3.0679867267608643, 0.1416015625, 0.30908203125, -0.794921875
342, 2352555834, -5.419002056121826, -2.7225961685180664, 7.66547966003418, 4.20189905166626, 8.630298614501953, 2.7201404571533203, 0.14501953125, 0.3076171875, -0.79248046875
343, 2352572501, -5.606907844543457, -2.4741954803466797, 7.966218948364258, 1.689587116241455, 9.325221061706543, 1.4465224742889404, 0.14501953125, 0.3076171875, -0.79736328125
344, 2352589168, -5.422788143157959, -2.2990617752075195, 7.916097164154053, -5.010869979858398, 9.601750373840332, -1.4937589168548584, 0.147216796875, 0.308349609375, -0.79296875
345, 2352605835, -5.162685871124268, -2.876699209213257, 7.529403209686279, -6.063285827636719, 11.781458854675293, -2.0187432765960693, 0.151611328125, 0.308837890625, -0.792236328125
346, 2352622502, -5.6383056640625, -2.917300224304199, 7.275952339172363, -4.5451812744140625, 11.840073585510254, -0.8181853890419006, 0.156005859375, 0.309326171875, -0.790283203125
347, 2352639169, -5.407049655914307, -2.9845917224884033, 7.229400157928467, -2.0420117378234863, 10.215468406677246, 1.1878341436386108, 0.156494140625, 0.311767578125, -0.789306640625
348, 2352655836, -5.554548740386963, -2.9639699459075928, 7.626373291015625, -0.9708240032196045, 9.467461585998535, 3.6586921215057373, 0.158935546875, 0.309326171875, -0.78955078125
349, 2352672503, -5.960491180419922, -2.6299026012420654, 7.541873455047607, -3.0860493183135986, 8.386157989501953, 3.536224842071533, 0.16064453125, 0.310791015625, -0.7900390625
350, 2352689170, -5.787678241729736, -2.587104558944702, 7.3442559242248535, -4.036946773529053, 7.022946357727051, 1.7633514404296875, 0.16552734375, 0.31103515625, -0.787109375
351, 2352705837, -5.394601821899414, -2.9402976036071777, 7.104986667633057, -1.708277702331543, 5.914761066436768, 3.039158582687378, 0.161865234375, 0.31298828125, -0.78857421875
352, 2352722504, -5.199291706085205, -3.1154162883758545, 7.068818092346191, 3.0069632530212402, 5.29561185836792, 6.813650608062744, 0.16748046875, 0.31103515625, -0.788330078125
353, 2352739171, -5.175256252288818, -2.9844655990600586, 7.228438854217529, 7.485746383666992, 5.436319351196289, 11.114954948425293, 0.16943359375, 0.307861328125, -0.788818359375
354, 2352755838, -5.400285720825195, -2.7538304328918457, 7.417137145996094, 9.264470100402832, 7.340044975280762, 13.952445030212402, 0.174560546875, 0.306396484375, -0.789794921875
355, 2352772505, -5.820955276489258, -2.2528884410858154, 7.671468734741211, 5.976954460144043, 11.151660919189453, 12.105478286743164, 0.177001953125, 0.302978515625, -0.788818359375
356, 2352789172, -5.66304874420166, -2.414128541946411, 7.606329441070557, -1.2682783603668213, 15.877787590026855, 11.172433853149414, 0.1806640625, 0.302001953125, -0.78857421875
357, 2352805839, -5.564149379730225, -2.5418291091918945, 7.781665802001953, -7.732480525970459, 20.69939613342285, 14.299651145935059, 0.18701171875, 0.302490234375, -0.785888671875
358, 2352822506, -5.458223342895508, -2.8452701568603516, 7.761046886444092, -12.535826683044434, 25.243099212646484, 18.404033660888672, 0.193603515625, 0.30615234375, -0.785400390625
359, 2352839173, -5.325349807739258, -2.60758376121521, 8.048596382141113, -4.386765480041504, 37.38050842285156, 18.680524826049805, 0.203125, 0.30322265625, -0.78173828125
360, 2352855840, -5.440280914306641, -2.595388412475586, 8.019275665283203, -3.388087034225464, 54.40149688720703, 17.49433708190918, 0.216552734375, 0.3037109375, -0.7783203125
361, 2352872507, -5.700965404510498, -2.1984548568725586, 8.201706886291504, -4.86985445022583, 74.03827667236328, 16.815942764282227, 0.2333984375, 0.302001953125, -0.771484375
362, 2352889174, -5.627252101898193, -2.4454002380371094, 8.139837265014648, -7.912893772125244, 94.759033203125, 16.81635856628418, 0.25439453125, 0.301513671875, -0.76416015625
363, 2352905841, -5.934915542602539, -2.446375608444214, 7.691005229949951, -15.004669189453125, 119.74147033691406, 18.93320655822754, 0.279296875, 0.30419921875, -0.75341796875
364, 2352922508, -5.966945171356201, -2.6227259635925293, 7.880058765411377, -21.759614944458008, 148.65414428710938, 24.989519119262695, 0.310791015625, 0.304443359375, -0.73828125
365, 2352939175, -5.727552890777588, -3.15358829498291, 8.342382431030273, -23.321748733520508, 184.9244842529297, 33.95222854614258, 0.35205078125, 0.307373046875, -0.719482421875
366, 2352955842, -5.873239994049072, -3.2532522678375244, 7.912829875946045, -23.675804138183594, 236.87451171875, 48.00482940673828, 0.39990234375, 0.306640625, -0.6875
367, 2352972509, -6.161561965942383, -5.098423957824707, 8.1444730758667, -18.07398796081543, 291.759033203125, 79.74290466308594, 0.461181640625, 0.300048828125, -0.6494140625
368, 2352989176, -8.56113052368164, -4.856032371520996, 9.916691780090332, -4.887185096740723, 333.4792785644531, 123.21022033691406, 0.5263671875, 0.28564453125, -0.598876953125
369, 2353005843, -12.6542329788208, -4.9124298095703125, 10.932918548583984, -11.587428092956543, 375.625244140625, 150.84315490722656, 0.597900390625, 0.2578125, -0.534423828125
370, 2353022510, -17.366352081298828, -4.997216701507568, 13.409035682678223, -26.904451370239258, 363.2388916015625, 141.1671142578125, 0.662109375, 0.234619140625, -0.462158203125
371, 2353039177, -20.98353385925293, -6.1409759521484375, 14.668848037719727, -31.69724464416504, 304.7978210449219, 132.86825561523438, 0.7099609375, 0.207763671875, -0.390380859375
372, 2353055844, -14.257848739624023, -5.950489044189453, 14.070394515991211, -36.15544891357422, 227.90130615234375, 122.36221313476562, 0.7421875, 0.185791015625, -0.332763671875
373, 2353072511, -1.5985820293426514, -8.317100524902344, 9.318650245666504, -0.15531979501247406, 195.78713989257812, 128.2587890625, 0.764892578125, 0.153564453125, -0.283447265625
374, 2353089178, -16.30889892578125, -13.407856941223145, 19.76692008972168, 16.885852813720703, 151.57041931152344, 63.01823043823242, 0.78076171875, 0.1298828125, -0.23876953125
375, 2353105845, -8.198343276977539, -13.31234359741211, 18.446758270263672, 65.94908142089844, -22.873857498168945, -18.90021514892578, 0.78173828125, 0.1259765625, -0.231689453125
376, 2353122512, 1.6118135452270508, -7.824582576751709, 11.43511962890625, 117.16070556640625, -98.78108978271484, -53.862361907958984, 0.77294921875, 0.12353515625, -0.247314453125
377, 2353139179, 4.043229103088379, -3.0153536796569824, 8.322365760803223, 128.6816864013672, -111.26020050048828, -58.50026321411133, 0.768798828125, 0.125, -0.26416015625
378, 2353155846, 3.3484790325164795, -0.02069496363401413, 7.733146667480469, 98.8037338256836, -112.08505249023438, -59.06797409057617, 0.768310546875, 0.126953125, -0.283203125
379, 2353172513, 1.500418782234192, 0.8719209432601929, 8.010607719421387, 46.788848876953125, -115.9120101928711, -57.777130126953125, 0.7763671875, 0.131103515625, -0.300537109375
380, 2353189180, -0.953423261642456, -0.27068662643432617, 8.407743453979492, 8.000207901000977, -131.02972412109375, -47.35872268676758, 0.78662109375, 0.141845703125, -0.3310546875
381, 2353205847, -4.185791969299316, -1.3584119081497192, 9.193442344665527, -9.319931030273438, -160.3760528564453, -36.309879302978516, 0.79833984375, 0.152099609375, -0.376220703125
382, 2353222514, -6.929176330566406, -2.102916717529297, 9.407015800476074, -18.30150604248047, -201.36029052734375, -35.075435638427734, 0.791259765625, 0.165283203125, -0.45068359375
383, 2353239181, -8.069599151611328, -2.6594340801239014, 8.617082595825195, -22.938024520874023, -240.75515747070312, -40.48977279663086, 0.750732421875, 0.1796875, -0.536376953125
384, 2353255848, -8.471200942993164, -3.2425765991210938, 7.870408058166504, -24.359468460083008, -264.357177734375, -47.822593688964844, 0.682373046875, 0.185791015625, -0.611572265625
385, 2353272515, -9.859235763549805, -3.682677984237671, 8.34760570526123, -29.09064292907715, -275.74658203125, -61.08551788330078, 0.6064453125, 0.199951171875, -0.666259765625
386, 2353289182, -11.457701683044434, -4.699941158294678, 8.82943058013916, -35.203125, -288.1115417480469, -83.73494720458984, 0.540283203125, 0.221923828125, -0.697509765625
387, 2353305849, -11.550464630126953, -5.339583396911621, 8.563725471496582, -29.658689498901367, -295.1353454589844, -106.75988006591797, 0.484130859375, 0.252197265625, -0.73583984375
388, 2353322516, -11.409819602966309, -4.379885673522949, 8.49024486541748, -24.81243324279785, -283.0359191894531, -122.05376434326172, 0.419677734375, 0.285888671875, -0.78857421875
389, 2353339183, -12.844680786132812, -3.480708360671997, 9.603403091430664, -32.14140319824219, -257.2420349121094, -127.15225219726562, 0.329833984375, 0.323974609375, -0.83447265625
390, 2353355850, -17.264690399169922, -2.868178367614746, 11.856785774230957, -53.37904357910156, -238.95677185058594, -132.74526977539062, 0.221435546875, 0.348876953125, -0.85400390625
391, 2353372517, -22.753684997558594, -2.995023250579834, 11.644977569580078, -74.02313995361328, -250.6775360107422, -149.42066955566406, 0.121826171875, 0.368408203125, -0.842041015625
392, 2353389184, -24.61296844482422, -4.589476108551025, 7.611902713775635, -51.775455474853516, -278.16937255859375, -150.02459716796875, 0.02685546875, 0.377197265625, -0.822265625
393, 2353405851, -24.262733459472656, -3.329331398010254, 2.8536899089813232, 1.6876064538955688, -290.6974792480469, -114.90840911865234, -0.054931640625, 0.371337890625, -0.806396484375
394, 2353422518, -23.44927215576172, 1.4636461734771729, -1.0599761009216309, 9.082379341125488, -276.4450378417969, -75.41075897216797, -0.1298828125, 0.361572265625, -0.792236328125
395, 2353439185, -23.845226287841797, 6.140828609466553, -6.878771781921387, -35.02582931518555, -232.0517120361328, -44.33884048461914, -0.183349609375, 0.359130859375, -0.775390625
396, 2353455852, -27.977861404418945, 10.810989379882812, -14.387434005737305, -85.8713150024414, -161.06101989746094, -21.795124053955078, -0.220458984375, 0.369873046875, -0.7509765625
397, 2353472519, -21.574398040771484, 7.86973237991333, -18.32097053527832, -66.79141235351562, -45.43941879272461, 35.49668502807617, -0.236083984375, 0.38623046875, -0.7353515625
398, 2353489186, -18.338144302368164, 6.640417575836182, -15.253771781921387, 30.754777908325195, 113.2872314453125, 148.25721740722656, -0.209228515625, 0.385986328125, -0.7373046875
399, 2353505853, -10.918761253356934, -9.139139175415039, 9.469287872314453, 37.67990493774414, 163.22364807128906, 148.51565551757812, -0.159423828125, 0.386474609375, -0.744384765625
400, 2353522520, -6.336082458496094, -15.55318546295166, 10.024725914001465, 59.41070556640625, 109.81595611572266, 85.400390625, -0.12109375, 0.37158203125, -0.75146484375
401, 2353539187, -5.025494575500488, -1.441593885421753, 6.0065155029296875, 48.1313591003418, 174.99928283691406, 32.86039733886719, -0.085205078125, 0.36083984375, -0.75830078125
402, 2353555854, -14.28039836883545, 4.557546615600586, 16.258502960205078, 25.11123275756836, 170.5290069580078, 22.410099029541016, -0.04248046875, 0.352294921875, -0.761474609375
403, 2353572521, -10.994998931884766, 1.1457563638687134, 12.042924880981445, 1.3554686307907104, 112.61297607421875, 57.95778274536133, -0.01025390625, 0.35009765625, -0.756103515625
404, 2353589188, -8.281561851501465, -8.213181495666504, 6.728167533874512, -0.14332176744937897, 99.2221908569336, 43.1943473815918, 0.013916015625, 0.34814453125, -0.754638671875
405, 2353605855, -14.955344200134277, -7.067052364349365, 10.987534523010254, 55.3990364074707, 73.67108154296875, 38.29937744140625, 0.036865234375, 0.337890625, -0.755615234375
406, 2353622522, -6.598202228546143, -0.7331764698028564, 8.404414176940918, 32.662147521972656, 25.829246520996094, 24.414363861083984, 0.044921875, 0.328857421875, -0.758544921875
407, 2353639189, -6.579193115234375, -2.2988085746765137, 8.682443618774414, 29.52703094482422, 17.92950439453125, 17.40916633605957, 0.052734375, 0.32080078125, -0.7607421875
408, 2353655856, -6.265408515930176, -2.709611654281616, 8.094057083129883, 19.11148452758789, 8.417289733886719, 11.363359451293945, 0.0546875, 0.31494140625, -0.763671875
409, 2353672523, -5.643805027008057, -2.79531192779541, 7.894569396972656, 17.197307586669922, 7.222836971282959, 9.503497123718262, 0.058349609375, 0.3125, -0.761962890625
410, 2353689190, -5.680996894836426, -2.541332960128784, 7.977867126464844, 14.070958137512207, 5.544776916503906, 7.446828842163086, 0.061279296875, 0.307373046875, -0.765869140625
411, 2353705857, -5.712146282196045, -2.170943021774292, 8.212799072265625, 7.323281764984131, 7.128369331359863, 3.7038605213165283, 0.061279296875, 0.304931640625, -0.761962890625
412, 2353722524, -5.286003589630127, -2.432318925857544, 7.9225945472717285, 1.7022011280059814, 8.474647521972656, 1.9665369987487793, 0.062744140625, 0.303466796875, -0.763916015625
413, 2353739191, -5.528879642486572, -2.879563570022583, 7.478213787078857, -0.4092654287815094, 9.529764175415039, 1.718388557434082, 0.06640625, 0.305908203125, -0.761962890625
414, 2353755858, -5.495345115661621, -3.0801126956939697, 7.234555244445801, 1.2388290166854858, 8.752970695495605, 3.1161508560180664, 0.06884765625, 0.303955078125, -0.763671875
415, 2353772525, -5.4321136474609375, -3.052077293395996, 7.22934627532959, 4.237782955169678, 7.505836486816406, 5.278069019317627, 0.06982421875, 0.305419921875, -0.764892578125
416, 2353789192, -5.423880577087402, -2.9183406829833984, 7.335798740386963, 7.401223182678223, 6.594728946685791, 7.410328388214111, 0.07275390625, 0.303466796875, -0.76318359375
417, 2353805859, -5.715714931488037, -2.4414939880371094, 7.784090518951416, 7.400543212890625, 6.033054828643799, 7.7653584480285645, 0.076416015625, 0.298095703125, -0.76171875
418, 2353822526, -5.73151969909668, -2.675835371017456, 7.590531349182129, 4.757003307342529, 6.247713565826416, 5.59514045715332, 0.078857421875, 0.298583984375, -0.762939453125
419, 2353839193, -5.839727878570557, -2.788799524307251, 7.296480655670166, 5.274634838104248, 3.9832937717437744, 5.28531551361084, 0.076904296875, 0.297119140625, -0.76318359375
420, 2353855860, -5.704225063323975, -2.826103448867798, 7.27916145324707, 7.86699914932251, 0.16212201118469238, 5.907410144805908, 0.0810546875, 0.29541015625, -0.763427734375
421, 2353872527, -5.614821910858154, -2.5966105461120605, 7.4993062019348145, 8.7918119430542, -1.9280604124069214, 6.981723785400391, 0.077880859375, 0.29443359375, -0.7666015625
422, 2353889194, -5.513136386871338, -2.503084182739258, 7.684075832366943, 7.259186744689941, -0.793417751789093, 7.243010997772217, 0.0791015625, 0.291015625, -0.76611328125
423, 2353905861, -5.485254287719727, -2.313753128051758, 7.7909159660339355, 4.411218643188477, 3.0784101486206055, 7.484537601470947, 0.08349609375, 0.286376953125, -0.764404296875
424, 2353922528, -5.524468898773193, -2.2512199878692627, 7.709021091461182, 0.6887321472167969, 8.78077220916748, 5.9105610847473145, 0.08447265625, 0.286376953125, -0.762451171875
425, 2353939195, -5.490081787109375, -2.3812801837921143, 7.574531555175781, -3.8156800270080566, 14.170600891113281, 6.481637477874756, 0.087646484375, 0.28564453125, -0.76318359375
426, 2353955862, -5.215510845184326, -2.606997489929199, 7.830824375152588, -9.34399127960205, 19.591724395751953, 9.772537231445312, 0.090576171875, 0.291015625, -0.7607421875
427, 2353972529, -5.141665935516357, -2.9344778060913086, 7.958873271942139, -15.375585556030273, 27.19565773010254, 14.663312911987305, 0.099853515625, 0.292236328125, -0.757568359375
428, 2353989196, -5.146913051605225, -2.2441656589508057, 8.246871948242188, -7.490845203399658, 47.08307647705078, 13.629334449768066, 0.1083984375, 0.294189453125, -0.7568359375
429, 2354005863, -5.296818733215332, -2.025049924850464, 8.355145454406738, -12.837257385253906, 68.05008697509766, 11.517803192138672, 0.123779296875, 0.29296875, -0.752197265625
430, 2354022530, -5.146759510040283, -2.3200645446777344, 8.538861274719238, -20.182741165161133, 93.88410186767578, 11.010090827941895, 0.144775390625, 0.299072265625, -0.748291015625
431, 2354039197, -4.860556125640869, -2.6482748985290527, 8.684916496276855, -26.570566177368164, 126.20337677001953, 14.620641708374023, 0.172119140625, 0.30078125, -0.738525390625
432, 2354055864, -4.928784370422363, -3.0070552825927734, 8.762920379638672, -43.72185134887695, 169.1548614501953, 27.077571868896484, 0.205810546875, 0.31005859375, -0.722900390625
433, 2354072531, -4.441493988037109, -4.132654190063477, 9.870205879211426, -57.98978042602539, 231.15582275390625, 47.899070739746094, 0.253173828125, 0.3154296875, -0.704833984375
434, 2354089198, -4.475780010223389, -4.39546012878418, 9.574020385742188, -55.11210250854492, 316.4320373535156, 78.21513366699219, 0.3173828125, 0.321044921875, -0.670166015625
435, 2354105865, -7.246315002441406, -5.985099792480469, 11.346842765808105, -48.92302703857422, 409.06903076171875, 122.29511260986328, 0.401611328125, 0.316162109375, -0.6181640625
436, 2354122532, -11.537656784057617, -4.212099552154541, 12.71656608581543, -39.5391731262207, 457.06939697265625, 164.50906372070312, 0.4912109375, 0.299072265625, -0.551025390625
437, 2354139199, -22.89240264892578, -10.22304916381836, 15.362617492675781, -49.144744873046875, 432.66131591796875, 162.29461669921875, 0.5751953125, 0.276123046875, -0.4677734375
438, 2354155866, -22.49055290222168, -7.799663066864014, 16.524211883544922, -36.697750091552734, 310.7619323730469, 171.8572540283203, 0.641357421875, 0.246826171875, -0.402099609375
439, 2354172533, -8.732136726379395, -8.461987495422363, 13.27199649810791, -20.763898849487305, 243.58279418945312, 177.26292419433594, 0.684326171875, 0.21240234375, -0.34521484375
440, 2354189200, -7.459457874298096, -17.661331176757812, 18.17624855041504, 38.24567413330078, 196.07533264160156, 137.8189239501953, 0.71826171875, 0.1689453125, -0.300537109375
441, 2354205867, -13.462135314941406, -17.048789978027344, 25.839305877685547, 91.5426254272461, 6.100096225738525, 7.740792751312256, 0.728515625, 0.149658203125, -0.2822265625
442, 2354222534, 1.8265798091888428, -9.019163131713867, 16.20829200744629, 137.67559814453125, -126.0049819946289, -54.75023651123047, 0.722900390625, 0.13818359375, -0.30322265625
443, 2354239201, 6.593086242675781, -2.73563551902771, 10.459394454956055, 144.4713897705078, -144.41519165039062, -61.04267120361328, 0.71337890625, 0.132568359375, -0.33544921875
444, 2354255868, 4.829351902008057, 0.902772843837738, 9.267156600952148, 106.83540344238281, -143.3230438232422, -57.18268585205078, 0.70556640625, 0.129150390625, -0.3681640625
445, 2354272535, 1.7630280256271362, 1.5075905323028564, 9.061189651489258, 48.734928131103516, -156.59259033203125, -50.533382415771484, 0.698974609375, 0.1337890625, -0.399169921875
446, 2354289202, -0.6753168106079102, 0.04753122851252556, 8.380725860595703, 9.74728012084961, -183.0623016357422, -33.782833099365234, 0.6845703125, 0.140625, -0.445068359375
447, 2354305869, -3.1717629432678223, -1.1330068111419678, 8.208137512207031, -5.816837787628174, -213.04055786132812, -15.884799003601074, 0.654541015625, 0.148193359375, -0.496337890625
448, 2354322536, -5.872269630432129, -1.7488422393798828, 8.202254295349121, -19.63300323486328, -244.8594207763672, -10.759242057800293, 0.603515625, 0.158935546875, -0.5517578125
449, 2354339203, -7.509702205657959, -2.6468656063079834, 7.728540897369385, -35.35068130493164, -274.7387390136719, -17.76839828491211, 0.529541015625, 0.168701171875, -0.596435546875
450, 2354355870, -8.67277717590332, -3.6483383178710938, 7.200541973114014, -46.58998107910156, -296.34136962890625, -31.310720443725586, 0.447265625, 0.173583984375, -0.622802734375
451, 2354372537, -9.948230743408203, -4.450977802276611, 7.415395259857178, -55.596031188964844, -307.1796875, -51.33915710449219, 0.368408203125, 0.172607421875, -0.62939453125
452, 2354389204, -10.915606498718262, -3.989506959915161, 8.31039047241211, -66.70530700683594, -310.3141784667969, -82.31973266601562, 0.304443359375, 0.158203125, -0.619873046875
453, 2354405871, -11.329943656921387, -2.5300347805023193, 9.135273933410645, -91.3997802734375, -300.528564453125, -113.11096954345703, 0.276123046875, 0.136962890625, -0.595703125
454, 2354422538, -14.560572624206543, -2.594911575317383, 9.294716835021973, -112.09119415283203, -281.95989990234375, -124.14139556884766, 0.305908203125, 0.118408203125, -0.593505859375
455, 2354439205, -21.552648544311523, -3.1321752071380615, 10.762811660766602, -127.05748748779297, -265.6642150878906, -128.69346618652344, 0.372314453125, 0.144775390625, -0.648193359375
456, 2354455872, -28.202228546142578, -5.453680038452148, 8.237330436706543, -125.85964965820312, -281.7698669433594, -148.59912109375, 0.3857421875, 0.228271484375, -0.75390625
457, 2354472539, -29.203643798828125, -8.473945617675781, 2.671771764755249, -58.25394058227539, -290.6957092285156, -153.32421875, 0.30908203125, 0.323486328125, -0.85205078125
458, 2354489206, -28.12510108947754, 0.03622414544224739, -1.845941424369812, -2.014540910720825, -260.30242919921875, -149.57521057128906, 0.189208984375, 0.389892578125, -0.89990234375
459, 2354505873, -25.166149139404297, 8.574822425842285, -8.417451858520508, -38.71593475341797, -185.87554931640625, -162.67495727539062, 0.081787109375, 0.434814453125, -0.905517578125
460, 2354522540, -28.20328712463379, 9.926836967468262, -18.26900863647461, -29.056922912597656, -82.94743347167969, -152.8313751220703, 0.008544921875, 0.46875, -0.898193359375
461, 2354539207, -29.867143630981445, 16.379684448242188, -27.796146392822266, 49.03776168823242, 91.00285339355469, -24.2855167388916, -0.0029296875, 0.47314453125, -0.906494140625
462, 2354555874, -8.419100761413574, 2.688753128051758, -0.7188000679016113, 40.915802001953125, 208.50299072265625, 100.99960327148438, 0.052978515625, 0.475341796875, -0.91748046875
463, 2354572541, -11.726011276245117, -13.446165084838867, 19.40930938720703, 93.32237243652344, 122.69775390625, 112.29804229736328, 0.10693359375, 0.461181640625, -0.934814453125
464, 2354589208, -3.665583372116089, -1.711025595664978, 2.3636796474456787, 69.8280029296875, 142.95761108398438, 91.46454620361328, 0.148681640625, 0.446533203125, -0.94580078125
465, 2354605875, -14.477347373962402, -1.0468847751617432, 15.847761154174805, 42.931724548339844, 183.16708374023438, 36.04222869873047, 0.2021484375, 0.4384765625, -0.942626953125
466, 2354622542, -12.312129974365234, 5.9359588623046875, 14.05535888671875, 16.785863876342773, 125.28594207763672, 39.13114547729492, 0.243896484375, 0.438232421875, -0.939453125
467, 2354639209, -9.751898765563965, -7.071167945861816, 10.428170204162598, 3.738734722137451, 92.21050262451172, 58.83843994140625, 0.27783203125, 0.442138671875, -0.933837890625
468, 2354655876, -12.824304580688477, -7.502021789550781, 4.377408981323242, 63.332061767578125, 40.544586181640625, 35.868465423583984, 0.295654296875, 0.423583984375, -0.940673828125
469, 2354672543, -8.347025871276855, -0.32611584663391113, 11.18927001953125, 43.77939224243164, 17.000165939331055, 27.41312599182129, 0.30712890625, 0.41015625, -0.94384765625
470, 2354689210, -6.166032791137695, -1.9489959478378296, 8.395291328430176, 34.5927619934082, 3.9687416553497314, 18.549516677856445, 0.309814453125, 0.398193359375, -0.94970703125
471, 2354705877, -6.153392314910889, -1.8056049346923828, 8.493741989135742, 23.96329689025879, -3.2013652324676514, 12.534074783325195, 0.31201171875, 0.39404296875, -0.95166015625
472, 2354722544, -5.617941856384277, -2.0826456546783447, 8.256016731262207, 19.815601348876953, -4.811584949493408, 10.045734405517578, 0.31396484375, 0.386962890625, -0.9560546875
473, 2354739211, -5.449099540710449, -2.485867977142334, 7.737330436706543, 16.02465057373047, -4.321930885314941, 8.109624862670898, 0.311279296875, 0.380126953125, -0.957763671875
474, 2354755878, -5.447789192199707, -2.015439748764038, 8.19050407409668, 8.974225044250488, 0.909014105796814, 4.115391731262207, 0.311279296875, 0.37646484375, -0.958251953125
475, 2354772545, -5.498959064483643, -2.241765260696411, 7.984919548034668, 3.5263760089874268, 4.224910736083984, 0.9813058972358704, 0.313720703125, 0.37646484375, -0.961181640625
476, 2354789212, -5.414539813995361, -2.4381282329559326, 7.714829921722412, 2.1092381477355957, 5.876610279083252, 0.5208278894424438, 0.315185546875, 0.37548828125, -0.9599609375
477, 2354805879, -5.386500358581543, -2.4803948402404785, 7.613856792449951, 2.9253997802734375, 5.476924896240234, 1.4499160051345825, 0.316650390625, 0.375, -0.9609375
478, 2354822546, -5.371313571929932, -2.572052240371704, 7.5433573722839355, 3.411336898803711, 4.444079875946045, 2.04897141456604, 0.318359375, 0.37353515625, -0.96142578125
479, 2354839213, -5.292088985443115, -2.514998435974121, 7.615056037902832, 5.246065139770508, 2.6065731048583984, 3.9135639667510986, 0.3212890625, 0.37109375, -0.9619140625
480, 2354855880, -5.565570831298828, -2.346583366394043, 7.6574578285217285, 6.133327007293701, 1.5747907161712646, 4.479783058166504, 0.32080078125, 0.37158203125, -0.9599609375
481, 2354872547, -5.505767822265625, -2.5197858810424805, 7.635565757751465, 7.666965007781982, -0.9109669923782349, 5.12098503112793, 0.3212890625, 0.367431640625, -0.96142578125
482, 2354889214, -5.586331844329834, -2.4259989261627197, 7.622447490692139, 9.148341178894043, -3.45866322517395, 5.9266462326049805, 0.323486328125, 0.365966796875, -0.96435546875
483, 2354905881, -5.536378860473633, -2.2077476978302, 7.824882507324219, 7.549735069274902, -4.055054187774658, 4.7923102378845215, 0.32080078125, 0.363525390625, -0.967041015625
484, 2354922548, -5.514420032501221, -2.0817837715148926, 7.868249893188477, 5.377712726593018, -3.028932571411133, 3.8936240673065186, 0.3193359375, 0.362060546875, -0.966552734375
485, 2354939215, -5.386865139007568, -2.19427752494812, 7.7800679206848145, 3.6412618160247803, -0.9742559790611267, 3.311062812805176, 0.31787109375, 0.3603515625, -0.967041015625
486, 2354955882, -5.2819719314575195, -2.3316891193389893, 7.697566986083984, 4.199656963348389, 0.6482766270637512, 5.304819583892822, 0.320068359375, 0.357421875, -0.96728515625
487, 2354972549, -5.153343200683594, -2.4245779514312744, 7.686115264892578, 5.475708961486816, 1.2517763376235962, 7.956593990325928, 0.322998046875, 0.35791015625, -0.96728515625
488, 2354989216, -5.148462295532227, -2.3299560546875, 7.809050559997559, 4.990667819976807, 3.971909999847412, 9.878264427185059, 0.326171875, 0.3515625, -0.9677734375
489, 2355005883, -5.047016620635986, -2.3725342750549316, 7.996668815612793, 2.056208610534668, 9.922043800354004, 12.332379341125488, 0.32763671875, 0.3515625, -0.96923828125
490, 2355022550, -5.197970867156982, -2.3227603435516357, 7.9471049308776855, -1.4635511636734009, 18.849082946777344, 15.74211597442627, 0.334716796875, 0.349609375, -0.963623046875
491, 2355039217, -4.871310234069824, -2.183574676513672, 8.500977516174316, -6.5334601402282715, 31.442153930664062, 18.755125045776367, 0.342529296875, 0.35205078125, -0.962890625
492, 2355055884, -4.825885772705078, -1.743529200553894, 8.838275909423828, -4.154793739318848, 51.035701751708984, 17.127113342285156, 0.35595703125, 0.351806640625, -0.95654296875
493, 2355072551, -4.888359546661377, -1.6193774938583374, 8.859150886535645, -9.779356002807617, 78.5884017944336, 14.180633544921875, 0.376953125, 0.3564453125, -0.946044921875
494, 2355089218, -4.933708190917969, -1.6406267881393433, 9.067159652709961, -17.341632843017578, 113.16584014892578, 12.436553001403809, 0.40625, 0.357177734375, -0.9326171875
495, 2355105885, -4.92563533782959, -2.3695785999298096, 9.004570007324219, -26.949052810668945, 153.21141052246094, 17.711477279663086, 0.444091796875, 0.361328125, -0.90869140625
496, 2355122552, -4.678236484527588, -2.942110538482666, 9.802454948425293, -32.06584167480469, 201.70652770996094, 33.85922622680664, 0.495849609375, 0.365966796875, -0.877685546875
497, 2355139219, -4.377445220947266, -3.8287270069122314, 9.971473693847656, -34.22215270996094, 277.2630615234375, 55.14567184448242, 0.5595703125, 0.367919921875, -0.8291015625
498, 2355155886, -5.001450538635254, -6.025144577026367, 10.277172088623047, -22.721960067749023, 363.27301025390625, 104.40460205078125, 0.642578125, 0.361328125, -0.7626953125
499, 2355172553, -7.764378070831299, -5.0966315269470215, 11.540072441101074, -19.41944694519043, 423.4757080078125, 166.1061553955078, 0.743408203125, 0.33837890625, -0.673095703125
500, 2355189220, -16.388456344604492, -5.279038906097412, 14.794034004211426, -45.1532096862793, 451.14404296875, 196.09854125976562, 0.838134765625, 0.30078125, -0.5615234375
501, 2355205887, -21.107563018798828, -8.179338455200195, 16.4415283203125, -62.366485595703125, 410.9720764160156, 181.24221801757812, 0.910400390625, 0.262451171875, -0.44091796875
502, 2355222554, -18.913196563720703, -7.602913856506348, 16.199195861816406, -54.08305740356445, 318.09930419921875, 179.78424072265625, 0.951416015625, 0.21923828125, -0.3427734375
503, 2355239221, -4.741422176361084, -9.089353561401367, 14.259133338928223, -37.9681282043457, 256.7575378417969, 188.57479858398438, 0.97119140625, 0.173095703125, -0.266357421875
504, 2355255888, -11.414605140686035, -20.884923934936523, 17.698787689208984, 25.277517318725586, 216.16970825195312, 103.73191833496094, 0.982177734375, 0.13720703125, -0.20361328125
505, 2355272555, -12.667272567749023, -18.41718101501465, 22.687435150146484, 82.12186431884766, 7.658056735992432, -44.77879333496094, 0.972900390625, 0.147216796875, -0.199462890625
506, 2355289222, 1.4904932975769043, -9.627023696899414, 13.567940711975098, 132.08612060546875, -102.961181640625, -110.28234100341797, 0.94970703125, 0.17626953125, -0.234619140625
507, 2355305889, 4.586774826049805, -2.9468038082122803, 9.09860897064209, 133.16754150390625, -119.09964752197266, -122.49541473388672, 0.921630859375, 0.208251953125, -0.27978515625
508, 2355322556, 2.892388105392456, 0.0980578139424324, 8.134971618652344, 96.64472961425781, -121.72293090820312, -125.72232055664062, 0.894287109375, 0.23876953125, -0.32373046875
509, 2355339223, 0.22652126848697662, 1.0315613746643066, 7.974674224853516, 52.08163070678711, -136.06541442871094, -123.76970672607422, 0.86181640625, 0.27587890625, -0.371826171875
510, 2355355890, -1.644005298614502, 0.8006424903869629, 7.792932987213135, 22.28087043762207, -159.09962463378906, -109.85350799560547, 0.826416015625, 0.310302734375, -0.42138671875
511, 2355372557, -3.8804235458374023, 0.30715063214302063, 8.070968627929688, 9.524639129638672, -186.7099609375, -90.15879821777344, 0.7822265625, 0.34033203125, -0.4755859375
512, 2355389224, -6.573740482330322, -0.009509740397334099, 8.514925003051758, 3.9211835861206055, -223.61216735839844, -75.10826110839844, 0.72314453125, 0.359619140625, -0.53515625
513, 2355405891, -7.809737682342529, -0.34304219484329224, 8.285372734069824, -1.2920502424240112, -264.4779968261719, -64.9556884765625, 0.65087890625, 0.364501953125, -0.59228515625
514, 2355422558, -8.222012519836426, -0.8895344138145447, 8.029034614562988, -8.488663673400879, -293.5745544433594, -56.731143951416016, 0.570556640625, 0.364990234375, -0.645751953125
515, 2355439225, -9.850933074951172, -1.4740809202194214, 8.506206512451172, -23.781375885009766, -311.30828857421875, -56.5075798034668, 0.48486328125, 0.3623046875, -0.6884765625
516, 2355455892, -11.329046249389648, -1.9033149480819702, 8.552457809448242, -48.93952560424805, -327.8695983886719, -64.7144546508789, 0.39208984375, 0.360107421875, -0.713134765625
517, 2355472559, -11.688232421875, -2.0971603393554688, 8.683063507080078, -78.2940902709961, -329.83740234375, -69.69575500488281, 0.301025390625, 0.354736328125, -0.721923828125
518, 2355489226, -14.248688697814941, -3.1510238647460938, 9.818666458129883, -105.91014862060547, -316.63507080078125, -69.39710998535156, 0.230224609375, 0.35302734375, -0.709228515625
519, 2355505893, -18.457632064819336, -6.835675239562988, 9.973546981811523, -107.82239532470703, -302.46771240234375, -69.79275512695312, 0.169677734375, 0.358154296875, -0.702392578125
520, 2355522560, -23.90680503845215, -7.529601097106934, 9.053417205810547, -79.49418640136719, -287.2809143066406, -91.10043334960938, 0.121826171875, 0.360107421875, -0.698974609375
521, 2355539227, -27.339984893798828, -6.315701961517334, 5.680951118469238, -56.297607421875, -274.6454772949219, -125.14339447021484, 0.07470703125, 0.36767578125, -0.699951171875
522, 2355555894, -28.40399742126465, -3.5994932651519775, 0.5793686509132385, -22.642032623291016, -262.48779296875, -141.20501708984375, 0.02490234375, 0.370849609375, -0.7099609375
523, 2355572561, -25.74943733215332, 3.623910427093506, -4.882413387298584, -18.13332748413086, -227.8555908203125, -139.5050506591797, -0.027099609375, 0.371826171875, -0.720458984375
524, 2355589228, -27.256086349487305, 9.019990921020508, -10.93945598602295, -39.17516326904297, -162.72727966308594, -117.31168365478516, -0.071533203125, 0.378173828125, -0.7265625
525, 2355605895, -27.825912475585938, 12.06879997253418, -17.607927322387695, -32.05767822265625, -84.12907409667969, -66.6742172241211, -0.1025390625, 0.385009765625, -0.728271484375
526, 2355622562, -19.33058738708496, 10.345829963684082, -14.828743934631348, -2.887782335281372, 28.2984676361084, 24.361251831054688, -0.10205078125, 0.386962890625, -0.731201171875
527, 2355639229, -12.969724655151367, -0.7739989757537842, -5.012207508087158, 62.392581939697266, 142.9146270751953, 110.45933532714844, -0.06689453125, 0.379150390625, -0.739990234375
528, 2355655896, -9.198299407958984, -11.70738697052002, 14.335821151733398, 80.42031860351562, 148.95803833007812, 89.09786224365234, -0.017333984375, 0.361083984375, -0.75146484375
529, 2355672563, 0.5616102814674377, -7.703263282775879, 3.586059808731079, 87.11260986328125, 140.73997497558594, 52.87071990966797, 0.02197265625, 0.33984375, -0.764892578125
530, 2355689230, -7.571611404418945, 2.48382568359375, 10.89436149597168, 58.38606262207031, 203.29183959960938, 28.194868087768555, 0.074951171875, 0.32470703125, -0.770751953125
531, 2355705897, -16.369218826293945, 6.175382614135742, 16.964672088623047, 36.598838806152344, 169.90213012695312, 40.88379669189453, 0.12158203125, 0.310546875, -0.772216796875
532, 2355722564, -12.794414520263672, 2.925910711288452, 12.442166328430176, -2.479330539703369, 113.68456268310547, 64.71832275390625, 0.15966796875, 0.30517578125, -0.76904296875
533, 2355739231, -16.77600860595703, -14.71115493774414, 9.090042114257812, 42.450645446777344, 66.243896484375, 47.57441329956055, 0.1845703125, 0.296875, -0.766845703125
534, 2355755898, -6.678455352783203, 0.2575879395008087, 8.98682975769043, 48.43738555908203, 38.93055725097656, 32.007415771484375, 0.1982421875, 0.284912109375, -0.76953125
535, 2355772565, -6.448756694793701, -3.7966649532318115, 7.161562919616699, 37.42966842651367, 14.644847869873047, 21.542247772216797, 0.201904296875, 0.2734375, -0.77392578125
536, 2355789232, -6.458050727844238, -1.7656053304672241, 8.750906944274902, 30.770517349243164, 5.625758171081543, 16.581024169921875, 0.208984375, 0.265869140625, -0.775634765625
537, 2355805899, -6.1687703132629395, -2.4592888355255127, 8.1002197265625, 23.09769630432129, 0.13551072776317596, 11.840874671936035, 0.212158203125, 0.256591796875, -0.777587890625
538, 2355822566, -5.5979485511779785, -2.3977134227752686, 8.004465103149414, 15.852529525756836, -1.3533381223678589, 8.8754301071167, 0.21240234375, 0.25146484375, -0.778564453125
539, 2355839233, -5.864178657531738, -1.8818206787109375, 8.339263916015625, 6.803330421447754, 3.099412679672241, 4.934012413024902, 0.21484375, 0.25146484375, -0.779052734375
540, 2355855900, -5.684500217437744, -2.0683016777038574, 8.1520357131958, -1.9348094463348389, 8.714934349060059, 0.3112648129463196, 0.21630859375, 0.248046875, -0.779541015625
541, 2355872567, -5.496147632598877, -2.4945366382598877, 7.7409844398498535, -4.773684024810791, 10.578812599182129, -0.516864538192749, 0.21923828125, 0.24951171875, -0.77783203125
542, 2355889234, -5.5067219734191895, -2.8791542053222656, 7.41995096206665, -3.7770800590515137, 10.470711708068848, 1.1909973621368408, 0.2216796875, 0.25244140625, -0.7763671875
543, 2355905901, -5.566450119018555, -2.932396411895752, 7.2149834632873535, 0.4523908197879791, 7.415460586547852, 3.1705775260925293, 0.22314453125, 0.2529296875, -0.77734375
544, 2355922568, -5.547991752624512, -2.7740426063537598, 7.362449645996094, 4.663619041442871, 3.905649423599243, 6.706360816955566, 0.228271484375, 0.25, -0.775146484375
545, 2355939235, -5.757369518280029, -2.60528302192688, 7.441124439239502, 8.120004653930664, -0.24020884931087494, 8.592738151550293, 0.226806640625, 0.24951171875, -0.77685546875
546, 2355955902, -5.632219314575195, -2.5328147411346436, 7.528006076812744, 7.090808391571045, -1.4992783069610596, 7.056512832641602, 0.228271484375, 0.24560546875, -0.7783203125
547, 2355972569, -5.646548748016357, -2.475985050201416, 7.574199199676514, 7.311666488647461, -2.1957390308380127, 7.248517990112305, 0.228271484375, 0.24462890625, -0.774658203125
548, 2355989236, -5.628184795379639, -2.431211471557617, 7.52783203125, 6.408703804016113, -2.6734163761138916, 6.802870273590088, 0.227783203125, 0.244140625, -0.77734375
549, 2356005903, -5.458612442016602, -2.347355365753174, 7.719255447387695, 4.201936721801758, -0.48162129521369934, 6.319325923919678, 0.228515625, 0.240478515625, -0.778564453125
550, 2356022570, -5.215882778167725, -2.523172616958618, 7.817403793334961, 1.4062336683273315, 3.7615909576416016, 8.144834518432617, 0.2294921875, 0.239013671875, -0.778564453125
551, 2356039237, -5.277595043182373, -2.740222454071045, 7.610414505004883, 0.21261756122112274, 8.486292839050293, 12.657490730285645, 0.23193359375, 0.238037109375, -0.777587890625
552, 2356055904, -5.552267551422119, -2.384748935699463, 7.565523624420166, -3.0309345722198486, 11.99740982055664, 16.48430061340332, 0.2353515625, 0.235107421875, -0.778076171875
553, 2356072571, -5.277884483337402, -2.713026523590088, 7.845127582550049, -8.597796440124512, 15.918983459472656, 21.600841522216797, 0.240478515625, 0.235595703125, -0.77685546875
554, 2356089238, -5.222163200378418, -1.8821663856506348, 8.288920402526855, -0.9055920839309692, 29.760555267333984, 18.042219161987305, 0.247314453125, 0.235595703125, -0.774169921875
555, 2356105905, -5.022915363311768, -2.0024452209472656, 8.567830085754395, -5.965054988861084, 52.03119659423828, 13.994097709655762, 0.260498046875, 0.234619140625, -0.77099609375
556, 2356122572, -5.260990142822266, -1.654416799545288, 8.505642890930176, -11.275553703308105, 78.46124267578125, 11.8425931930542, 0.27734375, 0.236328125, -0.7666015625
557, 2356139239, -5.4431471824646, -1.6999471187591553, 8.3875150680542, -16.623003005981445, 106.04136657714844, 8.390314102172852, 0.30029296875, 0.237548828125, -0.756591796875
558, 2356155906, -5.41408634185791, -2.356954336166382, 8.343719482421875, -21.75383186340332, 135.6028289794922, 9.285511016845703, 0.326171875, 0.243408203125, -0.74267578125
559, 2356172573, -5.409923553466797, -2.9015018939971924, 8.579106330871582, -25.894330978393555, 170.06503295898438, 18.605039596557617, 0.36083984375, 0.248046875, -0.726318359375
560, 2356189240, -5.28359317779541, -3.1706273555755615, 8.234841346740723, -26.268569946289062, 214.41929626464844, 31.449472427368164, 0.4052734375, 0.2509765625, -0.698974609375
561, 2356205907, -5.463513374328613, -3.840871572494507, 8.803462028503418, -30.72232437133789, 275.6239929199219, 52.93239974975586, 0.4560546875, 0.251220703125, -0.666748046875
562, 2356222574, -6.226467132568359, -5.67850399017334, 9.953166007995605, -22.812053680419922, 345.66339111328125, 97.49901580810547, 0.52587890625, 0.2421875, -0.61767578125
563, 2356239241, -7.881704330444336, -4.98420524597168, 10.455991744995117, -19.049896240234375, 399.38299560546875, 146.06546020507812, 0.59814453125, 0.22412109375, -0.55517578125
564, 2356255908, -17.227025985717773, -6.847935676574707, 13.900596618652344, -24.9459285736084, 425.8138732910156, 167.5753631591797, 0.671630859375, 0.195068359375, -0.475830078125
565, 2356272575, -19.431882858276367, -4.95359992980957, 15.059654235839844, -30.900442123413086, 395.1952819824219, 154.6932373046875, 0.72900390625, 0.169189453125, -0.390625
566, 2356289242, -19.024187088012695, -6.9729838371276855, 15.949665069580078, -34.10921859741211, 325.8915710449219, 149.6368408203125, 0.770751953125, 0.13818359375, -0.32177734375
567, 2356305909, -9.205483436584473, -7.3188796043396, 15.279121398925781, -34.01588439941406, 258.8661193847656, 152.3155059814453, 0.79345703125, 0.108642578125, -0.260986328125
568, 2356322576, -4.592765808105469, -12.501214981079102, 15.278203010559082, -4.451544284820557, 228.81103515625, 131.7818145751953, 0.806396484375, 0.075439453125, -0.211669921875
569, 2356339243, -18.234983444213867, -17.601306915283203, 27.565643310546875, -8.44465446472168, 28.516155242919922, 3.412076473236084, 0.798583984375, 0.064208984375, -0.1953125
570, 2356355910, -1.4654998779296875, -13.772603034973145, 16.59662628173828, 59.66304016113281, -143.5207977294922, -72.30012512207031, 0.780517578125, 0.07421875, -0.226806640625
571, 2356372577, 4.426096439361572, -6.779510498046875, 10.20539379119873, 116.25009155273438, -175.45225524902344, -82.63507843017578, 0.752197265625, 0.08154296875, -0.260009765625
572, 2356389244, 3.4690937995910645, -2.245209217071533, 8.87757396697998, 115.56060028076172, -174.9532012939453, -82.55522918701172, 0.727294921875, 0.080810546875, -0.291748046875
573, 2356405911, 0.9255014061927795, -0.08143085241317749, 9.00326919555664, 72.01826477050781, -179.63235473632812, -93.53692626953125, 0.709716796875, 0.083740234375, -0.312744140625
574, 2356422578, -1.3472797870635986, -0.16122004389762878, 8.848282814025879, 26.057188034057617, -194.1905059814453, -97.6895980834961, 0.693115234375, 0.091796875, -0.333740234375
575, 2356439245, -4.262724876403809, -0.7954269051551819, 9.465323448181152, -1.6086926460266113, -218.4434814453125, -91.20606994628906, 0.6875, 0.104248046875, -0.361328125
576, 2356455912, -7.490235328674316, -1.2018193006515503, 9.740205764770508, -17.23141098022461, -259.5322570800781, -86.77508544921875, 0.687744140625, 0.12451171875, -0.404296875
577, 2356472579, -8.403375625610352, -1.4753694534301758, 8.638323783874512, -23.37449836730957, -302.1379699707031, -83.10113525390625, 0.684814453125, 0.15625, -0.481201171875
578, 2356489246, -8.243797302246094, -1.6227864027023315, 7.556556224822998, -24.610280990600586, -321.8777160644531, -76.07170867919922, 0.646240234375, 0.201904296875, -0.585693359375
579, 2356505913, -9.974234580993652, -1.591702938079834, 8.245787620544434, -35.915531158447266, -322.2759704589844, -73.31906127929688, 0.555908203125, 0.245849609375, -0.682861328125
580, 2356522580, -12.727677345275879, -1.5748631954193115, 10.201379776000977, -68.27608489990234, -323.1136169433594, -86.27305603027344, 0.4326171875, 0.280517578125, -0.7236328125
581, 2356539247, -16.283998489379883, -3.7431139945983887, 12.586982727050781, -103.28936767578125, -334.3939208984375, -111.02503967285156, 0.322509765625, 0.30517578125, -0.716552734375
582, 2356555914, -20.18297576904297, -8.454323768615723, 12.671841621398926, -92.9863510131836, -359.43585205078125, -133.03323364257812, 0.25048828125, 0.320556640625, -0.70166015625
583, 2356572581, -22.516765594482422, -7.881255626678467, 10.864821434020996, -49.14105987548828, -375.46478271484375, -157.18601989746094, 0.193115234375, 0.332275390625, -0.722900390625
584, 2356589248, -24.193851470947266, -4.240041732788086, 6.3499908447265625, -34.722023010253906, -360.3492126464844, -177.175537109375, 0.1220703125, 0.34423828125, -0.756103515625
585, 2356605915, -27.12832260131836, -4.440798759460449, 1.6409724950790405, -17.816394805908203, -322.9605712890625, -156.869140625, 0.03955078125, 0.35400390625, -0.790283203125
586, 2356622582, -28.35219383239746, -0.38850119709968567, -3.533580780029297, -16.762937545776367, -271.40411376953125, -129.19631958007812, -0.042236328125, 0.357421875, -0.8115234375
587, 2356639249, -29.659963607788086, 9.6964693069458, -12.26198959350586, -64.21387481689453, -185.0844268798828, -100.6134033203125, -0.108154296875, 0.364013671875, -0.81396484375
588, 2356655916, -33.75014114379883, 15.587590217590332, -22.607662200927734, -121.07918548583984, -62.00146484375, -75.59883880615234, -0.146484375, 0.39111328125, -0.81103515625
589, 2356672583, -24.775156021118164, 8.370357513427734, -20.060218811035156, -28.185697555541992, 104.12303161621094, 42.02561950683594, -0.138671875, 0.407470703125, -0.810791015625
590, 2356689250, -13.878680229187012, -2.6416101455688477, 5.365050315856934, 49.52857971191406, 181.71429443359375, 150.8166046142578, -0.0791015625, 0.39990234375, -0.8251953125
591, 2356705917, -8.473736763000488, -17.982906341552734, 11.373013496398926, 107.46180725097656, 89.85240173339844, 135.01390075683594, -0.035888671875, 0.381591796875, -0.839111328125
592, 2356722584, 0.9809112548828125, -4.880977630615234, 1.580228567123413, 102.0390625, 154.62925720214844, 89.482666015625, 0.00830078125, 0.35498046875, -0.856201171875
593, 2356739251, -9.959437370300293, 1.056567907333374, 13.559646606445312, 44.01207733154297, 218.8028106689453, 6.49468469619751, 0.06591796875, 0.33935546875, -0.8603515625
594, 2356755918, -14.285164833068848, 8.553056716918945, 16.255197525024414, 28.855424880981445, 163.96218872070312, 52.459537506103516, 0.116943359375, 0.331787109375, -0.864013671875
595, 2356772585, -10.527989387512207, -3.595872402191162, 10.584992408752441, 8.341451644897461, 112.31327056884766, 87.736572265625, 0.154296875, 0.32861328125, -0.86474609375
596, 2356789252, -9.108928680419922, -12.242884635925293, 6.76432991027832, 20.01730728149414, 110.92798614501953, 54.07374954223633, 0.189697265625, 0.323486328125, -0.86328125
597, 2356805919, -15.331063270568848, -0.45576635003089905, 10.718445777893066, 76.99479675292969, 51.54170608520508, 54.77842330932617, 0.213134765625, 0.300048828125, -0.8662109375
598, 2356822586, -6.918647289276123, -3.6370725631713867, 8.748100280761719, 49.872867584228516, 22.231300354003906, 34.92665100097656, 0.225830078125, 0.284912109375, -0.870849609375
599, 2356839253, -7.401971340179443, -1.7984260320663452, 9.018790245056152, 42.53474044799805, 12.599729537963867, 27.326210021972656, 0.23046875, 0.27001953125, -0.873291015625
600, 2356855920, -6.215121746063232, -2.3106768131256104, 8.334024429321289, 25.21382713317871, 0.8360459804534912, 16.208786010742188, 0.235107421875, 0.260498046875, -0.87451171875
601, 2356872587, -5.833855628967285, -1.9771969318389893, 8.277769088745117, 17.723373413085938, 2.228660821914673, 11.939438819885254, 0.235107421875, 0.25830078125, -0.879150390625
602, 2356889254, -5.666247367858887, -1.6202460527420044, 8.491584777832031, 9.264730453491211, 5.3172807693481445, 6.980759143829346, 0.23974609375, 0.25146484375, -0.88037109375
603, 2356905921, -5.67474365234375, -2.5089616775512695, 7.87466287612915, 2.439258098602295, 8.850988388061523, 2.744920015335083, 0.24169921875, 0.25146484375, -0.87646484375
604, 2356922588, -5.454302787780762, -3.1357789039611816, 7.362009525299072, 1.5325427055358887, 9.120101928710938, 2.8758909702301025, 0.244384765625, 0.24951171875, -0.875732421875
605, 2356939255, -5.449563026428223, -2.986743927001953, 7.408745288848877, 2.8360629081726074, 8.001967430114746, 5.43720006942749, 0.245849609375, 0.248046875, -0.875732421875
606, 2356955922, -5.714978218078613, -2.573007106781006, 7.4770660400390625, 3.907775402069092, 6.069756984710693, 6.440001487731934, 0.247314453125, 0.245849609375, -0.876220703125
607, 2356972589, -5.762495994567871, -2.2522852420806885, 7.533828258514404, 3.5185768604278564, 4.447536468505859, 4.512746810913086, 0.248779296875, 0.24755859375, -0.877197265625
608, 2356989256, -5.731049537658691, -2.4931106567382812, 7.463391304016113, 3.2057948112487793, 3.52449369430542, 2.074737787246704, 0.25439453125, 0.24560546875, -0.878662109375
609, 2357005923, -5.719866752624512, -2.6703503131866455, 7.388829708099365, 4.147202491760254, 1.59247624874115, 1.3676093816757202, 0.2529296875, 0.243896484375, -0.8759765625
610, 2357022590, -5.570524215698242, -2.919346332550049, 7.4007673263549805, 7.078242778778076, -1.9332468509674072, 3.0863497257232666, 0.25439453125, 0.248046875, -0.8740234375
611, 2357039257, -5.4975810050964355, -2.6882827281951904, 7.5887675285339355, 8.53322696685791, -4.77022647857666, 5.250534534454346, 0.25341796875, 0.240966796875, -0.881103515625
612, 2357055924, -5.42076301574707, -2.4664306640625, 7.724782943725586, 7.086928844451904, -4.288093090057373, 6.366136074066162, 0.25048828125, 0.236328125, -0.881103515625
613, 2357072591, -5.409968852996826, -2.2877960205078125, 7.776529788970947, 4.656408786773682, -0.9535866379737854, 6.611106872558594, 0.25244140625, 0.2353515625, -0.880615234375
614, 2357089258, -5.265149116516113, -2.353609323501587, 7.727344036102295, 2.178866386413574, 2.9710800647735596, 6.718231678009033, 0.253173828125, 0.23046875, -0.881103515625
615, 2357105925, -5.289199352264404, -2.5548901557922363, 7.678361415863037, 0.2696057856082916, 7.207845687866211, 7.545356273651123, 0.25341796875, 0.2333984375, -0.882568359375
616, 2357122592, -5.304739475250244, -2.619220495223999, 7.692396640777588, -0.6596684455871582, 11.58731746673584, 10.21013355255127, 0.259521484375, 0.2314453125, -0.880859375
617, 2357139259, -5.39711332321167, -2.47031569480896, 7.726130962371826, -3.863797187805176, 16.92972183227539, 13.129776000976562, 0.262939453125, 0.23193359375, -0.8828125
618, 2357155926, -4.808065891265869, -2.8810291290283203, 8.37142562866211, -7.569237232208252, 27.260046005249023, 18.633512496948242, 0.27001953125, 0.22900390625, -0.880126953125
619, 2357172593, -5.189014434814453, -1.6703816652297974, 8.524219512939453, -4.782347679138184, 50.405094146728516, 14.914875984191895, 0.281005859375, 0.232177734375, -0.873291015625
620, 2357189260, -4.983725547790527, -1.824546456336975, 8.664525985717773, -10.976775169372559, 76.2774429321289, 12.730341911315918, 0.29931640625, 0.23291015625, -0.86865234375
621, 2357205927, -5.008055686950684, -1.8369613885879517, 8.8028564453125, -17.342863082885742, 107.81082916259766, 10.222467422485352, 0.325439453125, 0.23291015625, -0.85986328125
622, 2357222594, -4.909160137176514, -2.596438407897949, 8.983648300170898, -25.02267074584961, 149.24000549316406, 15.287880897521973, 0.359619140625, 0.23974609375, -0.841796875
623, 2357239261, -4.595280647277832, -3.6384387016296387, 9.926472663879395, -29.347841262817383, 201.34048461914062, 32.45219802856445, 0.404296875, 0.244140625, -0.8203125
624, 2357255928, -4.3152971267700195, -4.580689907073975, 10.26839542388916, -30.79909324645996, 280.7301940917969, 57.6561393737793, 0.462158203125, 0.2431640625, -0.7861328125
625, 2357272595, -5.36790657043457, -6.771742343902588, 10.384795188903809, -26.50234031677246, 368.57720947265625, 114.88016510009766, 0.543701171875, 0.237060546875, -0.729248046875
626, 2357289262, -8.259424209594727, -5.40618896484375, 12.333316802978516, -28.12721824645996, 424.6081237792969, 179.10134887695312, 0.63525390625, 0.214111328125, -0.659912109375
627, 2357305929, -18.67081069946289, -6.338785648345947, 15.26732063293457, -56.37073516845703, 426.7312316894531, 192.91061401367188, 0.7197265625, 0.1826171875, -0.571044921875
628, 2357322596, -22.81395149230957, -9.019194602966309, 17.24226951599121, -51.794281005859375, 346.6103210449219, 181.20977783203125, 0.777099609375, 0.152587890625, -0.489013671875
629, 2357339263, -14.019033432006836, -7.941034317016602, 14.659655570983887, -26.9616641998291, 251.099365234375, 184.78302001953125, 0.81298828125, 0.112548828125, -0.43017578125
630, 2357355930, -3.022090196609497, -11.892014503479004, 12.946426391601562, 20.382137298583984, 219.52369689941406, 175.4878692626953, 0.833740234375, 0.0703125, -0.37890625
631, 2357372597, -14.181936264038086, -15.960871696472168, 24.122892379760742, 19.132526397705078, 112.67459869384766, 69.18856811523438, 0.841064453125, 0.04736328125, -0.351318359375
632, 2357389264, -2.6290173530578613, -13.116395950317383, 18.18458366394043, 40.34815216064453, -32.7080192565918, -24.720333099365234, 0.83056640625, 0.046630859375, -0.360595703125
633, 2357405931, 3.6110761165618896, -7.785354137420654, 11.737404823303223, 66.65599822998047, -85.75858306884766, -66.33382415771484, 0.805908203125, 0.0546875, -0.38427734375
634, 2357422598, 4.187446117401123, -3.4608020782470703, 9.403818130493164, 63.925270080566406, -100.8901596069336, -83.7379379272461, 0.779296875, 0.06689453125, -0.41259765625
635, 2357439265, 2.292678117752075, -1.5680326223373413, 8.86633014678955, 40.461708068847656, -114.16331481933594, -96.00846099853516, 0.748291015625, 0.081787109375, -0.436767578125
636, 2357455932, 0.3946058750152588, -1.2400429248809814, 8.472217559814453, 23.45870590209961, -134.14163208007812, -98.5437240600586, 0.711669921875, 0.10009765625, -0.462890625
637, 2357472599, -1.5924023389816284, -1.1015678644180298, 8.374279022216797, 20.4586181640625, -159.87384033203125, -91.6113510131836, 0.674560546875, 0.114501953125, -0.48876953125
638, 2357489266, -3.5864310264587402, -0.7356934547424316, 8.374396324157715, 19.02275276184082, -190.8196258544922, -83.83021545410156, 0.62939453125, 0.12060546875, -0.51171875
639, 2357505933, -5.084709167480469, -0.6377145648002625, 8.164616584777832, 13.014735221862793, -221.06451416015625, -79.9380111694336, 0.590087890625, 0.118896484375, -0.531494140625
640, 2357522600, -6.378387451171875, -1.061653971672058, 7.974401950836182, 4.976806163787842, -246.2771759033203, -79.0062026977539, 0.563232421875, 0.1181640625, -0.54833984375
641, 2357539267, -7.914310932159424, -1.7623555660247803, 8.458133697509766, -3.8690102100372314, -266.4781799316406, -80.68327331542969, 0.54736328125, 0.11962890625, -0.585205078125
642, 2357555934, -9.736896514892578, -2.5682125091552734, 9.309000015258789, -15.64069938659668, -285.9589538574219, -87.20301818847656, 0.528564453125, 0.131591796875, -0.640869140625
643, 2357572601, -11.063758850097656, -3.3585989475250244, 9.72944164276123, -28.89404296875, -303.302490234375, -96.16863250732422, 0.487548828125, 0.153564453125, -0.710693359375
644, 2357589268, -12.465510368347168, -3.7053163051605225, 10.700203895568848, -47.12521743774414, -307.3662109375, -102.51060485839844, 0.42236328125, 0.179931640625, -0.77734375
645, 2357605935, -16.44888687133789, -4.2589945793151855, 11.639294624328613, -75.73492431640625, -302.79376220703125, -105.95320892333984, 0.347412109375, 0.214111328125, -0.82666015625
646, 2357622602, -21.395998001098633, -6.014662742614746, 11.614570617675781, -98.9278564453125, -296.0242004394531, -112.98747253417969, 0.253662109375, 0.258056640625, -0.86474609375
647, 2357639269, -27.352081298828125, -7.324978351593018, 9.206993103027344, -94.2809829711914, -300.5466613769531, -133.15292358398438, 0.151123046875, 0.304931640625, -0.882568359375
648, 2357655936, -29.94901466369629, -7.7037129402160645, 2.640322208404541, -47.19813537597656, -310.34539794921875, -145.34715270996094, 0.03955078125, 0.333251953125, -0.873046875
649, 2357672603, -28.521255493164062, -0.1604698896408081, -3.7903647422790527, -12.103933334350586, -277.6289978027344, -141.45706176757812, -0.057861328125, 0.34130859375, -0.8583984375
650, 2357689270, -26.975831985473633, 8.882102012634277, -9.623318672180176, -45.98862075805664, -195.8570098876953, -131.4599609375, -0.124267578125, 0.34765625, -0.837890625
651, 2357705937, -34.72035598754883, 15.464349746704102, -18.343181610107422, -78.73371887207031, -106.61972045898438, -115.77957916259766, -0.163818359375, 0.3583984375, -0.817626953125
652, 2357722604, -24.30568504333496, 11.6393461227417, -24.33011245727539, 5.09242582321167, 43.272823333740234, 16.370512008666992, -0.169921875, 0.367431640625, -0.809326171875
653, 2357739271, -12.081432342529297, 3.71298885345459, -1.9917211532592773, 85.3741683959961, 166.4993133544922, 160.59967041015625, -0.124267578125, 0.352783203125, -0.816650390625
