sep=,
DeviceTag:,B,,,,,,,,,,,,,,,,,
FirmwareVersion:,2.2.1,,,,,,,,,,,,,,,,,
AppVersion:,2022.0.1,,,,,,,,,,,,,,,,,
SyncStatus:,Synced,,,,,,,,,,,,,,,,,
OutputRate:,60Hz,,,,,,,,,,,,,,,,,
FilterProfile:,General,,,,,,,,,,,,,,,,,
Measurement Mode:,Inertial Mode - Rate quantities (with mag),,,,,,,,,,,,,,,,,
StartTime:,2022-08-05 15:17:45.984 +0300,,,,,,,,,,,,,,,,,
© Xsens Technologies B. V. 2005-2022,,,,,,,,,,,,,,,,,,,

PacketCounter,SampleTimeFine,Acc_X,Acc_Y,Acc_Z,Gyr_X,Gyr_Y,Gyr_Z,Mag_X,Mag_Y,Mag_Z
1, 2408038342, -4.597089767456055, -1.670759677886963, 8.361713409423828, -0.17680445313453674, -0.381680428981781, -0.8772990703582764, -0.02734375, 0.146240234375, -0.82421875
2, 2408055009, -4.598912715911865, -1.689186692237854, 8.345853805541992, -0.12589922547340393, -0.5321422815322876, -0.8644413948059082, -0.0283203125, 0.146240234375, -0.826904296875
3, 2408071676, -4.605312347412109, -1.6690044403076172, 8.353922843933105, -0.08297234773635864, -0.618700385093689, -0.8629687428474426, -0.029541015625, 0.145263671875, -0.826416015625
4, 2408088343, -4.608651161193848, -1.64740788936615, 8.361812591552734, -0.06417261809110641, -0.732138991355896, -0.822231650352478, -0.02587890625, 0.145263671875, -0.82470703125
5, 2408105010, -4.6110005378723145, -1.648133397102356, 8.379793167114258, -0.04638459533452988, -0.7185770273208618, -0.9156155586242676, -0.02880859375, 0.143798828125, -0.822265625
6, 2408121677, -4.61009407043457, -1.6413724422454834, 8.358839988708496, -0.16862119734287262, -0.6450173854827881, -1.0374679565429688, -0.02734375, 0.143798828125, -0.826171875
7, 2408138344, -4.589458465576172, -1.6412602663040161, 8.36203670501709, -0.15877312421798706, -0.5929980278015137, -0.990763247013092, -0.0263671875, 0.146240234375, -0.82568359375
8, 2408155011, -4.593541145324707, -1.645583152770996, 8.34972095489502, -0.2987721264362335, -0.4049367308616638, -1.0489935874938965, -0.025390625, 0.146728515625, -0.82666015625
9, 2408171678, -4.609665870666504, -1.6497647762298584, 8.347061157226562, -0.46528029441833496, -0.4013509750366211, -1.1049445867538452, -0.0263671875, 0.146728515625, -0.82373046875
10, 2408188345, -4.613291263580322, -1.6682167053222656, 8.393362045288086, -0.44239532947540283, -0.41582217812538147, -1.0801900625228882, -0.02392578125, 0.144775390625, -0.82568359375
11, 2408205012, -4.590144157409668, -1.6720001697540283, 8.374835014343262, -0.4641149342060089, -0.39151573181152344, -1.0417838096618652, -0.02587890625, 0.147216796875, -0.82275390625
12, 2408221679, -4.5996832847595215, -1.66105055809021, 8.328327178955078, -0.402913361787796, -0.3714481592178345, -0.9762663841247559, -0.02685546875, 0.147216796875, -0.822265625
13, 2408238346, -4.604708194732666, -1.656312346458435, 8.36172103881836, -0.3487296998500824, -0.48699986934661865, -0.872086763381958, -0.028564453125, 0.146728515625, -0.82373046875
14, 2408255013, -4.616573333740234, -1.655838131904602, 8.349041938781738, -0.47669073939323425, -0.35765573382377625, -1.0068479776382446, -0.025390625, 0.144775390625, -0.826171875
15, 2408271680, -4.5964741706848145, -1.6663154363632202, 8.377323150634766, -0.3940129578113556, -0.3550560474395752, -1.0216394662857056, -0.02685546875, 0.147216796875, -0.826416015625
16, 2408288347, -4.607832908630371, -1.6568336486816406, 8.353867530822754, -0.3970608711242676, -0.49351826310157776, -1.0205507278442383, -0.0263671875, 0.144775390625, -0.82421875
17, 2408305014, -4.615180969238281, -1.6503857374191284, 8.355918884277344, -0.30923494696617126, -0.4574812650680542, -1.0614286661148071, -0.02783203125, 0.146728515625, -0.8232421875
18, 2408321681, -4.6268229484558105, -1.6450350284576416, 8.355672836303711, -0.4465702474117279, -0.5370470881462097, -1.07623291015625, -0.02685546875, 0.147216796875, -0.825927734375
19, 2408338348, -4.590616703033447, -1.6450835466384888, 8.362431526184082, -0.37791240215301514, -0.5835691094398499, -1.0734925270080566, -0.028564453125, 0.147216796875, -0.829833984375
20, 2408355015, -4.598342418670654, -1.6711266040802002, 8.35423755645752, -0.2998734712600708, -0.5544124841690063, -0.9702090620994568, -0.02685546875, 0.146728515625, -0.826904296875
21, 2408371682, -4.605142116546631, -1.660125970840454, 8.345854759216309, -0.2510428726673126, -0.5799099802970886, -1.020089864730835, -0.029541015625, 0.146728515625, -0.825927734375
22, 2408388349, -4.609748363494873, -1.6658210754394531, 8.35417652130127, -0.1810561567544937, -0.5433734059333801, -0.9018869996070862, -0.0263671875, 0.147216796875, -0.825927734375
23, 2408405016, -4.596662521362305, -1.6617865562438965, 8.33486557006836, -0.14752914011478424, -0.5111398100852966, -0.8815378546714783, -0.02734375, 0.144775390625, -0.82470703125
24, 2408421683, -4.6042799949646, -1.6631922721862793, 8.366183280944824, -0.11619200557470322, -0.5474073886871338, -0.8017159104347229, -0.0244140625, 0.145263671875, -0.82470703125
25, 2408438350, -4.601782321929932, -1.6449766159057617, 8.381523132324219, -0.12172435224056244, -0.5178631544113159, -0.8550286889076233, -0.02685546875, 0.147705078125, -0.8251953125
26, 2408455017, -4.59991455078125, -1.6499931812286377, 8.367242813110352, -0.15540504455566406, -0.5068496465682983, -0.9041666984558105, -0.02880859375, 0.145751953125, -0.826904296875
27, 2408471684, -4.615427494049072, -1.6428393125534058, 8.371353149414062, -0.2125725895166397, -0.500369668006897, -0.9845393300056458, -0.02685546875, 0.146728515625, -0.826904296875
28, 2408488351, -4.601930618286133, -1.6640524864196777, 8.377195358276367, -0.2529894709587097, -0.5913203954696655, -0.9909042119979858, -0.025390625, 0.145263671875, -0.8271484375
29, 2408505018, -4.605684280395508, -1.6575441360473633, 8.361408233642578, -0.35926932096481323, -0.5141493082046509, -1.083827018737793, -0.027587890625, 0.148193359375, -0.825439453125
30, 2408521685, -4.591615200042725, -1.6453988552093506, 8.33389663696289, -0.258278489112854, -0.4762169122695923, -1.0466372966766357, -0.029052734375, 0.146240234375, -0.825439453125
31, 2408538352, -4.601520538330078, -1.65364408493042, 8.34321403503418, -0.37112802267074585, -0.5181065201759338, -1.0277224779129028, -0.028076171875, 0.147705078125, -0.824462890625
32, 2408555019, -4.597997188568115, -1.671478509902954, 8.337346076965332, -0.49342861771583557, -0.4517567753791809, -1.0008034706115723, -0.028564453125, 0.148193359375, -0.827880859375
33, 2408571686, -4.598145008087158, -1.657546043395996, 8.373420715332031, -0.3932958245277405, -0.5189645290374756, -0.9993563890457153, -0.0263671875, 0.145751953125, -0.827392578125
34, 2408588353, -4.614709854125977, -1.661888837814331, 8.327404975891113, -0.33592331409454346, -0.6053561568260193, -1.0097166299819946, -0.0283203125, 0.144287109375, -0.826904296875
35, 2408605020, -4.604104518890381, -1.6711355447769165, 8.362204551696777, -0.18314360082149506, -0.49515751004219055, -0.9707596302032471, -0.02783203125, 0.145751953125, -0.82177734375
36, 2408621687, -4.60847282409668, -1.6531587839126587, 8.353741645812988, -0.21567171812057495, -0.4893690347671509, -0.9073938727378845, -0.028564453125, 0.147705078125, -0.822265625
37, 2408638354, -4.6110334396362305, -1.6693475246429443, 8.344267845153809, -0.24433232843875885, -0.5855959057807922, -0.9079829454421997, -0.02587890625, 0.146728515625, -0.827880859375
38, 2408655021, -4.605659008026123, -1.6533262729644775, 8.359341621398926, -0.2840576171875, -0.6236563920974731, -0.9454415440559387, -0.02490234375, 0.147705078125, -0.82666015625
39, 2408671688, -4.610997676849365, -1.6592341661453247, 8.38410758972168, -0.2264546900987625, -0.6332996487617493, -0.9599254727363586, -0.02587890625, 0.146728515625, -0.828369140625
40, 2408688355, -4.59999942779541, -1.658258080482483, 8.344499588012695, -0.209396630525589, -0.6815668344497681, -1.0156844854354858, -0.028076171875, 0.147705078125, -0.827880859375
41, 2408705022, -4.613978385925293, -1.6696906089782715, 8.348718643188477, -0.1252461075782776, -0.5934846997261047, -0.9768427014350891, -0.02783203125, 0.146728515625, -0.825927734375
42, 2408721689, -4.603188514709473, -1.6612693071365356, 8.33341121673584, -0.15694181621074677, -0.6533543467521667, -0.9752164483070374, -0.0263671875, 0.146240234375, -0.82421875
43, 2408738356, -4.600882053375244, -1.653009057044983, 8.358199119567871, -0.11309288442134857, -0.7196784615516663, -0.9954632520675659, -0.02685546875, 0.147216796875, -0.82568359375
44, 2408755023, -4.60060453414917, -1.6574280261993408, 8.361393928527832, -0.09896747022867203, -0.7174628973007202, -0.9500517845153809, -0.028076171875, 0.148681640625, -0.824951171875
45, 2408771690, -4.594803810119629, -1.6628378629684448, 8.353926658630371, -0.11562854051589966, -0.6604490876197815, -0.8970591425895691, -0.028076171875, 0.147705078125, -0.826416015625
46, 2408788357, -4.5923380851745605, -1.6673147678375244, 8.351605415344238, -0.1457490622997284, -0.6102609038352966, -1.016644835472107, -0.028564453125, 0.146728515625, -0.824951171875
47, 2408805024, -4.603649139404297, -1.6612548828125, 8.355656623840332, -0.20089319348335266, -0.5773614645004272, -0.9750498533248901, -0.02685546875, 0.145751953125, -0.826416015625
48, 2408821691, -4.612732887268066, -1.6620844602584839, 8.33983325958252, -0.19721777737140656, -0.6492947340011597, -0.9971150755882263, -0.02685546875, 0.146728515625, -0.82421875
49, 2408838358, -4.60614538192749, -1.6601287126541138, 8.352577209472656, -0.27053412795066833, -0.5824711918830872, -0.9933372735977173, -0.02685546875, 0.147216796875, -0.82470703125
50, 2408855025, -4.608648777008057, -1.6443370580673218, 8.35543441772461, -0.21181701123714447, -0.6604106426239014, -0.9847954511642456, -0.02490234375, 0.14794921875, -0.827880859375
51, 2408871692, -4.607382774353027, -1.6716582775115967, 8.350227355957031, -0.2412332147359848, -0.6748306155204773, -0.9797883033752441, -0.02734375, 0.146240234375, -0.828369140625
52, 2408888359, -4.599239826202393, -1.6790339946746826, 8.32976245880127, -0.16773481667041779, -0.6667256951332092, -0.986455500125885, -0.02490234375, 0.143798828125, -0.82666015625
53, 2408905026, -4.618384838104248, -1.6634316444396973, 8.351709365844727, -0.16374199092388153, -0.6302644610404968, -1.0228943824768066, -0.02734375, 0.146728515625, -0.825439453125
54, 2408921693, -4.601109027862549, -1.6629881858825684, 8.367385864257812, -0.23006606101989746, -0.5444363355636597, -0.9846546053886414, -0.02734375, 0.147216796875, -0.826904296875
55, 2408938360, -4.598575115203857, -1.6657991409301758, 8.342446327209473, -0.20474793016910553, -0.6345803141593933, -1.1119498014450073, -0.027099609375, 0.14892578125, -0.826416015625
56, 2408955027, -4.604339599609375, -1.6726876497268677, 8.365365982055664, -0.2821495234966278, -0.6216842532157898, -1.0843392610549927, -0.0283203125, 0.146240234375, -0.827392578125
57, 2408971694, -4.607138156890869, -1.6681861877441406, 8.363119125366211, -0.3067377209663391, -0.5596887469291687, -1.0497750043869019, -0.0283203125, 0.146728515625, -0.82470703125
58, 2408988361, -4.598051071166992, -1.6653153896331787, 8.3634033203125, -0.30196094512939453, -0.5792952179908752, -1.061031699180603, -0.02587890625, 0.146728515625, -0.82470703125
59, 2409005028, -4.612625598907471, -1.660886287689209, 8.362656593322754, -0.3476283550262451, -0.5351389050483704, -1.0474953651428223, -0.02734375, 0.145751953125, -0.8232421875
60, 2409021695, -4.596837997436523, -1.6669474840164185, 8.351033210754395, -0.2737613320350647, -0.5492899417877197, -1.0361616611480713, -0.029296875, 0.145263671875, -0.82373046875
61, 2409038362, -4.589042663574219, -1.662564992904663, 8.356157302856445, -0.3115144371986389, -0.6823992133140564, -0.9623203277587891, -0.02490234375, 0.146728515625, -0.82568359375
62, 2409055029, -4.605282783508301, -1.6681110858917236, 8.36205005645752, -0.23088566958904266, -0.6261152625083923, -1.0352909564971924, -0.027099609375, 0.148681640625, -0.826904296875
63, 2409071696, -4.6160149574279785, -1.643558144569397, 8.364840507507324, -0.2733515501022339, -0.6042932271957397, -1.0430259704589844, -0.0263671875, 0.147216796875, -0.826904296875
64, 2409088363, -4.5855302810668945, -1.6595895290374756, 8.35927677154541, -0.317328542470932, -0.5692934989929199, -1.169757604598999, -0.029052734375, 0.146728515625, -0.825927734375
65, 2409105030, -4.577394962310791, -1.673059344291687, 8.370626449584961, -0.3742527365684509, -0.5203987956047058, -1.083199381828308, -0.02685546875, 0.145751953125, -0.82373046875
66, 2409121697, -4.597257614135742, -1.6700867414474487, 8.360368728637695, -0.3272406756877899, -0.5754533410072327, -1.0299506187438965, -0.0263671875, 0.146728515625, -0.8251953125
67, 2409138364, -4.596597671508789, -1.676221251487732, 8.38087272644043, -0.32256633043289185, -0.5717778205871582, -1.0709309577941895, -0.02734375, 0.146728515625, -0.825439453125
68, 2409155031, -4.604113578796387, -1.6668728590011597, 8.37714958190918, -0.1442251205444336, -0.6349004507064819, -1.0223053693771362, -0.027587890625, 0.1494140625, -0.827880859375
69, 2409171698, -4.595657825469971, -1.660265564918518, 8.351849555969238, -0.26831865310668945, -0.5849812030792236, -0.9468887448310852, -0.029052734375, 0.148681640625, -0.826904296875
70, 2409188365, -4.606161594390869, -1.6550322771072388, 8.360413551330566, -0.21710605919361115, -0.5761448740959167, -1.0575611591339111, -0.02734375, 0.147216796875, -0.826416015625
71, 2409205032, -4.592911243438721, -1.6574335098266602, 8.346709251403809, -0.2971201539039612, -0.4488113522529602, -1.0704444646835327, -0.0263671875, 0.145751953125, -0.82275390625
72, 2409221699, -4.606102466583252, -1.6743744611740112, 8.36950397491455, -0.2811121940612793, -0.5563846826553345, -0.9894185662269592, -0.02685546875, 0.147705078125, -0.82421875
73, 2409238366, -4.599641799926758, -1.6826201677322388, 8.380642890930176, -0.27776971459388733, -0.5688195824623108, -0.9961162805557251, -0.02783203125, 0.146728515625, -0.825439453125
74, 2409255033, -4.591062545776367, -1.6574829816818237, 8.374429702758789, -0.2009444236755371, -0.5883620977401733, -0.8921542763710022, -0.0263671875, 0.147705078125, -0.829833984375
75, 2409271700, -4.592840671539307, -1.6630704402923584, 8.364765167236328, -0.2314363718032837, -0.5774383544921875, -1.0163887739181519, -0.028076171875, 0.1513671875, -0.829833984375
76, 2409288367, -4.61034631729126, -1.669924020767212, 8.365740776062012, -0.27545177936553955, -0.5821382403373718, -1.0154155492782593, -0.02587890625, 0.143310546875, -0.826171875
77, 2409305034, -4.603837013244629, -1.6637073755264282, 8.345437049865723, -0.29005104303359985, -0.5543997287750244, -1.0030573606491089, -0.02685546875, 0.147705078125, -0.82373046875
78, 2409321701, -4.594635009765625, -1.6530581712722778, 8.329741477966309, -0.24088743329048157, -0.5394802689552307, -1.002583384513855, -0.0244140625, 0.147705078125, -0.82421875
79, 2409338368, -4.595396041870117, -1.6776052713394165, 8.348978996276855, -0.23614910244941711, -0.537969172000885, -0.9639852643013, -0.02734375, 0.147705078125, -0.8251953125
80, 2409355035, -4.596414566040039, -1.6656640768051147, 8.32789134979248, -0.23212787508964539, -0.5412091612815857, -1.028414011001587, -0.02783203125, 0.147216796875, -0.827880859375
81, 2409371702, -4.6057891845703125, -1.664190411567688, 8.346925735473633, -0.24170702695846558, -0.5262128710746765, -0.9892264604568481, -0.028076171875, 0.15087890625, -0.826416015625
82, 2409388369, -4.607941627502441, -1.655085563659668, 8.340180397033691, -0.26950961351394653, -0.5238053202629089, -0.9584015607833862, -0.02490234375, 0.14794921875, -0.826904296875
83, 2409405036, -4.595707416534424, -1.6616549491882324, 8.36030387878418, -0.24892984330654144, -0.5711632370948792, -1.0644127130508423, -0.02685546875, 0.147216796875, -0.82470703125
84, 2409421703, -4.614927291870117, -1.6605862379074097, 8.349749565124512, -0.20546509325504303, -0.6067520976066589, -1.001046895980835, -0.02587890625, 0.146240234375, -0.82470703125
85, 2409438370, -4.595477104187012, -1.6651633977890015, 8.361525535583496, -0.3408794403076172, -0.5491362810134888, -1.093150019645691, -0.0263671875, 0.147705078125, -0.82568359375
86, 2409455037, -4.614967346191406, -1.6651322841644287, 8.368522644042969, -0.23540765047073364, -0.5713383555412292, -1.039476752281189, -0.0263671875, 0.148193359375, -0.828857421875
87, 2409471704, -4.591205596923828, -1.6574002504348755, 8.372956275939941, -0.30635350942611694, -0.5902830958366394, -1.04512619972229, -0.0263671875, 0.1494140625, -0.825927734375
88, 2409488371, -4.596059799194336, -1.6659213304519653, 8.356138229370117, -0.3551585078239441, -0.4469544291496277, -1.090844988822937, -0.028564453125, 0.146240234375, -0.82373046875
89, 2409505038, -4.609587669372559, -1.6551945209503174, 8.353360176086426, -0.5399284958839417, -0.48136505484580994, -1.1266769170761108, -0.02392578125, 0.146728515625, -0.82373046875
90, 2409521705, -4.608434677124023, -1.6773045063018799, 8.32188892364502, -0.3326321244239807, -0.5362274050712585, -1.121067762374878, -0.0263671875, 0.145263671875, -0.826416015625
91, 2409538372, -4.619946479797363, -1.6713296175003052, 8.329989433288574, -0.32218214869499207, -0.6147047877311707, -1.0685361623764038, -0.02734375, 0.148193359375, -0.826904296875
92, 2409555039, -4.606800556182861, -1.6813894510269165, 8.32733154296875, -0.3394322991371155, -0.6297522187232971, -1.0662438869476318, -0.0263671875, 0.148193359375, -0.827880859375
93, 2409571706, -4.603385925292969, -1.6611334085464478, 8.360262870788574, -0.4503992795944214, -0.5391857028007507, -1.1361409425735474, -0.02685546875, 0.14892578125, -0.825927734375
94, 2409588373, -4.589844226837158, -1.6839275360107422, 8.351058006286621, -0.41958725452423096, -0.5499814748764038, -1.1253196001052856, -0.025390625, 0.148193359375, -0.82470703125
95, 2409605040, -4.592149257659912, -1.6732611656188965, 8.349126815795898, -0.3721013069152832, -0.5927290916442871, -1.089820384979248, -0.029541015625, 0.149169921875, -0.82177734375
96, 2409621707, -4.598880767822266, -1.6711797714233398, 8.368220329284668, -0.3040483593940735, -0.6420078873634338, -1.111578345298767, -0.02734375, 0.148193359375, -0.82421875
97, 2409638374, -4.598501205444336, -1.6824146509170532, 8.340954780578613, -0.21718290448188782, -0.6075460910797119, -1.0257117748260498, -0.02685546875, 0.148681640625, -0.825439453125
98, 2409655041, -4.600549697875977, -1.6778956651687622, 8.344463348388672, -0.156263068318367, -0.6208902597427368, -0.9482461810112, -0.0263671875, 0.1494140625, -0.828369140625
99, 2409671708, -4.594488143920898, -1.6646831035614014, 8.347006797790527, -0.23210225999355316, -0.6972032785415649, -0.9298689961433411, -0.02734375, 0.147216796875, -0.8251953125
100, 2409688375, -4.59830379486084, -1.6758537292480469, 8.367083549499512, -0.025574278086423874, -0.6281386017799377, -0.9437510371208191, -0.02587890625, 0.146728515625, -0.82568359375
101, 2409705042, -4.619160175323486, -1.6588777303695679, 8.352882385253906, -0.15295903384685516, -0.7751811146736145, -0.9114151000976562, -0.02685546875, 0.147705078125, -0.827880859375
102, 2409721709, -4.603200435638428, -1.6647311449050903, 8.335052490234375, -0.09114279597997665, -0.7076661586761475, -0.9566472172737122, -0.0244140625, 0.146240234375, -0.82421875
103, 2409738376, -4.5970869064331055, -1.6724154949188232, 8.349543571472168, -0.1044485792517662, -0.6382556557655334, -0.9238757491111755, -0.02685546875, 0.147705078125, -0.8232421875
104, 2409755043, -4.60235071182251, -1.6702945232391357, 8.354806900024414, -0.21181704103946686, -0.6491795778274536, -0.9725015759468079, -0.027587890625, 0.148193359375, -0.824951171875
105, 2409771710, -4.602457523345947, -1.68068265914917, 8.343497276306152, -3.9699688204564154E-4, -0.6674541234970093, -0.9297410249710083, -0.026611328125, 0.14892578125, -0.82470703125
106, 2409788377, -4.595943450927734, -1.673245906829834, 8.348958969116211, -0.13190540671348572, -0.6882004141807556, -0.9329296946525574, -0.025390625, 0.148193359375, -0.82421875
107, 2409805044, -4.606348037719727, -1.669053077697754, 8.340449333190918, -0.07446891069412231, -0.7022233605384827, -0.8685393929481506, -0.0244140625, 0.144287109375, -0.82470703125
108, 2409821711, -4.579623699188232, -1.6832319498062134, 8.349146842956543, -0.11743423342704773, -0.6596295237541199, -0.9338006377220154, -0.027587890625, 0.14990234375, -0.824951171875
109, 2409838378, -4.59329080581665, -1.6767175197601318, 8.346354484558105, -0.08946515619754791, -0.5603289604187012, -0.7746304869651794, -0.0263671875, 0.147216796875, -0.82421875
110, 2409855045, -4.59882926940918, -1.6627928018569946, 8.33907699584961, -0.14542889595031738, -0.5647472143173218, -0.9041795134544373, -0.027587890625, 0.148681640625, -0.825439453125
111, 2409871712, -4.5866217613220215, -1.6562212705612183, 8.34520149230957, -0.12299219518899918, -0.5111654996871948, -0.921468198299408, -0.02783203125, 0.145751953125, -0.827880859375
112, 2409888379, -4.600478172302246, -1.6733344793319702, 8.33741569519043, -0.11660181730985641, -0.516966700553894, -0.92997145652771, -0.0263671875, 0.145263671875, -0.826416015625
113, 2409905046, -4.593906879425049, -1.6610043048858643, 8.343015670776367, -0.04390016570687294, -0.681938111782074, -0.9621666073799133, -0.02734375, 0.147705078125, -0.82421875
114, 2409921713, -4.594454288482666, -1.675392985343933, 8.358497619628906, -0.12306901812553406, -0.5299139618873596, -0.8968414068222046, -0.02685546875, 0.146240234375, -0.826904296875
115, 2409938380, -4.597603797912598, -1.6678087711334229, 8.344058990478516, -0.06842432171106339, -0.5903726816177368, -0.9187787175178528, -0.02783203125, 0.147705078125, -0.828369140625
116, 2409955047, -4.60455846786499, -1.665780782699585, 8.339269638061523, -0.023179491981863976, -0.6284844279289246, -0.8630967140197754, -0.02587890625, 0.14892578125, -0.825927734375
117, 2409971714, -4.605925559997559, -1.6650481224060059, 8.323779106140137, 0.02207174338400364, -0.6321086287498474, -0.88496994972229, -0.02734375, 0.147216796875, -0.82421875
118, 2409988381, -4.598719596862793, -1.6728534698486328, 8.342548370361328, 0.04699289798736572, -0.694680392742157, -0.8340007066726685, -0.02734375, 0.146728515625, -0.827880859375
119, 2410005048, -4.584704875946045, -1.6618787050247192, 8.383099555969238, -0.04542684927582741, -0.6005769968032837, -0.7811189293861389, -0.0263671875, 0.148193359375, -0.82568359375
120, 2410021715, -4.604289531707764, -1.6634266376495361, 8.367609024047852, -0.0067361402325332165, -0.667466938495636, -0.8611246347427368, -0.02734375, 0.148193359375, -0.826904296875
121, 2410038382, -4.603586673736572, -1.6617891788482666, 8.361632347106934, 0.04181913286447525, -0.6210567355155945, -0.9027579426765442, -0.02685546875, 0.145751953125, -0.822265625
122, 2410055049, -4.595186233520508, -1.6719824075698853, 8.357495307922363, -0.061867475509643555, -0.6674028635025024, -0.8473321199417114, -0.02685546875, 0.146728515625, -0.830322265625
123, 2410071716, -4.616906642913818, -1.6660951375961304, 8.369247436523438, -0.047293853014707565, -0.6432501673698425, -0.7954791784286499, -0.02587890625, 0.147705078125, -0.827392578125
124, 2410088383, -4.600479602813721, -1.6636290550231934, 8.36246395111084, 0.09309574961662292, -0.6265890598297119, -0.8482796549797058, -0.02734375, 0.146728515625, -0.826904296875
125, 2410105050, -4.602990627288818, -1.6641796827316284, 8.3584566116333, 4.482221993384883E-5, -0.7694694995880127, -0.8890295624732971, -0.02734375, 0.144287109375, -0.82421875
126, 2410121717, -4.600488185882568, -1.6551556587219238, 8.370999336242676, 0.04276680573821068, -0.8362546563148499, -0.958926796913147, -0.0263671875, 0.146728515625, -0.82470703125
127, 2410138384, -4.592599391937256, -1.6543655395507812, 8.338960647583008, 0.16436947882175446, -0.7971439957618713, -0.8002047538757324, -0.02734375, 0.147705078125, -0.8232421875
128, 2410155051, -4.603557109832764, -1.649013638496399, 8.348505020141602, 0.1717139333486557, -0.9523825645446777, -0.9347865581512451, -0.02685546875, 0.148681640625, -0.825439453125
129, 2410171718, -4.585264682769775, -1.6490181684494019, 8.369629859924316, 0.10236756503582001, -0.8636730909347534, -0.8342185020446777, -0.0283203125, 0.145263671875, -0.825439453125
130, 2410188385, -4.590776443481445, -1.6386207342147827, 8.346333503723145, 0.050655514001846313, -0.6420719623565674, -0.7914067506790161, -0.02734375, 0.146240234375, -0.82421875
131, 2410205052, -4.598962783813477, -1.6380082368850708, 8.355754852294922, -0.06755349040031433, -0.7367748618125916, -0.8861609101295471, -0.02685546875, 0.144775390625, -0.82373046875
132, 2410221719, -4.5915751457214355, -1.6486679315567017, 8.360261917114258, -0.15467509627342224, -0.6784419417381287, -0.9922102689743042, -0.025390625, 0.144775390625, -0.82666015625
133, 2410238386, -4.59692907333374, -1.655681848526001, 8.339524269104004, -0.29952773451805115, -0.5509291887283325, -1.0102930068969727, -0.02685546875, 0.144775390625, -0.82275390625
134, 2410255053, -4.5917744636535645, -1.6450589895248413, 8.356430053710938, -0.21713167428970337, -0.628510057926178, -0.9624484777450562, -0.030029296875, 0.146240234375, -0.824462890625
135, 2410271720, -4.597594738006592, -1.653847098350525, 8.351067543029785, -0.21993623673915863, -0.5774766802787781, -0.9967437982559204, -0.02734375, 0.145263671875, -0.82568359375
136, 2410288387, -4.599690914154053, -1.6351288557052612, 8.369904518127441, -0.23525263369083405, -0.5849428176879883, -0.9849363565444946, -0.02685546875, 0.146728515625, -0.826904296875
137, 2410305054, -4.590579509735107, -1.6616231203079224, 8.380596160888672, -0.21650417149066925, -0.6756630539894104, -1.022523045539856, -0.02685546875, 0.145751953125, -0.826416015625
138, 2410321721, -4.597867488861084, -1.6591676473617554, 8.356895446777344, -0.22183160483837128, -0.5841488242149353, -0.9880994558334351, -0.02685546875, 0.146240234375, -0.82470703125
139, 2410338388, -4.615310192108154, -1.6424593925476074, 8.366314888000488, -0.23059113323688507, -0.6341193318367004, -1.0022761821746826, -0.02734375, 0.146728515625, -0.827392578125
140, 2410355055, -4.608273506164551, -1.6410051584243774, 8.352728843688965, -0.26078853011131287, -0.6364755630493164, -0.9804670214653015, -0.02734375, 0.147705078125, -0.827392578125
141, 2410371722, -4.59852409362793, -1.6420835256576538, 8.36393928527832, -0.22458495199680328, -0.6898523569107056, -1.0354701280593872, -0.02685546875, 0.148193359375, -0.826904296875
142, 2410388389, -4.602929592132568, -1.651977777481079, 8.383045196533203, -0.2515295445919037, -0.6131808757781982, -1.0627222061157227, -0.02490234375, 0.145751953125, -0.82470703125
143, 2410405056, -4.600341796875, -1.6400882005691528, 8.373279571533203, -0.20618224143981934, -0.6965117454528809, -1.0160045623779297, -0.0263671875, 0.145751953125, -0.8251953125
144, 2410421723, -4.589189052581787, -1.6497042179107666, 8.359655380249023, -0.25313034653663635, -0.6073027849197388, -1.0328450202941895, -0.02783203125, 0.144287109375, -0.8232421875
145, 2410438390, -4.6007537841796875, -1.6455920934677124, 8.374378204345703, -0.2234836220741272, -0.729296088218689, -1.0730440616607666, -0.029052734375, 0.148193359375, -0.824951171875
146, 2410455057, -4.597339630126953, -1.6588016748428345, 8.359482765197754, -0.1612703800201416, -0.7191022038459778, -1.0601993799209595, -0.02685546875, 0.146240234375, -0.827880859375
147, 2410471724, -4.586533546447754, -1.6621860265731812, 8.382984161376953, -0.2712000608444214, -0.6668522357940674, -1.0344840288162231, -0.02734375, 0.146728515625, -0.827880859375
148, 2410488391, -4.602296829223633, -1.6469271183013916, 8.355690956115723, -0.23741689324378967, -0.6757398843765259, -1.0926635265350342, -0.02783203125, 0.146240234375, -0.826416015625
149, 2410505058, -4.592282295227051, -1.6541849374771118, 8.352301597595215, -0.25891879200935364, -0.628510057926178, -1.108056664466858, -0.02685546875, 0.144775390625, -0.82177734375
150, 2410521725, -4.596795082092285, -1.656347393989563, 8.358396530151367, -0.2823415994644165, -0.5904239416122437, -1.0624531507492065, -0.027587890625, 0.147705078125, -0.8212890625
151, 2410538392, -4.5911760330200195, -1.6564780473709106, 8.368525505065918, -0.3037666380405426, -0.5480221509933472, -1.0241366624832153, -0.030517578125, 0.147705078125, -0.823486328125
152, 2410555059, -4.583766460418701, -1.647200107574463, 8.361106872558594, -0.28360942006111145, -0.6079302430152893, -0.9854359030723572, -0.02734375, 0.146728515625, -0.826904296875
153, 2410571726, -4.602087020874023, -1.6534342765808105, 8.366865158081055, -0.260189414024353, -0.6298156380653381, -0.956576406955719, -0.02685546875, 0.146240234375, -0.825927734375
154, 2410588393, -4.591708660125732, -1.667955994606018, 8.383932113647461, -0.18526947498321533, -0.6272422075271606, -1.0070273876190186, -0.02783203125, 0.145751953125, -0.8251953125
155, 2410605060, -4.580519676208496, -1.660961389541626, 8.360793113708496, -0.29330381751060486, -0.643775224685669, -0.9401525259017944, -0.02734375, 0.147216796875, -0.8251953125
156, 2410621727, -4.588350296020508, -1.650643229484558, 8.370406150817871, -0.18274660408496857, -0.6590659618377686, -1.0160943269729614, -0.02734375, 0.144775390625, -0.8251953125
157, 2410638394, -4.574234962463379, -1.6673532724380493, 8.363425254821777, -0.1617826223373413, -0.5968655943870544, -1.096543788909912, -0.02734375, 0.144775390625, -0.826416015625
158, 2410655061, -4.5914130210876465, -1.6655457019805908, 8.364410400390625, -0.3718836009502411, -0.5313354730606079, -0.9726294875144958, -0.02783203125, 0.147216796875, -0.82421875
159, 2410671728, -4.595902919769287, -1.6403288841247559, 8.374898910522461, -0.32300177216529846, -0.44029513001441956, -1.071071982383728, -0.02880859375, 0.145751953125, -0.827392578125
160, 2410688395, -4.5913262367248535, -1.6457018852233887, 8.362510681152344, -0.4122748374938965, -0.41450315713882446, -1.027504801750183, -0.02734375, 0.146240234375, -0.82421875
161, 2410705062, -4.6102070808410645, -1.6745113134384155, 8.35608959197998, -0.44599390029907227, -0.5023419260978699, -0.9911987781524658, -0.02880859375, 0.144287109375, -0.82373046875
162, 2410721729, -4.601640224456787, -1.6678837537765503, 8.34925651550293, -0.24472934007644653, -0.41577091813087463, -1.044882893562317, -0.02783203125, 0.147216796875, -0.824951171875
163, 2410738396, -4.597484588623047, -1.6592905521392822, 8.34310245513916, -0.3537497818470001, -0.4828377664089203, -0.9069198966026306, -0.029052734375, 0.146728515625, -0.82373046875
164, 2410755063, -4.595496654510498, -1.6545546054840088, 8.35712718963623, -0.4145543575286865, -0.4624885618686676, -0.9730648398399353, -0.029052734375, 0.149169921875, -0.826416015625
165, 2410771730, -4.589487075805664, -1.6781365871429443, 8.350404739379883, -0.25453898310661316, -0.49901217222213745, -0.9939135313034058, -0.027587890625, 0.14892578125, -0.824951171875
166, 2410788397, -4.585371971130371, -1.6522424221038818, 8.346850395202637, -0.34920355677604675, -0.4238390028476715, -0.9919542670249939, -0.02734375, 0.147705078125, -0.82421875
167, 2410805064, -4.590125560760498, -1.6680176258087158, 8.360481262207031, -0.3977140188217163, -0.5541564226150513, -1.0496853590011597, -0.028076171875, 0.147216796875, -0.82275390625
168, 2410821731, -4.585378170013428, -1.6568845510482788, 8.372453689575195, -0.22366288304328918, -0.59319007396698, -1.0664359331130981, -0.0263671875, 0.147705078125, -0.8251953125
169, 2410838398, -4.592072010040283, -1.6812348365783691, 8.348190307617188, -0.23833897709846497, -0.6186747550964355, -1.0408488512039185, -0.025390625, 0.145263671875, -0.82275390625
170, 2410855065, -4.594267845153809, -1.6671340465545654, 8.341930389404297, -0.2609421908855438, -0.4733611047267914, -1.033088207244873, -0.029052734375, 0.147216796875, -0.824951171875
171, 2410871732, -4.601004600524902, -1.6585825681686401, 8.349388122558594, -0.2689717710018158, -0.5970577001571655, -0.9654451012611389, -0.028076171875, 0.148193359375, -0.82421875
172, 2410888399, -4.599859237670898, -1.6580981016159058, 8.359217643737793, -0.21403251588344574, -0.5831242799758911, -0.9800443053245544, -0.028076171875, 0.148681640625, -0.825439453125
173, 2410905066, -4.605041980743408, -1.671352744102478, 8.334640502929688, -0.26199230551719666, -0.6152427196502686, -1.0231633186340332, -0.02587890625, 0.145263671875, -0.8232421875
174, 2410921733, -4.590344429016113, -1.659018874168396, 8.382085800170898, -0.258137583732605, -0.6065086722373962, -0.9811583757400513, -0.030029296875, 0.144775390625, -0.823974609375
175, 2410938400, -4.591901779174805, -1.6572239398956299, 8.34248161315918, -0.18843264877796173, -0.6732938289642334, -1.054180383682251, -0.02880859375, 0.145751953125, -0.82177734375
176, 2410955067, -4.60260534286499, -1.6596189737319946, 8.366631507873535, -0.14193278551101685, -0.681784451007843, -0.9921079277992249, -0.028076171875, 0.149169921875, -0.82373046875
177, 2410971734, -4.586519241333008, -1.6582365036010742, 8.33745002746582, -0.20896120369434357, -0.6969215869903564, -1.016811490058899, -0.029052734375, 0.148193359375, -0.825927734375
178, 2410988401, -4.583937644958496, -1.659702181816101, 8.362226486206055, -0.17690689861774445, -0.6856262683868408, -1.0513628721237183, -0.02880859375, 0.146240234375, -0.824462890625
179, 2411005068, -4.59971809387207, -1.6588410139083862, 8.3790864944458, -0.1791992336511612, -0.756189227104187, -1.047725796699524, -0.029052734375, 0.146728515625, -0.824462890625
180, 2411021735, -4.594836711883545, -1.673073410987854, 8.339930534362793, -0.17704778909683228, -0.7734907865524292, -1.0170674324035645, -0.02685546875, 0.145263671875, -0.82568359375
181, 2411038402, -4.583149433135986, -1.6603907346725464, 8.370609283447266, -0.16944082081317902, -0.7738621234893799, -1.0012900829315186, -0.029052734375, 0.146728515625, -0.824462890625
182, 2411055069, -4.587549209594727, -1.6540799140930176, 8.365677833557129, -0.191057950258255, -0.752052903175354, -1.015377163887024, -0.028564453125, 0.147216796875, -0.824951171875
183, 2411071736, -4.577110767364502, -1.6619770526885986, 8.370745658874512, -0.21638888120651245, -0.609390139579773, -1.0246615409851074, -0.02685546875, 0.148193359375, -0.827880859375
184, 2411088403, -4.592088222503662, -1.6564854383468628, 8.353188514709473, -0.22732552886009216, -0.583611011505127, -0.994861364364624, -0.029052734375, 0.147216796875, -0.826904296875
185, 2411105070, -4.594479084014893, -1.6505744457244873, 8.345755577087402, -0.36878445744514465, -0.4898301064968109, -1.0455615520477295, -0.02783203125, 0.147705078125, -0.825927734375
186, 2411121737, -4.585967540740967, -1.658463478088379, 8.377360343933105, -0.2958700358867645, -0.5639870762825012, -1.0529755353927612, -0.030517578125, 0.145751953125, -0.825439453125
187, 2411138404, -4.577490329742432, -1.6612201929092407, 8.34981918334961, -0.2778722047805786, -0.5726872086524963, -1.1041250228881836, -0.02685546875, 0.147216796875, -0.826416015625
188, 2411155071, -4.5803422927856445, -1.665968656539917, 8.34640884399414, -0.30106449127197266, -0.6283947825431824, -1.0515934228897095, -0.02734375, 0.147705078125, -0.827880859375
189, 2411171738, -4.601576328277588, -1.6587995290756226, 8.368056297302246, -0.3646736443042755, -0.5315147638320923, -1.0471240282058716, -0.030029296875, 0.147705078125, -0.828369140625
190, 2411188405, -4.603188514709473, -1.654232382774353, 8.356528282165527, -0.32913604378700256, -0.5492643713951111, -1.0287468433380127, -0.02587890625, 0.147216796875, -0.82568359375
191, 2411205072, -4.606084823608398, -1.6597833633422852, 8.348014831542969, -0.5027005076408386, -0.5517359972000122, -1.1549407243728638, -0.02685546875, 0.144287109375, -0.82470703125
192, 2411221739, -4.597323417663574, -1.6542770862579346, 8.37492847442627, -0.5882213115692139, -0.4668426811695099, -1.1030750274658203, -0.02783203125, 0.147705078125, -0.825439453125
193, 2411238406, -4.60164213180542, -1.6690027713775635, 8.382049560546875, -0.668888509273529, -0.4850917160511017, -1.2657668590545654, -0.02880859375, 0.146240234375, -0.82421875
194, 2411255073, -4.598954200744629, -1.6723382472991943, 8.36722469329834, -0.9041795134544373, -0.42007386684417725, -1.4037294387817383, -0.027099609375, 0.150390625, -0.826416015625
195, 2411271740, -4.605609893798828, -1.6625950336456299, 8.363120079040527, -1.1071985960006714, -0.25424444675445557, -1.4986246824264526, -0.028076171875, 0.148681640625, -0.826904296875
196, 2411288407, -4.5816264152526855, -1.6870675086975098, 8.341314315795898, -0.9829002022743225, -0.31257739663124084, -1.4917988777160645, -0.02734375, 0.147216796875, -0.825927734375
197, 2411305074, -4.592177391052246, -1.6735644340515137, 8.362725257873535, -0.18019813299179077, -0.3272278606891632, -1.3452686071395874, -0.027099609375, 0.14990234375, -0.82421875
198, 2411321741, -4.591428756713867, -1.7091318368911743, 8.357370376586914, -0.4012870192527771, -0.5732890367507935, -1.172920823097229, -0.02734375, 0.147216796875, -0.827392578125
199, 2411338408, -4.589198112487793, -1.6888363361358643, 8.385690689086914, -0.49842312932014465, -0.5103586316108704, -1.2213927507400513, -0.029052734375, 0.146728515625, -0.827392578125
200, 2411355075, -4.580441474914551, -1.651060700416565, 8.378304481506348, -0.8085672855377197, -0.2933422327041626, -1.2189853191375732, -0.027099609375, 0.1494140625, -0.825439453125
201, 2411371742, -4.591279983520508, -1.6731065511703491, 8.347198486328125, -0.7901645302772522, -0.23333169519901276, -1.4144484996795654, -0.026611328125, 0.1494140625, -0.825927734375
202, 2411388409, -4.594383716583252, -1.6633551120758057, 8.37106990814209, -1.112359642982483, -0.13561925292015076, -1.5075122117996216, -0.028564453125, 0.1494140625, -0.825927734375
203, 2411405076, -4.587922096252441, -1.6791415214538574, 8.339563369750977, -1.282094955444336, -0.26167216897010803, -1.6714977025985718, -0.028564453125, 0.147216796875, -0.824951171875
204, 2411421743, -4.601262092590332, -1.6997801065444946, 8.353203773498535, -1.1209779977798462, -0.10704826563596725, -1.6015746593475342, -0.0244140625, 0.14794921875, -0.8251953125
205, 2411438410, -4.592703342437744, -1.7122658491134644, 8.351485252380371, -0.7807134985923767, -0.4748978316783905, -1.4726790189743042, -0.028076171875, 0.1494140625, -0.824951171875
206, 2411455077, -4.583390235900879, -1.698041319847107, 8.357597351074219, -0.47543570399284363, -0.6770460605621338, -1.287383794784546, -0.029052734375, 0.150390625, -0.824462890625
207, 2411471744, -4.586426734924316, -1.7022747993469238, 8.36440372467041, -0.32494837045669556, -0.7498246431350708, -1.187981128692627, -0.027099609375, 0.14892578125, -0.826416015625
208, 2411488411, -4.581350803375244, -1.6932822465896606, 8.33939266204834, -0.3457586467266083, -0.7603386044502258, -1.1781970262527466, -0.028076171875, 0.148193359375, -0.825927734375
209, 2411505078, -4.579582691192627, -1.692939281463623, 8.362756729125977, -0.2378651350736618, -0.5908721685409546, -1.114869475364685, -0.02734375, 0.148193359375, -0.825439453125
210, 2411521745, -4.589412212371826, -1.699313998222351, 8.34647274017334, -0.30686575174331665, -0.6500632166862488, -1.150612235069275, -0.02783203125, 0.147705078125, -0.824951171875
211, 2411538412, -4.6005353927612305, -1.699468970298767, 8.357451438903809, -0.18464195728302002, -0.6957433819770813, -1.0479564666748047, -0.028564453125, 0.14990234375, -0.823486328125
212, 2411555079, -4.598687171936035, -1.6926591396331787, 8.37121295928955, 0.03956521674990654, -0.7977203726768494, -1.0020840167999268, -0.026611328125, 0.150390625, -0.82470703125
213, 2411571746, -4.58821964263916, -1.6968820095062256, 8.349005699157715, 0.04096111282706261, -0.865939736366272, -0.971156656742096, -0.028076171875, 0.14990234375, -0.824462890625
214, 2411588413, -4.589446067810059, -1.6881890296936035, 8.375980377197266, -0.06743823736906052, -0.7393233776092529, -0.9899565577507019, -0.02685546875, 0.148193359375, -0.82470703125
215, 2411605080, -4.596961975097656, -1.6934819221496582, 8.376026153564453, -0.1666618287563324, -0.6104018688201904, -1.0181688070297241, -0.02734375, 0.147216796875, -0.8251953125
216, 2411621747, -4.6138129234313965, -1.693402886390686, 8.344016075134277, -0.11785685271024704, -0.6286253333091736, -1.125063419342041, -0.028564453125, 0.148681640625, -0.824951171875
217, 2411638414, -4.586959362030029, -1.7047771215438843, 8.359188079833984, -0.16046355664730072, -0.5699465870857239, -0.9874975681304932, -0.028076171875, 0.148193359375, -0.82421875
218, 2411655081, -4.598632335662842, -1.7035338878631592, 8.34669303894043, -0.2181817591190338, -0.506670355796814, -0.9047557711601257, -0.028564453125, 0.1494140625, -0.824951171875
219, 2411671748, -4.58927059173584, -1.692533254623413, 8.365479469299316, -0.15358653664588928, -0.4404103457927704, -0.9223132133483887, -0.026123046875, 0.14990234375, -0.825439453125
220, 2411688415, -4.603343963623047, -1.6927851438522339, 8.372882843017578, -0.19063393771648407, -0.464117169380188, -0.9094974398612976, -0.02783203125, 0.147705078125, -0.824951171875
221, 2411705082, -4.610193252563477, -1.7008205652236938, 8.367759704589844, -0.15856823325157166, -0.5603547096252441, -0.9082903861999512, -0.0283203125, 0.146240234375, -0.82177734375
222, 2411721749, -4.588388442993164, -1.700502634048462, 8.35545825958252, -0.13257133960723877, -0.6490130424499512, -0.9131824374198914, -0.028076171875, 0.148681640625, -0.822265625
223, 2411738416, -4.581460952758789, -1.6988445520401, 8.358043670654297, -0.07927130162715912, -0.5671420693397522, -0.8611885905265808, -0.0263671875, 0.1494140625, -0.82373046875
224, 2411755083, -4.58356237411499, -1.6940480470657349, 8.372642517089844, -0.2817140817642212, -0.4187420606613159, -0.9340695738792419, -0.028564453125, 0.14990234375, -0.825927734375
225, 2411771750, -4.60137939453125, -1.6862739324569702, 8.328874588012695, -0.22696691751480103, -0.33462992310523987, -0.9029372334480286, -0.028564453125, 0.1513671875, -0.825439453125
226, 2411788417, -4.597755432128906, -1.7174279689788818, 8.37857437133789, -0.20121335983276367, -0.36805447936058044, -0.9328912496566772, -0.025390625, 0.147705078125, -0.8251953125
227, 2411805084, -4.601265907287598, -1.7057361602783203, 8.37634563446045, -0.23744253814220428, -0.27646347880363464, -0.965790867805481, -0.02685546875, 0.145751953125, -0.822265625
228, 2411821751, -4.611827373504639, -1.6990537643432617, 8.357503890991211, -0.14048567414283752, -0.4126078188419342, -0.9310473203659058, -0.02734375, 0.148193359375, -0.82177734375
229, 2411838418, -4.59592866897583, -1.701483130455017, 8.36071491241455, -0.131162628531456, -0.4959258437156677, -0.9261167645454407, -0.02587890625, 0.1484375, -0.82421875
230, 2411855085, -4.605790615081787, -1.6935828924179077, 8.347996711730957, -0.18444988131523132, -0.4569946229457855, -0.9171139597892761, -0.026611328125, 0.1494140625, -0.82177734375
231, 2411871752, -4.587319850921631, -1.6859264373779297, 8.338980674743652, -0.20077794790267944, -0.4710175395011902, -0.9314698576927185, -0.0263671875, 0.148681640625, -0.8251953125
232, 2411888419, -4.591809272766113, -1.700387954711914, 8.361123085021973, -0.12895992398262024, -0.42957618832588196, -0.8807950615882874, -0.025634765625, 0.150390625, -0.8251953125
233, 2411905086, -4.592047214508057, -1.685950756072998, 8.349222183227539, -0.07487872242927551, -0.5838415622711182, -0.9166785478591919, -0.027587890625, 0.147705078125, -0.822265625
234, 2411921753, -4.602252960205078, -1.6929996013641357, 8.35506534576416, -0.005340247415006161, -0.612373948097229, -0.8388798236846924, -0.02734375, 0.148193359375, -0.8232421875
235, 2411938420, -4.60111665725708, -1.6883599758148193, 8.334050178527832, 0.04384253919124603, -0.5430788397789001, -0.879027783870697, -0.02783203125, 0.147216796875, -0.82421875
236, 2411955087, -4.5837273597717285, -1.692794680595398, 8.334550857543945, -0.05907568708062172, -0.5620962977409363, -0.8374456167221069, -0.02685546875, 0.148681640625, -0.825439453125
237, 2411971754, -4.604959487915039, -1.6904832124710083, 8.35007381439209, 0.00902207288891077, -0.5863003730773926, -0.8050071597099304, -0.027099609375, 0.14892578125, -0.827880859375
238, 2411988421, -4.581073760986328, -1.6783521175384521, 8.355104446411133, 0.06316731870174408, -0.5443466305732727, -0.8313241600990295, -0.02685546875, 0.148681640625, -0.8251953125
239, 2412005088, -4.5932207107543945, -1.6791635751724243, 8.3488187789917, -0.004533447325229645, -0.6201602816581726, -0.8299538493156433, -0.02685546875, 0.147216796875, -0.82470703125
240, 2412021755, -4.594912528991699, -1.6985273361206055, 8.362953186035156, 0.008087209425866604, -0.6469511389732361, -0.8773245811462402, -0.02734375, 0.146728515625, -0.8251953125
241, 2412038422, -4.595462322235107, -1.6875394582748413, 8.36588191986084, -0.046884045004844666, -0.6224397420883179, -0.886212170124054, -0.028564453125, 0.148681640625, -0.824462890625
242, 2412055089, -4.605766773223877, -1.6915464401245117, 8.361462593078613, -0.18964925408363342, -0.6054202318191528, -0.9037826061248779, -0.028564453125, 0.148193359375, -0.824951171875
243, 2412071756, -4.588696002960205, -1.6893502473831177, 8.374114990234375, -0.1056651920080185, -0.6929259300231934, -0.9173315763473511, -0.028076171875, 0.149169921875, -0.824951171875
244, 2412088423, -4.600297927856445, -1.6704456806182861, 8.36744213104248, -0.04950934275984764, -0.5897707939147949, -0.9511916041374207, -0.0283203125, 0.146728515625, -0.826416015625
245, 2412105090, -4.5894575119018555, -1.7061033248901367, 8.363106727600098, -0.19442600011825562, -0.6427506804466248, -0.930202066898346, -0.02734375, 0.147216796875, -0.82421875
246, 2412121757, -4.592538833618164, -1.6862215995788574, 8.351471900939941, -0.16773755848407745, -0.4744240343570709, -0.9042178988456726, -0.02685546875, 0.147216796875, -0.82470703125
247, 2412138424, -4.5847554206848145, -1.7052373886108398, 8.364521980285645, -0.10672811418771744, -0.4522818326950073, -0.8952022194862366, -0.0263671875, 0.1484375, -0.826904296875
248, 2412155091, -4.592563152313232, -1.6872066259384155, 8.36315631866455, 0.010225869715213776, -0.5904111266136169, -0.8056090474128723, -0.027587890625, 0.14990234375, -0.826416015625
249, 2412171758, -4.605669975280762, -1.691959261894226, 8.348517417907715, -0.02931373566389084, -0.6769436597824097, -0.9333394765853882, -0.02734375, 0.147216796875, -0.827392578125
250, 2412188425, -4.60750150680542, -1.6860045194625854, 8.35142993927002, -0.0888376459479332, -0.6659173369407654, -0.8952534794807434, -0.02783203125, 0.147216796875, -0.825439453125
251, 2412205092, -4.60096549987793, -1.6869186162948608, 8.360761642456055, 0.012838365510106087, -0.7034143209457397, -0.9044868350028992, -0.02734375, 0.147705078125, -0.825439453125
252, 2412221759, -4.603911876678467, -1.6879520416259766, 8.37214183807373, -0.053799472749233246, -0.7278361320495605, -0.9442378282546997, -0.02685546875, 0.147216796875, -0.82470703125
253, 2412238426, -4.5862812995910645, -1.6833051443099976, 8.353838920593262, -0.07814434915781021, -0.7418846487998962, -0.9378986358642578, -0.027587890625, 0.150390625, -0.827392578125
254, 2412255093, -4.595108985900879, -1.6755961179733276, 8.337472915649414, 0.03242121636867523, -0.843860924243927, -0.9810380935668945, -0.029052734375, 0.14990234375, -0.826904296875
255, 2412271760, -4.592962265014648, -1.681422472000122, 8.355971336364746, -0.05774382874369621, -0.8229232430458069, -0.9551103711128235, -0.028076171875, 0.149169921875, -0.824462890625
256, 2412288427, -4.601352691650391, -1.6857515573501587, 8.339552879333496, -0.0768124908208847, -0.8582302927970886, -1.0146342515945435, -0.029052734375, 0.148193359375, -0.825927734375
257, 2412305094, -4.596913814544678, -1.6836713552474976, 8.35682487487793, -0.07202291488647461, -0.8685651421546936, -1.0491092205047607, -0.02783203125, 0.147216796875, -0.8212890625
258, 2412321761, -4.592935562133789, -1.6789036989212036, 8.353175163269043, -0.11133841425180435, -0.8556819558143616, -1.0089226961135864, -0.028076171875, 0.149169921875, -0.824462890625
259, 2412338428, -4.595218181610107, -1.6666741371154785, 8.354050636291504, -0.17560067772865295, -0.7756550312042236, -1.0860810279846191, -0.02734375, 0.147705078125, -0.825439453125
260, 2412355095, -4.587226867675781, -1.6753846406936646, 8.354662895202637, -0.1337238997220993, -0.8708701729774475, -1.0682543516159058, -0.028076171875, 0.148193359375, -0.826416015625
261, 2412371762, -4.5835466384887695, -1.689781665802002, 8.34613037109375, -0.0673229768872261, -0.7426401972770691, -1.0764504671096802, -0.028076171875, 0.149169921875, -0.82421875
262, 2412388429, -4.600105285644531, -1.6625992059707642, 8.356646537780762, -0.24074658751487732, -0.7347003817558289, -1.0644253492355347, -0.02734375, 0.145751953125, -0.826904296875
263, 2412405096, -4.5976386070251465, -1.688933253288269, 8.351042747497559, -0.23020696640014648, -0.6960892081260681, -1.0814578533172607, -0.0263671875, 0.146240234375, -0.82568359375
264, 2412421763, -4.587408065795898, -1.681315302848816, 8.348386764526367, -0.18195262551307678, -0.6486159563064575, -0.9831306338310242, -0.028564453125, 0.146728515625, -0.824462890625
265, 2412438430, -4.57594108581543, -1.6873680353164673, 8.355998992919922, -0.16410057246685028, -0.6359121203422546, -1.0569977760314941, -0.031005859375, 0.147216796875, -0.822998046875
266, 2412455097, -4.602705478668213, -1.6814088821411133, 8.355080604553223, -0.1979733407497406, -0.6010019779205322, -0.9047557711601257, -0.027587890625, 0.14990234375, -0.824951171875
267, 2412471764, -4.601428985595703, -1.6729487180709839, 8.334009170532227, -0.16467684507369995, -0.7105987071990967, -0.939191997051239, -0.02587890625, 0.147216796875, -0.826416015625
268, 2412488431, -4.58971643447876, -1.677423357963562, 8.356245994567871, -0.2104211449623108, -0.7459698915481567, -1.0118426084518433, -0.028076171875, 0.147705078125, -0.8212890625
269, 2412505098, -4.584228992462158, -1.6783636808395386, 8.361987113952637, -0.11518030613660812, -0.8489457964897156, -1.040118932723999, -0.0263671875, 0.147216796875, -0.82421875
270, 2412521765, -4.589818477630615, -1.6738393306732178, 8.368997573852539, -0.16314011812210083, -0.8373432755470276, -1.0096911191940308, -0.0244140625, 0.14990234375, -0.8251953125
271, 2412538432, -4.5858988761901855, -1.6689168214797974, 8.363548278808594, -0.04206886142492294, -0.846077024936676, -1.165160059928894, -0.029052734375, 0.147216796875, -0.825439453125
272, 2412555099, -4.593477249145508, -1.6549770832061768, 8.366273880004883, -0.2789863348007202, -0.4920584261417389, -1.1095036268234253, -0.028564453125, 0.148193359375, -0.824951171875
273, 2412571766, -4.591558456420898, -1.6845773458480835, 8.323676109313965, -0.11286234110593796, -0.6166384816169739, -1.1045347452163696, -0.028564453125, 0.1494140625, -0.826904296875
274, 2412588433, -4.586408615112305, -1.6927785873413086, 8.346744537353516, -0.14181752502918243, -0.7136210799217224, -1.0958137512207031, -0.028564453125, 0.14990234375, -0.826416015625
275, 2412605100, -4.595486640930176, -1.684810996055603, 8.336180686950684, -0.11429666727781296, -0.9356446862220764, -1.0631574392318726, -0.028076171875, 0.147216796875, -0.8232421875
276, 2412621767, -4.601069450378418, -1.6915159225463867, 8.365096092224121, -0.019068656489253044, -1.0577788352966309, -0.9821189045906067, -0.02734375, 0.147705078125, -0.82373046875
277, 2412638434, -4.590392112731934, -1.6779934167861938, 8.367450714111328, 0.1426563262939453, -1.0316667556762695, -0.9290109872817993, -0.030517578125, 0.146728515625, -0.825927734375
278, 2412655101, -4.587068557739258, -1.669467568397522, 8.38605785369873, 0.15343928337097168, -1.1387790441513062, -0.9301892518997192, -0.029052734375, 0.147216796875, -0.827880859375
279, 2412671768, -4.575847148895264, -1.672382116317749, 8.381967544555664, 0.24278919398784637, -1.166773796081543, -0.9365667700767517, -0.027587890625, 0.148681640625, -0.825439453125
280, 2412688435, -4.586522579193115, -1.646133303642273, 8.376288414001465, 0.035467181354761124, -1.040234088897705, -1.024213194847107, -0.029541015625, 0.148193359375, -0.823486328125
281, 2412705102, -4.595241069793701, -1.6939337253570557, 8.382521629333496, -0.5909746289253235, -0.8263553380966187, -1.040093183517456, -0.028564453125, 0.146240234375, -0.8232421875
282, 2412721769, -4.587274074554443, -1.6787562370300293, 8.335533142089844, -1.1745340824127197, -0.8753010630607605, -1.2577115297317505, -0.030029296875, 0.145751953125, -0.824951171875
283, 2412738436, -4.5618391036987305, -1.6704784631729126, 8.361042022705078, -0.865722119808197, -1.0012134313583374, -1.1526355743408203, -0.028076171875, 0.14990234375, -0.825439453125
284, 2412755103, -4.571256160736084, -1.671069622039795, 8.33527946472168, -0.5383789539337158, -0.8714208602905273, -1.1440808773040771, -0.028564453125, 0.147705078125, -0.826416015625
285, 2412771770, -4.57583475112915, -1.6722385883331299, 8.374373435974121, -0.491635799407959, -0.7901774048805237, -1.1099390983581543, -0.027587890625, 0.14892578125, -0.826904296875
286, 2412788437, -4.570670127868652, -1.6605175733566284, 8.381832122802734, -0.3755461573600769, -0.649973452091217, -1.1539287567138672, -0.028564453125, 0.149169921875, -0.825439453125
287, 2412805104, -4.586551189422607, -1.676118016242981, 8.364429473876953, -0.4797930419445038, -0.7042377591133118, -1.2706581354141235, -0.028076171875, 0.147705078125, -0.824951171875
288, 2412821771, -4.584714412689209, -1.6852132081985474, 8.350934028625488, -0.90096515417099, -0.6478860974311829, -1.2748081684112549, -0.029541015625, 0.149169921875, -0.825927734375
289, 2412838438, -4.551971435546875, -1.6680113077163696, 8.355185508728027, -0.7517839074134827, -0.4783427119255066, -1.2966043949127197, -0.027587890625, 0.148681640625, -0.826904296875
290, 2412855105, -4.561678886413574, -1.6940830945968628, 8.360363960266113, -0.6987528800964355, -0.4299219846725464, -1.2461858987808228, -0.029541015625, 0.149169921875, -0.824951171875
291, 2412871772, -4.5543670654296875, -1.7015459537506104, 8.354291915893555, -0.5560773611068726, -0.42619529366493225, -1.1383436918258667, -0.030029296875, 0.148681640625, -0.826904296875
292, 2412888439, -4.572083473205566, -1.6859949827194214, 8.362305641174316, -0.5395315289497375, -0.4855399429798126, -1.0725574493408203, -0.030029296875, 0.14990234375, -0.824462890625
293, 2412905106, -4.593394756317139, -1.6856868267059326, 8.367935180664062, -0.5302213430404663, -0.5239590406417847, -1.1539162397384644, -0.028076171875, 0.148193359375, -0.82275390625
294, 2412921773, -4.596384525299072, -1.6807032823562622, 8.363566398620605, -0.795876145362854, -0.47912395000457764, -1.1890696287155151, -0.028564453125, 0.1494140625, -0.82275390625
295, 2412938440, -4.5573320388793945, -1.6960291862487793, 8.357563018798828, -0.8288269639015198, -0.5609309077262878, -1.1922839879989624, -0.029541015625, 0.147705078125, -0.825927734375
296, 2412955107, -4.557793617248535, -1.6920433044433594, 8.364842414855957, -0.7166945934295654, -0.6176374554634094, -1.2073185443878174, -0.030029296875, 0.15087890625, -0.825439453125
297, 2412971774, -4.5759735107421875, -1.6864573955535889, 8.368579864501953, -0.8895675539970398, -0.5336790084838867, -1.3235875368118286, -0.029541015625, 0.148681640625, -0.828857421875
298, 2412988441, -4.569100856781006, -1.6931923627853394, 8.374112129211426, -0.9644846320152283, -0.5046854019165039, -1.4607563018798828, -0.030517578125, 0.14990234375, -0.825927734375
299, 2413005108, -4.598217964172363, -1.6659533977508545, 8.397934913635254, -1.4639835357666016, -0.5397236347198486, -1.5340086221694946, -0.030029296875, 0.149169921875, -0.823974609375
300, 2413021775, -4.576650619506836, -1.7116516828536987, 8.337207794189453, -1.93039071559906, -0.4675598442554474, -1.8137633800506592, -0.027099609375, 0.15087890625, -0.825439453125
301, 2413038442, -4.572718143463135, -1.7231014966964722, 8.36325740814209, -1.7157820463180542, -0.29841357469558716, -1.6663494110107422, -0.029541015625, 0.150390625, -0.82275390625
302, 2413055109, -4.5927605628967285, -1.7383060455322266, 8.357179641723633, -1.8097933530807495, -0.4473385810852051, -1.7226076126098633, -0.030517578125, 0.1513671875, -0.824462890625
303, 2413071776, -4.597452163696289, -1.7184686660766602, 8.356314659118652, -2.003220558166504, -0.58638995885849, -1.8333698511123657, -0.029052734375, 0.150390625, -0.825927734375
304, 2413088443, -4.575013160705566, -1.7436481714248657, 8.369637489318848, -1.7741657495498657, -0.7827496528625488, -1.7952834367752075, -0.028076171875, 0.15185546875, -0.827880859375
305, 2413105110, -4.588606357574463, -1.7232152223587036, 8.38298225402832, -2.1946113109588623, -1.0012900829315186, -2.0512828826904297, -0.027099609375, 0.1513671875, -0.825439453125
306, 2413121777, -4.567762851715088, -1.738728642463684, 8.335088729858398, -1.9627652168273926, -1.0562037229537964, -1.9306597709655762, -0.030517578125, 0.15185546875, -0.824462890625
307, 2413138444, -4.5825514793396, -1.7153581380844116, 8.355562210083008, -1.735695719718933, -1.0516571998596191, -1.9496768712997437, -0.031494140625, 0.1533203125, -0.822998046875
308, 2413155111, -4.546555042266846, -1.7749695777893066, 8.329658508300781, -1.4412521123886108, -1.10402250289917, -1.8751697540283203, -0.031005859375, 0.15380859375, -0.826904296875
309, 2413171778, -4.514230251312256, -1.7956948280334473, 8.35583782196045, -0.7574188113212585, -1.0687410831451416, -1.3989014625549316, -0.030029296875, 0.154296875, -0.826416015625
310, 2413188445, -4.544641494750977, -1.7820073366165161, 8.322924613952637, -0.3488321602344513, -1.0217161178588867, -1.0841727256774902, -0.029052734375, 0.15478515625, -0.825439453125
311, 2413205112, -4.523589134216309, -1.7698702812194824, 8.344432830810547, 0.3258383572101593, -0.8410569429397583, -0.7798298001289368, -0.029541015625, 0.15283203125, -0.822998046875
312, 2413221779, -4.54564905166626, -1.7618234157562256, 8.344346046447754, 0.7044324278831482, -0.6122715473175049, -0.5374696850776672, -0.031982421875, 0.15380859375, -0.820068359375
313, 2413238446, -4.566551208496094, -1.6768527030944824, 8.381732940673828, -0.6918118596076965, 0.06353870034217834, -1.171358346939087, -0.031982421875, 0.15576171875, -0.822021484375
314, 2413255113, -4.557459831237793, -1.7007858753204346, 8.369379997253418, -1.593353271484375, 0.9144182801246643, -1.5602232217788696, -0.030029296875, 0.1533203125, -0.827392578125
315, 2413271780, -4.565155982971191, -1.7989542484283447, 8.345314979553223, -1.4841536283493042, 1.1065518856048584, -1.501711130142212, -0.031005859375, 0.15380859375, -0.826904296875
316, 2413288447, -4.542954444885254, -1.8028141260147095, 8.303258895874023, -1.3146103620529175, 1.0525987148284912, -1.3077460527420044, -0.028564453125, 0.154296875, -0.826904296875
317, 2413305114, -4.588895320892334, -1.7933999300003052, 8.31455135345459, -0.761337399482727, 0.8378745913505554, -0.945428729057312, -0.028564453125, 0.15234375, -0.82275390625
318, 2413321781, -4.601128578186035, -1.761014699935913, 8.346726417541504, -0.03412892669439316, 0.43636998534202576, -0.7298083305358887, -0.029052734375, 0.1533203125, -0.824462890625
319, 2413338448, -4.586329936981201, -1.792864441871643, 8.321673393249512, 0.23359420895576477, 0.471100777387619, -0.8026379346847534, -0.030029296875, 0.15478515625, -0.825439453125
320, 2413355115, -4.6044816970825195, -1.748365044593811, 8.323235511779785, 0.09851285070180893, 1.0817205905914307, -1.1218363046646118, -0.028564453125, 0.1533203125, -0.82275390625
321, 2413371782, -4.616774559020996, -1.7731049060821533, 8.380242347717285, -0.05829799920320511, 1.7969220876693726, -1.5225743055343628, -0.030029296875, 0.15625, -0.824462890625
322, 2413388449, -4.601588726043701, -1.6927244663238525, 8.348275184631348, -0.9859736561775208, 4.391892910003662, -2.1409783363342285, -0.025634765625, 0.15283203125, -0.82373046875
323, 2413405116, -4.502786159515381, -1.7590020895004272, 8.484992980957031, -3.296701192855835, 9.47252082824707, -2.043971061706543, -0.024658203125, 0.154296875, -0.822265625
324, 2413421783, -4.215474605560303, -1.6005170345306396, 8.503501892089844, -5.665587425231934, 17.516233444213867, -0.8070572018623352, -0.02099609375, 0.154296875, -0.822265625
325, 2413438450, -3.9825124740600586, -1.4367989301681519, 8.693416595458984, -8.564495086669922, 30.801448822021484, -0.7392491698265076, -0.0146484375, 0.156982421875, -0.82275390625
326, 2413455117, -1.7186840772628784, -1.5868151187896729, 9.630454063415527, -17.380142211914062, 70.67986297607422, 4.614591598510742, -0.001220703125, 0.16259765625, -0.822998046875
327, 2413471784, -3.9718222618103027, -2.5871543884277344, 9.966266632080078, -13.61851978302002, 124.02671813964844, 15.468236923217773, 0.025146484375, 0.165283203125, -0.8203125
328, 2413488451, -4.5459885597229, -3.603301525115967, 10.46069049835205, -2.222201108932495, 139.38385009765625, 28.552913665771484, 0.05810546875, 0.1630859375, -0.816162109375
329, 2413505118, -5.079809665679932, -4.441884994506836, 10.774591445922852, 24.579423904418945, 137.57342529296875, 38.36286926269531, 0.095947265625, 0.157470703125, -0.811767578125
330, 2413521785, -2.718311309814453, -4.476985454559326, 12.406769752502441, 49.42255783081055, 127.99546813964844, 40.9786262512207, 0.131591796875, 0.1455078125, -0.804443359375
331, 2413538452, -3.100501537322998, -4.162960052490234, 15.479084968566895, 52.77816390991211, 96.77117156982422, 27.425125122070312, 0.162353515625, 0.12939453125, -0.79833984375
332, 2413555119, 1.2175265550613403, -2.906081438064575, 13.022592544555664, 41.684608459472656, 58.88138198852539, 18.43870735168457, 0.181396484375, 0.118408203125, -0.791259765625
333, 2413571786, 3.1984119415283203, -2.431577444076538, 11.627022743225098, 31.607763290405273, 39.052425384521484, 20.2042293548584, 0.196533203125, 0.109375, -0.781982421875
334, 2413588453, 3.488593578338623, -2.6189627647399902, 11.429335594177246, 17.11446189880371, 17.091907501220703, 20.887737274169922, 0.209228515625, 0.100341796875, -0.77197265625
335, 2413605120, 3.1387250423431396, -3.4409756660461426, 11.227950096130371, 2.7102808952331543, -5.274569034576416, 14.519062995910645, 0.216796875, 0.092529296875, -0.76025390625
336, 2413621787, 1.6733107566833496, -4.11423921585083, 11.66474437713623, -6.926358699798584, -27.63147735595703, -1.7154408693313599, 0.22216796875, 0.091064453125, -0.753173828125
337, 2413638454, -0.19555646181106567, -4.3547821044921875, 12.291499137878418, -14.139632225036621, -53.79262924194336, -23.89546775817871, 0.22412109375, 0.092041015625, -0.74755859375
338, 2413655121, -1.309139370918274, -4.348297119140625, 11.814987182617188, -12.44877815246582, -80.35130310058594, -41.88398742675781, 0.22021484375, 0.098388671875, -0.747802734375
339, 2413671788, -1.6254833936691284, -3.72371244430542, 10.591085433959961, -5.1417436599731445, -95.62901306152344, -50.41764450073242, 0.212646484375, 0.100830078125, -0.75048828125
340, 2413688455, -1.8167845010757446, -3.1099750995635986, 9.744205474853516, 1.4910478591918945, -96.22796630859375, -50.530555725097656, 0.21044921875, 0.10791015625, -0.758056640625
341, 2413705122, -3.00683331489563, -2.554657459259033, 10.492427825927734, 4.0845208168029785, -90.05753326416016, -45.535377502441406, 0.199462890625, 0.11083984375, -0.76123046875
342, 2413721789, -6.769562244415283, -1.6910876035690308, 14.124762535095215, -16.987184524536133, -96.68294525146484, -47.5410270690918, 0.187744140625, 0.121337890625, -0.77099609375
343, 2413738456, -10.56503963470459, -1.957364559173584, 16.431320190429688, -58.1551399230957, -140.59535217285156, -65.02593231201172, 0.16650390625, 0.144287109375, -0.78173828125
344, 2413755123, -10.423724174499512, -2.901585340499878, 14.27550220489502, -63.235652923583984, -191.13392639160156, -74.34747314453125, 0.127197265625, 0.171142578125, -0.795166015625
345, 2413771790, -8.799764633178711, -1.5078964233398438, 10.95003604888916, -34.57623291015625, -216.25257873535156, -64.09407806396484, 0.073486328125, 0.19140625, -0.81005859375
346, 2413788457, -7.384791851043701, 0.8051679134368896, 8.635931015014648, -18.432926177978516, -213.16390991210938, -42.17594909667969, 0.0146484375, 0.202392578125, -0.82275390625
347, 2413805124, -6.951508522033691, 1.6357595920562744, 7.701215744018555, -27.10348129272461, -193.19769287109375, -19.558828353881836, -0.037353515625, 0.210205078125, -0.827392578125
348, 2413821791, -9.16114330291748, 1.1843384504318237, 9.611329078674316, -38.932430267333984, -178.8710479736328, 0.6361473202705383, -0.08740234375, 0.2216796875, -0.823486328125
349, 2413838458, -11.803428649902344, 0.541624128818512, 10.483694076538086, -49.63361740112305, -206.488525390625, 9.644021034240723, -0.139404296875, 0.23486328125, -0.817138671875
350, 2413855125, -6.99794340133667, 0.8335840106010437, 4.081340312957764, -35.1329345703125, -211.30587768554688, 29.819849014282227, -0.193115234375, 0.2490234375, -0.8037109375
351, 2413871792, -5.2217864990234375, 1.3946025371551514, 0.6108822226524353, -21.27701187133789, -151.4955596923828, 54.379730224609375, -0.235595703125, 0.257568359375, -0.791259765625
352, 2413888459, -6.924195766448975, 0.18102213740348816, 1.0732687711715698, -28.64039421081543, -90.10546112060547, 53.769954681396484, -0.255126953125, 0.26806640625, -0.783203125
353, 2413905126, -7.477574825286865, -1.1659550666809082, 1.4378045797348022, -21.476640701293945, -45.622352600097656, 38.15523910522461, -0.267333984375, 0.27587890625, -0.7744140625
354, 2413921793, -7.905770778656006, -0.9083514213562012, 2.1382577419281006, -7.153656482696533, -8.709992408752441, 16.126941680908203, -0.27001953125, 0.28076171875, -0.77001953125
355, 2413938460, -8.992652893066406, -0.9430877566337585, 3.2181479930877686, 1.5499223470687866, 17.23692512512207, -1.4267442226409912, -0.27099609375, 0.28173828125, -0.7705078125
356, 2413955127, -8.71779727935791, -0.948664128780365, 3.6614038944244385, 14.892186164855957, 29.216209411621094, -8.359596252441406, -0.263916015625, 0.280029296875, -0.77734375
357, 2413971794, -7.9882493019104, -0.7914615273475647, 4.215840816497803, 30.58254051208496, 44.369911193847656, -7.108610153198242, -0.2568359375, 0.271484375, -0.78173828125
358, 2413988461, -8.41441535949707, -0.4193938076496124, 6.0625739097595215, 26.736610412597656, 50.72490310668945, -5.318808555603027, -0.245849609375, 0.2666015625, -0.786865234375
359, 2414005128, -6.940290451049805, -0.6745328307151794, 5.205418109893799, 11.500986099243164, 53.59767150878906, -1.9434481859207153, -0.234130859375, 0.260986328125, -0.791748046875
360, 2414021795, 3.4392669200897217, -4.857770919799805, 7.573995590209961, 52.126155853271484, 43.007022857666016, 32.21382141113281, -0.22216796875, 0.254638671875, -0.79638671875
361, 2414038462, 3.504707098007202, -5.2437567710876465, 15.408748626708984, -12.44994831085205, 104.42121887207031, 30.55384063720703, -0.2041015625, 0.25390625, -0.803955078125
362, 2414055129, 2.6378138065338135, -10.556511878967285, 4.917181015014648, -56.074581146240234, 156.15487670898438, -13.112381935119629, -0.16845703125, 0.271240234375, -0.805419921875
363, 2414071796, -8.7279052734375, 4.635207653045654, 11.25308609008789, -15.17988395690918, 178.73960876464844, 26.176210403442383, -0.124755859375, 0.274658203125, -0.815673828125
364, 2414088463, -8.47591495513916, 2.978694200515747, 13.845711708068848, -22.7023983001709, 134.06546020507812, 39.958133697509766, -0.08740234375, 0.283203125, -0.818115234375
365, 2414105130, -6.945108890533447, -6.948929786682129, 9.588601112365723, -22.716962814331055, 122.27657318115234, 25.371593475341797, -0.05517578125, 0.288330078125, -0.8173828125
366, 2414121797, -7.133653163909912, -3.308561325073242, 10.620173454284668, -14.521462440490723, 112.3264389038086, 18.97952651977539, -0.025146484375, 0.291259765625, -0.81884765625
367, 2414138464, -5.0142903327941895, -2.6832642555236816, 8.751596450805664, -32.22002029418945, 106.42137145996094, 6.937265872955322, 0.003173828125, 0.2958984375, -0.8193359375
368, 2414155131, -6.873721122741699, -3.471893787384033, 10.712417602539062, -35.28094482421875, 104.8110122680664, 0.1256549209356308, 0.02783203125, 0.309814453125, -0.81396484375
369, 2414171798, -9.400508880615234, -4.349425315856934, 10.83579158782959, 1.278506875038147, 60.874752044677734, 8.910463333129883, 0.0458984375, 0.309326171875, -0.81396484375
370, 2414188465, -5.0052690505981445, -2.964320182800293, 9.001815795898438, 10.117481231689453, 35.83780288696289, 1.8037896156311035, 0.053955078125, 0.306884765625, -0.811279296875
371, 2414205132, -4.577851295471191, -2.249413013458252, 8.776392936706543, 14.114962577819824, 24.70411491394043, 1.707200288772583, 0.0625, 0.302978515625, -0.8125
372, 2414221799, -4.14849328994751, -2.672856569290161, 8.193750381469727, 11.310955047607422, 20.46514320373535, 2.7788870334625244, 0.068359375, 0.302490234375, -0.81201171875
373, 2414238466, -4.633948802947998, -2.836763620376587, 8.17494010925293, 11.229860305786133, 18.407255172729492, 4.439091682434082, 0.073974609375, 0.300048828125, -0.8154296875
374, 2414255133, -5.008548736572266, -2.934535264968872, 8.223052978515625, 12.903946876525879, 15.257476806640625, 5.5771164894104, 0.07861328125, 0.294677734375, -0.815673828125
375, 2414271800, -4.348583698272705, -2.740692615509033, 8.085908889770508, 16.127275466918945, 14.758352279663086, 7.122282981872559, 0.07861328125, 0.29248046875, -0.818603515625
376, 2414288467, -4.833123683929443, -2.7707409858703613, 8.085013389587402, 18.955392837524414, 14.08181095123291, 8.102691650390625, 0.087646484375, 0.2890625, -0.8173828125
377, 2414305134, -4.5554070472717285, -2.516996383666992, 8.068812370300293, 24.87516212463379, 10.206018447875977, 11.47358226776123, 0.09228515625, 0.28125, -0.81982421875
378, 2414321801, -4.610775470733643, -2.5810115337371826, 8.141586303710938, 29.477846145629883, 7.140868663787842, 14.598587036132812, 0.0947265625, 0.272705078125, -0.82275390625
379, 2414338468, -4.596773624420166, -2.346435070037842, 8.168219566345215, 31.020103454589844, 1.959706425666809, 17.302278518676758, 0.093505859375, 0.265625, -0.82275390625
380, 2414355135, -4.6304426193237305, -2.555825710296631, 8.17000961303711, 23.764982223510742, -5.964103698730469, 19.065343856811523, 0.096923828125, 0.259521484375, -0.82666015625
381, 2414371802, -4.987227439880371, -3.078723192214966, 8.422652244567871, 27.260841369628906, -15.498078346252441, 22.097320556640625, 0.0947265625, 0.2529296875, -0.828125
382, 2414388469, -5.150918960571289, -1.925673246383667, 8.571144104003906, 23.735450744628906, -17.51481056213379, 20.182815551757812, 0.091796875, 0.245849609375, -0.83056640625
383, 2414405136, -4.986455917358398, -1.5802329778671265, 8.439701080322266, 20.314401626586914, -15.782122611999512, 16.933269500732422, 0.0908203125, 0.239013671875, -0.83251953125
384, 2414421803, -4.875543594360352, -1.5876710414886475, 8.40659236907959, 17.088642120361328, -11.817506790161133, 12.401713371276855, 0.0888671875, 0.23486328125, -0.834228515625
385, 2414438470, -4.595652103424072, -1.9067593812942505, 8.325074195861816, 13.625773429870605, -7.483283519744873, 9.766101837158203, 0.0888671875, 0.23291015625, -0.835693359375
386, 2414455137, -4.517032146453857, -1.954954743385315, 8.251500129699707, 13.552929878234863, -6.001369476318359, 10.293595314025879, 0.0849609375, 0.228759765625, -0.837158203125
387, 2414471804, -4.636709690093994, -2.0993456840515137, 8.237910270690918, 17.9425048828125, -7.247344970703125, 13.231461524963379, 0.087646484375, 0.223388671875, -0.841064453125
388, 2414488471, -4.703088283538818, -1.740251898765564, 8.421513557434082, 17.980363845825195, -7.269500255584717, 13.992515563964844, 0.084716796875, 0.2177734375, -0.837646484375
389, 2414505138, -4.4691996574401855, -1.4176136255264282, 8.445560455322266, 11.444206237792969, -1.8178757429122925, 11.302184104919434, 0.086181640625, 0.214111328125, -0.840576171875
390, 2414521805, -4.399019718170166, -1.5322188138961792, 8.442774772644043, 6.026473045349121, 4.910552501678467, 8.694101333618164, 0.086669921875, 0.214111328125, -0.839599609375
391, 2414538472, -4.443589210510254, -1.542120337486267, 8.48129940032959, 2.8551456928253174, 11.90169906616211, 7.615128993988037, 0.09033203125, 0.209716796875, -0.83984375
392, 2414555139, -4.32568359375, -1.843512773513794, 8.466938972473145, 3.835477352142334, 22.00248908996582, 8.46823501586914, 0.095703125, 0.211181640625, -0.84033203125
393, 2414571806, -4.5915751457214355, -1.846638798713684, 8.448465347290039, 8.181641578674316, 35.37696075439453, 12.79028606414795, 0.105712890625, 0.21044921875, -0.841064453125
394, 2414588473, -4.0133819580078125, -1.034264087677002, 8.729935646057129, 4.592871189117432, 51.59037399291992, 14.846532821655273, 0.11572265625, 0.20654296875, -0.8388671875
395, 2414605140, -4.478606700897217, -1.3083359003067017, 8.501886367797852, -5.3272833824157715, 79.15050506591797, 17.9056453704834, 0.1328125, 0.2060546875, -0.836181640625
396, 2414621807, -4.558647632598877, -1.1606775522232056, 8.444249153137207, -10.417616844177246, 106.5151138305664, 17.404390335083008, 0.162109375, 0.209228515625, -0.830078125
397, 2414638474, -4.818019866943359, -1.2770475149154663, 8.131961822509766, -13.134068489074707, 136.6520538330078, 17.34510040283203, 0.189453125, 0.210205078125, -0.823974609375
398, 2414655141, -5.124350547790527, -1.2421170473098755, 7.893546104431152, -13.328987121582031, 166.9707794189453, 16.174978256225586, 0.23095703125, 0.2109375, -0.81201171875
399, 2414671808, -5.435297012329102, -0.9801368117332458, 7.831671714782715, -14.529459953308105, 198.55007934570312, 13.335440635681152, 0.272705078125, 0.21435546875, -0.797607421875
400, 2414688475, -5.4432573318481445, -0.8976420760154724, 8.275696754455566, -20.134843826293945, 233.5833740234375, 6.846109867095947, 0.327880859375, 0.21728515625, -0.777099609375
401, 2414705142, -5.445239543914795, -1.5466266870498657, 7.524290561676025, -12.710577964782715, 276.0585021972656, 19.36322021484375, 0.38525390625, 0.216064453125, -0.74267578125
402, 2414721809, -5.689614295959473, -2.1713101863861084, 7.520699501037598, -0.24048997461795807, 345.4337463378906, 31.41839599609375, 0.4541015625, 0.215576171875, -0.70458984375
403, 2414738476, -6.9277238845825195, -2.8063724040985107, 8.803851127624512, 11.129310607910156, 432.46343994140625, 45.382286071777344, 0.5400390625, 0.208251953125, -0.644287109375
404, 2414755143, -11.73521900177002, -1.9709625244140625, 10.473055839538574, -2.6839988231658936, 495.5119934082031, 64.00381469726562, 0.6279296875, 0.1962890625, -0.56298828125
405, 2414771810, -17.783884048461914, -0.4844881296157837, 11.282247543334961, -26.853912353515625, 490.2089538574219, 68.0577621459961, 0.706787109375, 0.1845703125, -0.46337890625
406, 2414788477, -16.722518920898438, -3.377286672592163, 10.440384864807129, -20.960887908935547, 465.7790832519531, 61.96269226074219, 0.76513671875, 0.1728515625, -0.35595703125
407, 2414805144, -15.440532684326172, -4.86895751953125, 10.3587064743042, 6.889273643493652, 429.9681396484375, 74.28251647949219, 0.8037109375, 0.1552734375, -0.254638671875
408, 2414821811, -9.686433792114258, -3.7497174739837646, 12.031115531921387, 24.367420196533203, 374.80859375, 76.19731140136719, 0.82666015625, 0.130859375, -0.15966796875
409, 2414838478, -6.218837261199951, 2.9228851795196533, 16.8819522857666, -63.459991455078125, 258.2378845214844, 46.89832305908203, 0.834716796875, 0.11962890625, -0.088623046875
410, 2414855145, -28.639530181884766, -1.4132291078567505, 26.107620239257812, -168.12271118164062, 83.49102783203125, 84.5130386352539, 0.8369140625, 0.099853515625, -0.04931640625
411, 2414871812, -11.181387901306152, -8.917766571044922, 19.860986709594727, -171.55352783203125, -158.5718231201172, 6.128383636474609, 0.82568359375, 0.09228515625, -0.06201171875
412, 2414888479, -2.7834391593933105, -8.915640830993652, 8.193548202514648, -71.81078338623047, -256.81146240234375, 13.841840744018555, 0.814208984375, 0.088134765625, -0.101806640625
413, 2414905146, -1.2959389686584473, -5.613909721374512, 4.105536937713623, 27.33317756652832, -262.1400146484375, 27.433488845825195, 0.806884765625, 0.076171875, -0.14306640625
414, 2414921813, -1.679095983505249, -5.5586676597595215, 4.655482292175293, 88.5606689453125, -262.1009826660156, 24.83472442626953, 0.813232421875, 0.058349609375, -0.181396484375
415, 2414938480, -5.489861011505127, -4.760973930358887, 7.012851238250732, 103.43694305419922, -285.2201232910156, 3.8929786682128906, 0.83154296875, 0.04443359375, -0.233154296875
416, 2414955147, -8.481706619262695, -4.2665863037109375, 8.54173755645752, 73.71180725097656, -333.5050964355469, -46.38806915283203, 0.857421875, 0.043212890625, -0.321533203125
417, 2414971814, -8.469228744506836, -3.8762025833129883, 6.179646015167236, 50.33017349243164, -376.10784912109375, -87.32650756835938, 0.848876953125, 0.0546875, -0.461669921875
418, 2414988481, -5.982617378234863, -2.7298285961151123, 3.1679913997650146, 56.35779571533203, -372.47674560546875, -83.66158294677734, 0.787109375, 0.060546875, -0.609130859375
419, 2415005148, -6.197315692901611, -0.02532087452709675, 3.861006736755371, 40.508331298828125, -334.7947998046875, -63.888519287109375, 0.68408203125, 0.05517578125, -0.716064453125
420, 2415021815, -9.2940673828125, -0.4794449806213379, 7.9552812576293945, -11.549117088317871, -320.657958984375, -59.396480560302734, 0.57275390625, 0.0625, -0.780517578125
421, 2415038482, -11.16763687133789, -3.1749749183654785, 8.891173362731934, -39.6488151550293, -338.4863586425781, -70.07312774658203, 0.47802734375, 0.094970703125, -0.80615234375
422, 2415055149, -10.358848571777344, -3.3196487426757812, 8.15913200378418, -33.34664535522461, -341.4218444824219, -71.58306121826172, 0.4052734375, 0.1259765625, -0.825927734375
423, 2415071816, -9.769182205200195, 0.039345238357782364, 8.077874183654785, -54.55743408203125, -319.0319519042969, -67.21353149414062, 0.347900390625, 0.1552734375, -0.863525390625
424, 2415088483, -11.080327987670898, 1.0575082302093506, 8.838366508483887, -96.42301177978516, -278.7099304199219, -51.64112091064453, 0.26953125, 0.19384765625, -0.91455078125
425, 2415105150, -15.212069511413574, -0.41059982776641846, 12.768771171569824, -127.67695617675781, -261.4603271484375, -35.38740921020508, 0.164306640625, 0.233642578125, -0.9365234375
426, 2415121817, -16.473169326782227, -1.5732505321502686, 12.106438636779785, -129.2494659423828, -264.8544921875, -23.748153686523438, 0.049560546875, 0.267333984375, -0.92041015625
427, 2415138484, -19.111766815185547, -2.589858293533325, 11.680068969726562, -122.35445404052734, -259.846435546875, -22.122203826904297, -0.04052734375, 0.295654296875, -0.885498046875
428, 2415155151, -21.652021408081055, -3.0397562980651855, 9.066458702087402, -110.13158416748047, -260.4612731933594, -42.17302703857422, -0.11376953125, 0.315673828125, -0.847412109375
429, 2415171818, -20.87775421142578, -1.9162352085113525, 3.6603434085845947, -85.34695434570312, -243.59104919433594, -65.0875244140625, -0.177734375, 0.3291015625, -0.813232421875
430, 2415188485, -20.3349666595459, -0.013128995895385742, -0.14548301696777344, -59.03373718261719, -205.39425659179688, -82.76277160644531, -0.229736328125, 0.33447265625, -0.7841796875
431, 2415205152, -19.210752487182617, 2.7313594818115234, -3.575430393218994, -31.470165252685547, -153.5669403076172, -90.98533630371094, -0.273193359375, 0.3310546875, -0.761474609375
432, 2415221819, -20.697629928588867, 4.911253929138184, -5.895681858062744, -17.030805587768555, -100.8099136352539, -68.1960220336914, -0.300048828125, 0.325927734375, -0.745361328125
433, 2415238486, -20.90579605102539, 5.315291881561279, -7.307234764099121, -20.41879653930664, -46.32373809814453, -49.980220794677734, -0.3154296875, 0.32373046875, -0.736572265625
434, 2415255153, -21.608322143554688, 0.27074432373046875, -13.10488510131836, 70.05897521972656, 58.415069580078125, -15.64689826965332, -0.3173828125, 0.31103515625, -0.738525390625
435, 2415271820, 1.7488738298416138, 7.472686767578125, 3.7471306324005127, 120.29935455322266, 131.8854522705078, 43.394527435302734, -0.285400390625, 0.28662109375, -0.755859375
436, 2415288487, 0.5867127180099487, -3.925750970840454, 22.23058319091797, -9.133909225463867, 185.13687133789062, 13.023573875427246, -0.244384765625, 0.279541015625, -0.766845703125
437, 2415305154, -8.296873092651367, 8.29065227508545, 9.242157936096191, 1.323124885559082, 191.25723266601562, 54.2018928527832, -0.19970703125, 0.281005859375, -0.775146484375
438, 2415321821, -11.421595573425293, 4.483735084533691, 15.696974754333496, -23.308198928833008, 173.00033569335938, 55.63014602661133, -0.15380859375, 0.287841796875, -0.78076171875
439, 2415338488, -7.766507148742676, -11.63736343383789, 7.7521467208862305, -16.362876892089844, 139.6904296875, 35.85286331176758, -0.119384765625, 0.294677734375, -0.781494140625
440, 2415355155, -6.523351192474365, -5.810276985168457, 8.043883323669434, 2.029114007949829, 146.4131317138672, 29.477853775024414, -0.08447265625, 0.294189453125, -0.784912109375
441, 2415371822, -8.975675582885742, -1.6423649787902832, 11.227429389953613, 24.586021423339844, 118.04165649414062, 36.05674362182617, -0.05419921875, 0.288330078125, -0.789306640625
442, 2415388489, -8.460413932800293, -3.954272508621216, 10.397750854492188, 65.747314453125, 68.40880584716797, 33.81193542480469, -0.031494140625, 0.275390625, -0.792236328125
443, 2415405156, -6.600561141967773, 0.49200862646102905, 11.7655668258667, 52.15251159667969, 37.5258674621582, 19.310338973999023, -0.021240234375, 0.260498046875, -0.7958984375
444, 2415421823, -6.310824394226074, -3.254145860671997, 9.521649360656738, 32.81813049316406, 16.79821014404297, 12.159521102905273, -0.015625, 0.25341796875, -0.7978515625
445, 2415438490, -4.837112903594971, -1.505341649055481, 9.314453125, 16.94363021850586, 6.287934303283691, 10.59680461883545, -0.01318359375, 0.24853515625, -0.80126953125
446, 2415455157, -5.143834590911865, -2.2155942916870117, 8.458745956420898, 3.044217109680176, 2.1589395999908447, 5.158392429351807, -0.011962890625, 0.24853515625, -0.80126953125
447, 2415471824, -4.867465019226074, -1.8642443418502808, 8.631649017333984, 4.733963489532471, 2.1954121589660645, 2.757303476333618, -0.010986328125, 0.24658203125, -0.800537109375
448, 2415488491, -4.635012149810791, -1.9104773998260498, 8.533663749694824, 3.033984422683716, 3.221738576889038, 0.7389712333679199, -0.010009765625, 0.244873046875, -0.801513671875
449, 2415505158, -4.700273513793945, -2.1617157459259033, 8.31164836883545, 3.0427181720733643, 1.8065599203109741, 0.9300675988197327, -0.010009765625, 0.239990234375, -0.798095703125
450, 2415521825, -4.6128034591674805, -2.1255722045898438, 8.266490936279297, 4.8841047286987305, 0.5528565645217896, 2.5914483070373535, -0.009033203125, 0.241455078125, -0.803466796875
451, 2415538492, -4.613954544067383, -2.1822457313537598, 8.289338111877441, 6.057705402374268, -0.8583457469940186, 4.401562690734863, -0.009033203125, 0.241455078125, -0.8046875
452, 2415555159, -4.661472797393799, -2.0527162551879883, 8.20212173461914, 8.129133224487305, -2.340156078338623, 5.62426233291626, -0.009033203125, 0.238037109375, -0.804931640625
453, 2415571826, -4.623774528503418, -1.9263359308242798, 8.264568328857422, 9.702920913696289, -2.1022913455963135, 6.387983322143555, -0.00830078125, 0.237060546875, -0.804443359375
454, 2415588493, -4.625228404998779, -2.053002119064331, 8.274264335632324, 10.697761535644531, -2.7838592529296875, 7.773620128631592, -0.0078125, 0.23486328125, -0.802978515625
455, 2415605160, -4.555057525634766, -1.998365879058838, 8.389805793762207, 9.957890510559082, -1.8433165550231934, 9.196508407592773, -0.00830078125, 0.23046875, -0.803955078125
456, 2415621827, -4.596229076385498, -1.8995134830474854, 8.378929138183594, 8.559929847717285, -0.8434780240058899, 9.328836441040039, -0.0078125, 0.2294921875, -0.804931640625
457, 2415638494, -4.748387813568115, -1.8014780282974243, 8.359975814819336, 6.974129676818848, 2.176625967025757, 9.177105903625488, -0.005126953125, 0.225830078125, -0.807373046875
458, 2415655161, -4.761021614074707, -1.7531054019927979, 8.323661804199219, 5.80251407623291, 3.8820345401763916, 8.217689514160156, -0.003662109375, 0.22705078125, -0.806884765625
459, 2415671828, -4.750988006591797, -1.8189733028411865, 8.338555335998535, 4.3111371994018555, 5.3862690925598145, 7.739871501922607, -0.002685546875, 0.224853515625, -0.808349609375
460, 2415688495, -4.603665828704834, -1.836661458015442, 8.343520164489746, 2.7605574131011963, 8.239487648010254, 8.355194091796875, 7.32421875E-4, 0.224365234375, -0.806640625
461, 2415705162, -4.493110656738281, -1.9112459421157837, 8.359703063964844, 1.9966976642608643, 14.148680686950684, 9.407712936401367, 0.0029296875, 0.221435546875, -0.8076171875
462, 2415721829, -4.5643630027771, -1.731424331665039, 8.363917350769043, 0.9113721251487732, 21.35885238647461, 11.312440872192383, 0.00830078125, 0.222900390625, -0.8046875
463, 2415738496, -4.338371753692627, -1.4135675430297852, 8.401934623718262, -2.4892845153808594, 34.434818267822266, 12.56186580657959, 0.017333984375, 0.22412109375, -0.807861328125
464, 2415755163, -4.528832912445068, -1.3504042625427246, 8.35593032836914, -4.545926094055176, 50.392494201660156, 11.79444694519043, 0.029052734375, 0.225830078125, -0.80517578125
465, 2415771830, -4.65726375579834, -1.4883732795715332, 8.263400077819824, -8.655759811401367, 69.2975082397461, 10.020204544067383, 0.044677734375, 0.223876953125, -0.802734375
466, 2415788497, -4.748426914215088, -1.769944429397583, 8.12162971496582, -11.880780220031738, 90.6584701538086, 11.166043281555176, 0.06396484375, 0.2294921875, -0.801025390625
467, 2415805164, -4.897763252258301, -1.7315075397491455, 8.033437728881836, -12.850983619689941, 113.040771484375, 14.073271751403809, 0.08837890625, 0.227294921875, -0.7978515625
468, 2415821831, -5.27536678314209, -1.6106863021850586, 7.961915016174316, -12.588858604431152, 136.3651580810547, 15.899911880493164, 0.118408203125, 0.228515625, -0.79248046875
469, 2415838498, -5.536500930786133, -1.6061623096466064, 7.931981086730957, -9.51541519165039, 157.66773986816406, 17.842981338500977, 0.15576171875, 0.23291015625, -0.78515625
470, 2415855165, -5.35036563873291, -1.7183855772018433, 7.91192626953125, -4.045948028564453, 183.19703674316406, 22.68158721923828, 0.195556640625, 0.232666015625, -0.7763671875
471, 2415871832, -5.336126327514648, -1.8753775358200073, 7.873767375946045, 2.7486114501953125, 219.2891387939453, 34.382347106933594, 0.24560546875, 0.22998046875, -0.759765625
472, 2415888499, -5.687572002410889, -1.9882358312606812, 7.185140132904053, 10.029491424560547, 273.20892333984375, 54.33449172973633, 0.302490234375, 0.222900390625, -0.739501953125
473, 2415905166, -5.817748546600342, -2.493786096572876, 7.484508991241455, 24.48973846435547, 346.7140808105469, 79.94407653808594, 0.3759765625, 0.2080078125, -0.70458984375
474, 2415921833, -7.34331750869751, -3.0904622077941895, 8.968657493591309, 38.744300842285156, 440.8509826660156, 104.27072143554688, 0.4619140625, 0.18798828125, -0.655029296875
475, 2415938500, -12.800633430480957, -2.412294626235962, 10.700279235839844, 35.45869064331055, 495.3470764160156, 129.0081024169922, 0.55615234375, 0.161376953125, -0.578369140625
476, 2415955167, -20.400484085083008, -0.5499482154846191, 11.874095916748047, 19.881505966186523, 473.1286315917969, 123.21614837646484, 0.63916015625, 0.13330078125, -0.49169921875
477, 2415971834, -19.14651107788086, -5.471944332122803, 11.42793083190918, 25.501483917236328, 440.1121826171875, 116.19328308105469, 0.700927734375, 0.10302734375, -0.399169921875
478, 2415988501, -14.679677963256836, -3.728163957595825, 13.549810409545898, 41.92055892944336, 396.7392883300781, 121.73870086669922, 0.745849609375, 0.073974609375, -0.309326171875
479, 2416005168, -7.356630325317383, -3.8389244079589844, 15.667500495910645, 35.770938873291016, 320.17242431640625, 98.95793151855469, 0.773193359375, 0.04443359375, -0.226318359375
480, 2416021835, -20.865896224975586, -0.4296247363090515, 22.01676368713379, 28.718984603881836, 155.59596252441406, 122.70637512207031, 0.785400390625, 0.01318359375, -0.174560546875
481, 2416038502, -20.097562789916992, 0.136900395154953, 28.149883270263672, -101.32794952392578, -75.75753784179688, 24.553571701049805, 0.78466796875, 0.0, -0.169921875
482, 2416055169, -1.958385705947876, -6.835072994232178, 11.894206047058105, -103.05419158935547, -216.1570587158203, -22.805614471435547, 0.775146484375, 0.005126953125, -0.208251953125
483, 2416071836, 0.8313702344894409, -6.043961524963379, 4.541561126708984, -19.916545867919922, -209.28675842285156, 6.166201591491699, 0.759765625, -0.0029296875, -0.246337890625
484, 2416088503, 0.397204726934433, -4.300838947296143, 4.680372714996338, 53.30073165893555, -169.63284301757812, 8.375627517700195, 0.75146484375, -0.01513671875, -0.27099609375
485, 2416105170, -3.498549699783325, -5.209306716918945, 8.544896125793457, 74.39776611328125, -192.48854064941406, -26.68869972229004, 0.748779296875, -0.024658203125, -0.303466796875
486, 2416121837, -5.804497718811035, -4.533638000488281, 9.579536437988281, 84.31761932373047, -251.85577392578125, -62.46274948120117, 0.74365234375, -0.02197265625, -0.351806640625
487, 2416138504, -5.9654927253723145, -3.2247328758239746, 8.643963813781738, 71.18716430664062, -297.7448425292969, -95.13815307617188, 0.733154296875, -0.009765625, -0.42431640625
488, 2416155171, -7.5045928955078125, -2.32193660736084, 8.449139595031738, 52.210227966308594, -329.4836120605469, -111.7360610961914, 0.695068359375, 0.0146484375, -0.518798828125
489, 2416171838, -8.57301139831543, -0.6480692625045776, 8.003787994384766, 29.126136779785156, -361.3731384277344, -108.86124420166016, 0.616943359375, 0.039306640625, -0.60986328125
490, 2416188505, -8.394596099853516, 0.20440542697906494, 7.756936073303223, 12.778182029724121, -373.5729064941406, -81.6487045288086, 0.50244140625, 0.050537109375, -0.67431640625
491, 2416205172, -10.011109352111816, 0.7672585248947144, 8.591772079467773, -19.874553680419922, -376.80914306640625, -53.53802490234375, 0.3828125, 0.050537109375, -0.69384765625
492, 2416221839, -10.593138694763184, -0.35656923055648804, 8.077597618103027, -57.513832092285156, -385.7288818359375, -43.310272216796875, 0.2841796875, 0.047119140625, -0.684326171875
493, 2416238506, -10.61420726776123, 0.20223753154277802, 6.728735446929932, -90.82117462158203, -355.6103210449219, -40.7366828918457, 0.220458984375, 0.0419921875, -0.661865234375
494, 2416255173, -12.180719375610352, 1.0855661630630493, 7.990478515625, -127.70746612548828, -303.1241455078125, -34.233272552490234, 0.197021484375, 0.03564453125, -0.626708984375
495, 2416271840, -16.79054832458496, -0.7562729120254517, 12.717399597167969, -150.2893829345703, -283.1157531738281, -23.550439834594727, 0.238037109375, 0.02734375, -0.604248046875
496, 2416288507, -20.66814422607422, -2.462782144546509, 13.34640884399414, -147.72879028320312, -307.63232421875, -29.569965362548828, 0.3154296875, 0.0498046875, -0.66064453125
497, 2416305174, -21.227649688720703, -1.4364275932312012, 10.2365083694458, -118.8924331665039, -322.0681457519531, -51.22901916503906, 0.339599609375, 0.11328125, -0.79248046875
498, 2416321841, -22.824003219604492, 0.6624000668525696, 7.723342418670654, -96.6913070678711, -311.92718505859375, -68.43701171875, 0.263427734375, 0.198974609375, -0.914794921875
499, 2416338508, -23.230905532836914, 0.9842822551727295, 3.037182331085205, -76.65047454833984, -291.17254638671875, -74.19914245605469, 0.128662109375, 0.2763671875, -0.977783203125
500, 2416355175, -22.49726676940918, 0.9197593331336975, -2.1412861347198486, -47.944297790527344, -239.72158813476562, -75.61446380615234, -7.32421875E-4, 0.325927734375, -0.981689453125
501, 2416371842, -23.785425186157227, 1.4360028505325317, -4.417446136474609, -24.31326675415039, -171.7926483154297, -89.38859558105469, -0.0947265625, 0.353271484375, -0.96728515625
502, 2416388509, -22.762237548828125, 3.810137987136841, -7.573615074157715, 3.5813918113708496, -105.43604278564453, -114.94296264648438, -0.15869140625, 0.36083984375, -0.952880859375
503, 2416405176, -22.08345603942871, 7.410379409790039, -9.561053276062012, 26.935274124145508, -28.235515594482422, -111.13697052001953, -0.19970703125, 0.35986328125, -0.9462890625
504, 2416421843, -17.017637252807617, 8.628761291503906, -10.174899101257324, 43.51513671875, 82.6933364868164, -45.32594680786133, -0.20458984375, 0.352294921875, -0.957763671875
505, 2416438510, 4.4994025230407715, 2.50982403755188, 15.854557991027832, 1.6128654479980469, 141.9628143310547, 21.056222915649414, -0.171630859375, 0.359130859375, -0.974853515625
506, 2416455177, 0.4649600386619568, -11.58363151550293, 12.053265571594238, -62.34789276123047, 188.03257751464844, 18.34812355041504, -0.125244140625, 0.384765625, -0.9794921875
507, 2416471844, -9.632585525512695, 2.402770519256592, 9.244129180908203, -30.248462677001953, 211.0369110107422, 34.523075103759766, -0.0703125, 0.407470703125, -0.982666015625
508, 2416488511, -10.027892112731934, 3.830054521560669, 16.11223602294922, -36.55552291870117, 179.8389129638672, 42.44740295410156, -0.015625, 0.427001953125, -0.984130859375
509, 2416505178, -6.20400333404541, -5.77559232711792, 9.153393745422363, -38.544403076171875, 146.03993225097656, 35.73719787597656, 0.030517578125, 0.44287109375, -0.9814453125
510, 2416521845, -7.009257793426514, -7.5159525871276855, 8.282268524169922, -29.979936599731445, 143.5245361328125, 27.68270492553711, 0.071533203125, 0.45751953125, -0.97802734375
511, 2416538512, -7.202906131744385, -6.504316806793213, 9.015554428100586, -6.752619743347168, 130.42617797851562, 33.8815803527832, 0.11181640625, 0.466796875, -0.974853515625
512, 2416555179, -11.138248443603516, -3.402688503265381, 11.341571807861328, 46.1326789855957, 92.84928131103516, 39.773128509521484, 0.144775390625, 0.460693359375, -0.9755859375
513, 2416571846, -5.949328899383545, -0.1982247531414032, 11.183295249938965, 35.36221694946289, 50.98951721191406, 14.10161018371582, 0.16455078125, 0.451171875, -0.979736328125
514, 2416588513, -5.95100736618042, -3.3573362827301025, 9.040464401245117, 30.567419052124023, 30.04779815673828, 9.669941902160645, 0.174560546875, 0.44482421875, -0.9814453125
515, 2416605180, -4.97832727432251, -2.0162551403045654, 9.10996150970459, 25.47369384765625, 14.408655166625977, 8.849822998046875, 0.17919921875, 0.435791015625, -0.98388671875
516, 2416621847, -4.5192413330078125, -2.676173686981201, 8.419319152832031, 23.348499298095703, 9.857821464538574, 9.680298805236816, 0.183349609375, 0.42919921875, -0.98681640625
517, 2416638514, -4.733949661254883, -2.1146254539489746, 8.649900436401367, 23.031219482421875, 6.519119739532471, 10.32249927520752, 0.186767578125, 0.42431640625, -0.9892578125
518, 2416655181, -4.834377765655518, -2.4706344604492188, 8.489669799804688, 17.8995418548584, 4.418651580810547, 7.565189361572266, 0.18896484375, 0.420654296875, -0.991455078125
519, 2416671848, -4.472403526306152, -2.429746150970459, 8.301051139831543, 17.131147384643555, 5.185176372528076, 7.163938999176025, 0.191650390625, 0.412109375, -0.995849609375
520, 2416688515, -4.509476661682129, -2.5193119049072266, 8.147199630737305, 18.835357666015625, 5.313177108764648, 7.898770809173584, 0.194091796875, 0.41015625, -0.996826171875
521, 2416705182, -4.304831504821777, -2.350450277328491, 8.094832420349121, 22.619630813598633, 4.617934703826904, 9.80316162109375, 0.1953125, 0.401611328125, -1.000732421875
522, 2416721849, -4.858254432678223, -2.207267999649048, 8.405428886413574, 22.776491165161133, 4.842811107635498, 9.835036277770996, 0.19921875, 0.390625, -1.001220703125
523, 2416738516, -4.881887912750244, -2.27140474319458, 8.491549491882324, 14.869962692260742, 3.312551498413086, 7.9403228759765625, 0.201904296875, 0.38916015625, -1.002197265625
524, 2416755183, -4.611796855926514, -2.1055080890655518, 8.13183307647705, 9.495213508605957, 1.6467243432998657, 6.468522071838379, 0.201416015625, 0.3876953125, -1.002685546875
525, 2416771850, -4.6217193603515625, -2.1141836643218994, 8.235928535461426, 14.22692584991455, -0.7629261612892151, 7.424429416656494, 0.203369140625, 0.382568359375, -1.007080078125
526, 2416788517, -4.461087226867676, -2.266282320022583, 8.212920188903809, 15.986322402954102, -3.98087215423584, 9.771585464477539, 0.20263671875, 0.376708984375, -1.005126953125
527, 2416805184, -4.620903015136719, -2.2290565967559814, 8.320938110351562, 17.19895362854004, -7.951181888580322, 12.983683586120605, 0.203125, 0.37109375, -1.010498046875
528, 2416821851, -4.7608442306518555, -1.7877962589263916, 8.405641555786133, 14.452786445617676, -7.098595142364502, 12.634397506713867, 0.203125, 0.36669921875, -1.010009765625
529, 2416838518, -4.792525768280029, -1.6830697059631348, 8.429165840148926, 10.315811157226562, -1.6048290729522705, 11.30954647064209, 0.201171875, 0.364501953125, -1.015380859375
530, 2416855185, -4.617605686187744, -1.8095937967300415, 8.295426368713379, 10.427316665649414, 3.7396562099456787, 11.388958930969238, 0.202880859375, 0.361083984375, -1.015869140625
531, 2416871852, -4.745966911315918, -1.850286602973938, 8.292656898498535, 9.68942928314209, 8.217005729675293, 12.084795951843262, 0.208984375, 0.35498046875, -1.01416015625
532, 2416888519, -4.694713592529297, -1.8071675300598145, 8.374130249023438, 6.464954853057861, 13.439582824707031, 12.19832706451416, 0.21240234375, 0.35498046875, -1.013671875
533, 2416905186, -4.231205463409424, -1.9913418292999268, 8.331435203552246, 6.138963222503662, 23.049484252929688, 12.20301628112793, 0.218994140625, 0.35205078125, -1.0146484375
534, 2416921853, -4.129469871520996, -1.3348357677459717, 8.635772705078125, 0.8686031103134155, 42.13740539550781, 13.603902816772461, 0.22998046875, 0.350341796875, -1.01171875
535, 2416938520, -4.535149097442627, -1.286866545677185, 8.507816314697266, -9.568633079528809, 67.62120056152344, 14.134156227111816, 0.250244140625, 0.352294921875, -1.00634765625
536, 2416955187, -4.586866855621338, -1.281422734260559, 8.348590850830078, -11.671833038330078, 94.83319854736328, 12.045721054077148, 0.275146484375, 0.355224609375, -0.999267578125
537, 2416971854, -4.967267990112305, -1.3316833972930908, 8.117757797241211, -16.07872200012207, 121.83615112304688, 9.839099884033203, 0.31005859375, 0.359375, -0.986572265625
538, 2416988521, -5.309772968292236, -1.6463629007339478, 8.017083168029785, -16.74289321899414, 146.83656311035156, 8.209216117858887, 0.348876953125, 0.36279296875, -0.970947265625
539, 2417005188, -5.4837870597839355, -1.6761515140533447, 8.032279968261719, -13.514293670654297, 170.16917419433594, 10.851957321166992, 0.39404296875, 0.3671875, -0.949462890625
540, 2417021855, -5.264142036437988, -1.7033642530441284, 7.978191375732422, -11.135660171508789, 199.5762176513672, 14.43934154510498, 0.449951171875, 0.369140625, -0.92578125
541, 2417038522, -5.458062171936035, -1.5634583234786987, 7.882287502288818, -6.528298377990723, 233.01097106933594, 21.10096549987793, 0.5107421875, 0.37060546875, -0.890380859375
542, 2417055189, -5.540278434753418, -1.840083360671997, 7.367118835449219, 0.0637492761015892, 285.0164489746094, 31.67060661315918, 0.58154296875, 0.367431640625, -0.84619140625
543, 2417071856, -6.455590724945068, -2.145942449569702, 6.994863510131836, 7.810623645782471, 363.4237365722656, 47.13776397705078, 0.666015625, 0.360107421875, -0.786376953125
544, 2417088523, -7.064476013183594, -3.560657501220703, 9.62514877319336, 17.01144790649414, 453.64715576171875, 71.3406753540039, 0.762451171875, 0.342529296875, -0.69091796875
545, 2417105190, -12.981441497802734, -2.6671199798583984, 10.466297149658203, 17.179492950439453, 502.38336181640625, 107.99694061279297, 0.861572265625, 0.314697265625, -0.57373046875
546, 2417121857, -20.557209014892578, -1.9806846380233765, 11.702802658081055, -0.22001074254512787, 483.40386962890625, 105.00606536865234, 0.939697265625, 0.286376953125, -0.4404296875
547, 2417138524, -19.218265533447266, -6.129922389984131, 10.889723777770996, 14.885164260864258, 442.5895080566406, 114.65454864501953, 0.995849609375, 0.250732421875, -0.3125
548, 2417155191, -15.509448051452637, -5.793191432952881, 13.568377494812012, 38.50794982910156, 404.1510009765625, 132.31590270996094, 1.02490234375, 0.20947265625, -0.190673828125
549, 2417171858, -7.242420196533203, -4.978592395782471, 16.94501495361328, 32.71989440917969, 305.6784362792969, 97.92644500732422, 1.031982421875, 0.170654296875, -0.08935546875
550, 2417188525, -22.08683967590332, -4.149736404418945, 19.223697662353516, -14.386918067932129, 161.4133758544922, 92.26204681396484, 1.02880859375, 0.146240234375, -0.041259765625
551, 2417205192, -18.69563865661621, -3.9609951972961426, 26.414472579956055, -82.64400482177734, -26.864505767822266, 12.293987274169922, 1.019287109375, 0.13427734375, -0.035888671875
552, 2417221859, -3.706676959991455, -8.619873046875, 12.982844352722168, -61.19926834106445, -180.93527221679688, -36.02602767944336, 1.004150390625, 0.15087890625, -0.0888671875
553, 2417238526, 0.5477694869041443, -5.669937610626221, 5.973597526550293, 11.94201374053955, -195.24671936035156, 1.0864514112472534, 0.984130859375, 0.158203125, -0.151611328125
554, 2417255193, -0.250061571598053, -3.777839183807373, 5.688149452209473, 63.66184616088867, -182.29605102539062, 15.74620532989502, 0.97216796875, 0.160888671875, -0.212646484375
555, 2417271860, -2.9851622581481934, -4.057456016540527, 8.08568000793457, 71.0555648803711, -212.43263244628906, -5.493513584136963, 0.94921875, 0.163330078125, -0.27587890625
556, 2417288527, -4.8332953453063965, -4.011153221130371, 8.294946670532227, 61.043792724609375, -265.35577392578125, -42.438480377197266, 0.92333984375, 0.1767578125, -0.354248046875
557, 2417305194, -5.209051609039307, -3.652822971343994, 6.6798858642578125, 54.3043098449707, -306.315673828125, -71.53318786621094, 0.878662109375, 0.1982421875, -0.449462890625
558, 2417321861, -5.911025524139404, -2.4391422271728516, 5.533420085906982, 56.36910629272461, -329.57574462890625, -74.63202667236328, 0.81396484375, 0.218017578125, -0.54931640625
559, 2417338528, -6.718598365783691, -1.113936424255371, 6.278458595275879, 51.344642639160156, -337.7095642089844, -58.73725128173828, 0.727294921875, 0.219970703125, -0.637939453125
560, 2417355195, -8.529939651489258, 0.5532519221305847, 8.402559280395508, 9.161531448364258, -347.3058166503906, -52.31169128417969, 0.630615234375, 0.216796875, -0.707275390625
561, 2417371862, -10.068567276000977, -0.18919017910957336, 8.734330177307129, -44.720829010009766, -373.71533203125, -55.29671859741211, 0.52734375, 0.218505859375, -0.759033203125
562, 2417388529, -9.919853210449219, 0.05437535047531128, 6.412240982055664, -84.72200775146484, -378.60125732421875, -59.12576675415039, 0.416259765625, 0.22509765625, -0.796875
563, 2417405196, -11.821219444274902, 0.7122554183006287, 5.543951034545898, -116.92845153808594, -339.0303955078125, -62.647403717041016, 0.307373046875, 0.23779296875, -0.80322265625
564, 2417421863, -12.437482833862305, -0.4038775563240051, 7.456207752227783, -127.2662582397461, -285.3148193359375, -48.291358947753906, 0.224365234375, 0.24658203125, -0.787353515625
565, 2417438530, -18.105304718017578, -2.2534537315368652, 13.595555305480957, -126.01024627685547, -282.65484619140625, -37.99928665161133, 0.16796875, 0.25048828125, -0.767333984375
566, 2417455197, -21.259370803833008, -4.054648399353027, 13.605741500854492, -108.26667022705078, -326.1696472167969, -53.5926513671875, 0.111083984375, 0.256103515625, -0.754638671875
567, 2417471864, -19.93436622619629, -2.874917507171631, 9.379046440124512, -74.50475311279297, -342.1874694824219, -73.93999481201172, 0.054931640625, 0.260986328125, -0.749755859375
568, 2417488531, -20.936141967773438, 0.5760977864265442, 7.700900554656982, -66.5213851928711, -321.5574951171875, -84.862060546875, -0.00341796875, 0.26416015625, -0.743896484375
569, 2417505198, -22.877948760986328, 1.216331958770752, 6.081932544708252, -81.71751403808594, -296.18231201171875, -84.22579193115234, -0.056884765625, 0.271728515625, -0.739013671875
570, 2417521865, -22.379669189453125, 0.1481509506702423, 1.1194640398025513, -70.13916778564453, -260.3115234375, -78.56134033203125, -0.10791015625, 0.28076171875, -0.740478515625
571, 2417538532, -23.205455780029297, 1.5106918811798096, -3.8965811729431152, -51.823394775390625, -197.1265869140625, -88.61909484863281, -0.15673828125, 0.289794921875, -0.73974609375
572, 2417555199, -24.25008773803711, 6.251918315887451, -7.548213958740234, -52.48463821411133, -125.82073211669922, -94.17403411865234, -0.1904296875, 0.300048828125, -0.739990234375
573, 2417571866, -23.044862747192383, 7.159478664398193, -12.104630470275879, -35.70880126953125, -50.27920913696289, -66.87950897216797, -0.2119140625, 0.303466796875, -0.73681640625
574, 2417588533, -20.512248992919922, 4.26898717880249, -13.757944107055664, 40.60907745361328, 65.2054672241211, -12.055950164794922, -0.206787109375, 0.29638671875, -0.7451171875
575, 2417605200, -0.46483561396598816, 1.151566505432129, 14.23575210571289, 71.8760986328125, 111.03128814697266, 40.977294921875, -0.171142578125, 0.277099609375, -0.759033203125
576, 2417621867, 7.205034255981445, -13.167764663696289, 13.642380714416504, 3.099534034729004, 151.15591430664062, 3.7598185539245605, -0.13427734375, 0.276123046875, -0.769775390625
577, 2417638534, -6.343449115753174, 12.561266899108887, 7.163297176361084, 6.767526626586914, 212.524658203125, 57.40010452270508, -0.083740234375, 0.27099609375, -0.7822265625
578, 2417655201, -11.855524063110352, 2.7573299407958984, 17.564937591552734, -44.62684631347656, 206.57521057128906, 52.95519256591797, -0.025634765625, 0.281005859375, -0.7861328125
579, 2417671868, -8.422401428222656, -9.190131187438965, 8.785950660705566, -55.79899215698242, 180.46066284179688, 28.599843978881836, 0.020263671875, 0.29345703125, -0.78125
580, 2417688535, -8.116114616394043, -5.7704877853393555, 9.605907440185547, -41.015865325927734, 163.31985473632812, 23.947105407714844, 0.0634765625, 0.301025390625, -0.77734375
581, 2417705202, -12.055276870727539, -10.731724739074707, 10.262421607971191, 21.81249237060547, 122.3355484008789, 41.049774169921875, 0.103271484375, 0.30078125, -0.775146484375
582, 2417721869, -6.380635738372803, 0.8489490747451782, 10.829620361328125, 53.51737976074219, 80.18553161621094, 33.491737365722656, 0.12744140625, 0.284423828125, -0.777587890625
583, 2417738536, -6.4252214431762695, -3.0247111320495605, 9.888558387756348, 32.02418899536133, 47.747581481933594, 13.330607414245605, 0.1435546875, 0.278076171875, -0.778564453125
584, 2417755203, -5.417121410369873, -2.619598388671875, 9.084192276000977, 28.42249298095703, 28.137664794921875, 13.785090446472168, 0.156005859375, 0.271484375, -0.781982421875
585, 2417771870, -5.2573466300964355, -2.4949593544006348, 9.065204620361328, 19.699214935302734, 19.4409236907959, 11.691930770874023, 0.16162109375, 0.26416015625, -0.78125
586, 2417788537, -5.2828192710876465, -1.9052356481552124, 9.330406188964844, 10.919376373291016, 11.191537857055664, 7.323068618774414, 0.165771484375, 0.26171875, -0.780517578125
587, 2417805204, -4.882259368896484, -2.6016578674316406, 8.49370288848877, 3.315763473510742, 8.667244911193848, 2.364238739013672, 0.167236328125, 0.259033203125, -0.781005859375
588, 2417821871, -4.58497953414917, -2.506230354309082, 8.57343864440918, -3.181239366531372, 10.599236488342285, 0.2707967460155487, 0.167236328125, 0.259521484375, -0.781982421875
589, 2417838538, -4.7950286865234375, -3.0172085762023926, 8.375880241394043, -9.036005020141602, 11.224095344543457, -1.9061999320983887, 0.172119140625, 0.2607421875, -0.779541015625
590, 2417855205, -4.772244930267334, -3.1456830501556396, 7.839580059051514, -9.59156322479248, 8.632603645324707, -2.105684995651245, 0.1767578125, 0.26416015625, -0.77880859375
591, 2417871872, -4.709496974945068, -2.924487352371216, 7.887977123260498, -5.718062877655029, 9.079828262329102, 0.1976597011089325, 0.1767578125, 0.2646484375, -0.77734375
592, 2417888539, -4.754074573516846, -2.8186569213867188, 7.958956241607666, -5.446465492248535, 7.996754169464111, -0.37088480591773987, 0.18115234375, 0.26416015625, -0.77587890625
593, 2417905206, -4.304529666900635, -3.1050169467926025, 7.573304653167725, -2.197378158569336, 10.06393051147461, 1.4445630311965942, 0.18310546875, 0.266845703125, -0.77734375
594, 2417921873, -4.597390174865723, -3.0876314640045166, 7.577112674713135, 2.8418526649475098, 12.024946212768555, 6.247882843017578, 0.1865234375, 0.264892578125, -0.773193359375
595, 2417938540, -4.532739639282227, -3.1120688915252686, 7.033785343170166, 11.648694038391113, 13.4453763961792, 11.103628158569336, 0.189208984375, 0.264892578125, -0.773681640625
596, 2417955207, -4.876920223236084, -2.993929147720337, 7.642023086547852, 23.778453826904297, 16.012664794921875, 16.68105697631836, 0.19482421875, 0.2568359375, -0.778564453125
597, 2417971874, -4.972912311553955, -2.944044351577759, 7.8173322677612305, 29.22673225402832, 10.545085906982422, 19.700862884521484, 0.20166015625, 0.2529296875, -0.77783203125
598, 2417988541, -5.049012184143066, -2.7801804542541504, 7.978306293487549, 29.392452239990234, 4.638333797454834, 20.771333694458008, 0.202880859375, 0.2421875, -0.7822265625
599, 2418005208, -4.980588912963867, -2.5916082859039307, 8.098450660705566, 24.818559646606445, 5.295284748077393, 19.949453353881836, 0.20703125, 0.2333984375, -0.783203125
600, 2418021875, -4.779747486114502, -2.682920455932617, 7.775338172912598, 15.451445579528809, 12.444135665893555, 18.946104049682617, 0.210693359375, 0.228271484375, -0.782470703125
601, 2418038542, -4.521583557128906, -2.766040086746216, 7.892197608947754, 21.25922966003418, 14.082328796386719, 24.757312774658203, 0.21875, 0.221923828125, -0.78564453125
602, 2418055209, -5.092714309692383, -2.148977041244507, 8.374443054199219, 25.486618041992188, 18.30324363708496, 29.726213455200195, 0.2216796875, 0.21630859375, -0.7841796875
603, 2418071876, -5.446240425109863, -1.642756700515747, 8.377760887145996, 15.887575149536133, 29.577165603637695, 26.317773818969727, 0.23291015625, 0.2109375, -0.784912109375
604, 2418088543, -5.245927333831787, -1.3282898664474487, 8.336860656738281, 1.162744402885437, 48.726016998291016, 17.969802856445312, 0.242431640625, 0.2060546875, -0.7802734375
605, 2418105210, -5.0892815589904785, -1.4236892461776733, 8.243575096130371, -8.81265640258789, 73.68018341064453, 8.441618919372559, 0.25634765625, 0.20703125, -0.77978515625
606, 2418121877, -5.237208366394043, -1.604732632637024, 8.004493713378906, -14.948659896850586, 99.8231201171875, 0.8851362466812134, 0.28125, 0.209716796875, -0.769775390625
607, 2418138544, -5.328994274139404, -1.9539390802383423, 7.905449867248535, -17.87464141845703, 126.11283111572266, -2.892812728881836, 0.306640625, 0.215087890625, -0.7578125
608, 2418155211, -5.575886249542236, -2.2042300701141357, 7.62891960144043, -15.789970397949219, 152.22293090820312, -1.113476037979126, 0.33642578125, 0.2177734375, -0.74072265625
609, 2418171878, -5.424186706542969, -2.3724141120910645, 7.669419765472412, -14.481090545654297, 180.81997680664062, 3.340763807296753, 0.375244140625, 0.22265625, -0.725341796875
610, 2418188545, -5.181126117706299, -2.158456802368164, 7.916714191436768, -15.488038063049316, 219.70326232910156, 8.665767669677734, 0.421142578125, 0.223388671875, -0.701416015625
611, 2418205212, -5.278530120849609, -2.391695737838745, 7.7981276512146, -15.56955623626709, 276.4181823730469, 13.941804885864258, 0.473876953125, 0.224365234375, -0.664794921875
612, 2418221879, -6.209352493286133, -2.9440977573394775, 7.50452184677124, -8.922520637512207, 360.75372314453125, 24.311277389526367, 0.538818359375, 0.223388671875, -0.615234375
613, 2418238546, -6.848072052001953, -2.8631134033203125, 9.1897554397583, -8.203482627868652, 464.5953063964844, 50.97817611694336, 0.61767578125, 0.21728515625, -0.539306640625
614, 2418255213, -11.890226364135742, -2.9650912284851074, 11.230772018432617, -27.956010818481445, 520.156005859375, 85.00595092773438, 0.698486328125, 0.206298828125, -0.441162109375
615, 2418271880, -19.60271644592285, -2.907477617263794, 11.345682144165039, -41.299808502197266, 510.4165954589844, 87.56450653076172, 0.764404296875, 0.194580078125, -0.330810546875
616, 2418288547, -19.029541015625, -7.137263298034668, 9.58288860321045, -33.921730041503906, 474.6737365722656, 106.68595123291016, 0.8125, 0.174560546875, -0.223876953125
617, 2418305214, -16.544132232666016, -7.278268337249756, 13.34860897064209, -13.580005645751953, 429.52984619140625, 139.3723602294922, 0.84228515625, 0.14501953125, -0.13037109375
618, 2418321881, -8.826879501342773, -6.256785869598389, 16.859418869018555, -16.890289306640625, 336.7164306640625, 108.85198211669922, 0.858642578125, 0.1181640625, -0.051513671875
619, 2418338548, -22.522289276123047, -4.680419921875, 20.942354202270508, -74.4798812866211, 156.8100128173828, 100.93276977539062, 0.866455078125, 0.09619140625, -0.0185546875
620, 2418355215, -21.024852752685547, -5.637903213500977, 26.87434959411621, -93.2631607055664, -46.71864318847656, 44.169803619384766, 0.862060546875, 0.078369140625, -0.031005859375
621, 2418371882, -3.640308380126953, -8.049439430236816, 13.282624244689941, -49.26798629760742, -229.77537536621094, -11.61511516571045, 0.8447265625, 0.08251953125, -0.09765625
622, 2418388549, 1.4426913261413574, -4.861501693725586, 4.98429012298584, 31.70721435546875, -242.46820068359375, 50.8139533996582, 0.81396484375, 0.068359375, -0.164794921875
623, 2418405216, 0.9560320377349854, -2.8854799270629883, 4.127227783203125, 81.45591735839844, -214.80731201171875, 84.97184753417969, 0.780517578125, 0.038818359375, -0.21142578125
624, 2418421883, -3.5094680786132812, -4.267353057861328, 7.723017692565918, 70.77361297607422, -236.56369018554688, 61.464019775390625, 0.748291015625, 0.008544921875, -0.2470703125
625, 2418438550, -6.027920246124268, -5.848297595977783, 8.253971099853516, 62.7756462097168, -291.73614501953125, 13.623372077941895, 0.717041015625, -0.00830078125, -0.2841796875
626, 2418455217, -6.054625988006592, -5.529521465301514, 7.009917736053467, 65.7130355834961, -336.06396484375, -28.63750648498535, 0.687744140625, -0.0205078125, -0.32177734375
627, 2418471884, -6.1889166831970215, -3.2368242740631104, 5.107950210571289, 64.00947570800781, -360.2232666015625, -48.89275360107422, 0.673583984375, -0.026123046875, -0.36572265625
628, 2418488551, -6.920093059539795, -1.9227417707443237, 5.477302551269531, 49.9809455871582, -359.6366882324219, -44.07749938964844, 0.678955078125, -0.02490234375, -0.42333984375
629, 2418505218, -8.46484375, -0.16783595085144043, 7.130266189575195, 13.629475593566895, -357.1930236816406, -39.96234130859375, 0.6875, -0.01416015625, -0.51904296875
630, 2418521885, -10.273850440979004, -0.7379869222640991, 8.528090476989746, -35.34812927246094, -370.302490234375, -42.94279479980469, 0.6591796875, 0.015625, -0.656005859375
631, 2418538552, -10.980475425720215, -1.9601041078567505, 8.110676765441895, -62.700172424316406, -382.26373291015625, -48.2021369934082, 0.547607421875, 0.06689453125, -0.787109375
632, 2418555219, -11.597564697265625, -0.4341811537742615, 6.489297866821289, -87.21887969970703, -361.0586242675781, -58.588714599609375, 0.383544921875, 0.115234375, -0.84130859375
633, 2418571886, -12.703109741210938, -0.846671462059021, 7.348773956298828, -109.14541625976562, -307.4346618652344, -58.807308197021484, 0.249267578125, 0.15283203125, -0.813232421875
634, 2418588553, -17.197786331176758, -2.208907127380371, 13.79211139678955, -115.5119857788086, -286.8037109375, -56.65521240234375, 0.17919921875, 0.169189453125, -0.761474609375
635, 2418605220, -20.578842163085938, -1.7812573909759521, 15.147623062133789, -112.3184585571289, -323.1065979003906, -62.81961441040039, 0.153564453125, 0.181396484375, -0.74755859375
636, 2418621887, -20.470016479492188, -0.6843857765197754, 11.125598907470703, -96.3479995727539, -341.560791015625, -56.75809097290039, 0.11376953125, 0.1962890625, -0.7685546875
637, 2418638554, -22.656631469726562, 0.7359994053840637, 8.423357009887695, -94.46722412109375, -331.3525390625, -51.08047103881836, 0.053466796875, 0.210205078125, -0.796630859375
638, 2418655221, -23.94107437133789, 0.48605090379714966, 3.600431442260742, -99.46566009521484, -307.2573547363281, -43.5212287902832, -0.01611328125, 0.228759765625, -0.816650390625
639, 2418671888, -23.46993064880371, 0.9747973680496216, -1.4510509967803955, -104.95986938476562, -246.81495666503906, -44.25747299194336, -0.08349609375, 0.25, -0.8291015625
640, 2418688555, -22.984697341918945, 1.6695095300674438, -4.469286918640137, -105.8798828125, -172.56898498535156, -76.73970031738281, -0.140625, 0.27001953125, -0.826904296875
641, 2418705222, -22.881914138793945, 4.846837043762207, -7.402627468109131, -68.76036834716797, -99.43704986572266, -107.911865234375, -0.18359375, 0.285888671875, -0.824951171875
642, 2418721889, -23.479568481445312, 5.513972759246826, -11.154494285583496, -12.388876914978027, -28.654664993286133, -82.22734832763672, -0.2060546875, 0.283447265625, -0.830322265625
643, 2418738556, -18.984365463256836, 2.0027120113372803, -12.968144416809082, 83.08267211914062, 88.01765441894531, -39.348167419433594, -0.198974609375, 0.26953125, -0.8408203125
644, 2418755223, 3.745978593826294, 3.741783380508423, 18.729534149169922, 90.61245727539062, 125.19406127929688, -17.960721969604492, -0.16259765625, 0.2412109375, -0.857421875
645, 2418771890, 4.686251640319824, 1.9785432815551758, 14.510699272155762, 9.802633285522461, 183.6084442138672, 9.14724063873291, -0.1201171875, 0.2392578125, -0.868896484375
646, 2418788557, -7.988114356994629, 13.320585250854492, 8.821920394897461, -24.95159912109375, 212.87533569335938, 42.82645797729492, -0.062255859375, 0.240234375, -0.87939453125
647, 2418805224, -11.810088157653809, 1.7939529418945312, 18.048389434814453, -54.622676849365234, 185.7820587158203, 54.63093185424805, -0.004150390625, 0.25537109375, -0.8837890625
648, 2418821891, -7.534869194030762, -14.144681930541992, 6.5125226974487305, -50.127349853515625, 159.70860290527344, 27.704580307006836, 0.04150390625, 0.271240234375, -0.884033203125
649, 2418838558, -7.009677410125732, -7.386999607086182, 8.750112533569336, -19.240886688232422, 151.299560546875, 24.121000289916992, 0.086669921875, 0.27978515625, -0.882080078125
650, 2418855225, -5.887792110443115, -1.4447304010391235, 9.50653076171875, -4.818295955657959, 125.87395477294922, 35.67448043823242, 0.125732421875, 0.281005859375, -0.880859375
