sep=,
DeviceTag:,B,,,,,,,,,,,,,,,,,
FirmwareVersion:,2.2.1,,,,,,,,,,,,,,,,,
AppVersion:,2022.0.1,,,,,,,,,,,,,,,,,
SyncStatus:,Synced,,,,,,,,,,,,,,,,,
OutputRate:,60Hz,,,,,,,,,,,,,,,,,
FilterProfile:,General,,,,,,,,,,,,,,,,,
Measurement Mode:,Inertial Mode - Rate quantities (with mag),,,,,,,,,,,,,,,,,
StartTime:,2022-08-05 15:04:21.472 +0300,,,,,,,,,,,,,,,,,
© Xsens Technologies B. V. 2005-2022,,,,,,,,,,,,,,,,,,,

PacketCounter,SampleTimeFine,Acc_X,Acc_Y,Acc_Z,Gyr_X,Gyr_Y,Gyr_Z,Mag_X,Mag_Y,Mag_Z
1, 1603522252, -4.558037281036377, -1.6408706903457642, 8.374786376953125, 0.29652464389801025, -0.9862298369407654, -0.9139634966850281, -0.0263671875, 0.166015625, -0.81884765625
2, 1603538919, -4.54304313659668, -1.6422101259231567, 8.388409614562988, -0.019311977550387383, -0.7789334654808044, -0.9858201146125793, -0.0263671875, 0.16650390625, -0.81689453125
3, 1603555586, -4.5554962158203125, -1.6476809978485107, 8.390347480773926, -0.18979011476039886, -0.7399124503135681, -1.080407738685608, -0.0283203125, 0.16650390625, -0.821044921875
4, 1603572253, -4.55827522277832, -1.662671685218811, 8.390219688415527, -0.14629973471164703, -0.7930331826210022, -1.080215573310852, -0.0263671875, 0.16650390625, -0.81982421875
5, 1603588920, -4.56735897064209, -1.6461822986602783, 8.38010025024414, -0.12134744971990585, -0.6976165175437927, -0.9850338697433472, -0.02685546875, 0.16650390625, -0.81689453125
6, 1603605587, -4.551655292510986, -1.6463687419891357, 8.395758628845215, -0.11331058293581009, -0.7394130825996399, -1.0748498439788818, -0.02685546875, 0.166015625, -0.822509765625
7, 1603622254, -4.55970573425293, -1.6600440740585327, 8.387861251831055, -0.11753667145967484, -0.6945139169692993, -1.0765401124954224, -0.025634765625, 0.16552734375, -0.8203125
8, 1603638921, -4.548354625701904, -1.633723258972168, 8.383261680603027, -0.2543213367462158, -0.5372776389122009, -1.0866060256958008, -0.024658203125, 0.164794921875, -0.81884765625
9, 1603655588, -4.554017066955566, -1.641829013824463, 8.378933906555176, -0.40479591488838196, -0.5375977754592896, -1.0888599157333374, -0.02783203125, 0.165771484375, -0.8173828125
10, 1603672255, -4.563260555267334, -1.6657052040100098, 8.387603759765625, -0.2939825654029846, -0.5468055009841919, -1.1579374074935913, -0.02734375, 0.1669921875, -0.81787109375
11, 1603688922, -4.5644307136535645, -1.6586570739746094, 8.360555648803711, -0.32195162773132324, -0.5699722766876221, -1.0117400884628296, -0.02734375, 0.16796875, -0.822021484375
12, 1603705589, -4.551184177398682, -1.6560993194580078, 8.358128547668457, -0.1677759885787964, -0.5590996146202087, -0.9172675013542175, -0.025634765625, 0.16552734375, -0.81787109375
13, 1603722256, -4.549652576446533, -1.645538568496704, 8.390912055969238, -0.23760899901390076, -0.6090443730354309, -0.8544780015945435, -0.026123046875, 0.164794921875, -0.8203125
14, 1603738923, -4.558836936950684, -1.6521830558776855, 8.409735679626465, -0.13742493093013763, -0.6352461576461792, -0.9374375939369202, -0.02685546875, 0.165283203125, -0.818359375
15, 1603755590, -4.554907321929932, -1.6686891317367554, 8.366287231445312, -0.19219769537448883, -0.5239589810371399, -0.9797369837760925, -0.026611328125, 0.165283203125, -0.8173828125
16, 1603772257, -4.568826198577881, -1.6553707122802734, 8.403215408325195, -0.12986920773983002, -0.5503401160240173, -0.9024251103401184, -0.0263671875, 0.16552734375, -0.81982421875
17, 1603788924, -4.555690765380859, -1.6600749492645264, 8.37625503540039, -0.20937103033065796, -0.7021465301513672, -0.9371431469917297, -0.02734375, 0.164794921875, -0.821533203125
18, 1603805591, -4.561298370361328, -1.6357967853546143, 8.37724781036377, -0.18621712923049927, -0.6720004677772522, -0.8887351155281067, -0.029296875, 0.166259765625, -0.820556640625
19, 1603822258, -4.553915977478027, -1.653210997581482, 8.403386116027832, -0.19183914363384247, -0.6852421760559082, -0.9640620946884155, -0.02734375, 0.165283203125, -0.821044921875
20, 1603838925, -4.561428070068359, -1.6636704206466675, 8.38527774810791, -0.12509241700172424, -0.6910305619239807, -0.8676173090934753, -0.02587890625, 0.16650390625, -0.818359375
21, 1603855592, -4.544848918914795, -1.666845679283142, 8.386892318725586, -0.13926905393600464, -0.6903519034385681, -0.9203667044639587, -0.02783203125, 0.166015625, -0.81982421875
22, 1603872259, -4.547942638397217, -1.6613045930862427, 8.380228042602539, -0.1627046763896942, -0.6446844935417175, -0.9133232235908508, -0.026611328125, 0.162841796875, -0.8203125
23, 1603888926, -4.531203746795654, -1.6636611223220825, 8.409051895141602, -0.26699957251548767, -0.4035792946815491, -0.8228463530540466, -0.0283203125, 0.164794921875, -0.822021484375
24, 1603905593, -4.554164886474609, -1.6377397775650024, 8.406221389770508, -0.29177987575531006, -0.34661665558815, -0.8765177726745605, -0.02587890625, 0.166015625, -0.81982421875
25, 1603922260, -4.563054084777832, -1.6526825428009033, 8.3906831741333, -0.2571130692958832, -0.38978683948516846, -0.8951637744903564, -0.025634765625, 0.165283203125, -0.82080078125
26, 1603938927, -4.570860385894775, -1.6506454944610596, 8.386333465576172, -0.249787837266922, -0.5444490909576416, -0.9009778499603271, -0.02783203125, 0.165283203125, -0.8193359375
27, 1603955594, -4.563691139221191, -1.654068946838379, 8.379916191101074, -0.26625680923461914, -0.5580750703811646, -0.9556225538253784, -0.026611328125, 0.163330078125, -0.8173828125
28, 1603972261, -4.554874420166016, -1.6461535692214966, 8.384492874145508, -0.28198298811912537, -0.5387246608734131, -0.9190476536750793, -0.02685546875, 0.166015625, -0.8193359375
29, 1603988928, -4.561246395111084, -1.6543333530426025, 8.368768692016602, -0.3098880648612976, -0.5990297794342041, -0.9051912426948547, -0.026123046875, 0.164794921875, -0.8203125
30, 1604005595, -4.552997589111328, -1.6688874959945679, 8.368875503540039, -0.1831052005290985, -0.6899805665016174, -0.969440758228302, -0.02783203125, 0.16650390625, -0.821533203125
31, 1604022262, -4.564182281494141, -1.6570441722869873, 8.374357223510742, -0.06761752814054489, -0.5777712464332581, -0.9488480687141418, -0.02587890625, 0.166015625, -0.81982421875
32, 1604038929, -4.552286624908447, -1.6435741186141968, 8.390413284301758, -0.041018735617399216, -0.6760855913162231, -0.8972128033638, -0.026611328125, 0.164306640625, -0.81884765625
33, 1604055596, -4.557138919830322, -1.6656997203826904, 8.378900527954102, -0.13488927483558655, -0.6414316296577454, -0.8510587811470032, -0.02734375, 0.1669921875, -0.81982421875
34, 1604072263, -4.55675745010376, -1.6542043685913086, 8.378547668457031, -0.1654452383518219, -0.590257465839386, -0.9885989427566528, -0.02783203125, 0.164794921875, -0.821533203125
35, 1604088930, -4.556571006774902, -1.6533105373382568, 8.37472152709961, -0.07846450060606003, -0.705220103263855, -1.0255452394485474, -0.026611328125, 0.165283203125, -0.8193359375
36, 1604105597, -4.5696187019348145, -1.6486930847167969, 8.352171897888184, -0.0172885712236166, -0.6857928037643433, -0.9640876054763794, -0.026611328125, 0.165283203125, -0.818359375
37, 1604122264, -4.551730632781982, -1.6470115184783936, 8.382339477539062, -0.024524156004190445, -0.8119865655899048, -0.9580557346343994, -0.02587890625, 0.16650390625, -0.8203125
38, 1604138931, -4.558061122894287, -1.660320520401001, 8.398606300354004, -0.0693889632821083, -0.7251005172729492, -0.9090620279312134, -0.02685546875, 0.165771484375, -0.81884765625
39, 1604155598, -4.560227870941162, -1.6533827781677246, 8.387670516967773, -0.0814996138215065, -0.7212280035018921, -0.9321998953819275, -0.02734375, 0.164306640625, -0.81884765625
40, 1604172265, -4.540940284729004, -1.6579554080963135, 8.387190818786621, -0.2326785922050476, -0.6877138018608093, -1.002762794494629, -0.02734375, 0.165771484375, -0.8173828125
41, 1604188932, -4.568507671356201, -1.632901668548584, 8.39376449584961, -0.3024091422557831, -0.6153066754341125, -0.9824774861335754, -0.02783203125, 0.16650390625, -0.820556640625
42, 1604205599, -4.57238245010376, -1.6518723964691162, 8.386750221252441, -0.3496645390987396, -0.6704892516136169, -1.0699065923690796, -0.0263671875, 0.165771484375, -0.8193359375
43, 1604222266, -4.558412075042725, -1.6472594738006592, 8.374598503112793, -0.29747870564460754, -0.6248345971107483, -1.0250587463378906, -0.02880859375, 0.165771484375, -0.821533203125
44, 1604238933, -4.55261754989624, -1.6511778831481934, 8.383976936340332, -0.2776544690132141, -0.5270581841468811, -1.0380828380584717, -0.02783203125, 0.165283203125, -0.8193359375
45, 1604255600, -4.566941738128662, -1.6641653776168823, 8.372903823852539, -0.3313898742198944, -0.5225374102592468, -1.014211654663086, -0.025634765625, 0.166015625, -0.8193359375
46, 1604272267, -4.551803112030029, -1.6334755420684814, 8.377229690551758, -0.2768092155456543, -0.49452999234199524, -1.0078212022781372, -0.02783203125, 0.165283203125, -0.8173828125
47, 1604288934, -4.56040620803833, -1.6502257585525513, 8.3773832321167, -0.2472650110721588, -0.6086474061012268, -0.9982165694236755, -0.0283203125, 0.16650390625, -0.820556640625
48, 1604305601, -4.563943386077881, -1.6456571817398071, 8.374221801757812, -0.27310824394226074, -0.5574604272842407, -1.0566006898880005, -0.0283203125, 0.1669921875, -0.819580078125
49, 1604322268, -4.563158988952637, -1.6516567468643188, 8.367507934570312, -0.38657253980636597, -0.5274295806884766, -1.1042532920837402, -0.0263671875, 0.166015625, -0.8193359375
50, 1604338935, -4.559189796447754, -1.6477816104888916, 8.390237808227539, -0.3421856760978699, -0.6099024415016174, -1.0269924402236938, -0.0263671875, 0.16650390625, -0.8203125
51, 1604355602, -4.571589469909668, -1.6593736410140991, 8.385560035705566, -0.3545950651168823, -0.587478518486023, -1.0144165754318237, -0.025634765625, 0.16552734375, -0.8212890625
52, 1604372269, -4.557661533355713, -1.6595033407211304, 8.372852325439453, -0.32247671484947205, -0.678774893283844, -1.0694583654403687, -0.02685546875, 0.16845703125, -0.821533203125
53, 1604388936, -4.553771495819092, -1.6607120037078857, 8.388391494750977, -0.2772062420845032, -0.719691276550293, -1.0492370128631592, -0.0283203125, 0.1669921875, -0.821533203125
54, 1604405603, -4.5552144050598145, -1.6587538719177246, 8.417133331298828, -0.30617421865463257, -0.6703996658325195, -1.03093683719635, -0.02685546875, 0.16552734375, -0.822509765625
55, 1604422270, -4.557662010192871, -1.6551482677459717, 8.376070022583008, -0.28919297456741333, -0.6486800312995911, -0.9804157018661499, -0.0283203125, 0.1669921875, -0.820556640625
56, 1604438937, -4.547329425811768, -1.6533775329589844, 8.407785415649414, -0.2160303145647049, -0.7563686370849609, -0.9842575788497925, -0.025634765625, 0.163818359375, -0.822265625
57, 1604455604, -4.557423114776611, -1.6578962802886963, 8.393656730651855, -0.18419374525547028, -0.7362498641014099, -1.0106772184371948, -0.02880859375, 0.16650390625, -0.81689453125
58, 1604472271, -4.5692338943481445, -1.6588597297668457, 8.380208015441895, -0.11721653491258621, -0.7643982768058777, -0.9644206762313843, -0.027099609375, 0.164306640625, -0.8173828125
59, 1604488938, -4.55105447769165, -1.659873366355896, 8.375185012817383, -0.2122524231672287, -0.6808367371559143, -0.9383339881896973, -0.02978515625, 0.166259765625, -0.821044921875
60, 1604505605, -4.553055286407471, -1.660042643547058, 8.371560096740723, -0.18886803090572357, -0.6206597089767456, -0.9916852116584778, -0.02783203125, 0.165771484375, -0.818359375
61, 1604522272, -4.550548553466797, -1.646300196647644, 8.397342681884766, -0.22841407358646393, -0.652432382106781, -1.0042099952697754, -0.0263671875, 0.1669921875, -0.81884765625
62, 1604538939, -4.561382293701172, -1.6598080396652222, 8.378082275390625, -0.19107073545455933, -0.6736524701118469, -0.9975506067276001, -0.0283203125, 0.166259765625, -0.81787109375
63, 1604555606, -4.551782131195068, -1.658233404159546, 8.385538101196289, -0.3017304241657257, -0.60150146484375, -0.9915444254875183, -0.027099609375, 0.163330078125, -0.818359375
64, 1604572273, -4.571474552154541, -1.660691499710083, 8.379300117492676, -0.19580909609794617, -0.694757342338562, -0.9687492251396179, -0.02734375, 0.165771484375, -0.81787109375
65, 1604588940, -4.552805423736572, -1.6593842506408691, 8.391807556152344, -0.17948098480701447, -0.6843457221984863, -0.9174596071243286, -0.029296875, 0.166259765625, -0.819580078125
66, 1604605607, -4.556540489196777, -1.6505125761032104, 8.373429298400879, -0.27105921506881714, -0.6990218162536621, -1.0094091892242432, -0.0263671875, 0.16650390625, -0.8193359375
67, 1604622274, -4.560306549072266, -1.6459091901779175, 8.380382537841797, -0.42969146370887756, -0.7133521437644958, -1.0553714036941528, -0.02734375, 0.165283203125, -0.81982421875
68, 1604638941, -4.558277606964111, -1.6642608642578125, 8.39526081085205, -0.4204452335834503, -0.5980052947998047, -1.0963644981384277, -0.026611328125, 0.165283203125, -0.8193359375
69, 1604655608, -4.557892322540283, -1.6665269136428833, 8.397819519042969, -0.25881630182266235, -0.7262352705001831, -1.1091322898864746, -0.02734375, 0.165283203125, -0.81982421875
70, 1604672275, -4.544178009033203, -1.661406397819519, 8.368285179138184, -0.21669626235961914, -0.6852678060531616, -1.1064430475234985, -0.02734375, 0.165771484375, -0.8193359375
71, 1604688942, -4.544167995452881, -1.6510452032089233, 8.36197280883789, -0.2841600775718689, -0.653085470199585, -1.0354957580566406, -0.02587890625, 0.166015625, -0.8203125
72, 1604705609, -4.560269832611084, -1.6384724378585815, 8.385310173034668, -0.4162953495979309, -0.553869366645813, -1.0936381816864014, -0.02880859375, 0.16748046875, -0.821533203125
73, 1604722276, -4.558206558227539, -1.6486210823059082, 8.414225578308105, -0.4935694932937622, -0.6605386734008789, -1.1486910581588745, -0.02685546875, 0.166015625, -0.821533203125
74, 1604738943, -4.562405586242676, -1.6724209785461426, 8.359577178955078, -0.3096446990966797, -0.7688804268836975, -1.1840877532958984, -0.02783203125, 0.165283203125, -0.8193359375
75, 1604755610, -4.535799503326416, -1.6596500873565674, 8.387420654296875, -0.27555423974990845, -0.7350717186927795, -1.0701242685317993, -0.02783203125, 0.16748046875, -0.81884765625
76, 1604772277, -4.54661750793457, -1.6619728803634644, 8.366499900817871, -0.4328545928001404, -0.6669930815696716, -1.0701115131378174, -0.02685546875, 0.1669921875, -0.8203125
77, 1604788944, -4.543115139007568, -1.6554909944534302, 8.36047077178955, -0.4853990375995636, -0.5515694618225098, -1.045561671257019, -0.02734375, 0.166015625, -0.81884765625
78, 1604805611, -4.5485124588012695, -1.6633819341659546, 8.399028778076172, -0.34022626280784607, -0.6616784334182739, -1.0141091346740723, -0.02685546875, 0.16748046875, -0.820556640625
79, 1604822278, -4.559919834136963, -1.6569600105285645, 8.403057098388672, -0.37438085675239563, -0.689609169960022, -1.013750672340393, -0.02734375, 0.166015625, -0.821044921875
80, 1604838945, -4.561431884765625, -1.6729638576507568, 8.409408569335938, -0.3317997455596924, -0.7453808188438416, -0.9725526571273804, -0.02734375, 0.165771484375, -0.822021484375
81, 1604855612, -4.552335739135742, -1.658488154411316, 8.386472702026367, -0.2186812162399292, -0.5882853269577026, -0.9096862077713013, -0.02685546875, 0.16796875, -0.81982421875
82, 1604872279, -4.541445255279541, -1.6483591794967651, 8.387589454650879, -0.24659904837608337, -0.5611870884895325, -0.9517807960510254, -0.0302734375, 0.166748046875, -0.81787109375
83, 1604888946, -4.562047958374023, -1.6566590070724487, 8.386512756347656, -0.26443833112716675, -0.6836798191070557, -0.963485836982727, -0.029296875, 0.1689453125, -0.819091796875
84, 1604905613, -4.562429904937744, -1.6524194478988647, 8.372575759887695, -0.4562133550643921, -0.723814845085144, -1.0063486099243164, -0.02783203125, 0.16748046875, -0.818359375
85, 1604922280, -4.549068450927734, -1.6505303382873535, 8.380064964294434, -0.47493624687194824, -0.6696568131446838, -1.0849155187606812, -0.02734375, 0.166015625, -0.820556640625
86, 1604938947, -4.555328845977783, -1.6402987241744995, 8.387290954589844, -0.5663607716560364, -0.6560949087142944, -1.0695862770080566, -0.029296875, 0.166259765625, -0.819091796875
87, 1604955614, -4.545497417449951, -1.6589874029159546, 8.388669967651367, -0.5753253102302551, -0.6190205216407776, -1.1245384216308594, -0.02783203125, 0.1669921875, -0.819580078125
88, 1604972281, -4.553340911865234, -1.6672078371047974, 8.408851623535156, -0.41286394000053406, -0.6256030201911926, -1.1412250995635986, -0.02880859375, 0.166259765625, -0.819091796875
89, 1604988948, -4.5368218421936035, -1.6797232627868652, 8.375082015991211, -0.5397492051124573, -0.6932077407836914, -1.0265440940856934, -0.02783203125, 0.16748046875, -0.821044921875
90, 1605005615, -4.535470962524414, -1.6777135133743286, 8.365689277648926, -0.3243336081504822, -0.6219276189804077, -0.9865884184837341, -0.029296875, 0.16845703125, -0.821533203125
91, 1605022282, -4.564560890197754, -1.6703722476959229, 8.406426429748535, -0.444034606218338, -0.6779682040214539, -1.0577276945114136, -0.02783203125, 0.16748046875, -0.820068359375
92, 1605038949, -4.532819747924805, -1.6803351640701294, 8.396618843078613, -0.5436936020851135, -0.7249162197113037, -1.1017942428588867, -0.0283203125, 0.16650390625, -0.820068359375
93, 1605055616, -4.566261291503906, -1.6671277284622192, 8.388065338134766, -0.6049848198890686, -0.7193198204040527, -1.1354109048843384, -0.0283203125, 0.165771484375, -0.819580078125
94, 1605072283, -4.543088436126709, -1.6797356605529785, 8.382583618164062, -0.5293120741844177, -0.6658661961555481, -1.0521185398101807, -0.02734375, 0.16748046875, -0.8193359375
95, 1605088950, -4.5567193031311035, -1.671980619430542, 8.366705894470215, -0.2979397475719452, -0.7560612559318542, -0.9872414469718933, -0.03076171875, 0.16845703125, -0.822998046875
96, 1605105617, -4.536013126373291, -1.6829395294189453, 8.372679710388184, -0.2354191243648529, -0.7567399740219116, -0.979224681854248, -0.029296875, 0.1669921875, -0.821044921875
97, 1605122284, -4.548582077026367, -1.672416090965271, 8.362554550170898, -0.10768860578536987, -0.7434214353561401, -0.9847571849822998, -0.0283203125, 0.166015625, -0.821533203125
98, 1605138951, -4.533454418182373, -1.6727169752120972, 8.395853042602539, -0.038816045969724655, -0.7955431938171387, -0.8695895671844482, -0.029296875, 0.1669921875, -0.81787109375
99, 1605155618, -4.549520969390869, -1.675616979598999, 8.412627220153809, -0.07777296006679535, -0.7095485925674438, -0.8563861846923828, -0.0263671875, 0.1669921875, -0.818359375
100, 1605172285, -4.5565056800842285, -1.6781725883483887, 8.384655952453613, 0.014964217320084572, -0.6857287287712097, -0.838546872138977, -0.03125, 0.1669921875, -0.819580078125
101, 1605188952, -4.541756629943848, -1.672533392906189, 8.35945987701416, -0.050892431288957596, -0.640163779258728, -0.7455600500106812, -0.02978515625, 0.165771484375, -0.821044921875
102, 1605205619, -4.542263984680176, -1.667896032333374, 8.39712142944336, -0.009707213379442692, -0.6485006809234619, -0.7972208857536316, -0.02783203125, 0.16650390625, -0.81640625
103, 1605222286, -4.551904201507568, -1.6686170101165771, 8.402083396911621, -0.02129695937037468, -0.5879907011985779, -0.7950950264930725, -0.0283203125, 0.1669921875, -0.820068359375
104, 1605238953, -4.548173427581787, -1.6636193990707397, 8.386587142944336, -0.024985188618302345, -0.5638508200645447, -0.8787974119186401, -0.02783203125, 0.165283203125, -0.8193359375
105, 1605255620, -4.549279689788818, -1.6693555116653442, 8.387728691101074, -0.11768461763858795, -0.6013582944869995, -0.9237902760505676, -0.02685546875, 0.16650390625, -0.820556640625
106, 1605272287, -4.544615745544434, -1.664373517036438, 8.376508712768555, -0.1409594863653183, -0.5917814373970032, -0.8886837959289551, -0.02978515625, 0.166259765625, -0.821533203125
107, 1605288954, -4.536975383758545, -1.6624979972839355, 8.387859344482422, -0.04465574398636818, -0.5891817808151245, -0.8486382961273193, -0.029296875, 0.16845703125, -0.821044921875
108, 1605305621, -4.559326648712158, -1.683666706085205, 8.380165100097656, -0.11649936437606812, -0.6002079248428345, -0.8812944293022156, -0.0283203125, 0.16650390625, -0.8193359375
109, 1605322288, -4.540560245513916, -1.672789216041565, 8.399526596069336, -0.1446349173784256, -0.4684946835041046, -0.9289981722831726, -0.02783203125, 0.164794921875, -0.821533203125
110, 1605338955, -4.544869899749756, -1.6694360971450806, 8.401618957519531, -0.21688832342624664, -0.46944230794906616, -0.935913622379303, -0.025634765625, 0.165283203125, -0.81982421875
111, 1605355622, -4.5476908683776855, -1.6644110679626465, 8.384381294250488, -0.12077667564153671, -0.5840335488319397, -0.8791302442550659, -0.02880859375, 0.16748046875, -0.81884765625
112, 1605372289, -4.5435614585876465, -1.6611086130142212, 8.421662330627441, -0.06658022105693817, -0.5719316601753235, -0.8537481427192688, -0.02783203125, 0.16650390625, -0.821044921875
113, 1605388956, -4.537334442138672, -1.6655360460281372, 8.396897315979004, -0.05566919967532158, -0.48594972491264343, -0.8701273798942566, -0.02587890625, 0.16796875, -0.822509765625
114, 1605405623, -4.544142246246338, -1.6693572998046875, 8.360286712646484, -0.055502716451883316, -0.4385918378829956, -0.954802930355072, -0.02734375, 0.16845703125, -0.820556640625
115, 1605422290, -4.522709846496582, -1.6608965396881104, 8.356468200683594, -0.10064510256052017, -0.33163321018218994, -0.9368613362312317, -0.02734375, 0.165283203125, -0.8203125
116, 1605438957, -4.538671016693115, -1.6713149547576904, 8.384781837463379, -0.227030947804451, -0.30408674478530884, -0.8458337783813477, -0.025390625, 0.1669921875, -0.818359375
117, 1605455624, -4.550473690032959, -1.6723543405532837, 8.404987335205078, -0.1842193603515625, -0.2503513693809509, -0.8727399706840515, -0.02978515625, 0.1669921875, -0.818115234375
118, 1605472291, -4.5570268630981445, -1.676798939704895, 8.38331413269043, -0.2688693106174469, -0.21503140032291412, -0.9037440419197083, -0.0283203125, 0.16650390625, -0.8193359375
119, 1605488958, -4.553598880767822, -1.6660317182540894, 8.376724243164062, -0.23454830050468445, -0.24894262850284576, -0.8516862392425537, -0.02685546875, 0.16796875, -0.818359375
120, 1605505625, -4.560439109802246, -1.6617679595947266, 8.386127471923828, -0.2240854948759079, -0.23106496036052704, -0.8230127692222595, -0.02685546875, 0.166015625, -0.821044921875
121, 1605522292, -4.552523612976074, -1.6445472240447998, 8.390802383422852, -0.25044095516204834, -0.2950582802295685, -0.8680015206336975, -0.02587890625, 0.16748046875, -0.81982421875
122, 1605538959, -4.548873424530029, -1.6547304391860962, 8.383440971374512, -0.4918150305747986, -0.09089946746826172, -0.9769835472106934, -0.024658203125, 0.166015625, -0.818359375
123, 1605555626, -4.5657830238342285, -1.6834920644760132, 8.38354778289795, -0.6963964700698853, -0.019273556768894196, -1.0641052722930908, -0.025634765625, 0.166015625, -0.81787109375
124, 1605572293, -4.569015979766846, -1.6874572038650513, 8.374740600585938, -0.6745232343673706, -0.05616864934563637, -1.0554865598678589, -0.02587890625, 0.16650390625, -0.81884765625
125, 1605588960, -4.562424182891846, -1.6853950023651123, 8.385565757751465, -0.5502632856369019, -0.1698250025510788, -1.0463683605194092, -0.02880859375, 0.1669921875, -0.820068359375
126, 1605605627, -4.56351375579834, -1.6671799421310425, 8.377147674560547, -0.4524611234664917, -0.23821090161800385, -0.9627685546875, -0.0263671875, 0.16796875, -0.81982421875
127, 1605622294, -4.575780391693115, -1.6658210754394531, 8.377471923828125, -0.27725744247436523, -0.2472265660762787, -0.9862170219421387, -0.02587890625, 0.16748046875, -0.8203125
128, 1605638961, -4.568380355834961, -1.6686675548553467, 8.3899564743042, -0.3288286328315735, -0.2708798944950104, -0.9010546803474426, -0.02734375, 0.16796875, -0.818359375
129, 1605655628, -4.576687812805176, -1.6787564754486084, 8.379371643066406, -0.24800774455070496, -0.3805278539657593, -0.9391791820526123, -0.02734375, 0.165771484375, -0.8203125
130, 1605672295, -4.578036785125732, -1.670986294746399, 8.35834789276123, -0.2674349844455719, -0.4251323640346527, -0.9115943312644958, -0.02734375, 0.166015625, -0.81884765625
131, 1605688962, -4.558371067047119, -1.6729519367218018, 8.381876945495605, -0.18596099317073822, -0.5415164828300476, -0.8841631412506104, -0.0283203125, 0.169921875, -0.819091796875
132, 1605705629, -4.578686237335205, -1.6664663553237915, 8.384291648864746, -0.21440389752388, -0.5332435369491577, -0.8324127197265625, -0.0283203125, 0.16943359375, -0.820068359375
133, 1605722296, -4.565672397613525, -1.648781657218933, 8.382254600524902, -0.2179768979549408, -0.5548223257064819, -0.8863659501075745, -0.02685546875, 0.1669921875, -0.81982421875
134, 1605738963, -4.590837478637695, -1.6730605363845825, 8.391103744506836, -0.2621075510978699, -0.5662199258804321, -0.9324046969413757, -0.025634765625, 0.16552734375, -0.8193359375
135, 1605755630, -4.566643714904785, -1.6668435335159302, 8.366196632385254, -0.25209298729896545, -0.4845922589302063, -0.8326815962791443, -0.02587890625, 0.1669921875, -0.81982421875
136, 1605772297, -4.581395626068115, -1.6723060607910156, 8.395282745361328, -0.2167602777481079, -0.45803189277648926, -0.9762791991233826, -0.02587890625, 0.1669921875, -0.81787109375
137, 1605788964, -4.568517208099365, -1.672228217124939, 8.377042770385742, -0.133826345205307, -0.6610637903213501, -0.8677197694778442, -0.02685546875, 0.16845703125, -0.8193359375
138, 1605805631, -4.563129425048828, -1.6782546043395996, 8.392786979675293, -0.11154331266880035, -0.6660838723182678, -0.8475627303123474, -0.025390625, 0.16845703125, -0.8193359375
139, 1605822298, -4.565788745880127, -1.664570689201355, 8.400193214416504, -0.15386468172073364, -0.6301485300064087, -0.870051383972168, -0.02685546875, 0.166015625, -0.81787109375
140, 1605838965, -4.572027206420898, -1.6517493724822998, 8.376897811889648, -0.2161455750465393, -0.5805502533912659, -0.9124907851219177, -0.025390625, 0.1669921875, -0.81982421875
141, 1605855632, -4.571025848388672, -1.6637707948684692, 8.374015808105469, -0.11324655264616013, -0.6557747721672058, -0.9825671315193176, -0.02685546875, 0.166015625, -0.81689453125
142, 1605872299, -4.563277721405029, -1.6793913841247559, 8.368476867675781, -0.17219416797161102, -0.6480781435966492, -0.9669049382209778, -0.02587890625, 0.16650390625, -0.81982421875
143, 1605888966, -4.57206916809082, -1.6604139804840088, 8.396783828735352, -0.1337110996246338, -0.6613455414772034, -0.9347610473632812, -0.025390625, 0.16796875, -0.821044921875
144, 1605905633, -4.5633158683776855, -1.6597518920898438, 8.380334854125977, -0.2532711625099182, -0.6687091588973999, -0.8684113621711731, -0.025390625, 0.16845703125, -0.8203125
145, 1605922300, -4.565507888793945, -1.6741937398910522, 8.371516227722168, -0.43291863799095154, -0.6081734895706177, -0.9701066017150879, -0.02685546875, 0.16650390625, -0.81884765625
146, 1605938967, -4.556336879730225, -1.6693222522735596, 8.370789527893066, -0.3389456570148468, -0.5434374809265137, -1.0545902252197266, -0.026611328125, 0.165283203125, -0.821044921875
147, 1605955634, -4.566343307495117, -1.6612621545791626, 8.393959045410156, -0.3542748689651489, -0.5884261131286621, -1.0083719491958618, -0.02783203125, 0.16650390625, -0.8193359375
148, 1605972301, -4.567995548248291, -1.684787631034851, 8.349397659301758, -0.13875679671764374, -0.6405864357948303, -1.0463428497314453, -0.02783203125, 0.166259765625, -0.818359375
149, 1605988968, -4.565401554107666, -1.6754827499389648, 8.387239456176758, -0.23824936151504517, -0.7010197043418884, -0.9767787456512451, -0.0283203125, 0.16650390625, -0.8193359375
150, 1606005635, -4.572894096374512, -1.6744561195373535, 8.362570762634277, -0.19345273077487946, -0.7154908180236816, -0.9663928151130676, -0.0283203125, 0.16796875, -0.818359375
151, 1606022302, -4.561921119689941, -1.6580336093902588, 8.380138397216797, -0.15088438987731934, -0.7100736498832703, -0.9344024658203125, -0.02685546875, 0.16796875, -0.8193359375
152, 1606038969, -4.565780162811279, -1.667967438697815, 8.362213134765625, -0.17917366325855255, -0.6532263159751892, -0.9754212498664856, -0.0263671875, 0.16650390625, -0.81884765625
153, 1606055636, -4.583544731140137, -1.6785693168640137, 8.356263160705566, -0.1917622685432434, -0.6478604078292847, -1.0138914585113525, -0.02783203125, 0.1669921875, -0.819580078125
154, 1606072303, -4.571279048919678, -1.6760547161102295, 8.395193099975586, -0.18489807844161987, -0.641457200050354, -0.9393200874328613, -0.02783203125, 0.16650390625, -0.821044921875
155, 1606088970, -4.56580924987793, -1.6717116832733154, 8.386199951171875, -0.0929228663444519, -0.6889943480491638, -0.907739520072937, -0.02734375, 0.16650390625, -0.8193359375
156, 1606105637, -4.564809799194336, -1.6689363718032837, 8.348591804504395, -0.08564887940883636, -0.7943010926246643, -0.9355935454368591, -0.02587890625, 0.16845703125, -0.81884765625
157, 1606122304, -4.560255527496338, -1.6689823865890503, 8.38315200805664, -0.20883315801620483, -0.7483006715774536, -0.9409210085868835, -0.0263671875, 0.16650390625, -0.8193359375
158, 1606138971, -4.557355880737305, -1.676401138305664, 8.390813827514648, -0.12212134152650833, -0.7767819166183472, -0.9071248769760132, -0.02587890625, 0.166015625, -0.8203125
159, 1606155638, -4.566573143005371, -1.6724175214767456, 8.39214038848877, -0.11163295805454254, -0.7644110321998596, -0.9305861592292786, -0.02685546875, 0.16650390625, -0.81884765625
160, 1606172305, -4.5574212074279785, -1.6715337038040161, 8.366925239562988, -0.03378315269947052, -0.6307895183563232, -0.9201362133026123, -0.025390625, 0.16748046875, -0.8193359375
161, 1606188972, -4.544572830200195, -1.6677361726760864, 8.376127243041992, 0.004245305433869362, -0.6539050340652466, -0.7793688178062439, -0.02685546875, 0.16748046875, -0.8173828125
162, 1606205639, -4.5476298332214355, -1.6665493249893188, 8.387604713439941, -0.02000351808965206, -0.6769052147865295, -0.763514518737793, -0.0283203125, 0.16748046875, -0.81787109375
163, 1606222306, -4.547461986541748, -1.6665953397750854, 8.385181427001953, -0.013997338712215424, -0.5767722725868225, -0.7219067215919495, -0.02587890625, 0.16796875, -0.81787109375
164, 1606238973, -4.5631103515625, -1.6493358612060547, 8.370859146118164, -0.0408010333776474, -0.44586583971977234, -0.8108852505683899, -0.02734375, 0.166015625, -0.81787109375
165, 1606255640, -4.569107532501221, -1.6537530422210693, 8.358911514282227, -0.21412216126918793, -0.39834150671958923, -0.7683296799659729, -0.02734375, 0.165771484375, -0.8193359375
166, 1606272307, -4.573659896850586, -1.6577032804489136, 8.3818941116333, -0.21345622837543488, -0.4483758807182312, -0.9400372505187988, -0.02685546875, 0.166015625, -0.81982421875
167, 1606288974, -4.574610233306885, -1.6654211282730103, 8.383281707763672, -0.2797034680843353, -0.4910850524902344, -0.9139763116836548, -0.02783203125, 0.16650390625, -0.820068359375
168, 1606305641, -4.572271347045898, -1.6699166297912598, 8.362639427185059, -0.1023099273443222, -0.5291711091995239, -0.8996076583862305, -0.025146484375, 0.16748046875, -0.822021484375
169, 1606322308, -4.561976432800293, -1.669135332107544, 8.373379707336426, -0.13258415460586548, -0.5385582447052002, -0.8851365447044373, -0.025146484375, 0.165283203125, -0.8203125
170, 1606338975, -4.555953502655029, -1.661891222000122, 8.389885902404785, -0.1405624896287918, -0.5535800457000732, -0.8114743232727051, -0.025146484375, 0.166015625, -0.8193359375
171, 1606355642, -4.566415786743164, -1.646502137184143, 8.399290084838867, -0.23869752883911133, -0.4315739572048187, -0.9227486252784729, -0.025634765625, 0.16552734375, -0.81787109375
172, 1606372309, -4.569601535797119, -1.647297978401184, 8.362528800964355, -0.2506330609321594, -0.4126206040382385, -0.942995548248291, -0.0263671875, 0.166015625, -0.822998046875
173, 1606388976, -4.570815563201904, -1.6608089208602905, 8.376752853393555, -0.26917997002601624, -0.3586377203464508, -1.0628113746643066, -0.02783203125, 0.16845703125, -0.820556640625
174, 1606405643, -4.565431594848633, -1.6626617908477783, 8.382451057434082, -0.3840239942073822, -0.40479594469070435, -1.0253788232803345, -0.0244140625, 0.16845703125, -0.8203125
175, 1606422310, -4.572291851043701, -1.6599986553192139, 8.375737190246582, -0.3917590379714966, -0.37102556228637695, -1.0920486450195312, -0.024658203125, 0.16552734375, -0.818359375
176, 1606438977, -4.576321601867676, -1.6697931289672852, 8.364654541015625, -0.35810399055480957, -0.5390193462371826, -0.9978068470954895, -0.02587890625, 0.16650390625, -0.818359375
177, 1606455644, -4.578336238861084, -1.68267023563385, 8.364045143127441, -0.18468037247657776, -0.6252187490463257, -1.0319100618362427, -0.02685546875, 0.165771484375, -0.8193359375
178, 1606472311, -4.567933559417725, -1.6872913837432861, 8.405715942382812, -0.13459473848342896, -0.6735883951187134, -0.9166785478591919, -0.025390625, 0.1669921875, -0.818359375
179, 1606488978, -4.573376178741455, -1.6651339530944824, 8.35995101928711, -0.10365459322929382, -0.638665497303009, -0.9313417673110962, -0.02587890625, 0.16650390625, -0.8203125
180, 1606505645, -4.576662540435791, -1.6730728149414062, 8.384522438049316, -0.10540907084941864, -0.7224062085151672, -0.9131056070327759, -0.0263671875, 0.1669921875, -0.818359375
181, 1606522312, -4.5852556228637695, -1.6809403896331787, 8.364538192749023, -0.06309688091278076, -0.7081398963928223, -0.9048710465431213, -0.02685546875, 0.1669921875, -0.818359375
182, 1606538979, -4.578227519989014, -1.6702320575714111, 8.369246482849121, -0.012447772547602654, -0.7861689925193787, -0.9176902174949646, -0.024169921875, 0.16650390625, -0.8193359375
183, 1606555646, -4.560812950134277, -1.6583635807037354, 8.354211807250977, -0.04986792430281639, -0.7490306496620178, -0.936489999294281, -0.02685546875, 0.166015625, -0.81884765625
184, 1606572313, -4.579110145568848, -1.6601520776748657, 8.36616325378418, -0.15284377336502075, -0.6637146472930908, -0.8822934031486511, -0.02783203125, 0.1669921875, -0.819580078125
185, 1606588980, -4.567119121551514, -1.674817442893982, 8.383397102355957, -0.06431348621845245, -0.6196736097335815, -0.9885092973709106, -0.0263671875, 0.16796875, -0.821044921875
186, 1606605647, -4.574601650238037, -1.6735507249832153, 8.363119125366211, -0.11671706289052963, -0.5780401825904846, -0.8940497040748596, -0.0244140625, 0.1689453125, -0.8212890625
187, 1606622314, -4.569914817810059, -1.6740304231643677, 8.369893074035645, -0.15020567178726196, -0.5953287482261658, -0.8887349963188171, -0.026123046875, 0.16552734375, -0.823486328125
188, 1606638981, -4.567195892333984, -1.6645206212997437, 8.369963645935059, -0.13887202739715576, -0.597608208656311, -0.8559123873710632, -0.024658203125, 0.16748046875, -0.81884765625
189, 1606655648, -4.561619281768799, -1.6536767482757568, 8.366379737854004, -0.1307656317949295, -0.643186092376709, -0.9022713899612427, -0.02587890625, 0.16748046875, -0.8193359375
190, 1606672315, -4.582845211029053, -1.649222493171692, 8.372679710388184, -0.025740761309862137, -0.6509979367256165, -0.9043716192245483, -0.02490234375, 0.1689453125, -0.81982421875
191, 1606688982, -4.56516170501709, -1.6678376197814941, 8.384045600891113, -0.18009570240974426, -0.6975106596946716, -0.8913860321044922, -0.02783203125, 0.1669921875, -0.819580078125
192, 1606705649, -4.554789066314697, -1.6688482761383057, 8.378501892089844, -0.08730088174343109, -0.707064151763916, -0.8885045051574707, -0.02783203125, 0.16748046875, -0.820556640625
193, 1606722316, -4.550515174865723, -1.6660550832748413, 8.368265151977539, -0.10800874978303909, -0.6659301519393921, -0.9630503058433533, -0.02490234375, 0.16845703125, -0.8193359375
194, 1606738983, -4.571101188659668, -1.6756155490875244, 8.387418746948242, -0.11657620221376419, -0.6852037310600281, -0.9289085268974304, -0.02685546875, 0.16650390625, -0.81884765625
195, 1606755650, -4.56498908996582, -1.6559090614318848, 8.390408515930176, 0.03471161052584648, -0.69036465883255, -0.8641212582588196, -0.027099609375, 0.164306640625, -0.81884765625
196, 1606772317, -4.576685428619385, -1.6479979753494263, 8.376324653625488, -0.03342457115650177, -0.826047956943512, -0.8545036315917969, -0.02783203125, 0.165283203125, -0.81982421875
197, 1606788984, -4.579752445220947, -1.6516128778457642, 8.36521053314209, 0.09003504365682602, -0.802702009677887, -0.8834459781646729, -0.02685546875, 0.1689453125, -0.8193359375
198, 1606805651, -4.5602874755859375, -1.6507511138916016, 8.391450881958008, 0.0188701543956995, -0.7052968740463257, -0.8778751492500305, -0.02734375, 0.1669921875, -0.822021484375
199, 1606822318, -4.560832977294922, -1.6689585447311401, 8.399758338928223, 0.08026379346847534, -0.7674461007118225, -0.9525617957115173, -0.02734375, 0.166015625, -0.8193359375
200, 1606838985, -4.551644802093506, -1.6574758291244507, 8.379217147827148, 0.023915858939290047, -0.7941729426383972, -0.8663111329078674, -0.02734375, 0.1669921875, -0.8193359375
201, 1606855652, -4.56171178817749, -1.670640468597412, 8.385452270507812, -0.015764614567160606, -0.8034831285476685, -0.9233505725860596, -0.025634765625, 0.16552734375, -0.82080078125
202, 1606872319, -4.568848609924316, -1.6757339239120483, 8.38491153717041, 9.156541200354695E-4, -0.8163023591041565, -0.938129186630249, -0.0263671875, 0.16650390625, -0.81982421875
203, 1606888986, -4.565974712371826, -1.6593832969665527, 8.364299774169922, 0.2118874490261078, -0.8113077878952026, -0.8591011762619019, -0.02685546875, 0.166015625, -0.821533203125
204, 1606905653, -4.548097133636475, -1.6588962078094482, 8.367173194885254, 0.6187067627906799, -0.905626654624939, -0.7377481460571289, -0.0244140625, 0.16845703125, -0.8212890625
205, 1606922320, -4.56269645690918, -1.648466944694519, 8.408255577087402, 0.5000431537628174, -0.8255742192268372, -0.6811185479164124, -0.025146484375, 0.16650390625, -0.823974609375
206, 1606938987, -4.561464309692383, -1.6416070461273193, 8.385446548461914, 0.4333864450454712, -0.9722650647163391, -0.6655858755111694, -0.02587890625, 0.16650390625, -0.82080078125
207, 1606955654, -4.565405368804932, -1.645021677017212, 8.3799409866333, 0.5016695261001587, -0.9998685121536255, -0.7097406983375549, -0.025634765625, 0.16650390625, -0.8193359375
208, 1606972321, -4.567831516265869, -1.6617672443389893, 8.36353874206543, 0.5203668475151062, -0.9611421823501587, -0.7627462148666382, -0.02880859375, 0.164794921875, -0.822021484375
209, 1606988988, -4.5644941329956055, -1.6516000032424927, 8.374512672424316, 0.580377459526062, -0.9600024223327637, -0.677622377872467, -0.02783203125, 0.163818359375, -0.821533203125
210, 1607005655, -4.55626916885376, -1.6397639513015747, 8.399065971374512, 0.543123722076416, -1.119351863861084, -0.6434038281440735, -0.02783203125, 0.165283203125, -0.822021484375
211, 1607022322, -4.55136251449585, -1.6417666673660278, 8.408946990966797, 0.6501080393791199, -1.017656683921814, -0.5880932211875916, -0.02734375, 0.16650390625, -0.81982421875
212, 1607038989, -4.545563697814941, -1.6301894187927246, 8.3943452835083, 0.6564470529556274, -0.9662391543388367, -0.6693878769874573, -0.025634765625, 0.164306640625, -0.82177734375
213, 1607055656, -4.555257320404053, -1.6326591968536377, 8.419955253601074, 0.7034464478492737, -1.1312874555587769, -0.5943043828010559, -0.02880859375, 0.16650390625, -0.819580078125
214, 1607072323, -4.5496826171875, -1.6310545206069946, 8.407328605651855, 0.7596278190612793, -1.0926249027252197, -0.6414444446563721, -0.02880859375, 0.162841796875, -0.820556640625
215, 1607088990, -4.548075199127197, -1.6320555210113525, 8.405709266662598, 0.6856583952903748, -1.060071349143982, -0.6992394924163818, -0.027587890625, 0.161376953125, -0.82080078125
216, 1607105657, -4.534029960632324, -1.6232153177261353, 8.415440559387207, 0.48809483647346497, -0.9618848562240601, -0.746097981929779, -0.02880859375, 0.164306640625, -0.81884765625
217, 1607122324, -4.533304214477539, -1.6304410696029663, 8.391215324401855, 0.14526882767677307, -0.7355838418006897, -0.7537304759025574, -0.0283203125, 0.163330078125, -0.818359375
218, 1607138991, -4.539941787719727, -1.6182403564453125, 8.410168647766113, -0.2569977939128876, -0.5720596313476562, -0.8772221207618713, -0.02783203125, 0.164306640625, -0.81884765625
219, 1607155658, -4.558372974395752, -1.6084232330322266, 8.376919746398926, -0.3353983163833618, -0.49894821643829346, -1.036840558052063, -0.0283203125, 0.163330078125, -0.8203125
220, 1607172325, -4.5513105392456055, -1.6355615854263306, 8.384465217590332, -0.39813658595085144, -0.5259311199188232, -0.9834635853767395, -0.026611328125, 0.162841796875, -0.82177734375
221, 1607188992, -4.552820205688477, -1.6131035089492798, 8.396737098693848, -0.46928870677948, -0.46170735359191895, -1.086836576461792, -0.02978515625, 0.163818359375, -0.822021484375
222, 1607205659, -4.569102764129639, -1.6290849447250366, 8.415810585021973, -0.8052375912666321, -0.470172256231308, -1.1880065202713013, -0.02880859375, 0.163330078125, -0.820068359375
223, 1607222326, -4.55482816696167, -1.622365951538086, 8.395901679992676, -1.0181944370269775, -0.3521105945110321, -1.1978546380996704, -0.02734375, 0.164794921875, -0.821533203125
224, 1607238993, -4.555014133453369, -1.6331740617752075, 8.39319133758545, -0.7797914743423462, -0.47109436988830566, -1.1378313302993774, -0.028564453125, 0.162353515625, -0.8193359375
225, 1607255660, -4.548349380493164, -1.6421445608139038, 8.373828887939453, -0.7378379106521606, -0.5321807265281677, -1.1722676753997803, -0.027099609375, 0.161865234375, -0.8193359375
226, 1607272327, -4.556157112121582, -1.6290991306304932, 8.37814998626709, -0.5303366184234619, -0.5507115125656128, -1.134668231010437, -0.0283203125, 0.164794921875, -0.818359375
227, 1607288994, -4.570069789886475, -1.6439847946166992, 8.374690055847168, -0.4990377426147461, -0.6234258413314819, -1.0890134572982788, -0.029296875, 0.164794921875, -0.822021484375
228, 1607305661, -4.559083461761475, -1.635944128036499, 8.407597541809082, -0.48300430178642273, -0.5951750874519348, -1.0215625762939453, -0.02978515625, 0.164306640625, -0.819580078125
229, 1607322328, -4.556770324707031, -1.6293730735778809, 8.39270305633545, -0.6412010788917542, -0.4239157736301422, -1.0615694522857666, -0.026123046875, 0.165283203125, -0.822021484375
230, 1607338995, -4.547402858734131, -1.6390037536621094, 8.393619537353516, -0.611016571521759, -0.4116344749927521, -1.0827127695083618, -0.026123046875, 0.163330078125, -0.8193359375
231, 1607355662, -4.561882019042969, -1.6261664628982544, 8.384986877441406, -0.4767932593822479, -0.3479997515678406, -0.9872414469718933, -0.02880859375, 0.163330078125, -0.820068359375
232, 1607372329, -4.5567097663879395, -1.6268290281295776, 8.36616325378418, -0.31939035654067993, -0.46802085638046265, -1.0039280652999878, -0.027099609375, 0.162841796875, -0.8203125
233, 1607388996, -4.54930305480957, -1.6343034505844116, 8.392131805419922, -0.18160682916641235, -0.5481629967689514, -0.8679503202438354, -0.027587890625, 0.163818359375, -0.821533203125
234, 1607405663, -4.562585353851318, -1.644762396812439, 8.383830070495605, -0.05340247601270676, -0.4936719238758087, -0.8651456832885742, -0.02685546875, 0.165283203125, -0.821533203125
235, 1607422330, -4.549153804779053, -1.6369041204452515, 8.392878532409668, -0.08514942228794098, -0.6170611381530762, -0.8784002661705017, -0.025634765625, 0.164794921875, -0.8203125
236, 1607438997, -4.543882369995117, -1.6425045728683472, 8.38343620300293, -0.1321999430656433, -0.631148099899292, -0.8532870411872864, -0.027587890625, 0.162353515625, -0.81982421875
237, 1607455664, -4.5603156089782715, -1.630553960800171, 8.35472297668457, -0.10909728705883026, -0.48278653621673584, -0.8972384333610535, -0.02978515625, 0.164794921875, -0.819091796875
238, 1607472331, -4.562522888183594, -1.6350728273391724, 8.399665832519531, -0.055566754192113876, -0.5752740502357483, -0.8953559398651123, -0.0283203125, 0.164306640625, -0.820556640625
239, 1607488998, -4.563262462615967, -1.6315747499465942, 8.378288269042969, -0.16835227608680725, -0.46813616156578064, -0.9285884499549866, -0.025634765625, 0.1650390625, -0.822998046875
240, 1607505665, -4.553732395172119, -1.6370539665222168, 8.393383979797363, -0.1414802074432373, -0.5376812219619751, -0.8632509112358093, -0.026611328125, 0.164794921875, -0.82080078125
241, 1607522332, -4.549948692321777, -1.6290481090545654, 8.385384559631348, -0.0455906018614769, -0.5278521180152893, -0.8545548319816589, -0.026611328125, 0.163818359375, -0.822998046875
242, 1607538999, -4.553619861602783, -1.6309818029403687, 8.391501426696777, -0.1171012595295906, -0.5566152334213257, -0.8292111754417419, -0.026611328125, 0.163330078125, -0.8203125
243, 1607555666, -4.55004358291626, -1.6318097114562988, 8.392448425292969, -0.021066443994641304, -0.4150153398513794, -0.828673243522644, -0.027099609375, 0.162841796875, -0.8212890625
244, 1607572333, -4.5609564781188965, -1.6392358541488647, 8.389677047729492, 0.0074468920938670635, -0.44151169061660767, -0.7395410537719727, -0.0283203125, 0.164306640625, -0.81884765625
245, 1607589000, -4.5558390617370605, -1.6215040683746338, 8.400544166564941, 0.5534200072288513, -0.3596919775009155, -0.5842000842094421, -0.02734375, 0.164306640625, -0.820556640625
246, 1607605667, -4.533979892730713, -1.6651864051818848, 8.36620044708252, 1.6252219676971436, -0.48445144295692444, -0.09052808582782745, -0.02734375, 0.165283203125, -0.822021484375
247, 1607622334, -4.586336612701416, -1.6323583126068115, 8.385765075683594, 2.60634183883667, -0.7177702188491821, 0.32863011956214905, -0.027587890625, 0.162353515625, -0.8203125
248, 1607639001, -4.571407794952393, -1.5939728021621704, 8.404081344604492, 2.3874943256378174, -0.9875360727310181, 0.2775968611240387, -0.028076171875, 0.162353515625, -0.821044921875
249, 1607655668, -4.576470375061035, -1.5343992710113525, 8.391278266906738, 1.787964940071106, -0.7795352339744568, -0.030402272939682007, -0.026611328125, 0.161376953125, -0.8212890625
250, 1607672335, -4.532932281494141, -1.6112700700759888, 8.418839454650879, 1.2022793292999268, -0.6808367967605591, -0.38529184460639954, -0.028076171875, 0.159912109375, -0.81982421875
251, 1607689002, -4.566370964050293, -1.6033351421356201, 8.401999473571777, 0.3518224358558655, -0.55270916223526, -0.6127966046333313, -0.026611328125, 0.161376953125, -0.824951171875
252, 1607705669, -4.565164566040039, -1.5972129106521606, 8.390949249267578, 0.004488625563681126, -0.4870895445346832, -0.8605355620384216, -0.025634765625, 0.161376953125, -0.822265625
253, 1607722336, -4.553241729736328, -1.6038124561309814, 8.402461051940918, -0.17542138695716858, -0.5416573882102966, -0.8776576519012451, -0.027099609375, 0.159912109375, -0.822509765625
254, 1607739003, -4.558610916137695, -1.5854697227478027, 8.387086868286133, -0.6041651368141174, -0.4544717073440552, -1.0275686979293823, -0.028076171875, 0.159912109375, -0.82080078125
255, 1607755670, -4.556905746459961, -1.5952104330062866, 8.420171737670898, -0.7544733285903931, -0.40323352813720703, -1.0493780374526978, -0.026611328125, 0.161865234375, -0.8203125
256, 1607772337, -4.553915977478027, -1.601181149482727, 8.398151397705078, -0.8688979744911194, -0.4368245601654053, -1.0917669534683228, -0.026123046875, 0.161376953125, -0.8212890625
257, 1607789004, -4.550384521484375, -1.594952940940857, 8.382915496826172, -0.813997209072113, -0.3722037374973297, -1.1384588479995728, -0.027099609375, 0.162841796875, -0.823486328125
258, 1607805671, -4.573193073272705, -1.5977275371551514, 8.389532089233398, -0.9541627168655396, -0.42219972610473633, -1.1179944276809692, -0.028564453125, 0.161376953125, -0.821533203125
259, 1607822338, -4.568852424621582, -1.6118144989013672, 8.385638236999512, -0.7891016602516174, -0.4923401474952698, -1.09299635887146, -0.027099609375, 0.162841796875, -0.822021484375
260, 1607839005, -4.552853107452393, -1.5989028215408325, 8.414985656738281, -0.6713088750839233, -0.47058215737342834, -1.1034975051879883, -0.025634765625, 0.163818359375, -0.8212890625
261, 1607855672, -4.569252014160156, -1.6267551183700562, 8.390480041503906, -0.8649023771286011, -0.4292048513889313, -1.1598070859909058, -0.025634765625, 0.161376953125, -0.8193359375
262, 1607872339, -4.573710918426514, -1.596747636795044, 8.402681350708008, -0.8117048144340515, -0.3875201344490051, -1.1424545049667358, -0.02880859375, 0.162353515625, -0.822021484375
263, 1607889006, -4.569462299346924, -1.6160355806350708, 8.399197578430176, -0.8533511161804199, -0.485578328371048, -1.1558244228363037, -0.027587890625, 0.162841796875, -0.821044921875
264, 1607905673, -4.5638580322265625, -1.6209564208984375, 8.384753227233887, -0.5563462972640991, -0.5906032919883728, -1.0752595663070679, -0.026123046875, 0.163818359375, -0.81884765625
265, 1607922340, -4.560375690460205, -1.6056079864501953, 8.390898704528809, -0.3477180302143097, -0.7101889252662659, -0.994784414768219, -0.026123046875, 0.163330078125, -0.82080078125
266, 1607939007, -4.5654497146606445, -1.6015740633010864, 8.380630493164062, -0.23068077862262726, -0.7198578119277954, -0.9738717675209045, -0.027099609375, 0.164306640625, -0.8203125
267, 1607955674, -4.575600624084473, -1.6118649244308472, 8.390488624572754, -0.14591555297374725, -0.6542507410049438, -1.0448956489562988, -0.026611328125, 0.162353515625, -0.81787109375
268, 1607972341, -4.566564559936523, -1.6255511045455933, 8.399229049682617, -0.16612397134304047, -0.7356480360031128, -1.0599688291549683, -0.028076171875, 0.163330078125, -0.8203125
269, 1607989008, -4.567081451416016, -1.6049919128417969, 8.380538940429688, -0.1733083426952362, -0.7879747152328491, -0.9860121011734009, -0.025146484375, 0.161865234375, -0.8212890625
270, 1608005675, -4.582724094390869, -1.61109459400177, 8.390071868896484, -0.3559781312942505, -0.719243049621582, -1.1091195344924927, -0.028076171875, 0.163330078125, -0.822021484375
271, 1608022342, -4.576077461242676, -1.6133354902267456, 8.36434555053711, -0.35561954975128174, -0.6506266593933105, -1.1311720609664917, -0.026611328125, 0.163818359375, -0.8212890625
272, 1608039009, -4.567880630493164, -1.6267554759979248, 8.380230903625488, -0.657657265663147, -0.6804525256156921, -1.2198559045791626, -0.027099609375, 0.162841796875, -0.82080078125
273, 1608055676, -4.564485549926758, -1.611763596534729, 8.42591381072998, -0.5391796231269836, -0.6659829020500183, -1.20978581905365, -0.02734375, 0.164794921875, -0.8173828125
274, 1608072343, -4.558572292327881, -1.6226956844329834, 8.394733428955078, -0.3897484540939331, -0.7788822054862976, -1.1404951810836792, -0.028076171875, 0.161376953125, -0.82080078125
275, 1608089010, -4.566035270690918, -1.6185284852981567, 8.388123512268066, -0.3052009642124176, -0.8109365105628967, -1.075682282447815, -0.026611328125, 0.164306640625, -0.821533203125
276, 1608105677, -4.5461883544921875, -1.6180845499038696, 8.36727523803711, -0.2650786340236664, -0.7709934711456299, -1.061723232269287, -0.02734375, 0.165283203125, -0.8203125
277, 1608122344, -4.554827690124512, -1.6267098188400269, 8.396784782409668, -0.24565136432647705, -0.6639195084571838, -0.9785587787628174, -0.02734375, 0.165283203125, -0.820556640625
278, 1608139011, -4.552928924560547, -1.601253867149353, 8.400266647338867, -0.18140193819999695, -0.6462468504905701, -0.9795961976051331, -0.027587890625, 0.161865234375, -0.8203125
279, 1608155678, -4.5611042976379395, -1.6133854389190674, 8.376583099365234, -0.19235138595104218, -0.655211329460144, -1.026224136352539, -0.026123046875, 0.161865234375, -0.81884765625
280, 1608172345, -4.551971912384033, -1.616757869720459, 8.39472484588623, -0.3572075068950653, -0.5721749067306519, -1.0538344383239746, -0.027099609375, 0.161865234375, -0.81787109375
281, 1608189012, -4.557370662689209, -1.62362539768219, 8.38869857788086, -0.3389072120189667, -0.5056074857711792, -1.0346120595932007, -0.02783203125, 0.165283203125, -0.820068359375
282, 1608205679, -4.556257247924805, -1.617040991783142, 8.380022048950195, -0.3926939070224762, -0.488293319940567, -0.9654707312583923, -0.025146484375, 0.164306640625, -0.8212890625
283, 1608222346, -4.56162166595459, -1.6154471635818481, 8.382524490356445, -0.44631412625312805, -0.45671287178993225, -0.9870750308036804, -0.027587890625, 0.162841796875, -0.81982421875
284, 1608239013, -4.560648441314697, -1.6292446851730347, 8.386222839355469, -0.3862907290458679, -0.5505833625793457, -0.9873054623603821, -0.026123046875, 0.162353515625, -0.8203125
285, 1608255680, -4.564910888671875, -1.6138588190078735, 8.391616821289062, -0.2665513753890991, -0.5940865874290466, -0.9894953966140747, -0.027099609375, 0.161376953125, -0.8203125
286, 1608272347, -4.562112808227539, -1.6163281202316284, 8.421269416809082, -0.37859413027763367, -0.6007843017578125, -0.9080213904380798, -0.026611328125, 0.162841796875, -0.8203125
287, 1608289014, -4.564786911010742, -1.617270588874817, 8.38062858581543, -0.4454048275947571, -0.5528629422187805, -0.9939904808998108, -0.026611328125, 0.162841796875, -0.822021484375
288, 1608305681, -4.559925079345703, -1.628420114517212, 8.396051406860352, -0.4678415358066559, -0.6292399764060974, -1.077206015586853, -0.02734375, 0.164306640625, -0.821044921875
289, 1608322348, -4.570840358734131, -1.618021845817566, 8.391156196594238, -0.44404736161231995, -0.6001182794570923, -1.0957751274108887, -0.026611328125, 0.165283203125, -0.81982421875
290, 1608339015, -4.554369926452637, -1.6295431852340698, 8.402078628540039, -0.4106484651565552, -0.5846995115280151, -1.0541547536849976, -0.02685546875, 0.164794921875, -0.81689453125
291, 1608355682, -4.563290596008301, -1.6065436601638794, 8.380620002746582, -0.3469752371311188, -0.7284892201423645, -1.0728518962860107, -0.027587890625, 0.163330078125, -0.822021484375
292, 1608372349, -4.549248695373535, -1.62056565284729, 8.381156921386719, -0.3095422685146332, -0.6059708595275879, -1.0091019868850708, -0.024169921875, 0.162841796875, -0.81982421875
293, 1608389016, -4.559963226318359, -1.6236553192138672, 8.372292518615723, -0.27158427238464355, -0.662754237651825, -1.010613203048706, -0.027099609375, 0.164306640625, -0.821533203125
294, 1608405683, -4.560615539550781, -1.6157022714614868, 8.37810230255127, -0.1776881068944931, -0.695410430431366, -1.044165849685669, -0.02783203125, 0.163818359375, -0.822021484375
295, 1608422350, -4.563309669494629, -1.6200791597366333, 8.386954307556152, -0.2373400777578354, -0.6835516691207886, -0.976855456829071, -0.025634765625, 0.163330078125, -0.8212890625
296, 1608439017, -4.56473970413208, -1.6257339715957642, 8.372003555297852, -0.17342360317707062, -0.7567784786224365, -0.9508587121963501, -0.0283203125, 0.162841796875, -0.81982421875
297, 1608455684, -4.565598964691162, -1.6223372220993042, 8.368864059448242, -0.10370582342147827, -0.7921880483627319, -0.9666104912757874, -0.026611328125, 0.161865234375, -0.81884765625
298, 1608472351, -4.558764457702637, -1.6133506298065186, 8.401097297668457, -0.24691924452781677, -0.7117769718170166, -1.0633752346038818, -0.027587890625, 0.163330078125, -0.8203125
299, 1608489018, -4.575109481811523, -1.621374487876892, 8.359938621520996, -0.47936728596687317, -0.7582255601882935, -1.1192749738693237, -0.02880859375, 0.163330078125, -0.81982421875
300, 1608505685, -4.560049057006836, -1.6136525869369507, 8.379378318786621, -0.4886903166770935, -0.7641932964324951, -1.1912851333618164, -0.02880859375, 0.163818359375, -0.81982421875
301, 1608522352, -4.543936252593994, -1.6333914995193481, 8.403671264648438, -0.4362739324569702, -0.8780033588409424, -1.1081205606460571, -0.027099609375, 0.162353515625, -0.82080078125
302, 1608539019, -4.559840679168701, -1.6354092359542847, 8.357414245605469, -0.2572155296802521, -0.879988431930542, -1.1670939922332764, -0.026611328125, 0.163330078125, -0.81982421875
303, 1608555686, -4.550300598144531, -1.639119029045105, 8.398387908935547, 0.04998959228396416, -0.9590036273002625, -0.9252588152885437, -0.026611328125, 0.163330078125, -0.8193359375
304, 1608572353, -4.557036876678467, -1.6338679790496826, 8.373735427856445, 0.3936351537704468, -1.0508249998092651, -0.9397938847541809, -0.026611328125, 0.163330078125, -0.82080078125
305, 1608589020, -4.548813819885254, -1.6351908445358276, 8.376129150390625, 0.020983204245567322, -1.083493947982788, -1.0052216053009033, -0.02880859375, 0.166259765625, -0.820068359375
306, 1608605687, -4.55634069442749, -1.6139687299728394, 8.387526512145996, 0.06412780284881592, -1.056178092956543, -0.950935423374176, -0.02783203125, 0.164306640625, -0.8193359375
307, 1608622354, -4.542947292327881, -1.6435030698776245, 8.422806739807129, -0.6037914752960205, -0.8133544325828552, -1.0721861124038696, -0.027099609375, 0.164306640625, -0.8203125
308, 1608639021, -4.555849075317383, -1.593659520149231, 8.391798973083496, -0.7671515941619873, -0.7270420789718628, -1.059161901473999, -0.026123046875, 0.162841796875, -0.8203125
309, 1608655688, -4.5500969886779785, -1.633376955986023, 8.414292335510254, -0.6939632892608643, -0.8857383728027344, -1.0127389430999756, -0.029296875, 0.162353515625, -0.820068359375
310, 1608672355, -4.569841384887695, -1.6237120628356934, 8.408517837524414, -1.1854195594787598, -0.872381329536438, -1.209700584411621, -0.029296875, 0.162841796875, -0.819580078125
311, 1608689022, -4.543210506439209, -1.630257248878479, 8.349004745483398, -0.7091516852378845, -1.0194367170333862, -1.1550943851470947, -0.026611328125, 0.165283203125, -0.821533203125
312, 1608705689, -4.560328483581543, -1.6364294290542603, 8.401723861694336, -0.5882084965705872, -0.9962700009346008, -1.0933804512023926, -0.0283203125, 0.164306640625, -0.821044921875
313, 1608722356, -4.563665866851807, -1.5862544775009155, 8.401470184326172, -0.9219163060188293, -0.3793624937534332, -1.258608102798462, -0.026611328125, 0.164794921875, -0.82080078125
314, 1608739023, -4.560476779937744, -1.6454200744628906, 8.391115188598633, -1.0684337615966797, 0.07225983589887619, -1.3946115970611572, -0.027099609375, 0.163330078125, -0.81787109375
315, 1608755690, -4.5890326499938965, -1.6382577419281006, 8.371261596679688, -1.0740429162979126, 0.23527184128761292, -1.4666087627410889, -0.02783203125, 0.165283203125, -0.81982421875
316, 1608772357, -4.6329522132873535, -1.5421102046966553, 8.499749183654785, -3.2170703411102295, 1.8694262504577637, -2.1917428970336914, -0.026611328125, 0.165283203125, -0.82080078125
317, 1608789024, -5.128696441650391, -1.2631237506866455, 8.885581016540527, -6.933487892150879, 7.4219160079956055, -3.696643590927124, -0.02587890625, 0.16748046875, -0.821044921875
318, 1608805691, -4.928906440734863, -1.3753471374511719, 8.539851188659668, -10.327961921691895, 13.5615873336792, -4.80604887008667, -0.023193359375, 0.169921875, -0.82177734375
319, 1608822358, -3.8161933422088623, -1.371389389038086, 8.532816886901855, -10.956661224365234, 12.433868408203125, -3.3233273029327393, -0.018310546875, 0.172607421875, -0.81884765625
320, 1608839025, -3.316685676574707, -1.9028215408325195, 8.56684684753418, -8.61322021484375, 21.716541290283203, -1.87372624874115, -0.017822265625, 0.172119140625, -0.8203125
321, 1608855692, -4.035827159881592, -0.680701732635498, 11.475537300109863, -28.622243881225586, 43.448081970214844, -0.1911877989768982, -0.009033203125, 0.17822265625, -0.818603515625
322, 1608872359, -2.2706964015960693, -1.5256404876708984, 11.612051010131836, -51.312660217285156, 55.24631118774414, 16.197574615478516, 0.0078125, 0.1904296875, -0.81396484375
323, 1608889026, -4.7542805671691895, -4.725274562835693, 13.505402565002441, -16.576440811157227, 39.13190460205078, 36.78425598144531, 0.021728515625, 0.195556640625, -0.810546875
324, 1608905693, -2.918266773223877, -6.041096210479736, 13.938014030456543, 34.22028350830078, 21.6141414642334, 41.34355163574219, 0.0322265625, 0.191162109375, -0.808837890625
325, 1608922360, 0.5390520691871643, -4.532153606414795, 11.350809097290039, 53.2921028137207, 22.681774139404297, 32.640262603759766, 0.04052734375, 0.174560546875, -0.80517578125
326, 1608939027, 1.0237557888031006, -4.473060131072998, 11.138060569763184, 38.267940521240234, 33.599021911621094, 12.375248908996582, 0.05517578125, 0.1640625, -0.80224609375
327, 1608955694, 2.0513498783111572, -4.160125732421875, 10.27590560913086, 31.41232681274414, 30.308979034423828, -7.585867881774902, 0.066650390625, 0.156494140625, -0.79443359375
328, 1608972361, 4.2846269607543945, -2.657109260559082, 8.390893936157227, 39.27984619140625, 35.09123611450195, -10.664097785949707, 0.080810546875, 0.14453125, -0.79150390625
329, 1608989028, 3.4312005043029785, -1.6247332096099854, 11.308626174926758, 27.456811904907227, 35.9381217956543, -3.257075309753418, 0.094482421875, 0.1357421875, -0.7822265625
330, 1609005695, 1.739031434059143, -2.305732488632202, 14.168098449707031, 0.07752323150634766, -1.8386971950531006, -3.859347105026245, 0.1064453125, 0.128662109375, -0.77880859375
331, 1609022362, 1.6714534759521484, -3.147855520248413, 13.155863761901855, -12.041092872619629, -52.031707763671875, -10.91724681854248, 0.10302734375, 0.127685546875, -0.771484375
332, 1609039029, 1.8079315423965454, -2.6331498622894287, 10.7816801071167, -13.278212547302246, -79.92754364013672, -16.966657638549805, 0.1015625, 0.128662109375, -0.764404296875
333, 1609055696, 0.9664940237998962, -2.3794565200805664, 9.801315307617188, -18.379520416259766, -88.01085662841797, -20.635196685791016, 0.092529296875, 0.130126953125, -0.76318359375
334, 1609072363, -0.4138913154602051, -2.871135950088501, 9.676678657531738, -10.445326805114746, -90.12250518798828, -18.674884796142578, 0.08251953125, 0.134033203125, -0.76416015625
335, 1609089030, -3.3028645515441895, -2.972003936767578, 12.909597396850586, 0.3437274098396301, -96.45475769042969, -11.452855110168457, 0.077880859375, 0.134521484375, -0.765869140625
336, 1609105697, -6.790131092071533, -2.627842903137207, 15.899280548095703, -26.81983184814453, -138.75286865234375, -21.56271743774414, 0.0634765625, 0.141357421875, -0.772705078125
337, 1609122364, -5.410715579986572, -3.2925403118133545, 11.965829849243164, -48.07906723022461, -177.11851501464844, -34.51023483276367, 0.0302734375, 0.15673828125, -0.777099609375
338, 1609139031, -4.741678237915039, -2.42427659034729, 9.0428466796875, -43.228363037109375, -171.3668670654297, -35.653926849365234, -4.8828125E-4, 0.174072265625, -0.784423828125
339, 1609155698, -5.721465587615967, -1.3912289142608643, 9.212224006652832, -46.84272384643555, -155.63880920410156, -34.982337951660156, -0.03662109375, 0.19287109375, -0.78759765625
340, 1609172365, -6.271829605102539, -1.3597158193588257, 9.059558868408203, -45.77207946777344, -142.51780700683594, -30.23943328857422, -0.06982421875, 0.212158203125, -0.79443359375
341, 1609189032, -7.235755920410156, -1.0601791143417358, 9.682188987731934, -35.534149169921875, -133.610595703125, -21.956480026245117, -0.1064453125, 0.222900390625, -0.7958984375
342, 1609205699, -7.492999076843262, -0.2290032058954239, 9.236364364624023, -40.50351333618164, -135.7028045654297, -19.61031723022461, -0.1416015625, 0.236328125, -0.791748046875
343, 1609222366, -5.79873514175415, 0.012231376022100449, 6.2685980796813965, -42.68154525756836, -123.82051086425781, -13.7261962890625, -0.1787109375, 0.25146484375, -0.786865234375
344, 1609239033, -5.890483856201172, -0.11422310024499893, 5.389675617218018, -35.360782623291016, -97.60867309570312, -3.350883722305298, -0.206298828125, 0.25927734375, -0.783203125
345, 1609255700, -6.38257360458374, -0.3463488221168518, 5.310611248016357, -30.51218605041504, -74.84950256347656, 3.5649149417877197, -0.227783203125, 0.26611328125, -0.775634765625
346, 1609272367, -6.615418434143066, -0.41611480712890625, 5.435255527496338, -27.515705108642578, -57.11478042602539, 5.359950065612793, -0.244384765625, 0.277099609375, -0.77099609375
347, 1609289034, -5.979455947875977, -0.29323118925094604, 5.453616619110107, -22.26565170288086, -45.017234802246094, 5.741733074188232, -0.259521484375, 0.283935546875, -0.76416015625
348, 1609305701, -5.17441463470459, -0.047756340354681015, 5.513239860534668, -13.132122039794922, -35.14479064941406, 8.97653579711914, -0.26611328125, 0.291015625, -0.763427734375
349, 1609322368, -4.322290897369385, 0.2640168368816376, 5.414906024932861, -5.323715686798096, -21.94947624206543, 15.344883918762207, -0.274169921875, 0.29296875, -0.76220703125
350, 1609339035, -4.436096668243408, -0.24283331632614136, 5.898070335388184, -2.6563875675201416, -8.20818042755127, 21.149808883666992, -0.276123046875, 0.29443359375, -0.759521484375
351, 1609355702, -4.860126495361328, -1.0938456058502197, 6.1891398429870605, 2.1658854484558105, 3.156240940093994, 25.39765739440918, -0.272705078125, 0.29736328125, -0.760498046875
352, 1609372369, -5.678812026977539, -1.4871270656585693, 6.982567310333252, 5.641600131988525, 8.848791122436523, 23.249601364135742, -0.271240234375, 0.29931640625, -0.761474609375
353, 1609389036, -5.631256103515625, -1.5372377634048462, 6.106323719024658, 7.109208106994629, 12.428922653198242, 16.12262535095215, -0.268310546875, 0.299560546875, -0.762451171875
354, 1609405703, -5.9690070152282715, -1.9065639972686768, 4.999816417694092, 13.908544540405273, 28.882640838623047, 15.08873176574707, -0.263671875, 0.297607421875, -0.762451171875
355, 1609422370, -3.2887933254241943, -3.6070239543914795, 4.540152549743652, 38.1867790222168, 53.9705696105957, 35.62604522705078, -0.249755859375, 0.295654296875, -0.773681640625
356, 1609439037, 0.5770384073257446, -2.442716598510742, 9.091275215148926, 38.44774627685547, 68.30574798583984, 54.583011627197266, -0.233154296875, 0.288330078125, -0.78173828125
357, 1609455704, 1.3046842813491821, -9.767205238342285, 11.206230163574219, -7.671536922454834, 113.70240020751953, 24.924867630004883, -0.208740234375, 0.287353515625, -0.786865234375
358, 1609472371, -1.3431740999221802, -7.172901153564453, 6.938897609710693, -17.91475486755371, 142.89999389648438, -5.14893913269043, -0.1767578125, 0.293212890625, -0.793212890625
359, 1609489038, -4.523250102996826, 3.472837209701538, 10.777348518371582, -12.900341033935547, 160.7953338623047, 6.367293357849121, -0.139892578125, 0.297119140625, -0.797119140625
360, 1609505705, -5.491020202636719, 4.881700038909912, 13.65438461303711, -28.213193893432617, 137.92929077148438, 27.492033004760742, -0.103759765625, 0.301513671875, -0.801513671875
361, 1609522372, -6.211987018585205, -3.195122480392456, 11.060330390930176, -46.149559020996094, 123.10466766357422, 23.670894622802734, -0.073486328125, 0.313232421875, -0.80126953125
362, 1609539039, -5.331606388092041, -7.319573402404785, 8.133210182189941, -54.733238220214844, 131.88650512695312, 3.3878884315490723, -0.042724609375, 0.32568359375, -0.80029296875
363, 1609555706, -6.226959705352783, -1.1722062826156616, 10.693000793457031, -55.60926818847656, 130.4064178466797, -0.6407342553138733, -0.010498046875, 0.337646484375, -0.795654296875
364, 1609572373, -5.506054878234863, -1.43156898021698, 9.884181022644043, -56.0229377746582, 99.75468444824219, 3.258937358856201, 0.0126953125, 0.351806640625, -0.790283203125
365, 1609589040, -9.384848594665527, -11.676137924194336, 8.748431205749512, -2.2881815433502197, 72.11263275146484, 20.664628982543945, 0.03271484375, 0.357666015625, -0.79052734375
366, 1609605707, -5.480587482452393, -1.5980560779571533, 9.22741985321045, 34.04539108276367, 42.18954086303711, 27.933019638061523, 0.048828125, 0.34814453125, -0.7919921875
367, 1609622374, -5.089350700378418, -3.20491886138916, 8.451091766357422, 29.661561965942383, 20.754066467285156, 20.969802856445312, 0.055419921875, 0.3427734375, -0.796875
368, 1609639041, -5.029409408569336, -2.409101963043213, 8.87026596069336, 31.86376190185547, 14.222846031188965, 20.90914535522461, 0.0625, 0.332275390625, -0.7978515625
369, 1609655708, -4.626120567321777, -2.883392572402954, 8.231579780578613, 31.31712532043457, 10.260519981384277, 20.09967803955078, 0.066162109375, 0.32470703125, -0.801025390625
370, 1609672375, -4.514423847198486, -2.1825926303863525, 8.39498233795166, 37.8533821105957, 10.475815773010254, 21.471935272216797, 0.072265625, 0.317626953125, -0.802490234375
371, 1609689042, -4.1485819816589355, -2.4661433696746826, 8.09457015991211, 40.95774841308594, 11.777270317077637, 22.141904830932617, 0.07568359375, 0.30908203125, -0.807373046875
372, 1609705709, -4.702544212341309, -2.8554933071136475, 8.299114227294922, 40.95543670654297, 14.370612144470215, 20.192014694213867, 0.08056640625, 0.296630859375, -0.812255859375
373, 1609722376, -5.149993896484375, -2.238852024078369, 8.9791259765625, 32.384788513183594, 13.955938339233398, 13.888896942138672, 0.087158203125, 0.2900390625, -0.8134765625
374, 1609739043, -4.879957675933838, -1.5276120901107788, 8.902372360229492, 20.66878890991211, 10.403018951416016, 6.897268295288086, 0.091552734375, 0.28271484375, -0.81396484375
375, 1609755710, -4.516993045806885, -2.217013359069824, 8.396646499633789, 14.742843627929688, 8.860010147094727, 3.8345510959625244, 0.09375, 0.277587890625, -0.814208984375
376, 1609772377, -4.590511798858643, -2.433380126953125, 8.337093353271484, 12.60932731628418, 8.133172035217285, 3.8317716121673584, 0.09521484375, 0.275634765625, -0.816162109375
377, 1609789044, -4.822536945343018, -2.290440559387207, 8.372220039367676, 8.051642417907715, 4.54802942276001, 3.641953706741333, 0.09619140625, 0.273193359375, -0.816650390625
378, 1609805711, -4.725041389465332, -2.1243233680725098, 8.151528358459473, 9.052907943725586, 0.25962960720062256, 4.192076683044434, 0.099365234375, 0.273193359375, -0.818115234375
379, 1609822378, -4.840559959411621, -2.0387115478515625, 8.270795822143555, 11.42700481414795, -3.341742515563965, 5.126955032348633, 0.098876953125, 0.26708984375, -0.819091796875
380, 1609839045, -4.667116641998291, -2.01487135887146, 8.277663230895996, 12.28618335723877, -5.8528008460998535, 5.646829128265381, 0.099853515625, 0.2626953125, -0.819091796875
381, 1609855712, -4.52287483215332, -2.2921500205993652, 8.218645095825195, 15.454487800598145, -9.915202140808105, 7.846992492675781, 0.094970703125, 0.260498046875, -0.820556640625
382, 1609872379, -4.482394218444824, -2.493225574493408, 8.190866470336914, 22.375595092773438, -14.907430648803711, 12.276325225830078, 0.094482421875, 0.256103515625, -0.8232421875
383, 1609889046, -4.664539813995361, -1.8626110553741455, 8.319058418273926, 24.7872371673584, -15.353614807128906, 14.891477584838867, 0.091064453125, 0.24951171875, -0.82666015625
384, 1609905713, -4.6276164054870605, -1.7350929975509644, 8.454020500183105, 21.814115524291992, -13.298513412475586, 14.938069343566895, 0.08837890625, 0.244384765625, -0.82763671875
385, 1609922380, -4.55463981628418, -1.6518919467926025, 8.451970100402832, 15.455979347229004, -9.553054809570312, 12.544052124023438, 0.087890625, 0.2373046875, -0.8291015625
386, 1609939047, -4.409425735473633, -1.4319255352020264, 8.473567008972168, 8.854999542236328, -2.756824493408203, 10.197465896606445, 0.087890625, 0.23486328125, -0.828125
387, 1609955714, -4.014410495758057, -1.754734754562378, 8.472221374511719, 3.3489065170288086, 4.913599967956543, 9.276686668395996, 0.0908203125, 0.23388671875, -0.82958984375
388, 1609972381, -4.592259407043457, -1.6805821657180786, 8.339576721191406, 1.250470757484436, 11.736165046691895, 10.356831550598145, 0.093505859375, 0.23291015625, -0.830078125
389, 1609989048, -4.5858235359191895, -1.680944800376892, 8.375307083129883, 0.18317587673664093, 17.537109375, 10.325230598449707, 0.095458984375, 0.2353515625, -0.827880859375
390, 1610005715, -4.214291095733643, -1.9283748865127563, 8.437931060791016, -0.2235739678144455, 27.841243743896484, 12.018290519714355, 0.1044921875, 0.23291015625, -0.827880859375
391, 1610022382, -4.513530254364014, -1.5553339719772339, 8.63245964050293, 4.4812164306640625, 45.92556381225586, 15.995782852172852, 0.115966796875, 0.2294921875, -0.82763671875
392, 1610039049, -4.043233871459961, -1.1474324464797974, 8.805115699768066, -4.872060298919678, 74.52447509765625, 19.14450454711914, 0.1328125, 0.229736328125, -0.8271484375
393, 1610055716, -4.423973560333252, -1.0966393947601318, 8.609180450439453, -12.524942398071289, 108.10310363769531, 18.828031539916992, 0.15673828125, 0.23193359375, -0.82177734375
394, 1610072383, -4.813561916351318, -1.3525923490524292, 8.155058860778809, -15.36949634552002, 143.5186004638672, 18.385494232177734, 0.190673828125, 0.236328125, -0.81103515625
395, 1610089050, -5.1971635818481445, -1.4514020681381226, 8.058232307434082, -10.510544776916504, 175.15960693359375, 19.595439910888672, 0.23095703125, 0.235595703125, -0.8017578125
396, 1610105717, -5.232098579406738, -1.3103368282318115, 8.158797264099121, -3.284344434738159, 204.57875061035156, 19.71596336364746, 0.27685546875, 0.23583984375, -0.78515625
397, 1610122384, -5.437654495239258, -1.1770613193511963, 8.254961013793945, 0.957534670829773, 236.24569702148438, 20.245771408081055, 0.329833984375, 0.23291015625, -0.765625
398, 1610139051, -5.386526107788086, -1.8284858465194702, 7.829008102416992, 8.120429992675781, 281.2229309082031, 34.42020034790039, 0.39208984375, 0.227294921875, -0.737548828125
399, 1610155718, -5.781554698944092, -2.122500419616699, 7.063054084777832, 18.33563995361328, 345.727783203125, 59.10122299194336, 0.461669921875, 0.21630859375, -0.694091796875
400, 1610172385, -6.687198638916016, -3.1717095375061035, 8.126503944396973, 29.342025756835938, 424.3160705566406, 85.23075866699219, 0.543212890625, 0.19970703125, -0.63916015625
401, 1610189052, -11.125801086425781, -2.7299931049346924, 9.987676620483398, 31.863170623779297, 482.6946716308594, 116.0293960571289, 0.6337890625, 0.17529296875, -0.5576171875
402, 1610205719, -20.531641006469727, -2.1512856483459473, 12.33557415008545, 15.642705917358398, 471.8826904296875, 124.96844482421875, 0.71337890625, 0.1474609375, -0.462646484375
403, 1610222386, -18.415794372558594, -3.8536338806152344, 11.088569641113281, 13.037055015563965, 433.88262939453125, 118.36395263671875, 0.76904296875, 0.1171875, -0.366943359375
404, 1610239053, -13.330482482910156, -5.017655372619629, 11.863664627075195, 43.3768310546875, 407.22747802734375, 131.5723876953125, 0.809326171875, 0.0830078125, -0.2734375
405, 1610255720, -6.9529337882995605, -5.188442230224609, 12.834623336791992, 54.97591781616211, 359.97088623046875, 128.56134033203125, 0.831298828125, 0.046875, -0.183349609375
406, 1610272387, -13.748492240905762, -3.1498184204101562, 18.037946701049805, 23.549625396728516, 235.73114013671875, 119.76317596435547, 0.84033203125, 0.013671875, -0.119384765625
407, 1610289054, -26.419984817504883, -2.590090274810791, 29.764684677124023, -59.17888259887695, 55.449554443359375, 52.99076461791992, 0.840087890625, -0.008544921875, -0.091552734375
408, 1610305721, -6.926435470581055, -9.081583023071289, 17.24323081970215, -72.6913833618164, -169.0337677001953, -50.864479064941406, 0.826904296875, 0.00341796875, -0.116455078125
409, 1610322388, 0.6683546900749207, -5.8833136558532715, 6.867497444152832, 1.7297495603561401, -207.95199584960938, -35.398983001708984, 0.8134765625, 0.00927734375, -0.154052734375
410, 1610339055, 0.12149056047201157, -2.6430230140686035, 5.443274021148682, 49.7957649230957, -187.54673767089844, -22.13504981994629, 0.799560546875, 0.0048828125, -0.1796875
411, 1610355722, -3.4687929153442383, -2.464271306991577, 8.582802772521973, 51.5593376159668, -206.41915893554688, -39.3022575378418, 0.800537109375, 0.00390625, -0.19970703125
412, 1610372389, -7.034147262573242, -3.0738489627838135, 10.132949829101562, 46.08485794067383, -275.5097351074219, -60.405242919921875, 0.814208984375, 0.00390625, -0.235107421875
413, 1610389056, -7.3626017570495605, -1.4678176641464233, 7.865616321563721, 32.95833206176758, -340.7206726074219, -78.14970397949219, 0.8369140625, 0.01806640625, -0.314697265625
414, 1610405723, -6.786928176879883, -1.4220231771469116, 5.525389671325684, 18.84531593322754, -366.638427734375, -73.1141586303711, 0.845703125, 0.031982421875, -0.443115234375
415, 1610422390, -6.711595058441162, -1.6203888654708862, 4.902970314025879, 23.41524887084961, -363.54364013671875, -48.43124008178711, 0.792236328125, 0.04345703125, -0.59130859375
416, 1610439057, -8.086685180664062, -1.3809564113616943, 5.951408863067627, 7.690173149108887, -348.052978515625, -36.78407287597656, 0.688232421875, 0.042236328125, -0.707275390625
417, 1610455724, -10.776041030883789, -2.58431339263916, 8.13900375366211, -42.904781341552734, -337.7976379394531, -59.550071716308594, 0.568359375, 0.0498046875, -0.767822265625
418, 1610472391, -13.150787353515625, -4.456050395965576, 9.130056381225586, -79.78839874267578, -343.356689453125, -96.89262390136719, 0.47216796875, 0.085693359375, -0.793212890625
419, 1610489058, -12.636767387390137, -4.431419372558594, 7.597703456878662, -77.5933609008789, -347.3321228027344, -113.79842376708984, 0.40478515625, 0.1279296875, -0.814453125
420, 1610505725, -11.521835327148438, -1.4606729745864868, 7.366188049316406, -78.2656478881836, -315.46875, -106.2234115600586, 0.34521484375, 0.1708984375, -0.85302734375
421, 1610522392, -12.748666763305664, 0.31070151925086975, 10.069965362548828, -94.65921020507812, -280.15789794921875, -81.27447509765625, 0.267822265625, 0.217041015625, -0.899169921875
422, 1610539059, -16.143402099609375, -0.20227807760238647, 13.489363670349121, -115.19116973876953, -282.7411193847656, -52.08635711669922, 0.154296875, 0.26220703125, -0.92138671875
423, 1610555726, -17.43145751953125, -0.6345587968826294, 12.020858764648438, -117.61021423339844, -301.1517639160156, -33.384422302246094, 0.037109375, 0.296875, -0.9033203125
424, 1610572393, -17.751083374023438, 0.3073103427886963, 9.516342163085938, -119.88230895996094, -294.55035400390625, -29.41242790222168, -0.06201171875, 0.320068359375, -0.866943359375
425, 1610589060, -19.99899673461914, -0.6083590388298035, 8.860687255859375, -116.92703247070312, -283.5031433105469, -36.0794677734375, -0.138671875, 0.339599609375, -0.825439453125
426, 1610605727, -19.436342239379883, -0.4364439845085144, 4.919360637664795, -88.37960052490234, -271.1398620605469, -44.67409133911133, -0.205810546875, 0.35546875, -0.788330078125
427, 1610622394, -19.370962142944336, 0.910658597946167, 0.885805606842041, -69.03834533691406, -227.3830108642578, -57.861846923828125, -0.2607421875, 0.36083984375, -0.75439453125
428, 1610639061, -20.878942489624023, 1.4625670909881592, -2.9164934158325195, -53.032737731933594, -168.61080932617188, -78.88329315185547, -0.30322265625, 0.362548828125, -0.7265625
429, 1610655728, -20.859643936157227, 4.052998065948486, -6.995339870452881, -17.69793128967285, -101.85254669189453, -86.37242889404297, -0.33251953125, 0.356201171875, -0.708984375
430, 1610672395, -21.57952308654785, 5.825406074523926, -8.509222984313965, 4.462920188903809, -26.36347007751465, -77.46696472167969, -0.3486328125, 0.343505859375, -0.703857421875
431, 1610689062, -20.365938186645508, 5.197317123413086, -7.276960372924805, 22.523862838745117, 47.83042907714844, -65.61175537109375, -0.34912109375, 0.331298828125, -0.705078125
432, 1610705729, -8.22237491607666, -3.017477035522461, -1.2476452589035034, 95.76844024658203, 103.6712646484375, -42.734859466552734, -0.333251953125, 0.31298828125, -0.7177734375
433, 1610722396, 4.713903903961182, -5.397538661956787, 23.319568634033203, 93.98382568359375, 126.24867248535156, -13.995716094970703, -0.31396484375, 0.285400390625, -0.73486328125
434, 1610739063, 3.523472547531128, 0.3948748707771301, 7.630301475524902, 48.445011138916016, 178.5703582763672, -6.580685615539551, -0.2783203125, 0.269287109375, -0.748046875
435, 1610755730, -9.027770042419434, 16.482824325561523, 12.441362380981445, -0.5330049991607666, 206.2496795654297, 29.88711166381836, -0.2333984375, 0.265625, -0.760986328125
436, 1610772397, -11.014791488647461, 5.915846347808838, 18.341691970825195, -19.0045166015625, 169.82778930664062, 73.1711654663086, -0.1875, 0.2724609375, -0.768310546875
437, 1610789064, -6.221884727478027, -14.01668643951416, 5.803025722503662, -14.910436630249023, 151.15643310546875, 48.20881652832031, -0.151123046875, 0.2783203125, -0.7705078125
438, 1610805731, -7.012392520904541, -7.633637428283691, 8.83886432647705, 1.3723328113555908, 158.7499542236328, 29.606124877929688, -0.11181640625, 0.27880859375, -0.774658203125
439, 1610822398, -5.68398904800415, 1.4848805665969849, 10.33823013305664, -2.651125192642212, 141.539794921875, 33.74994659423828, -0.077392578125, 0.276123046875, -0.776611328125
440, 1610839065, -12.236865997314453, -7.601291656494141, 11.506232261657715, 20.448001861572266, 113.66558837890625, 28.217926025390625, -0.0478515625, 0.2763671875, -0.779541015625
441, 1610855732, -5.596543312072754, -0.18981990218162537, 10.651603698730469, 50.90719223022461, 66.01908111572266, 23.292360305786133, -0.02880859375, 0.262939453125, -0.784912109375
442, 1610872399, -5.223299980163574, -1.794782042503357, 9.688467979431152, 33.4111328125, 44.12098693847656, 13.686066627502441, -0.017578125, 0.25537109375, -0.786865234375
443, 1610889066, -6.711283206939697, -2.71669602394104, 10.032295227050781, 25.060935974121094, 23.845258712768555, 11.494168281555176, -0.006591796875, 0.2470703125, -0.78955078125
444, 1610905733, -5.602448463439941, -2.0053558349609375, 9.00189208984375, 19.9852294921875, 7.0752949714660645, 6.250180721282959, -0.007568359375, 0.241455078125, -0.78955078125
445, 1610922400, -4.899571895599365, -2.116462230682373, 8.803167343139648, 12.344489097595215, 5.699257850646973, 2.3277666568756104, -0.00439453125, 0.238525390625, -0.790771484375
446, 1610939067, -4.631451606750488, -2.07379412651062, 8.456802368164062, 2.039289951324463, 9.363536834716797, -0.9593238830566406, -0.00244140625, 0.239501953125, -0.791748046875
447, 1610955734, -4.721346855163574, -2.2707672119140625, 8.354240417480469, 0.6995022296905518, 10.184002876281738, -1.6053404808044434, -9.765625E-4, 0.238037109375, -0.790283203125
448, 1610972401, -4.829645156860352, -2.4398703575134277, 8.15548038482666, 2.330570697784424, 8.29697322845459, 0.19362564384937286, 0.001953125, 0.238037109375, -0.792236328125
449, 1610989068, -4.73721981048584, -2.3262829780578613, 8.193338394165039, 2.7045159339904785, 6.966879844665527, 1.1689831018447876, 0.00244140625, 0.237548828125, -0.78662109375
450, 1611005735, -4.719972133636475, -2.2527694702148438, 8.197379112243652, 2.0907840728759766, 6.221485137939453, 1.5723445415496826, 0.005615234375, 0.236083984375, -0.78955078125
451, 1611022402, -4.69871711730957, -2.281190872192383, 8.163311004638672, 2.645747184753418, 5.72352409362793, 2.6877267360687256, 0.005126953125, 0.235595703125, -0.78759765625
452, 1611039069, -4.732598304748535, -2.277151107788086, 7.9952545166015625, 7.076016426086426, 2.139423131942749, 5.710282802581787, 0.006591796875, 0.234619140625, -0.79052734375
453, 1611055736, -4.713096618652344, -2.337846040725708, 8.097583770751953, 12.110942840576172, -1.1273566484451294, 9.58117389678955, 0.009521484375, 0.2314453125, -0.7890625
454, 1611072403, -4.721599578857422, -2.297903537750244, 8.137381553649902, 14.574880599975586, -3.4329001903533936, 12.467951774597168, 0.01025390625, 0.2294921875, -0.79248046875
455, 1611089070, -4.84840202331543, -2.0875601768493652, 8.135372161865234, 14.32357406616211, -4.908937931060791, 14.46938705444336, 0.0087890625, 0.22607421875, -0.79345703125
456, 1611105737, -4.766411304473877, -2.0124123096466064, 8.097477912902832, 14.376627922058105, -2.772962808609009, 14.684468269348145, 0.01025390625, 0.221435546875, -0.79541015625
457, 1611122404, -4.866371154785156, -1.969901442527771, 8.278514862060547, 11.821306228637695, 1.7824218273162842, 14.058897972106934, 0.00927734375, 0.217041015625, -0.79296875
458, 1611139071, -4.739241600036621, -2.020893096923828, 8.349357604980469, 6.474685192108154, 7.843185901641846, 12.321146965026855, 0.012939453125, 0.217529296875, -0.794921875
459, 1611155738, -4.438528060913086, -2.0445995330810547, 8.230363845825195, 6.690450668334961, 15.87032699584961, 12.990814208984375, 0.017333984375, 0.213134765625, -0.793212890625
460, 1611172405, -4.445356845855713, -1.524141788482666, 8.410040855407715, 5.861149311065674, 28.4095401763916, 14.747368812561035, 0.0234375, 0.2109375, -0.794189453125
461, 1611189072, -4.515307903289795, -1.6741746664047241, 8.284420013427734, -1.4565047025680542, 47.6624755859375, 15.491191864013672, 0.031494140625, 0.209228515625, -0.794921875
462, 1611205739, -4.6053571701049805, -1.9271589517593384, 8.232358932495117, 0.5605366826057434, 65.83560180664062, 17.509056091308594, 0.04833984375, 0.209716796875, -0.79150390625
463, 1611222406, -4.780146598815918, -1.8788940906524658, 8.194694519042969, 0.10691694915294647, 88.61456298828125, 21.407123565673828, 0.06884765625, 0.20703125, -0.789794921875
464, 1611239073, -4.973430156707764, -1.7319128513336182, 8.109917640686035, -3.211465835571289, 115.88005828857422, 24.332719802856445, 0.0947265625, 0.208740234375, -0.787109375
465, 1611255740, -5.215717315673828, -1.7376216650009155, 8.032330513000488, -3.8827645778656006, 142.6194305419922, 27.875001907348633, 0.127685546875, 0.20751953125, -0.783935546875
466, 1611272407, -5.319756984710693, -1.6319208145141602, 8.055981636047363, 0.4747362434864044, 169.113525390625, 33.0396842956543, 0.16552734375, 0.207763671875, -0.775634765625
467, 1611289074, -5.484334945678711, -1.3413106203079224, 7.929474830627441, 4.806233882904053, 197.40386962890625, 36.70018005371094, 0.20947265625, 0.20361328125, -0.7646484375
468, 1611305741, -5.655055999755859, -1.1924794912338257, 7.8324360847473145, 5.771992206573486, 235.58169555664062, 40.2130012512207, 0.260986328125, 0.200439453125, -0.74951171875
469, 1611322408, -5.761132717132568, -1.6703534126281738, 7.57185173034668, 10.868375778198242, 294.92584228515625, 51.11610412597656, 0.3232421875, 0.19287109375, -0.72412109375
470, 1611339075, -6.177980422973633, -1.9727410078048706, 7.8767242431640625, 20.4885311126709, 376.4375, 66.87010955810547, 0.3984375, 0.178955078125, -0.68603515625
471, 1611355742, -8.364580154418945, -2.4427433013916016, 9.459967613220215, 26.212871551513672, 464.6685485839844, 85.57972717285156, 0.48583984375, 0.162841796875, -0.623779296875
472, 1611372409, -15.9446439743042, -1.8984636068344116, 11.419355392456055, 16.93068504333496, 496.3637390136719, 105.81025695800781, 0.575439453125, 0.141845703125, -0.546630859375
473, 1611389076, -20.282318115234375, -2.213263988494873, 11.658834457397461, 13.131590843200684, 460.6134338378906, 106.2961196899414, 0.64990234375, 0.120361328125, -0.459716796875
474, 1611405743, -17.166446685791016, -5.214510440826416, 11.603509902954102, 24.30841064453125, 438.7838134765625, 109.2075424194336, 0.709716796875, 0.093017578125, -0.364990234375
475, 1611422410, -12.617341041564941, -5.140849590301514, 13.763290405273438, 41.88276290893555, 386.7975769042969, 116.30133056640625, 0.7509765625, 0.0634765625, -0.275146484375
476, 1611439077, -6.269162654876709, -1.8751871585845947, 17.710472106933594, 25.840253829956055, 263.6776123046875, 99.21086120605469, 0.774169921875, 0.038330078125, -0.203125
477, 1611455744, -29.06016731262207, -0.09068267047405243, 25.203861236572266, -40.32440948486328, 105.37767028808594, 116.76548767089844, 0.781005859375, 0.005126953125, -0.16455078125
478, 1611472411, -13.444207191467285, -6.020894527435303, 23.06208610534668, -122.3152084350586, -131.0023193359375, 4.348228931427002, 0.778076171875, 9.765625E-4, -0.172607421875
479, 1611489078, -0.6192483305931091, -8.099175453186035, 9.133024215698242, -60.69173812866211, -222.6388397216797, 0.12273988872766495, 0.765869140625, -0.00244140625, -0.20947265625
480, 1611505745, 1.1765797138214111, -5.379977703094482, 4.2605109214782715, 15.325016975402832, -188.68035888671875, 20.09168815612793, 0.758544921875, -0.01416015625, -0.2451171875
481, 1611522412, -1.156967043876648, -4.019964694976807, 6.720664978027344, 41.16842269897461, -169.40122985839844, -4.9881086349487305, 0.753662109375, -0.022705078125, -0.270751953125
482, 1611539079, -5.04443359375, -5.05517053604126, 9.92890739440918, 41.05937194824219, -212.3326873779297, -48.457054138183594, 0.751708984375, -0.02392578125, -0.30859375
483, 1611555746, -5.953195095062256, -3.8907577991485596, 9.561422348022461, 41.39750671386719, -280.9011535644531, -82.73127746582031, 0.7451171875, -0.010986328125, -0.370849609375
484, 1611572413, -5.571081161499023, -2.6066763401031494, 7.587515830993652, 37.61152648925781, -325.7115173339844, -98.87187957763672, 0.720947265625, 0.0126953125, -0.45703125
485, 1611589080, -5.857573986053467, -0.9774094820022583, 6.74323034286499, 34.93355941772461, -347.5773620605469, -90.2254867553711, 0.66064453125, 0.03466796875, -0.55517578125
486, 1611605747, -7.7350335121154785, 0.42246121168136597, 8.144645690917969, 14.65611743927002, -364.99737548828125, -62.17377853393555, 0.560791015625, 0.0458984375, -0.630126953125
487, 1611622414, -9.54814338684082, 0.9825838208198547, 9.699806213378906, -31.495201110839844, -387.0025634765625, -40.800479888916016, 0.444580078125, 0.053466796875, -0.670166015625
488, 1611639081, -9.914458274841309, -0.14087989926338196, 8.212888717651367, -80.9820556640625, -409.1136779785156, -40.02518844604492, 0.33251953125, 0.053466796875, -0.669921875
489, 1611655748, -9.439628601074219, -0.8462642431259155, 5.02015495300293, -115.22718811035156, -386.2884216308594, -47.5884895324707, 0.252197265625, 0.05419921875, -0.659912109375
490, 1611672415, -11.524625778198242, -0.8054279088973999, 6.540794372558594, -130.08335876464844, -315.52386474609375, -57.113075256347656, 0.21533203125, 0.04736328125, -0.62841796875
491, 1611689082, -15.453916549682617, -1.1494437456130981, 12.942991256713867, -131.28158569335938, -286.4115905761719, -49.45687484741211, 0.2333984375, 0.036865234375, -0.598876953125
492, 1611705749, -19.63180923461914, -0.9963478446006775, 15.62459659576416, -135.81436157226562, -317.1401672363281, -36.27201843261719, 0.30322265625, 0.043701171875, -0.6328125
493, 1611722416, -18.968820571899414, -0.5822438597679138, 12.172197341918945, -126.8311767578125, -339.5639343261719, -26.88180160522461, 0.348876953125, 0.0966796875, -0.756103515625
494, 1611739083, -20.698535919189453, 0.7077612280845642, 10.670417785644531, -128.58154296875, -326.9985656738281, -31.608333587646484, 0.300537109375, 0.1865234375, -0.88916015625
495, 1611755750, -23.211509704589844, 0.20268511772155762, 7.835890293121338, -133.99212646484375, -310.7376708984375, -44.81707000732422, 0.1708984375, 0.28515625, -0.959716796875
496, 1611772417, -23.56640625, -1.0220643281936646, 1.4651954174041748, -106.05094146728516, -275.232666015625, -60.65581130981445, 0.02978515625, 0.3583984375, -0.962646484375
497, 1611789084, -23.987157821655273, -0.41183021664619446, -4.6040215492248535, -64.34154510498047, -201.7843017578125, -88.67571258544922, -0.07861328125, 0.403564453125, -0.93701171875
498, 1611805751, -25.350608825683594, 4.982272148132324, -6.714857578277588, -34.69999313354492, -122.90419006347656, -117.19844055175781, -0.15283203125, 0.422607421875, -0.912109375
499, 1611822418, -26.142152786254883, 7.891412258148193, -9.989235877990723, -12.15837574005127, -64.61308288574219, -104.76241302490234, -0.201416015625, 0.4306640625, -0.89453125
500, 1611839085, -22.88397216796875, 8.276592254638672, -11.5568208694458, 28.12820053100586, 19.228328704833984, -83.2844009399414, -0.22265625, 0.430419921875, -0.89306640625
501, 1611855752, -8.556495666503906, 1.3783599138259888, -1.6286211013793945, 122.40370178222656, 82.19430541992188, -67.16439819335938, -0.220947265625, 0.4150390625, -0.909423828125
502, 1611872419, 9.269351959228516, -1.693307638168335, 28.703969955444336, 96.38026428222656, 113.15774536132812, -17.524736404418945, -0.203125, 0.388916015625, -0.931884765625
503, 1611889086, 6.450630187988281, 2.9554495811462402, 2.4366092681884766, 38.848854064941406, 180.07733154296875, 6.003446102142334, -0.171142578125, 0.38818359375, -0.9384765625
504, 1611905753, -8.22027587890625, 17.279539108276367, 11.394478797912598, -14.355423927307129, 234.36143493652344, 40.64713668823242, -0.110107421875, 0.39794921875, -0.94775390625
505, 1611922420, -11.623641014099121, 2.354948043823242, 17.964200973510742, -31.518611907958984, 200.80909729003906, 69.01162719726562, -0.04638671875, 0.41796875, -0.94921875
506, 1611939087, -8.846487045288086, -14.15892219543457, 7.8994598388671875, -44.41200256347656, 178.22451782226562, 28.384843826293945, 0.006591796875, 0.436767578125, -0.9482421875
507, 1611955754, -8.254887580871582, -5.53318977355957, 10.211560249328613, -10.799696922302246, 149.0373077392578, 30.267229080200195, 0.0537109375, 0.44970703125, -0.9453125
508, 1611972421, -7.587287425994873, -3.528057813644409, 10.25866413116455, -0.6379492878913879, 128.2345428466797, 34.339481353759766, 0.093017578125, 0.453125, -0.943115234375
509, 1611989088, -10.043164253234863, -4.32772970199585, 10.512791633605957, 49.42439270019531, 81.54446411132812, 34.5677375793457, 0.11865234375, 0.44580078125, -0.945556640625
510, 1612005755, -5.763140678405762, -0.14507055282592773, 11.101805686950684, 43.3420524597168, 54.89927673339844, 17.66823959350586, 0.138671875, 0.435302734375, -0.949462890625
511, 1612022422, -4.899198055267334, -2.402395009994507, 9.337838172912598, 35.884490966796875, 35.009307861328125, 14.600857734680176, 0.14990234375, 0.42626953125, -0.94970703125
512, 1612039089, -5.907966613769531, -1.9655169248580933, 9.6055908203125, 27.25067901611328, 20.648395538330078, 13.250710487365723, 0.158935546875, 0.41845703125, -0.951904296875
513, 1612055756, -5.449751377105713, -1.870779037475586, 9.103589057922363, 26.83437728881836, 7.425189971923828, 10.915392875671387, 0.16455078125, 0.411865234375, -0.955322265625
514, 1612072423, -4.729091167449951, -1.8948216438293457, 8.809697151184082, 22.223051071166992, 3.961005687713623, 7.408302307128906, 0.164794921875, 0.4052734375, -0.957763671875
515, 1612089090, -4.631487846374512, -1.927248239517212, 8.70496940612793, 12.250761032104492, 7.362716197967529, 3.4639089107513428, 0.165771484375, 0.40283203125, -0.958740234375
516, 1612105757, -4.76389741897583, -2.1462817192077637, 8.465003967285156, 4.848453521728516, 8.540756225585938, 0.6818038821220398, 0.170166015625, 0.39990234375, -0.961669921875
517, 1612122424, -4.603607177734375, -2.208421468734741, 8.065815925598145, 6.599940299987793, 6.3636627197265625, 2.096611499786377, 0.17333984375, 0.39794921875, -0.958984375
518, 1612139091, -4.5702056884765625, -2.2344720363616943, 8.192730903625488, 12.5448579788208, 2.1585822105407715, 5.520724773406982, 0.17626953125, 0.39599609375, -0.962158203125
519, 1612155758, -4.480693340301514, -1.9818694591522217, 8.123468399047852, 19.396135330200195, -2.2477355003356934, 9.421062469482422, 0.17529296875, 0.388916015625, -0.964111328125
520, 1612172425, -4.4923248291015625, -2.2875916957855225, 8.259658813476562, 24.577089309692383, -8.075643539428711, 13.657108306884766, 0.175048828125, 0.3837890625, -0.966552734375
521, 1612189092, -4.559105396270752, -1.9876677989959717, 8.478631973266602, 24.77537727355957, -13.44192886352539, 16.662155151367188, 0.172607421875, 0.375244140625, -0.969482421875
522, 1612205759, -4.742747783660889, -1.9174909591674805, 8.456998825073242, 23.671279907226562, -20.442880630493164, 17.747074127197266, 0.169677734375, 0.36962890625, -0.97412109375
523, 1612222426, -4.669124126434326, -1.7298868894577026, 8.365388870239258, 23.839065551757812, -21.823638916015625, 18.55857276916504, 0.164794921875, 0.360595703125, -0.9765625
524, 1612239093, -4.497809886932373, -1.1899793148040771, 8.590457916259766, 15.356042861938477, -12.263309478759766, 14.814986228942871, 0.1630859375, 0.35400390625, -0.9765625
525, 1612255760, -4.352105140686035, -1.2086443901062012, 8.618490219116211, 8.82192325592041, -3.0310730934143066, 11.409768104553223, 0.16650390625, 0.35009765625, -0.97998046875
526, 1612272427, -4.407099723815918, -1.5275278091430664, 8.493576049804688, 5.626837253570557, 4.291595935821533, 9.619577407836914, 0.1630859375, 0.3505859375, -0.978515625
527, 1612289094, -4.427674770355225, -1.585801124572754, 8.521967887878418, 3.9597578048706055, 9.649674415588379, 10.806754112243652, 0.1689453125, 0.34814453125, -0.98046875
528, 1612305761, -4.2631354331970215, -1.7242780923843384, 8.526161193847656, 5.3616743087768555, 15.618292808532715, 12.56576919555664, 0.173095703125, 0.34716796875, -0.980712890625
529, 1612322428, -4.473461627960205, -1.6151403188705444, 8.541821479797363, 7.055276393890381, 23.461462020874023, 16.533681869506836, 0.1796875, 0.34326171875, -0.978515625
530, 1612339095, -4.359368324279785, -1.127873182296753, 8.65152645111084, 9.188398361206055, 35.22434616088867, 18.725496292114258, 0.191162109375, 0.33935546875, -0.976318359375
531, 1612355762, -4.089046478271484, -0.8838862180709839, 8.731958389282227, -0.4058259427547455, 59.1668815612793, 19.026390075683594, 0.2080078125, 0.33837890625, -0.974609375
532, 1612372429, -4.3851141929626465, -0.91717529296875, 8.589024543762207, -7.542980194091797, 85.90886688232422, 19.05390739440918, 0.23193359375, 0.341064453125, -0.971435546875
533, 1612389096, -4.562300682067871, -0.8237175941467285, 8.419215202331543, -12.099599838256836, 116.25797271728516, 18.162673950195312, 0.261962890625, 0.34326171875, -0.9599609375
534, 1612405763, -4.774377346038818, -1.077622413635254, 8.246459007263184, -14.048858642578125, 148.14990234375, 18.155427932739258, 0.30419921875, 0.34619140625, -0.946044921875
535, 1612422430, -4.826357841491699, -0.9703580737113953, 8.123690605163574, -12.644550323486328, 183.40103149414062, 17.615554809570312, 0.35302734375, 0.34912109375, -0.927001953125
536, 1612439097, -5.023796081542969, -0.7063528895378113, 8.31486701965332, -15.30307674407959, 223.81082153320312, 14.365734100341797, 0.409912109375, 0.349609375, -0.90283203125
537, 1612455764, -5.0317230224609375, -1.665631651878357, 8.346994400024414, -9.446338653564453, 269.285400390625, 23.421844482421875, 0.4775390625, 0.3515625, -0.8662109375
538, 1612472431, -5.418771266937256, -1.8958854675292969, 7.776584625244141, 4.756340503692627, 328.27227783203125, 49.56159591674805, 0.558349609375, 0.34716796875, -0.81689453125
539, 1612489098, -6.076350212097168, -2.655280113220215, 8.57728099822998, 25.481876373291016, 412.7452087402344, 77.35848236083984, 0.65283203125, 0.331787109375, -0.749267578125
540, 1612505765, -9.428910255432129, -3.413254737854004, 10.854669570922852, 38.310184478759766, 489.0546569824219, 105.93305969238281, 0.75732421875, 0.3046875, -0.651123046875
541, 1612522432, -19.6920108795166, -1.54265296459198, 12.798380851745605, 27.55607795715332, 491.091796875, 121.43255615234375, 0.853759765625, 0.267578125, -0.534912109375
542, 1612539099, -18.668394088745117, -3.9989542961120605, 11.953118324279785, 30.32356071472168, 453.1581115722656, 117.24081420898438, 0.92236328125, 0.230712890625, -0.414794921875
543, 1612555766, -15.241453170776367, -5.153256893157959, 13.206005096435547, 49.44758605957031, 424.4832763671875, 126.62250518798828, 0.970947265625, 0.18603515625, -0.2939453125
544, 1612572433, -9.233490943908691, -4.275104522705078, 16.036001205444336, 25.233070373535156, 361.6945495605469, 105.61436462402344, 0.993408203125, 0.14794921875, -0.18896484375
545, 1612589100, -14.828750610351562, -2.4127471446990967, 18.995758056640625, -28.29505729675293, 207.7296600341797, 96.78224182128906, 1.001708984375, 0.11962890625, -0.118408203125
546, 1612605767, -23.408336639404297, -2.7347540855407715, 27.825016021728516, -112.20264434814453, 18.69769287109375, 38.91767501831055, 0.9990234375, 0.10205078125, -0.099609375
547, 1612622434, -4.9565911293029785, -9.729541778564453, 14.286832809448242, -104.26139831542969, -163.62916564941406, -34.249176025390625, 0.984375, 0.114013671875, -0.140625
548, 1612639101, 1.133042812347412, -6.8110222816467285, 5.645962238311768, -14.274456024169922, -182.7147216796875, 0.15436680614948273, 0.96484375, 0.123046875, -0.19775390625
549, 1612655768, -0.1720137894153595, -4.268213748931885, 5.725596904754639, 42.474178314208984, -159.38455200195312, 5.751415729522705, 0.947998046875, 0.12646484375, -0.248046875
550, 1612672435, -3.274580717086792, -4.925063133239746, 8.659407615661621, 39.7624397277832, -185.21580505371094, -32.39129638671875, 0.927490234375, 0.132568359375, -0.302978515625
551, 1612689102, -5.219936847686768, -5.479983806610107, 9.262747764587402, 35.4205436706543, -244.9780731201172, -75.67428588867188, 0.898681640625, 0.16064453125, -0.3681640625
552, 1612705769, -4.789072036743164, -4.462235450744629, 7.32588529586792, 45.4011116027832, -296.1497802734375, -103.53101348876953, 0.850341796875, 0.1904296875, -0.4521484375
553, 1612722436, -3.7313199043273926, -1.7013641595840454, 5.200179576873779, 55.546791076660156, -316.7085876464844, -107.31443786621094, 0.78857421875, 0.212646484375, -0.537353515625
554, 1612739103, -4.997690200805664, 1.6039583683013916, 5.932964324951172, 22.92343521118164, -318.8497009277344, -93.45354461669922, 0.707763671875, 0.228271484375, -0.621337890625
555, 1612755770, -7.836828231811523, 2.15478253364563, 8.146968841552734, -46.84537124633789, -319.24853515625, -85.5512924194336, 0.619140625, 0.244140625, -0.681396484375
556, 1612772437, -9.114288330078125, -0.0027443096041679382, 7.9346137046813965, -97.22315979003906, -330.8659973144531, -89.56411743164062, 0.5283203125, 0.265625, -0.7265625
557, 1612789104, -11.205896377563477, -2.4753003120422363, 7.470789909362793, -99.2505874633789, -335.3641052246094, -87.60165405273438, 0.42919921875, 0.287109375, -0.7568359375
558, 1612805771, -12.570891380310059, -2.462627410888672, 6.486583709716797, -95.002197265625, -331.85260009765625, -98.2637710571289, 0.326171875, 0.297119140625, -0.76953125
559, 1612822438, -12.337449073791504, -2.457402467727661, 5.4111328125, -83.43537902832031, -294.0639953613281, -110.38423919677734, 0.2353515625, 0.2998046875, -0.760498046875
560, 1612839105, -14.596945762634277, -1.9956951141357422, 9.965970993041992, -82.43689727783203, -253.62322998046875, -109.22766876220703, 0.174072265625, 0.29541015625, -0.7470703125
561, 1612855772, -19.121925354003906, -1.2880010604858398, 12.932802200317383, -94.25068664550781, -263.66461181640625, -107.78096008300781, 0.121826171875, 0.2978515625, -0.732666015625
562, 1612872439, -19.680259704589844, -1.5556695461273193, 11.589200973510742, -81.28271484375, -286.777587890625, -84.17271423339844, 0.074951171875, 0.29833984375, -0.72607421875
563, 1612889106, -20.713207244873047, -1.588206171989441, 8.888740539550781, -64.95940399169922, -296.4848937988281, -64.95674896240234, 0.02099609375, 0.303955078125, -0.72265625
564, 1612905773, -22.195724487304688, -1.5463097095489502, 5.4965715408325195, -55.66431427001953, -287.6639709472656, -68.94231414794922, -0.029541015625, 0.304931640625, -0.7216796875
565, 1612922440, -22.387678146362305, -0.21349740028381348, 1.999367117881775, -39.08013153076172, -260.88671875, -72.17671203613281, -0.075439453125, 0.31005859375, -0.72265625
566, 1612939107, -22.20886993408203, 2.244569778442383, -0.9075195789337158, -21.248455047607422, -225.76620483398438, -73.98111724853516, -0.122314453125, 0.311279296875, -0.72412109375
567, 1612955774, -21.599586486816406, 6.017709255218506, -4.212843894958496, -3.7354466915130615, -180.6198272705078, -66.15510559082031, -0.166748046875, 0.308837890625, -0.726318359375
568, 1612972441, -22.17754364013672, 7.308388710021973, -8.926825523376465, 1.034863829612732, -114.6145248413086, -37.62348937988281, -0.196533203125, 0.306640625, -0.72802734375
569, 1612989108, -21.03736114501953, 5.9754815101623535, -10.717876434326172, 16.356821060180664, -21.011045455932617, -23.006004333496094, -0.2060546875, 0.302978515625, -0.730224609375
570, 1613005775, -12.083051681518555, 1.2016760110855103, -4.286005973815918, 78.6087417602539, 48.6820182800293, -16.448871612548828, -0.19873046875, 0.28857421875, -0.737548828125
571, 1613022442, 9.164166450500488, -2.9559056758880615, 21.911815643310547, 80.6953353881836, 86.13770294189453, 24.74953269958496, -0.177978515625, 0.261962890625, -0.75048828125
572, 1613039109, 8.254072189331055, -11.158157348632812, 2.880030870437622, 9.992985725402832, 170.70404052734375, 3.8520281314849854, -0.141357421875, 0.261474609375, -0.7626953125
573, 1613055776, -11.223978996276855, 11.915335655212402, 11.208986282348633, -10.565436363220215, 231.02784729003906, 31.88831901550293, -0.0810546875, 0.2578125, -0.77197265625
574, 1613072443, -10.263179779052734, 6.315495491027832, 18.024938583374023, -25.82895851135254, 195.8723602294922, 59.81672668457031, -0.02880859375, 0.262939453125, -0.776123046875
575, 1613089110, -8.330232620239258, -10.280717849731445, 9.133502006530762, -47.883811950683594, 170.82823181152344, 32.815670013427734, 0.01904296875, 0.27197265625, -0.775634765625
576, 1613105777, -7.217588424682617, -5.0719451904296875, 9.520622253417969, -33.625545501708984, 160.4160614013672, 26.62964630126953, 0.060791015625, 0.2802734375, -0.773193359375
577, 1613122444, -11.456371307373047, -6.598994255065918, 12.064238548278809, -2.7108287811279297, 124.0975341796875, 36.26201248168945, 0.09814453125, 0.281494140625, -0.7685546875
578, 1613139111, -6.941088676452637, -3.625342845916748, 8.305611610412598, 49.40031814575195, 79.56021118164062, 34.63735580444336, 0.122314453125, 0.271240234375, -0.7734375
579, 1613155778, -6.384922027587891, -0.8416221141815186, 11.043482780456543, 36.01847457885742, 52.9622917175293, 17.67192840576172, 0.140869140625, 0.26123046875, -0.7685546875
580, 1613172445, -6.617288589477539, -2.8074424266815186, 9.91499137878418, 25.73900604248047, 29.158418655395508, 9.323771476745605, 0.150390625, 0.25146484375, -0.771728515625
581, 1613189112, -4.891834259033203, -2.1573472023010254, 9.03859806060791, 24.97228240966797, 12.702866554260254, 8.285968780517578, 0.154541015625, 0.246826171875, -0.774658203125
582, 1613205779, -4.865249156951904, -2.6867194175720215, 8.357072830200195, 23.300254821777344, 8.878131866455078, 7.241733074188232, 0.16015625, 0.241943359375, -0.776611328125
583, 1613222446, -4.2520670890808105, -2.5912742614746094, 8.227409362792969, 24.526090621948242, 9.077351570129395, 7.527752876281738, 0.1630859375, 0.23291015625, -0.77734375
584, 1613239113, -4.370711326599121, -2.4532840251922607, 8.363341331481934, 22.06529426574707, 11.783053398132324, 6.973053932189941, 0.165283203125, 0.227294921875, -0.7802734375
585, 1613255780, -4.793634414672852, -2.5413262844085693, 8.251063346862793, 23.042436599731445, 10.0636568069458, 7.191736698150635, 0.1689453125, 0.222900390625, -0.77734375
586, 1613272447, -4.667069435119629, -2.4104034900665283, 8.197637557983398, 24.5806884765625, 5.170095443725586, 8.540837287902832, 0.171875, 0.218994140625, -0.78125
587, 1613289114, -4.517898082733154, -2.4552199840545654, 8.237473487854004, 17.63547706604004, 1.788543701171875, 9.462157249450684, 0.172607421875, 0.2109375, -0.781982421875
588, 1613305781, -4.738574981689453, -2.180535316467285, 8.332374572753906, 17.83188819885254, -2.5697128772735596, 9.98572063446045, 0.173583984375, 0.206787109375, -0.782470703125
589, 1613322448, -4.668511867523193, -2.182323932647705, 8.39963436126709, 17.20259666442871, -4.92066764831543, 9.27748966217041, 0.174560546875, 0.205322265625, -0.783447265625
590, 1613339115, -4.7290472984313965, -2.1256771087646484, 8.268253326416016, 18.44411277770996, -7.554234504699707, 10.595626831054688, 0.17431640625, 0.1982421875, -0.783935546875
591, 1613355782, -4.819918155670166, -2.012089729309082, 8.306855201721191, 17.99172019958496, -9.662589073181152, 12.627118110656738, 0.17236328125, 0.192626953125, -0.78759765625
592, 1613372449, -4.7299699783325195, -1.9713152647018433, 8.353447914123535, 15.281530380249023, -8.946762084960938, 12.903297424316406, 0.17333984375, 0.192138671875, -0.7890625
593, 1613389116, -4.729804992675781, -1.7827229499816895, 8.390867233276367, 10.168562889099121, -3.0733344554901123, 11.466975212097168, 0.1728515625, 0.187255859375, -0.7890625
594, 1613405783, -4.72278356552124, -1.7447344064712524, 8.419134140014648, 6.377058982849121, 4.4596662521362305, 9.819676399230957, 0.17431640625, 0.184814453125, -0.790283203125
595, 1613422450, -4.711038112640381, -1.7778935432434082, 8.329944610595703, 3.5931503772735596, 10.482791900634766, 8.100643157958984, 0.176513671875, 0.18017578125, -0.790283203125
596, 1613439117, -4.591845989227295, -2.0061635971069336, 8.24360179901123, 4.48401403427124, 15.023218154907227, 9.687047958374023, 0.180908203125, 0.1787109375, -0.790283203125
597, 1613455784, -4.26192569732666, -2.220235824584961, 8.317702293395996, 8.15289306640625, 20.234777450561523, 13.468809127807617, 0.18603515625, 0.1787109375, -0.787109375
598, 1613472451, -4.462208271026611, -1.6532334089279175, 8.416329383850098, 8.182866096496582, 31.390832901000977, 16.95482063293457, 0.1923828125, 0.17529296875, -0.7880859375
599, 1613489118, -4.48117208480835, -1.5663425922393799, 8.468732833862305, -1.058519959449768, 51.517818450927734, 18.642086029052734, 0.203369140625, 0.1748046875, -0.78271484375
600, 1613505785, -4.542642116546631, -1.2962125539779663, 8.410648345947266, -5.334353923797607, 75.17327880859375, 17.425857543945312, 0.221435546875, 0.173583984375, -0.78125
601, 1613522452, -4.693758487701416, -1.5413888692855835, 8.207901000976562, -10.211179733276367, 103.19645690917969, 16.204072952270508, 0.246337890625, 0.1728515625, -0.7734375
602, 1613539119, -4.955801963806152, -1.5419666767120361, 8.047658920288086, -11.437915802001953, 130.95814514160156, 16.771699905395508, 0.274169921875, 0.176513671875, -0.763671875
603, 1613555786, -5.434352874755859, -1.6941429376602173, 8.036271095275879, -8.739871978759766, 156.5446014404297, 17.914794921875, 0.30615234375, 0.17578125, -0.75244140625
604, 1613572453, -5.479768753051758, -1.5207611322402954, 7.947267532348633, -3.6840295791625977, 179.37168884277344, 21.5454044342041, 0.34814453125, 0.174560546875, -0.733642578125
605, 1613589120, -5.4712748527526855, -1.4064579010009766, 7.943027973175049, -2.2067904472351074, 209.43296813964844, 24.883596420288086, 0.391845703125, 0.17333984375, -0.713623046875
606, 1613605787, -5.528670787811279, -1.4783573150634766, 7.895627021789551, 1.580531120300293, 248.4569549560547, 31.360708236694336, 0.44189453125, 0.168701171875, -0.6875
607, 1613622454, -5.807624816894531, -1.890808343887329, 7.016560077667236, 7.115776538848877, 309.0373840332031, 44.1050910949707, 0.501708984375, 0.16455078125, -0.647705078125
608, 1613639121, -6.384942054748535, -2.6134583950042725, 8.04648494720459, 17.869726181030273, 394.0993957519531, 64.2175064086914, 0.5751953125, 0.150634765625, -0.58740234375
609, 1613655788, -9.227124214172363, -3.42337703704834, 10.272198677062988, 23.63730239868164, 476.003662109375, 92.32616424560547, 0.65380859375, 0.131591796875, -0.50927734375
610, 1613672455, -17.640928268432617, -1.2279781103134155, 11.887076377868652, 19.179908752441406, 497.2140197753906, 115.96009826660156, 0.726318359375, 0.104736328125, -0.410888671875
611, 1613689122, -20.18662452697754, -4.181489944458008, 12.043082237243652, 17.45416831970215, 462.3904113769531, 113.09910583496094, 0.783935546875, 0.081787109375, -0.314208984375
612, 1613705789, -17.264570236206055, -5.971911430358887, 12.570162773132324, 38.91148376464844, 431.5604553222656, 126.38510131835938, 0.8232421875, 0.053955078125, -0.221923828125
613, 1613722456, -10.25312328338623, -5.293793678283691, 14.876411437988281, 46.02793884277344, 380.1086120605469, 123.26066589355469, 0.84619140625, 0.020751953125, -0.13818359375
614, 1613739123, -10.361091613769531, -3.8010354042053223, 17.155807495117188, 23.727705001831055, 242.4508514404297, 100.39815521240234, 0.85888671875, -0.00341796875, -0.083251953125
615, 1613755790, -30.30781364440918, -2.740354061126709, 30.47043228149414, -33.86960220336914, 65.96426391601562, 70.71293640136719, 0.86474609375, -0.024658203125, -0.07177734375
616, 1613772457, -8.989727973937988, -8.241621017456055, 19.303682327270508, -67.88160705566406, -177.0720977783203, -32.73085021972656, 0.84716796875, -0.0166015625, -0.1259765625
617, 1613789124, 0.6483187675476074, -5.511138916015625, 7.495205879211426, 0.15547922253608704, -231.28173828125, -8.354415893554688, 0.8203125, -0.01220703125, -0.19140625
618, 1613805791, 0.9762710332870483, -2.5258562564849854, 4.612635612487793, 41.244937896728516, -203.90133666992188, 23.31489372253418, 0.78466796875, -0.021484375, -0.239990234375
619, 1613822458, -1.8551549911499023, -2.2739098072052, 7.0983123779296875, 21.06673240661621, -205.91506958007812, 8.614258766174316, 0.749267578125, -0.03515625, -0.27734375
620, 1613839125, -4.600131988525391, -4.080252647399902, 8.226448059082031, -5.670629501342773, -253.98779296875, -31.399002075195312, 0.714599609375, -0.037353515625, -0.31005859375
621, 1613855792, -5.032129287719727, -5.339248180389404, 6.566903114318848, 9.358742713928223, -302.55133056640625, -58.07920837402344, 0.68408203125, -0.03759765625, -0.343017578125
622, 1613872459, -5.466573715209961, -3.5595226287841797, 5.054544448852539, 38.96211624145508, -328.8214111328125, -65.95124816894531, 0.658203125, -0.036865234375, -0.380615234375
623, 1613889126, -6.513279914855957, -1.7925561666488647, 5.836794853210449, 33.19606018066406, -339.1883850097656, -65.1310806274414, 0.6513671875, -0.038330078125, -0.4248046875
624, 1613905793, -7.581679344177246, -0.3298141658306122, 6.979949474334717, -1.2786487340927124, -346.5777587890625, -67.97234344482422, 0.650634765625, -0.027587890625, -0.490234375
625, 1613922460, -9.764949798583984, -0.5659716129302979, 8.581856727600098, -38.24911880493164, -368.7356872558594, -61.7622184753418, 0.643310546875, 0.002685546875, -0.600341796875
626, 1613939127, -9.57385540008545, -0.32686489820480347, 7.267785549163818, -63.01023864746094, -384.7529296875, -50.1674919128418, 0.581787109375, 0.048828125, -0.73095703125
627, 1613955794, -9.6759614944458, 2.557003974914551, 5.626874923706055, -112.99835968017578, -349.79559326171875, -48.9330940246582, 0.450927734375, 0.106201171875, -0.830322265625
628, 1613972461, -12.355485916137695, 1.8098140954971313, 6.681850433349609, -164.88583374023438, -287.96282958984375, -49.104427337646484, 0.304931640625, 0.1708984375, -0.837890625
629, 1613989128, -17.050857543945312, -3.0725948810577393, 13.034725189208984, -162.05711364746094, -275.04473876953125, -38.28005599975586, 0.200439453125, 0.211181640625, -0.795166015625
630, 1614005795, -20.313329696655273, -4.0939483642578125, 14.276521682739258, -129.593505859375, -313.8282775878906, -47.45669937133789, 0.143310546875, 0.22802734375, -0.752685546875
631, 1614022462, -18.434213638305664, -1.905544638633728, 10.853950500488281, -104.50630187988281, -331.2559509277344, -64.20065307617188, 0.104736328125, 0.23681640625, -0.74462890625
632, 1614039129, -19.940080642700195, 1.2836949825286865, 10.077383041381836, -109.90283203125, -315.9841613769531, -72.99732971191406, 0.064208984375, 0.2490234375, -0.759521484375
633, 1614055796, -22.554485321044922, 1.338767170906067, 7.590969085693359, -116.63179016113281, -306.85302734375, -72.51996612548828, 0.0029296875, 0.270751953125, -0.779052734375
634, 1614072463, -22.56777572631836, 0.20303162932395935, 2.258233070373535, -82.22803497314453, -275.630126953125, -66.1834945678711, -0.0634765625, 0.290283203125, -0.788330078125
635, 1614089130, -22.55367088317871, 0.532149612903595, -2.25498628616333, -43.701683044433594, -213.4391326904297, -79.11839294433594, -0.1259765625, 0.29736328125, -0.792724609375
636, 1614105797, -22.043676376342773, 3.430168867111206, -6.928005218505859, -19.662569046020508, -129.7119140625, -105.69365692138672, -0.17333984375, 0.29638671875, -0.79833984375
637, 1614122464, -23.501018524169922, 7.649712562561035, -8.689069747924805, -12.112963676452637, -47.716697692871094, -109.64088439941406, -0.20166015625, 0.29248046875, -0.8017578125
638, 1614139131, -22.038902282714844, 7.902775764465332, -8.987541198730469, 18.17899513244629, 26.32650375366211, -90.77383422851562, -0.20751953125, 0.28564453125, -0.807861328125
639, 1614155798, -8.561495780944824, 3.241558313369751, -1.4173117876052856, 114.69161224365234, 96.48333740234375, -28.816883087158203, -0.189208984375, 0.262451171875, -0.822998046875
640, 1614172465, 8.362913131713867, -0.965467095375061, 25.12956428527832, 52.77534103393555, 116.96300506591797, -2.786195755004883, -0.15966796875, 0.2421875, -0.837646484375
641, 1614189132, 3.8284895420074463, -2.8633615970611572, 3.9386017322540283, 9.036822319030762, 188.80369567871094, 11.972883224487305, -0.11572265625, 0.24169921875, -0.848388671875
642, 1614205799, -10.310843467712402, 12.167464256286621, 12.543078422546387, -26.063430786132812, 218.89784240722656, 29.773590087890625, -0.055419921875, 0.2451171875, -0.855712890625
643, 1614222466, -8.698948860168457, 2.4343082904815674, 15.338138580322266, -26.669763565063477, 187.5598602294922, 61.39149475097656, 0.00244140625, 0.25390625, -0.861572265625
644, 1614239133, -8.344511985778809, -12.213154792785645, 8.241700172424316, -28.630216598510742, 171.18589782714844, 37.734466552734375, 0.050537109375, 0.263671875, -0.858154296875
645, 1614255800, -7.801739692687988, -5.356079578399658, 9.643257141113281, -0.7019224166870117, 148.07615661621094, 37.423465728759766, 0.098388671875, 0.26416015625, -0.85986328125
646, 1614272467, -6.281630039215088, -1.0104461908340454, 9.92849349975586, 6.04388427734375, 122.8610610961914, 40.1479606628418, 0.136962890625, 0.262451171875, -0.857421875
647, 1614289134, -11.374800682067871, -7.775004863739014, 10.555685997009277, 42.582252502441406, 96.82381439208984, 37.05031204223633, 0.16552734375, 0.253662109375, -0.85693359375
648, 1614305801, -5.643641948699951, 0.8996946811676025, 11.007309913635254, 56.10236358642578, 58.92044448852539, 24.912588119506836, 0.189697265625, 0.2392578125, -0.856689453125
649, 1614322468, -5.924218654632568, -2.764622211456299, 9.763257026672363, 34.83578109741211, 37.887332916259766, 12.03225326538086, 0.203125, 0.22900390625, -0.8564453125
650, 1614339135, -6.186870574951172, -1.8032535314559937, 9.72680950164795, 26.069761276245117, 18.122892379760742, 9.964051246643066, 0.212890625, 0.220947265625, -0.859130859375
651, 1614355802, -5.302477836608887, -2.3391242027282715, 8.743617057800293, 23.677412033081055, 6.238121509552002, 8.00604248046875, 0.2138671875, 0.21337890625, -0.859130859375
652, 1614372469, -5.011486530303955, -2.1872365474700928, 8.556792259216309, 22.393308639526367, 1.2004245519638062, 6.2184224128723145, 0.216552734375, 0.208984375, -0.862060546875
653, 1614389136, -4.65948486328125, -2.0622169971466064, 8.405622482299805, 19.82543182373047, 2.7210397720336914, 5.426205635070801, 0.216552734375, 0.203857421875, -0.861572265625
