sep=,
DeviceTag:,B,,,,,,,,,,,,,,,,,
FirmwareVersion:,2.2.1,,,,,,,,,,,,,,,,,
AppVersion:,2022.0.1,,,,,,,,,,,,,,,,,
SyncStatus:,Synced,,,,,,,,,,,,,,,,,
OutputRate:,60Hz,,,,,,,,,,,,,,,,,
FilterProfile:,General,,,,,,,,,,,,,,,,,
Measurement Mode:,Inertial Mode - Rate quantities (with mag),,,,,,,,,,,,,,,,,
StartTime:,2022-08-05 15:13:42.998 +0300,,,,,,,,,,,,,,,,,
© Xsens Technologies B. V. 2005-2022,,,,,,,,,,,,,,,,,,,

PacketCounter,SampleTimeFine,Acc_X,Acc_Y,Acc_Z,Gyr_X,Gyr_Y,Gyr_Z,Mag_X,Mag_Y,Mag_Z
1, 2165033482, -4.555980682373047, -1.5636522769927979, 8.38961410522461, -0.23536792397499084, -0.6123484373092651, -0.9946564435958862, -0.025390625, 0.145263671875, -0.81982421875
2, 2165050149, -4.566091060638428, -1.5719199180603027, 8.386326789855957, -0.213673934340477, -0.5828553438186646, -0.9413307309150696, -0.02392578125, 0.145751953125, -0.82080078125
3, 2165066816, -4.564425468444824, -1.5760307312011719, 8.390340805053711, -0.2564241290092468, -0.5561363101005554, -0.9426167011260986, -0.02294921875, 0.147216796875, -0.8193359375
4, 2165083483, -4.551730632781982, -1.557403802871704, 8.384936332702637, -0.2147112488746643, -0.5295681357383728, -0.9289853572845459, -0.02294921875, 0.145751953125, -0.82080078125
5, 2165100150, -4.551646709442139, -1.560910701751709, 8.424405097961426, -0.23349815607070923, -0.6482189893722534, -0.9435590505599976, -0.02197265625, 0.146728515625, -0.82080078125
6, 2165116817, -4.567934513092041, -1.562360167503357, 8.379825592041016, -0.32421836256980896, -0.5828937888145447, -0.9485535025596619, -0.0263671875, 0.144287109375, -0.81982421875
7, 2165133484, -4.550791263580322, -1.5716561079025269, 8.395668029785156, -0.17873822152614594, -0.5612638592720032, -1.0151848793029785, -0.021484375, 0.146240234375, -0.818115234375
8, 2165150151, -4.556299209594727, -1.579781174659729, 8.400297164916992, -0.22578877210617065, -0.5761960744857788, -0.9106084108352661, -0.02490234375, 0.146728515625, -0.8212890625
9, 2165166818, -4.562880992889404, -1.5701403617858887, 8.39450740814209, -0.3026716709136963, -0.49978697299957275, -1.0184696912765503, -0.0244140625, 0.144775390625, -0.818115234375
10, 2165183485, -4.562312126159668, -1.5717240571975708, 8.397120475769043, -0.3142165541648865, -0.459683895111084, -0.9833611249923706, -0.02490234375, 0.148193359375, -0.8193359375
11, 2165200152, -4.569412708282471, -1.571619987487793, 8.402127265930176, -0.26665377616882324, -0.5088219046592712, -0.9710157513618469, -0.02294921875, 0.145751953125, -0.819091796875
12, 2165216819, -4.555561542510986, -1.5724412202835083, 8.40916919708252, -0.23096252977848053, -0.6752275824546814, -0.9772782325744629, -0.0224609375, 0.146728515625, -0.819580078125
13, 2165233486, -4.563147068023682, -1.5668421983718872, 8.406453132629395, -0.24535681307315826, -0.5459603071212769, -0.9951813220977783, -0.02490234375, 0.147216796875, -0.82177734375
14, 2165250153, -4.5579609870910645, -1.5684027671813965, 8.393677711486816, -0.34819185733795166, -0.5425153970718384, -1.0160558223724365, -0.02392578125, 0.146728515625, -0.822265625
15, 2165266820, -4.545189380645752, -1.5636290311813354, 8.416189193725586, -0.3798619210720062, -0.5340375304222107, -1.0456511974334717, -0.025390625, 0.148193359375, -0.82080078125
16, 2165283487, -4.571782112121582, -1.5861163139343262, 8.38907241821289, -0.3815523684024811, -0.495324045419693, -1.0976707935333252, -0.02587890625, 0.145751953125, -0.817626953125
17, 2165300154, -4.539666175842285, -1.5551453828811646, 8.394829750061035, -0.3601657748222351, -0.5792183876037598, -1.1165215969085693, -0.02490234375, 0.143798828125, -0.81982421875
18, 2165316821, -4.552064895629883, -1.58984375, 8.410643577575684, -0.36998826265335083, -0.45906925201416016, -1.025647759437561, -0.0234375, 0.147216796875, -0.817626953125
19, 2165333488, -4.556151866912842, -1.5861461162567139, 8.41334056854248, -0.3318573534488678, -0.5790839195251465, -1.0538666248321533, -0.0234375, 0.145751953125, -0.818603515625
20, 2165350155, -4.563268184661865, -1.591428279876709, 8.407071113586426, -0.3145879805088043, -0.6124892830848694, -0.950295090675354, -0.0244140625, 0.147705078125, -0.8203125
21, 2165366822, -4.551562309265137, -1.5573803186416626, 8.400261878967285, -0.35355767607688904, -0.5694983601570129, -0.9112486243247986, -0.0244140625, 0.147216796875, -0.8193359375
22, 2165383489, -4.562028408050537, -1.5899823904037476, 8.39594841003418, -0.33054473996162415, -0.6340551972389221, -0.9696456789970398, -0.02294921875, 0.147216796875, -0.81982421875
23, 2165400156, -4.5572991371154785, -1.5672484636306763, 8.395631790161133, -0.41569411754608154, -0.5855318903923035, -0.9485279321670532, -0.025390625, 0.148681640625, -0.8173828125
24, 2165416823, -4.549070358276367, -1.5816017389297485, 8.39191722869873, -0.2800748646259308, -0.657157838344574, -1.0297584533691406, -0.02392578125, 0.148193359375, -0.817626953125
25, 2165433490, -4.565230846405029, -1.5781259536743164, 8.391531944274902, -0.2729673683643341, -0.6055866479873657, -1.0453438758850098, -0.02294921875, 0.144775390625, -0.819580078125
26, 2165450157, -4.553530216217041, -1.5831412076950073, 8.399772644042969, -0.35687458515167236, -0.7181929349899292, -1.0634393692016602, -0.02490234375, 0.145751953125, -0.818115234375
27, 2165466824, -4.5593461990356445, -1.5803229808807373, 8.388028144836426, -0.267447829246521, -0.6859721541404724, -0.9848852157592773, -0.02490234375, 0.1484375, -0.8203125
28, 2165483491, -4.565947532653809, -1.5863600969314575, 8.38956069946289, -0.4198177456855774, -0.6826297044754028, -1.0157099962234497, -0.02587890625, 0.148193359375, -0.82080078125
29, 2165500158, -4.5636982917785645, -1.5806759595870972, 8.401823043823242, -0.34542566537857056, -0.5841873288154602, -1.0601993799209595, -0.02294921875, 0.14892578125, -0.81884765625
30, 2165516825, -4.556042194366455, -1.5748454332351685, 8.39036750793457, -0.32373175024986267, -0.5816131830215454, -1.0288749933242798, -0.02294921875, 0.147216796875, -0.8203125
31, 2165533492, -4.5473313331604, -1.5824586153030396, 8.395686149597168, -0.3150489926338196, -0.5623396635055542, -1.0580990314483643, -0.02392578125, 0.147705078125, -0.817626953125
32, 2165550159, -4.5669474601745605, -1.5671011209487915, 8.381695747375488, -0.4055258631706238, -0.539172887802124, -1.043538212776184, -0.027587890625, 0.147705078125, -0.8212890625
33, 2165566826, -4.552379608154297, -1.5740453004837036, 8.37665843963623, -0.4067937135696411, -0.5973394513130188, -1.0737228393554688, -0.0244140625, 0.147705078125, -0.82080078125
34, 2165583493, -4.552814483642578, -1.5682528018951416, 8.382508277893066, -0.42729663848876953, -0.5055435299873352, -1.086106538772583, -0.02587890625, 0.146728515625, -0.8193359375
35, 2165600160, -4.553276062011719, -1.58206307888031, 8.382392883300781, -0.3893771171569824, -0.6237589120864868, -0.9999070763587952, -0.0244140625, 0.145263671875, -0.816162109375
36, 2165616827, -4.56220006942749, -1.5885844230651855, 8.385695457458496, -0.3561531603336334, -0.6308658123016357, -1.0560622215270996, -0.02490234375, 0.147705078125, -0.8212890625
37, 2165633494, -4.546151638031006, -1.58217453956604, 8.400897026062012, -0.29510313272476196, -0.6710463762283325, -0.9421055912971497, -0.0244140625, 0.145751953125, -0.818115234375
38, 2165650161, -4.559893608093262, -1.5819847583770752, 8.393595695495605, -0.3092861771583557, -0.6221452951431274, -0.9196240305900574, -0.02490234375, 0.146728515625, -0.81884765625
39, 2165666828, -4.558920860290527, -1.5781277418136597, 8.440749168395996, -0.27624574303627014, -0.5639916062355042, -0.9856791496276855, -0.0244140625, 0.146728515625, -0.81982421875
40, 2165683495, -4.564120769500732, -1.5810426473617554, 8.41058349609375, -0.14771485328674316, -0.5825032591819763, -1.03045654296875, -0.025390625, 0.147705078125, -0.818359375
41, 2165700162, -4.547464847564697, -1.5929043292999268, 8.387757301330566, -0.1890089362859726, -0.6078790426254272, -1.0047991275787354, -0.02490234375, 0.147216796875, -0.817138671875
42, 2165716829, -4.554051399230957, -1.585218071937561, 8.420918464660645, -0.15591730177402496, -0.6523169875144958, -0.9358879923820496, -0.0234375, 0.147216796875, -0.8193359375
43, 2165733496, -4.554994106292725, -1.5925350189208984, 8.381963729858398, -0.21162492036819458, -0.5944067239761353, -0.9746144413948059, -0.025390625, 0.144287109375, -0.817138671875
44, 2165750163, -4.563413143157959, -1.5966519117355347, 8.39327335357666, -0.2964285612106323, -0.6164591908454895, -1.0112406015396118, -0.025390625, 0.146240234375, -0.8203125
45, 2165766830, -4.56425142288208, -1.5787067413330078, 8.422236442565918, -0.29595473408699036, -0.5762344598770142, -0.9941567778587341, -0.025390625, 0.147216796875, -0.81982421875
46, 2165783497, -4.5533905029296875, -1.5752854347229004, 8.378299713134766, -0.27534934878349304, -0.5855191349983215, -1.032089352607727, -0.02294921875, 0.147216796875, -0.82080078125
47, 2165800164, -4.554096698760986, -1.5885506868362427, 8.410643577575684, -0.2517600655555725, -0.6496917605400085, -1.0513885021209717, -0.0234375, 0.145751953125, -0.817138671875
48, 2165816831, -4.551196098327637, -1.5785702466964722, 8.397713661193848, -0.33308035135269165, -0.6384221911430359, -1.0432181358337402, -0.02490234375, 0.146240234375, -0.818359375
49, 2165833498, -4.543748378753662, -1.5871511697769165, 8.397138595581055, -0.30522656440734863, -0.6105683445930481, -0.9331473708152771, -0.02490234375, 0.145751953125, -0.818359375
50, 2165850165, -4.56045389175415, -1.5957469940185547, 8.415373802185059, -0.2193087637424469, -0.7093693017959595, -1.0037105083465576, -0.02294921875, 0.150390625, -0.8193359375
51, 2165866832, -4.559107780456543, -1.5779719352722168, 8.386385917663574, -0.24442841112613678, -0.7240390181541443, -1.0244888067245483, -0.02490234375, 0.147216796875, -0.8193359375
52, 2165883499, -4.5578460693359375, -1.5793025493621826, 8.405793190002441, -0.27075186371803284, -0.7634761333465576, -1.0601097345352173, -0.0263671875, 0.148193359375, -0.8173828125
53, 2165900166, -4.541033744812012, -1.5815978050231934, 8.378499984741211, -0.23671258985996246, -0.7511180639266968, -0.9928635358810425, -0.02294921875, 0.145751953125, -0.818115234375
54, 2165916833, -4.564845561981201, -1.5795788764953613, 8.407174110412598, -0.23330608010292053, -0.7012373805046082, -1.0125213861465454, -0.0224609375, 0.146728515625, -0.8203125
55, 2165933500, -4.558487892150879, -1.590325951576233, 8.411394119262695, -0.289974182844162, -0.703337550163269, -1.0367892980575562, -0.0234375, 0.147216796875, -0.818115234375
56, 2165950167, -4.554832935333252, -1.5797755718231201, 8.376108169555664, -0.1376042366027832, -0.692298412322998, -0.9939520955085754, -0.02490234375, 0.145751953125, -0.818359375
57, 2165966834, -4.5662431716918945, -1.5806617736816406, 8.391308784484863, -0.2244824916124344, -0.7941857576370239, -0.9534583687782288, -0.02587890625, 0.146240234375, -0.81982421875
58, 2165983501, -4.562451362609863, -1.5930598974227905, 8.381343841552734, -0.16221804916858673, -0.7362114191055298, -1.0409129858016968, -0.0244140625, 0.148193359375, -0.81884765625
59, 2166000168, -4.556116580963135, -1.5951483249664307, 8.413278579711914, -0.21742621064186096, -0.8125884532928467, -1.0665383338928223, -0.02490234375, 0.146728515625, -0.817626953125
60, 2166016835, -4.534598350524902, -1.5909533500671387, 8.394671440124512, -0.1293441206216812, -0.714248538017273, -1.0115351676940918, -0.02587890625, 0.146728515625, -0.818359375
61, 2166033502, -4.5387420654296875, -1.5898940563201904, 8.408926963806152, -0.2138788402080536, -0.8298130035400391, -0.9988183975219727, -0.025390625, 0.147705078125, -0.82177734375
62, 2166050169, -4.5472235679626465, -1.5934040546417236, 8.383926391601562, -0.20463265478610992, -0.8238324522972107, -1.0723267793655396, -0.02734375, 0.147216796875, -0.8193359375
63, 2166066836, -4.545032978057861, -1.6054627895355225, 8.416378021240234, -0.17114406824111938, -0.7919318675994873, -1.044716477394104, -0.02392578125, 0.148193359375, -0.818359375
64, 2166083503, -4.5406646728515625, -1.603271245956421, 8.391737937927246, -0.17040766775608063, -0.7986615300178528, -0.9684609770774841, -0.02587890625, 0.147705078125, -0.8193359375
65, 2166100170, -4.5510406494140625, -1.597955584526062, 8.401338577270508, -0.21494178473949432, -0.7696359753608704, -1.02350914478302, -0.0244140625, 0.147216796875, -0.8193359375
66, 2166116837, -4.5509161949157715, -1.5849195718765259, 8.408260345458984, -0.041979216039180756, -0.8376505970954895, -1.0577789545059204, -0.02490234375, 0.146728515625, -0.818115234375
67, 2166133504, -4.5422258377075195, -1.5893661975860596, 8.394060134887695, -0.0761977881193161, -0.759493350982666, -0.8941521644592285, -0.0263671875, 0.147216796875, -0.81884765625
68, 2166150171, -4.547450065612793, -1.5855202674865723, 8.394828796386719, -0.06126558408141136, -0.7408090233802795, -1.0052857398986816, -0.02490234375, 0.145751953125, -0.81982421875
69, 2166166838, -4.541340351104736, -1.580501914024353, 8.406182289123535, -0.16915908455848694, -0.7553057074546814, -1.004453182220459, -0.025390625, 0.148193359375, -0.81982421875
70, 2166183505, -4.532114505767822, -1.5906970500946045, 8.389691352844238, -0.20737287402153015, -0.6980519890785217, -0.9446146488189697, -0.02490234375, 0.147705078125, -0.81884765625
71, 2166200172, -4.54595947265625, -1.5828107595443726, 8.390201568603516, -0.23812125623226166, -0.6493971347808838, -0.9749858379364014, -0.025390625, 0.146240234375, -0.81982421875
72, 2166216839, -4.552753448486328, -1.581865668296814, 8.388474464416504, -0.1495141237974167, -0.6394210457801819, -0.9778288006782532, -0.0263671875, 0.146240234375, -0.814208984375
73, 2166233506, -4.531279563903809, -1.5876721143722534, 8.413887023925781, -0.2166898548603058, -0.6468679308891296, -0.9772204756736755, -0.02587890625, 0.147216796875, -0.8193359375
74, 2166250173, -4.550689220428467, -1.5908005237579346, 8.421247482299805, -0.19974704086780548, -0.684954047203064, -0.9637866616249084, -0.02587890625, 0.148193359375, -0.81982421875
75, 2166266840, -4.551803112030029, -1.5841902494430542, 8.399338722229004, -0.25229790806770325, -0.6175349950790405, -0.9945411086082458, -0.027587890625, 0.1494140625, -0.8203125
76, 2166283507, -4.5415544509887695, -1.5833255052566528, 8.38502311706543, -0.2257118970155716, -0.5450510382652283, -1.037083625793457, -0.02685546875, 0.147705078125, -0.8173828125
77, 2166300174, -4.548500061035156, -1.5769327878952026, 8.394085884094238, -0.22217735648155212, -0.5643758177757263, -1.0273381471633911, -0.02294921875, 0.145751953125, -0.817138671875
78, 2166316841, -4.548476219177246, -1.580798864364624, 8.390175819396973, -0.2483535259962082, -0.5370598435401917, -0.9278711676597595, -0.02490234375, 0.146728515625, -0.816650390625
79, 2166333508, -4.544375419616699, -1.5820618867874146, 8.4048490524292, -0.3202739655971527, -0.4799050986766815, -1.0476106405258179, -0.02490234375, 0.148193359375, -0.816162109375
80, 2166350175, -4.544107913970947, -1.5794473886489868, 8.399542808532715, -0.2719556391239166, -0.5699210166931152, -0.9926969408988953, -0.025390625, 0.148681640625, -0.8173828125
81, 2166366842, -4.542588233947754, -1.60159432888031, 8.39803409576416, -0.34917789697647095, -0.5311945676803589, -0.9913907647132874, -0.0263671875, 0.149169921875, -0.81884765625
82, 2166383509, -4.5532612800598145, -1.5885910987854004, 8.373724937438965, -0.2248026579618454, -0.5389935970306396, -0.9278327822685242, -0.02392578125, 0.147705078125, -0.818603515625
83, 2166400176, -4.542658805847168, -1.6054258346557617, 8.387749671936035, -0.2788454294204712, -0.4751283526420593, -0.9309960007667542, -0.0234375, 0.147216796875, -0.816650390625
84, 2166416843, -4.5673089027404785, -1.593203067779541, 8.413204193115234, -0.24339750409126282, -0.5137651562690735, -0.9176901578903198, -0.0244140625, 0.148681640625, -0.818115234375
85, 2166433510, -4.536630153656006, -1.5888346433639526, 8.390110969543457, -0.23243524134159088, -0.5704076886177063, -1.000304102897644, -0.0244140625, 0.147216796875, -0.816650390625
86, 2166450177, -4.549479961395264, -1.599419116973877, 8.400280952453613, -0.21334096789360046, -0.49547767639160156, -0.9169089198112488, -0.02587890625, 0.147705078125, -0.81884765625
87, 2166466844, -4.546480178833008, -1.5938221216201782, 8.393497467041016, -0.18295150995254517, -0.6024107336997986, -0.9071634411811829, -0.02392578125, 0.148193359375, -0.8203125
88, 2166483511, -4.547664165496826, -1.5875061750411987, 8.373720169067383, -0.13057354092597961, -0.6220171451568604, -0.9960522651672363, -0.02392578125, 0.146728515625, -0.81884765625
89, 2166500178, -4.541762351989746, -1.579040288925171, 8.42322063446045, -0.2241879403591156, -0.663151204586029, -0.9921973943710327, -0.02392578125, 0.148193359375, -0.817138671875
90, 2166516845, -4.54860782623291, -1.5771982669830322, 8.401362419128418, -0.11360512673854828, -0.6568376421928406, -0.934978723526001, -0.0234375, 0.148193359375, -0.81982421875
91, 2166533512, -4.540708541870117, -1.5805137157440186, 8.410857200622559, -0.13488927483558655, -0.6406248211860657, -0.9144759178161621, -0.02490234375, 0.145263671875, -0.818115234375
92, 2166550179, -4.553430080413818, -1.582257628440857, 8.42578125, -0.2899101674556732, -0.7240967154502869, -1.0083208084106445, -0.02587890625, 0.146728515625, -0.81982421875
93, 2166566846, -4.5730977058410645, -1.5497376918792725, 8.426456451416016, -0.37917041778564453, -0.6489618420600891, -1.1155611276626587, -0.0263671875, 0.148193359375, -0.8193359375
94, 2166583513, -4.520887851715088, -1.611694097518921, 8.409890174865723, -0.33826690912246704, -0.6811056733131409, -1.157271385192871, -0.02490234375, 0.148193359375, -0.817138671875
95, 2166600180, -4.53961181640625, -1.6151528358459473, 8.381946563720703, -0.3484607934951782, -0.5867613554000854, -1.09071683883667, -0.025390625, 0.148193359375, -0.818359375
96, 2166616847, -4.538682460784912, -1.5800071954727173, 8.396683692932129, -0.3008340001106262, -0.6620499491691589, -1.051567792892456, -0.02392578125, 0.148193359375, -0.816650390625
97, 2166633514, -4.535992622375488, -1.5805003643035889, 8.398764610290527, -0.2813299000263214, -0.6796714663505554, -1.105290412902832, -0.02587890625, 0.146728515625, -0.8193359375
98, 2166650181, -4.562169551849365, -1.5931345224380493, 8.395781517028809, -0.2384798526763916, -0.6719107627868652, -1.0822134017944336, -0.02392578125, 0.146728515625, -0.81982421875
99, 2166666848, -4.540353775024414, -1.5959231853485107, 8.401790618896484, -0.17262960970401764, -0.660013735294342, -1.0854535102844238, -0.02587890625, 0.146240234375, -0.81787109375
100, 2166683515, -4.543065071105957, -1.58603036403656, 8.409174919128418, -0.07063982635736465, -0.6970495581626892, -0.9929402470588684, -0.025390625, 0.1494140625, -0.81884765625
101, 2166700182, -4.528198719024658, -1.5846807956695557, 8.420108795166016, -0.19773003458976746, -0.6771997809410095, -0.9746785759925842, -0.025390625, 0.146728515625, -0.81787109375
102, 2166716849, -4.558400630950928, -1.5850560665130615, 8.406473159790039, -0.16677707433700562, -0.6699256896972656, -0.961833655834198, -0.02490234375, 0.147216796875, -0.81884765625
103, 2166733516, -4.540980339050293, -1.5894076824188232, 8.391133308410645, -0.145053431391716, -0.7428768873214722, -0.9292716979980469, -0.0263671875, 0.146240234375, -0.82275390625
104, 2166750183, -4.540109157562256, -1.5776718854904175, 8.407135009765625, -0.07847731560468674, -0.7305638790130615, -0.9077908396720886, -0.025390625, 0.147216796875, -0.8212890625
105, 2166766850, -4.534453868865967, -1.5829027891159058, 8.38893985748291, -0.08390720933675766, -0.7235332131385803, -0.9718098640441895, -0.02392578125, 0.145751953125, -0.82177734375
106, 2166783517, -4.540882110595703, -1.57528555393219, 8.413971900939941, -0.17612573504447937, -0.651407778263092, -0.9902893900871277, -0.026123046875, 0.1494140625, -0.8212890625
107, 2166800184, -4.526766777038574, -1.5680657625198364, 8.403273582458496, -0.1295362263917923, -0.746200442314148, -1.0078085660934448, -0.025390625, 0.147216796875, -0.8212890625
108, 2166816851, -4.543495178222656, -1.588024616241455, 8.388091087341309, -0.3306279480457306, -0.5859866142272949, -1.0851526260375977, -0.0244140625, 0.147216796875, -0.818359375
109, 2166833518, -4.554051399230957, -1.5736154317855835, 8.41524887084961, -0.22373975813388824, -0.6026796102523804, -1.0694198608398438, -0.025390625, 0.148193359375, -0.815185546875
110, 2166850185, -4.540900707244873, -1.6028157472610474, 8.417150497436523, -0.23749373853206635, -0.47015950083732605, -0.9831048846244812, -0.02490234375, 0.146728515625, -0.8193359375
111, 2166866852, -4.540396213531494, -1.594879388809204, 8.385709762573242, -0.10343688726425171, -0.6988937258720398, -0.9724245071411133, -0.02734375, 0.147216796875, -0.81884765625
112, 2166883519, -4.5468058586120605, -1.5799775123596191, 8.385477066040039, -0.09895465523004532, -0.6207237839698792, -0.903449535369873, -0.0263671875, 0.148681640625, -0.81787109375
113, 2166900186, -4.546576976776123, -1.5893069505691528, 8.416011810302734, -0.15968236327171326, -0.7131727933883667, -0.9121449589729309, -0.02587890625, 0.145751953125, -0.81787109375
114, 2166916853, -4.554162979125977, -1.5890238285064697, 8.415414810180664, -0.13560643792152405, -0.5928187370300293, -0.9010547995567322, -0.02490234375, 0.147216796875, -0.8193359375
115, 2166933520, -4.535152435302734, -1.5904244184494019, 8.401156425476074, -0.10237395763397217, -0.593830406665802, -0.9862425923347473, -0.0263671875, 0.144287109375, -0.817626953125
116, 2166950187, -4.538140296936035, -1.5845803022384644, 8.399657249450684, -0.10246360301971436, -0.6497557759284973, -0.8962523341178894, -0.02734375, 0.146728515625, -0.818359375
117, 2166966854, -4.533532619476318, -1.5901578664779663, 8.4005126953125, -0.14266273379325867, -0.5379179120063782, -0.903603196144104, -0.02490234375, 0.146240234375, -0.82177734375
118, 2166983521, -4.546082496643066, -1.5951423645019531, 8.39534854888916, -0.14076738059520721, -0.37409907579421997, -0.7658964991569519, -0.027099609375, 0.148193359375, -0.8193359375
119, 2167000188, -4.5449395179748535, -1.5862635374069214, 8.404441833496094, -0.16693077981472015, -0.5235108137130737, -0.825843095779419, -0.025390625, 0.147216796875, -0.817138671875
120, 2167016855, -4.5303144454956055, -1.5791329145431519, 8.42306900024414, -0.057999953627586365, -0.45352402329444885, -0.7870782613754272, -0.02392578125, 0.145263671875, -0.818603515625
121, 2167033522, -4.542886734008789, -1.5983622074127197, 8.439549446105957, -0.05327441170811653, -0.45189765095710754, -0.8467045426368713, -0.02490234375, 0.146240234375, -0.817138671875
122, 2167050189, -4.5421624183654785, -1.5909065008163452, 8.397353172302246, -0.06257182359695435, -0.4061661660671234, -0.8033550381660461, -0.02490234375, 0.1494140625, -0.8193359375
123, 2167066856, -4.547685623168945, -1.5923583507537842, 8.411457061767578, -0.04215850308537483, -0.4986792206764221, -0.8197855949401855, -0.02392578125, 0.148193359375, -0.8212890625
124, 2167083523, -4.547837257385254, -1.5699821710586548, 8.416585922241211, -0.021937275305390358, -0.6411114931106567, -0.7797145247459412, -0.02587890625, 0.147216796875, -0.8173828125
125, 2167100190, -4.550471305847168, -1.5812268257141113, 8.41158390045166, -0.0654788687825203, -0.5318477153778076, -0.8552337288856506, -0.0263671875, 0.146728515625, -0.816162109375
126, 2167116857, -4.554521560668945, -1.5735150575637817, 8.406195640563965, -0.19381128251552582, -0.625846266746521, -0.84537273645401, -0.02490234375, 0.146728515625, -0.816650390625
127, 2167133524, -4.548491954803467, -1.5819764137268066, 8.39952278137207, -0.12915202975273132, -0.6290606260299683, -0.8604841828346252, -0.02392578125, 0.148193359375, -0.818359375
128, 2167150191, -4.540478229522705, -1.5953582525253296, 8.429828643798828, -0.17611290514469147, -0.6333380341529846, -0.9596566557884216, -0.02685546875, 0.146728515625, -0.81689453125
129, 2167166858, -4.5254740715026855, -1.6018011569976807, 8.414867401123047, -0.17342357337474823, -0.5659509897232056, -0.9629990458488464, -0.02587890625, 0.144775390625, -0.818359375
130, 2167183525, -4.550777435302734, -1.571672797203064, 8.376906394958496, -0.12644991278648376, -0.7081398963928223, -1.023380994796753, -0.02587890625, 0.147705078125, -0.822265625
131, 2167200192, -4.533616065979004, -1.582025408744812, 8.387770652770996, -0.1330195665359497, -0.661512017250061, -0.916166365146637, -0.025390625, 0.144775390625, -0.82080078125
132, 2167216859, -4.537693023681641, -1.5688846111297607, 8.399696350097656, -0.21925750374794006, -0.5696648955345154, -0.9681985378265381, -0.0244140625, 0.146240234375, -0.818603515625
133, 2167233526, -4.535080432891846, -1.5740084648132324, 8.4066743850708, -0.23507337272167206, -0.5010612607002258, -0.9923767447471619, -0.027099609375, 0.148193359375, -0.8203125
134, 2167250193, -4.539203643798828, -1.5873035192489624, 8.39656925201416, -0.15947745740413666, -0.5691013336181641, -0.9481052756309509, -0.025390625, 0.145751953125, -0.82080078125
135, 2167266860, -4.540925025939941, -1.5748506784439087, 8.401163101196289, -0.18678061664104462, -0.4747057855129242, -0.8841248154640198, -0.025390625, 0.147705078125, -0.8212890625
136, 2167283527, -4.534673690795898, -1.578343152999878, 8.393014907836914, -0.32010748982429504, -0.4200610816478729, -0.9582479000091553, -0.02587890625, 0.148193359375, -0.817138671875
137, 2167300194, -4.555025577545166, -1.5820387601852417, 8.404541015625, -0.21079233288764954, -0.4291664958000183, -0.980154275894165, -0.02392578125, 0.146240234375, -0.81884765625
138, 2167316861, -4.540048122406006, -1.5728868246078491, 8.391048431396484, -0.2967230975627899, -0.45823681354522705, -1.020076870918274, -0.02392578125, 0.146728515625, -0.816162109375
139, 2167333528, -4.54343318939209, -1.5868468284606934, 8.3959379196167, -0.17832840979099274, -0.5997469425201416, -0.9556737542152405, -0.02294921875, 0.147705078125, -0.8203125
140, 2167350195, -4.540698051452637, -1.574201226234436, 8.414725303649902, -0.15613502264022827, -0.5937023758888245, -1.0146598815917969, -0.02587890625, 0.14892578125, -0.82177734375
141, 2167366862, -4.548522472381592, -1.5712037086486816, 8.389116287231445, -0.23645642399787903, -0.5443594455718994, -0.9445962905883789, -0.02587890625, 0.147705078125, -0.8193359375
142, 2167383529, -4.537171840667725, -1.5443942546844482, 8.407461166381836, -0.41611671447753906, -0.44435471296310425, -1.0531301498413086, -0.02392578125, 0.146728515625, -0.81884765625
143, 2167400196, -4.557684421539307, -1.6075994968414307, 8.386637687683105, -0.3895435631275177, -0.35074034333229065, -1.0968767404556274, -0.02490234375, 0.145751953125, -0.8193359375
144, 2167416863, -4.554321765899658, -1.6054128408432007, 8.409258842468262, -0.42825713753700256, -0.43230393528938293, -1.0167088508605957, -0.0224609375, 0.144287109375, -0.819091796875
145, 2167433530, -4.55574369430542, -1.580105185508728, 8.399216651916504, -0.2724807560443878, -0.5888872146606445, -1.0288621187210083, -0.02587890625, 0.147705078125, -0.818359375
146, 2167450197, -4.550975322723389, -1.5906362533569336, 8.401229858398438, -0.3175846338272095, -0.5625701546669006, -0.9690820574760437, -0.025390625, 0.145751953125, -0.81982421875
147, 2167466864, -4.547698020935059, -1.5791317224502563, 8.401385307312012, -0.3436456024646759, -0.5680000185966492, -0.9902125597000122, -0.02490234375, 0.147705078125, -0.817138671875
148, 2167483531, -4.552638053894043, -1.5663999319076538, 8.405658721923828, -0.26683950424194336, -0.5573643445968628, -1.0276647806167603, -0.025390625, 0.148681640625, -0.82080078125
149, 2167500198, -4.54405403137207, -1.5883989334106445, 8.397879600524902, -0.2767195999622345, -0.48669248819351196, -1.001277208328247, -0.0244140625, 0.145751953125, -0.8193359375
150, 2167516865, -4.550915718078613, -1.5880098342895508, 8.411540031433105, -0.2438841313123703, -0.5257903337478638, -0.9472728371620178, -0.0244140625, 0.144775390625, -0.81884765625
151, 2167533532, -4.537960052490234, -1.588551640510559, 8.389654159545898, -0.36172816157341003, -0.5385582447052002, -0.9152826070785522, -0.02490234375, 0.146240234375, -0.8193359375
152, 2167550199, -4.548525810241699, -1.5719319581985474, 8.391322135925293, -0.2755798101425171, -0.5129070281982422, -0.8625460267066956, -0.02490234375, 0.148193359375, -0.81884765625
153, 2167566866, -4.5352654457092285, -1.5640517473220825, 8.393567085266113, -0.23814049363136292, -0.5115817189216614, -0.9815362691879272, -0.025390625, 0.145751953125, -0.822265625
154, 2167583533, -4.554809093475342, -1.5967276096343994, 8.399466514587402, -0.15601976215839386, -0.5325520634651184, -0.9576845169067383, -0.02392578125, 0.148193359375, -0.81884765625
155, 2167600200, -4.542531490325928, -1.586539387702942, 8.381712913513184, -0.1900206357240677, -0.5606364011764526, -0.9389615654945374, -0.02490234375, 0.145263671875, -0.816650390625
156, 2167616867, -4.550043106079102, -1.5913938283920288, 8.416882514953613, -0.3065072000026703, -0.5091420412063599, -0.9957450032234192, -0.02490234375, 0.146240234375, -0.8193359375
157, 2167633534, -4.547346115112305, -1.5796785354614258, 8.392793655395508, -0.2552177309989929, -0.45525291562080383, -0.982631266117096, -0.0234375, 0.146728515625, -0.8212890625
158, 2167650201, -4.5393171310424805, -1.5784401893615723, 8.391340255737305, -0.20937101542949677, -0.4359409511089325, -0.8804877400398254, -0.025390625, 0.147216796875, -0.81982421875
159, 2167666868, -4.54585599899292, -1.5832436084747314, 8.402525901794434, -0.27536213397979736, -0.4229169189929962, -0.9359777569770813, -0.0263671875, 0.14892578125, -0.8212890625
160, 2167683535, -4.560506343841553, -1.584000587463379, 8.390511512756348, -0.24791812896728516, -0.3861754536628723, -0.8719715476036072, -0.0244140625, 0.147216796875, -0.8193359375
161, 2167700202, -4.546001434326172, -1.597554326057434, 8.391988754272461, -0.33009642362594604, -0.332299143075943, -0.8221803307533264, -0.02490234375, 0.147216796875, -0.8193359375
162, 2167716869, -4.55490255355835, -1.5862709283828735, 8.395917892456055, -0.25483354926109314, -0.4010564982891083, -0.8134466409683228, -0.02587890625, 0.145263671875, -0.816650390625
163, 2167733536, -4.546595096588135, -1.5810986757278442, 8.408686637878418, -0.3119242787361145, -0.4055771231651306, -0.8383165001869202, -0.0234375, 0.146240234375, -0.818603515625
164, 2167750203, -4.553222179412842, -1.587119460105896, 8.3977632522583, -0.40725472569465637, -0.38193657994270325, -0.9357087016105652, -0.025390625, 0.147705078125, -0.81884765625
165, 2167766870, -4.549219131469727, -1.5762991905212402, 8.38750171661377, -0.3226943910121918, -0.3074420392513275, -0.9007474184036255, -0.027587890625, 0.148681640625, -0.8193359375
166, 2167783537, -4.5567426681518555, -1.5663646459579468, 8.403434753417969, -0.31825700402259827, -0.3948005437850952, -0.8856294751167297, -0.02490234375, 0.146728515625, -0.8193359375
167, 2167800204, -4.54621696472168, -1.5957189798355103, 8.390117645263672, -0.29913070797920227, -0.31133517622947693, -0.8259070515632629, -0.02392578125, 0.14892578125, -0.817626953125
168, 2167816871, -4.559366703033447, -1.5850309133529663, 8.392788887023926, -0.25302788615226746, -0.5020473599433899, -0.8831643462181091, -0.0244140625, 0.145751953125, -0.818115234375
169, 2167833538, -4.546813011169434, -1.5640331506729126, 8.399040222167969, -0.2535017132759094, -0.4980005621910095, -0.9238757491111755, -0.02490234375, 0.146728515625, -0.818115234375
170, 2167850205, -4.571377277374268, -1.6037155389785767, 8.40180778503418, -0.07106243073940277, -0.6786725521087646, -0.9245031476020813, -0.02490234375, 0.146728515625, -0.81884765625
171, 2167866872, -4.557950496673584, -1.5932397842407227, 8.413458824157715, -0.08660172671079636, -0.74716717004776, -0.9376217126846313, -0.02490234375, 0.148193359375, -0.8193359375
172, 2167883539, -4.5596022605896, -1.5674998760223389, 8.407620429992676, -0.1280122548341751, -0.6182265281677246, -0.9072914123535156, -0.0244140625, 0.14892578125, -0.81884765625
173, 2167900206, -4.5508904457092285, -1.5831308364868164, 8.425429344177246, -0.22349640727043152, -0.5937023758888245, -1.0021865367889404, -0.0224609375, 0.146240234375, -0.818603515625
174, 2167916873, -4.5593085289001465, -1.5892049074172974, 8.4038724899292, -0.16842910647392273, -0.48985567688941956, -0.952049732208252, -0.0244140625, 0.145751953125, -0.818115234375
175, 2167933540, -4.535617828369141, -1.5779649019241333, 8.407097816467285, -0.27145621180534363, -0.5740958452224731, -1.0415148735046387, -0.02490234375, 0.146728515625, -0.81982421875
176, 2167950207, -4.543572902679443, -1.5835708379745483, 8.405885696411133, -0.27820512652397156, -0.4424336850643158, -0.9874078035354614, -0.02392578125, 0.147705078125, -0.8203125
177, 2167966874, -4.567663192749023, -1.5778664350509644, 8.411506652832031, -0.36267581582069397, -0.35704106092453003, -0.992709755897522, -0.02490234375, 0.148193359375, -0.8193359375
178, 2167983541, -4.5530877113342285, -1.6038618087768555, 8.404058456420898, -0.29697927832603455, -0.5622243881225586, -1.0523362159729004, -0.0244140625, 0.148193359375, -0.816650390625
179, 2168000208, -4.556181907653809, -1.582657814025879, 8.407761573791504, -0.2670251727104187, -0.5248683094978333, -0.9202258586883545, -0.02490234375, 0.147705078125, -0.817138671875
180, 2168016875, -4.5639424324035645, -1.5732721090316772, 8.394025802612305, -0.26903581619262695, -0.5942530632019043, -0.9592724442481995, -0.0244140625, 0.146240234375, -0.818115234375
181, 2168033542, -4.563688278198242, -1.5717360973358154, 8.408514976501465, -0.2857993245124817, -0.4261440634727478, -1.027671217918396, -0.02392578125, 0.146728515625, -0.815673828125
182, 2168050209, -4.547111511230469, -1.5939435958862305, 8.407462120056152, -0.3761864900588989, -0.46512654423713684, -0.9445833563804626, -0.02587890625, 0.144775390625, -0.81787109375
183, 2168066876, -4.559176445007324, -1.5926154851913452, 8.378849983215332, -0.3874177038669586, -0.4944916069507599, -0.9340439438819885, -0.0263671875, 0.148193359375, -0.81982421875
184, 2168083543, -4.556382656097412, -1.5773638486862183, 8.40318775177002, -0.2380572259426117, -0.48258164525032043, -0.9042819738388062, -0.02392578125, 0.146728515625, -0.8203125
185, 2168100210, -4.559762001037598, -1.592889428138733, 8.409546852111816, -0.21180421113967896, -0.5536825060844421, -0.9333139657974243, -0.02490234375, 0.147705078125, -0.8193359375
186, 2168116877, -4.563749313354492, -1.5914218425750732, 8.398280143737793, -0.3228672444820404, -0.4607788622379303, -0.9826631546020508, -0.0234375, 0.144775390625, -0.818603515625
187, 2168133544, -4.541895389556885, -1.5847476720809937, 8.391615867614746, -0.30330556631088257, -0.49647653102874756, -0.8982885479927063, -0.02490234375, 0.147705078125, -0.817626953125
188, 2168150211, -4.56365442276001, -1.5969876050949097, 8.410442352294922, -0.3214905858039856, -0.3799643814563751, -0.9780592918395996, -0.0244140625, 0.146240234375, -0.8193359375
189, 2168166878, -4.553448677062988, -1.5791888236999512, 8.405957221984863, -0.26352906227111816, -0.5131375789642334, -0.9094557166099548, -0.02392578125, 0.145751953125, -0.818603515625
190, 2168183545, -4.5605292320251465, -1.5910639762878418, 8.395112991333008, -0.23431777954101562, -0.4516671299934387, -0.886557936668396, -0.0234375, 0.146728515625, -0.82080078125
191, 2168200212, -4.541459083557129, -1.5891389846801758, 8.390342712402344, -0.19172385334968567, -0.43679895997047424, -0.9248360991477966, -0.0224609375, 0.146240234375, -0.820068359375
192, 2168216879, -4.551806926727295, -1.5800138711929321, 8.392528533935547, -0.27504196763038635, -0.4562261700630188, -0.922031581401825, -0.0244140625, 0.147705078125, -0.818115234375
193, 2168233546, -4.568229675292969, -1.594150185585022, 8.419557571411133, -0.19498947262763977, -0.4928651750087738, -0.8716257214546204, -0.025390625, 0.146240234375, -0.81884765625
194, 2168250213, -4.553858280181885, -1.577241063117981, 8.385743141174316, -0.3464885950088501, -0.46475520730018616, -0.9310856461524963, -0.0263671875, 0.148193359375, -0.81787109375
195, 2168266880, -4.565683841705322, -1.5797674655914307, 8.393871307373047, -0.2956986129283905, -0.3389200270175934, -0.8881587386131287, -0.0244140625, 0.145751953125, -0.818603515625
196, 2168283547, -4.5650105476379395, -1.5912261009216309, 8.369483947753906, -0.3016919791698456, -0.38805800676345825, -0.9205459952354431, -0.02490234375, 0.145751953125, -0.8203125
197, 2168300214, -4.563051223754883, -1.597952961921692, 8.369684219360352, -0.31127116084098816, -0.561750590801239, -0.9352862238883972, -0.0244140625, 0.146728515625, -0.8193359375
198, 2168316881, -4.565161228179932, -1.5808179378509521, 8.406862258911133, -0.21129195392131805, -0.42038121819496155, -0.964049220085144, -0.0234375, 0.145263671875, -0.817626953125
199, 2168333548, -4.5610032081604, -1.5803178548812866, 8.404717445373535, -0.3648977279663086, -0.5283195376396179, -0.991217851638794, -0.02490234375, 0.148681640625, -0.81884765625
200, 2168350215, -4.560839653015137, -1.585395336151123, 8.404754638671875, -0.24426832795143127, -0.592741847038269, -1.0106130838394165, -0.0234375, 0.147216796875, -0.818115234375
201, 2168366882, -4.565663814544678, -1.5918500423431396, 8.41311264038086, -0.24013184010982513, -0.5303109288215637, -0.9253227710723877, -0.02490234375, 0.148193359375, -0.818359375
202, 2168383549, -4.560184478759766, -1.582283616065979, 8.395978927612305, -0.18455228209495544, -0.5806270241737366, -0.9509226679801941, -0.02392578125, 0.146728515625, -0.8193359375
203, 2168400216, -4.5601677894592285, -1.579882025718689, 8.379012107849121, -0.21237412095069885, -0.6931629776954651, -0.9109477996826172, -0.02392578125, 0.147705078125, -0.81884765625
204, 2168416883, -4.561912536621094, -1.5856235027313232, 8.40140151977539, -0.1757264882326126, -0.6332095265388489, -0.97989821434021, -0.02197265625, 0.145751953125, -0.818603515625
205, 2168433550, -4.5639119148254395, -1.5806505680084229, 8.386988639831543, -0.2599944770336151, -0.6872143149375916, -0.9201745986938477, -0.02490234375, 0.148193359375, -0.81787109375
206, 2168450217, -4.564932823181152, -1.5889171361923218, 8.403786659240723, -0.16877490282058716, -0.6438136100769043, -1.0223181247711182, -0.02490234375, 0.145751953125, -0.816650390625
207, 2168466884, -4.575972557067871, -1.5846285820007324, 8.407669067382812, -0.13788597285747528, -0.7157981991767883, -0.9677245616912842, -0.026123046875, 0.15087890625, -0.81689453125
208, 2168483551, -4.568243503570557, -1.5717103481292725, 8.400853157043457, -0.13865435123443604, -0.8034703731536865, -0.9805822968482971, -0.0244140625, 0.147705078125, -0.817138671875
209, 2168500218, -4.555935859680176, -1.5924646854400635, 8.385550498962402, -0.21316808462142944, -0.7231681942939758, -0.9801019430160522, -0.02294921875, 0.14892578125, -0.81982421875
210, 2168516885, -4.548688888549805, -1.573582649230957, 8.404386520385742, -0.18169011175632477, -0.6148393154144287, -0.9242278933525085, -0.0244140625, 0.148681640625, -0.818115234375
211, 2168533552, -4.547734260559082, -1.5823172330856323, 8.38797378540039, -0.14875853061676025, -0.711776852607727, -0.9068558812141418, -0.02490234375, 0.145751953125, -0.817626953125
212, 2168550219, -4.564754009246826, -1.5909310579299927, 8.3914155960083, -0.1493220329284668, -0.8086697459220886, -0.9677886366844177, -0.0224609375, 0.147216796875, -0.817626953125
213, 2168566886, -4.554957866668701, -1.5909161567687988, 8.402238845825195, -0.08668617904186249, -0.7009427547454834, -0.9844754338264465, -0.0244140625, 0.148193359375, -0.8203125
214, 2168583553, -4.569308280944824, -1.5723938941955566, 8.389389038085938, -0.08614831417798996, -0.835217297077179, -0.978878915309906, -0.0244140625, 0.146728515625, -0.818115234375
215, 2168600220, -4.540351390838623, -1.579308271408081, 8.388938903808594, -0.08355503529310226, -0.6865163445472717, -0.9669370651245117, -0.02294921875, 0.146240234375, -0.8203125
216, 2168616887, -4.555531024932861, -1.5836167335510254, 8.400840759277344, -0.24227051436901093, -0.7302820682525635, -1.0529253482818604, -0.02294921875, 0.147216796875, -0.817626953125
217, 2168633554, -4.562069892883301, -1.5697721242904663, 8.388228416442871, -0.28727203607559204, -0.7093949913978577, -0.9412027597427368, -0.025390625, 0.146240234375, -0.81787109375
218, 2168650221, -4.555999755859375, -1.5816893577575684, 8.389823913574219, -0.1829771250486374, -0.6283820271492004, -1.032281517982483, -0.02392578125, 0.14990234375, -0.818359375
219, 2168666888, -4.548511981964111, -1.56917142868042, 8.405145645141602, -0.24050326645374298, -0.7320622205734253, -1.0173108577728271, -0.02392578125, 0.147705078125, -0.81884765625
220, 2168683555, -4.551684379577637, -1.5811941623687744, 8.415037155151367, -0.16689236462116241, -0.6890585422515869, -1.0262112617492676, -0.02490234375, 0.147216796875, -0.817626953125
221, 2168700222, -4.558155536651611, -1.5850731134414673, 8.424323081970215, -0.1632041484117508, -0.6568377017974854, -1.0413355827331543, -0.02587890625, 0.147705078125, -0.8212890625
222, 2168716889, -4.550344944000244, -1.5889146327972412, 8.38349723815918, -0.14599880576133728, -0.7496517300605774, -1.0037297010421753, -0.0244140625, 0.145751953125, -0.8193359375
223, 2168733556, -4.555770397186279, -1.5803147554397583, 8.391335487365723, -0.17756004631519318, -0.6199938058853149, -1.011074185371399, -0.02490234375, 0.146728515625, -0.8193359375
224, 2168750223, -4.547354698181152, -1.5802950859069824, 8.4193115234375, -0.1373993158340454, -0.6236820816993713, -0.9847314357757568, -0.02392578125, 0.147705078125, -0.818603515625
225, 2168766890, -4.554108619689941, -1.595291018486023, 8.39153003692627, -0.12775614857673645, -0.6874321103096008, -0.9992794990539551, -0.0263671875, 0.146728515625, -0.81884765625
226, 2168783557, -4.55554723739624, -1.5869299173355103, 8.403097152709961, -0.15275412797927856, -0.603934645652771, -0.9644461870193481, -0.02587890625, 0.147216796875, -0.8203125
227, 2168800224, -4.552895545959473, -1.5875705480575562, 8.38208293914795, -0.1293313205242157, -0.6314939260482788, -0.9813762307167053, -0.0224609375, 0.1484375, -0.818603515625
228, 2168816891, -4.55491304397583, -1.5890450477600098, 8.413066864013672, -0.24543367326259613, -0.634067952632904, -0.9290109872817993, -0.0234375, 0.144775390625, -0.817626953125
229, 2168833558, -4.555245876312256, -1.5825812816619873, 8.388867378234863, -0.17334675788879395, -0.6680176854133606, -0.9887399077415466, -0.02294921875, 0.147216796875, -0.8193359375
230, 2168850225, -4.568187713623047, -1.5818239450454712, 8.40650749206543, -0.11808732897043228, -0.6339014172554016, -0.9873951077461243, -0.025390625, 0.147705078125, -0.8212890625
231, 2168866892, -4.558089256286621, -1.5843830108642578, 8.414637565612793, -0.1736925095319748, -0.6987271904945374, -0.9274997711181641, -0.02490234375, 0.146240234375, -0.81884765625
232, 2168883559, -4.555431842803955, -1.5779106616973877, 8.408896446228027, -0.21724693477153778, -0.607379674911499, -0.9284476041793823, -0.0263671875, 0.147705078125, -0.81982421875
233, 2168900226, -4.560619354248047, -1.5745902061462402, 8.423200607299805, -0.17630499601364136, -0.542681872844696, -1.0169906616210938, -0.0263671875, 0.145751953125, -0.81982421875
234, 2168916893, -4.542738914489746, -1.5759541988372803, 8.392870903015137, -0.2625301480293274, -0.5146999359130859, -0.9849107265472412, -0.0234375, 0.144775390625, -0.817626953125
235, 2168933560, -4.555102825164795, -1.5816867351531982, 8.40656566619873, -0.25698500871658325, -0.5252268314361572, -0.9188555479049683, -0.0234375, 0.145263671875, -0.8212890625
236, 2168950227, -4.563806533813477, -1.579917073249817, 8.399877548217773, -0.29622364044189453, -0.5200145840644836, -1.003864049911499, -0.02490234375, 0.145751953125, -0.81884765625
237, 2168966894, -4.562567234039307, -1.5809093713760376, 8.415953636169434, -0.2741839289665222, -0.5614815950393677, -0.9953479170799255, -0.0244140625, 0.148681640625, -0.818115234375
238, 2168983561, -4.549635410308838, -1.5817443132400513, 8.415594100952148, -0.22709578275680542, -0.6502813696861267, -0.939824640750885, -0.025390625, 0.146728515625, -0.817626953125
239, 2169000228, -4.553806781768799, -1.5852128267288208, 8.362074851989746, -0.2070530652999878, -0.6933614015579224, -0.9991642832756042, -0.0234375, 0.146240234375, -0.818115234375
240, 2169016895, -4.558010101318359, -1.5826126337051392, 8.397224426269531, -0.24828952550888062, -0.6329154372215271, -0.9551103711128235, -0.0244140625, 0.147705078125, -0.8193359375
241, 2169033562, -4.550570964813232, -1.571276307106018, 8.396622657775879, -0.2229457050561905, -0.5691525936126709, -0.9971407055854797, -0.0234375, 0.146728515625, -0.818115234375
242, 2169050229, -4.544699192047119, -1.5734286308288574, 8.403918266296387, -0.2539883255958557, -0.6017191410064697, -0.9643437266349792, -0.0244140625, 0.144287109375, -0.82080078125
243, 2169066896, -4.550233364105225, -1.573949933052063, 8.389229774475098, -0.21732378005981445, -0.5275320410728455, -0.9148473143577576, -0.0234375, 0.146240234375, -0.82080078125
244, 2169083563, -4.551290035247803, -1.5806266069412231, 8.406526565551758, -0.20625905692577362, -0.550365686416626, -0.9549694061279297, -0.0234375, 0.147705078125, -0.82177734375
245, 2169100230, -4.547947406768799, -1.5803858041763306, 8.38819408416748, -0.24681678414344788, -0.5615968704223633, -0.9854487180709839, -0.02490234375, 0.146240234375, -0.817626953125
246, 2169116897, -4.55652379989624, -1.5811177492141724, 8.39645767211914, -0.2079751193523407, -0.5966734290122986, -1.014749526977539, -0.02392578125, 0.146240234375, -0.81884765625
247, 2169133564, -4.550588607788086, -1.5723299980163574, 8.409621238708496, -0.14567223191261292, -0.5534392595291138, -0.962627649307251, -0.0244140625, 0.147705078125, -0.81982421875
248, 2169150231, -4.554563999176025, -1.5866154432296753, 8.39885139465332, -0.2664361298084259, -0.6261665225028992, -0.9861529469490051, -0.02490234375, 0.145263671875, -0.82080078125
249, 2169166898, -4.55390739440918, -1.56381356716156, 8.416489601135254, -0.314754456281662, -0.6300852298736572, -1.0008291006088257, -0.02587890625, 0.148193359375, -0.8203125
250, 2169183565, -4.545506000518799, -1.575705885887146, 8.38943099975586, -0.23132111132144928, -0.609825611114502, -0.9870493412017822, -0.02587890625, 0.148193359375, -0.82080078125
251, 2169200232, -4.555202484130859, -1.5838623046875, 8.404271125793457, -0.14368723332881927, -0.6027052402496338, -0.9668537378311157, -0.02294921875, 0.147705078125, -0.82177734375
252, 2169216899, -4.5677924156188965, -1.5703243017196655, 8.395514488220215, -0.19290204346179962, -0.5726231336593628, -0.9550590515136719, -0.0224609375, 0.147705078125, -0.81982421875
253, 2169233566, -4.564693450927734, -1.5899869203567505, 8.416605949401855, -0.19456687569618225, -0.6206596493721008, -1.0506072044372559, -0.02392578125, 0.147216796875, -0.8203125
254, 2169250233, -4.551329135894775, -1.568951964378357, 8.39639949798584, -0.2638620436191559, -0.624053418636322, -1.0059003829956055, -0.0234375, 0.147216796875, -0.81982421875
255, 2169266900, -4.547883987426758, -1.5884063243865967, 8.378190994262695, -0.21710605919361115, -0.649781346321106, -0.9933501482009888, -0.025390625, 0.148681640625, -0.8193359375
256, 2169283567, -4.558075904846191, -1.5761302709579468, 8.403536796569824, -0.2258399873971939, -0.6971648931503296, -0.944865345954895, -0.02587890625, 0.147216796875, -0.818359375
257, 2169300234, -4.563661575317383, -1.5828850269317627, 8.416777610778809, -0.30526497960090637, -0.7495812773704529, -0.9399091601371765, -0.02587890625, 0.147216796875, -0.82080078125
258, 2169316901, -4.546652317047119, -1.5758970975875854, 8.394063949584961, -0.1690182089805603, -0.6935791373252869, -1.0302067995071411, -0.02392578125, 0.146728515625, -0.818115234375
259, 2169333568, -4.562355995178223, -1.5803719758987427, 8.392280578613281, -0.15546907484531403, -0.6381660103797913, -1.0068352222442627, -0.025390625, 0.145263671875, -0.81884765625
260, 2169350235, -4.554324150085449, -1.5965293645858765, 8.410855293273926, -0.2244056761264801, -0.7752708792686462, -0.9952071309089661, -0.02490234375, 0.144775390625, -0.82177734375
261, 2169366902, -4.560750484466553, -1.5464811325073242, 8.382609367370605, -0.34684720635414124, -0.7590451240539551, -1.078781247138977, -0.02587890625, 0.144775390625, -0.81982421875
262, 2169383569, -4.5565290451049805, -1.5850471258163452, 8.397425651550293, -0.21577417850494385, -0.7842480540275574, -1.0975170135498047, -0.02392578125, 0.146240234375, -0.8203125
263, 2169400236, -4.551734447479248, -1.5854828357696533, 8.425455093383789, -0.2702908217906952, -0.8148296475410461, -1.1594101190567017, -0.0244140625, 0.146240234375, -0.818603515625
264, 2169416903, -4.548149108886719, -1.5772550106048584, 8.382612228393555, -0.4896380305290222, -0.6729736924171448, -1.1805534362792969, -0.02490234375, 0.146240234375, -0.8193359375
265, 2169433570, -4.55623197555542, -1.5410983562469482, 8.435117721557617, -0.9650992155075073, -0.6911202073097229, -1.4156779050827026, -0.0244140625, 0.146728515625, -0.818603515625
266, 2169450237, -4.541513919830322, -1.596462368965149, 8.412178039550781, -0.7079221606254578, -0.6984071135520935, -1.3106403350830078, -0.025390625, 0.147216796875, -0.8193359375
267, 2169466904, -4.548079013824463, -1.600730538368225, 8.406105995178223, -0.505165696144104, -0.7104514837265015, -1.2350122928619385, -0.025390625, 0.147705078125, -0.82080078125
268, 2169483571, -4.543238162994385, -1.5674586296081543, 8.409010887145996, -0.4059869349002838, -0.8811665773391724, -1.1705260276794434, -0.0263671875, 0.148193359375, -0.822265625
269, 2169500238, -4.559423446655273, -1.5920517444610596, 8.406638145446777, -0.42591360211372375, -0.7291807532310486, -1.2622451782226562, -0.02734375, 0.147216796875, -0.81787109375
270, 2169516905, -4.563938140869141, -1.5963540077209473, 8.41604995727539, -0.4944019019603729, -0.6911970376968384, -1.246711015701294, -0.0234375, 0.145263671875, -0.818115234375
271, 2169533572, -4.555466175079346, -1.6088663339614868, 8.40619945526123, -0.3494037389755249, -0.7800815105438232, -1.1760263442993164, -0.02490234375, 0.145751953125, -0.82080078125
272, 2169550239, -4.546197414398193, -1.6049151420593262, 8.392474174499512, -0.5057228207588196, -0.8137155175209045, -1.1603962182998657, -0.02490234375, 0.146240234375, -0.818359375
273, 2169566906, -4.55482292175293, -1.5688285827636719, 8.415254592895508, -1.0333060026168823, -0.6159213781356812, -1.3695751428604126, -0.0244140625, 0.147705078125, -0.81982421875
274, 2169583573, -4.544893741607666, -1.6115556955337524, 8.39301586151123, -1.0564086437225342, -0.5386990308761597, -1.5045667886734009, -0.02685546875, 0.148193359375, -0.81982421875
275, 2169600240, -4.523950576782227, -1.5929111242294312, 8.418516159057617, -0.9915700554847717, -0.5154044032096863, -1.2895739078521729, -0.02685546875, 0.146728515625, -0.81787109375
276, 2169616907, -4.546721458435059, -1.602299451828003, 8.405227661132812, -0.5327441692352295, -0.6848963499069214, -1.17822265625, -0.02294921875, 0.146728515625, -0.818115234375
277, 2169633574, -4.530193328857422, -1.6158627271652222, 8.406537055969238, -0.3374216854572296, -0.5350236892700195, -1.11917245388031, -0.02587890625, 0.148681640625, -0.818359375
278, 2169650241, -4.544828414916992, -1.6122980117797852, 8.399938583374023, -0.10334723442792892, -0.6410474181175232, -0.9436870217323303, -0.02490234375, 0.148193359375, -0.8193359375
279, 2169666908, -4.532060623168945, -1.6224830150604248, 8.394617080688477, 0.021943682804703712, -0.746687114238739, -1.0174773931503296, -0.0244140625, 0.148193359375, -0.818359375
280, 2169683575, -4.526686668395996, -1.591905951499939, 8.389861106872559, -0.17265522480010986, -0.7976563572883606, -0.9840527772903442, -0.02587890625, 0.14990234375, -0.8193359375
281, 2169700242, -4.544187068939209, -1.6072561740875244, 8.384062767028809, -0.30292776226997375, -0.5663672089576721, -1.0698744058609009, -0.02734375, 0.147705078125, -0.81689453125
282, 2169716909, -4.54660701751709, -1.6035727262496948, 8.415431022644043, -0.3515087068080902, -0.5947909355163574, -1.1406872272491455, -0.027587890625, 0.147705078125, -0.818359375
283, 2169733576, -4.553112030029297, -1.5971840620040894, 8.415376663208008, -0.35999932885169983, -0.6670827865600586, -1.166466474533081, -0.027099609375, 0.149169921875, -0.81689453125
284, 2169750243, -4.553431510925293, -1.6074997186660767, 8.41653823852539, -0.3285212814807892, -0.6875088810920715, -1.1079668998718262, -0.025390625, 0.147216796875, -0.82080078125
285, 2169766910, -4.541963577270508, -1.6110284328460693, 8.398579597473145, -0.08895290642976761, -0.7762184143066406, -0.9572233557701111, -0.028076171875, 0.146728515625, -0.818359375
286, 2169783577, -4.5458879470825195, -1.6104142665863037, 8.409690856933594, -0.05468311905860901, -0.8397379517555237, -1.0092300176620483, -0.02587890625, 0.14990234375, -0.8212890625
287, 2169800244, -4.538685321807861, -1.5963315963745117, 8.39615535736084, 0.053127139806747437, -0.8113206028938293, -0.962922215461731, -0.025390625, 0.148681640625, -0.81982421875
288, 2169816911, -4.539837837219238, -1.606909990310669, 8.392091751098633, 0.03392402082681656, -0.7584176063537598, -0.8633784651756287, -0.02392578125, 0.145751953125, -0.818603515625
289, 2169833578, -4.559650421142578, -1.6055914163589478, 8.412641525268555, 0.122960165143013, -0.8311192989349365, -0.9683393239974976, -0.0263671875, 0.145751953125, -0.81982421875
290, 2169850245, -4.557605266571045, -1.6160571575164795, 8.40667724609375, 0.32035085558891296, -0.8163023591041565, -0.8420303463935852, -0.02685546875, 0.146240234375, -0.8193359375
291, 2169866912, -4.556800842285156, -1.5940661430358887, 8.41071605682373, 0.42428717017173767, -0.9430723786354065, -0.8599079251289368, -0.02783203125, 0.146728515625, -0.8212890625
292, 2169883579, -4.550773620605469, -1.5999139547348022, 8.412537574768066, 0.4681105315685272, -1.0423343181610107, -0.8603048920631409, -0.02783203125, 0.145751953125, -0.822265625
293, 2169900246, -4.551944255828857, -1.625627875328064, 8.387575149536133, 0.8665992617607117, -1.2312535047531128, -0.6578109264373779, -0.025390625, 0.146728515625, -0.82177734375
294, 2169916913, -4.531653881072998, -1.5914844274520874, 8.411787986755371, 0.8812369108200073, -1.2028363943099976, -0.7542043328285217, -0.02685546875, 0.145263671875, -0.81884765625
295, 2169933580, -4.539907932281494, -1.60494065284729, 8.415791511535645, 0.7630855441093445, -1.0067200660705566, -0.7730809450149536, -0.0283203125, 0.146240234375, -0.81884765625
296, 2169950247, -4.555158615112305, -1.5898828506469727, 8.390798568725586, 0.6236628890037537, -0.947733998298645, -0.8631095290184021, -0.02880859375, 0.144775390625, -0.8203125
297, 2169966914, -4.553226947784424, -1.5761960744857788, 8.432950973510742, -0.008349739946424961, -0.3775312006473541, -1.0936365127563477, -0.02587890625, 0.146240234375, -0.82080078125
298, 2169983581, -4.533873558044434, -1.49867582321167, 8.41132926940918, -1.0257117748260498, 0.5487200617790222, -1.4812463521957397, -0.02685546875, 0.147705078125, -0.81787109375
299, 2170000248, -4.523005962371826, -1.5659217834472656, 8.436925888061523, -1.0170035362243652, 1.1845554113388062, -1.7385133504867554, -0.0263671875, 0.146728515625, -0.8193359375
300, 2170016915, -4.498507976531982, -1.4854718446731567, 8.469237327575684, -2.9351389408111572, 2.977419376373291, -1.9610621929168701, -0.0244140625, 0.146240234375, -0.81982421875
301, 2170033582, -4.429729461669922, -1.5183236598968506, 8.545469284057617, -6.441808223724365, 7.502513885498047, -2.7433838844299316, -0.02490234375, 0.148193359375, -0.8193359375
302, 2170050249, -4.483608245849609, -1.524645209312439, 8.559762954711914, -9.59615421295166, 14.515905380249023, -2.346599817276001, -0.0224609375, 0.14990234375, -0.817626953125
303, 2170066916, -4.161287307739258, -1.4136794805526733, 8.607417106628418, -11.769319534301758, 22.759235382080078, -2.068230152130127, -0.0185546875, 0.1533203125, -0.8212890625
304, 2170083583, -3.0457069873809814, -1.5111204385757446, 9.031895637512207, -12.177541732788086, 43.107627868652344, 3.051999092102051, -0.007568359375, 0.156005859375, -0.81689453125
305, 2170100250, -2.8728976249694824, -2.72747802734375, 9.454926490783691, -9.089871406555176, 91.55328369140625, 12.494087219238281, 0.01123046875, 0.1572265625, -0.816650390625
306, 2170116917, -3.891085624694824, -2.5230908393859863, 9.902441024780273, 0.21130846440792084, 114.61210632324219, 20.442798614501953, 0.039306640625, 0.157470703125, -0.81298828125
307, 2170133584, -4.948228359222412, -3.221738576889038, 11.437028884887695, 18.85845184326172, 126.24711608886719, 24.328533172607422, 0.07080078125, 0.151611328125, -0.808837890625
308, 2170150251, -2.443129062652588, -3.0730295181274414, 14.019929885864258, 34.15715789794922, 109.47080993652344, 16.459800720214844, 0.0986328125, 0.143798828125, -0.8037109375
309, 2170166918, -3.8551511764526367, -3.6916511058807373, 16.126266479492188, 30.031822204589844, 84.82813262939453, -5.124248504638672, 0.125244140625, 0.137451171875, -0.798583984375
310, 2170183585, 1.0410823822021484, -3.175095796585083, 13.240326881408691, 37.09285354614258, 52.34611892700195, -19.974802017211914, 0.142822265625, 0.128173828125, -0.793701171875
311, 2170200252, 4.2538018226623535, -1.0884368419647217, 11.68968677520752, 40.33292770385742, 38.897769927978516, -12.593857765197754, 0.154052734375, 0.12060546875, -0.787841796875
312, 2170216919, 4.925425052642822, -1.165037989616394, 12.429688453674316, 21.54574966430664, 17.524738311767578, 3.4486889839172363, 0.17041015625, 0.11279296875, -0.77880859375
313, 2170233586, 4.605998516082764, -2.4577414989471436, 13.094498634338379, 10.37479019165039, -14.71461296081543, 16.50873565673828, 0.174560546875, 0.1015625, -0.771728515625
314, 2170250253, 2.984511375427246, -3.5091445446014404, 13.93387508392334, -2.2661664485931396, -52.86782455444336, 18.574241638183594, 0.17529296875, 0.09814453125, -0.76513671875
315, 2170266920, 1.3332505226135254, -4.365253448486328, 13.619522094726562, -19.553802490234375, -94.46500396728516, 4.548439979553223, 0.169189453125, 0.099609375, -0.7626953125
316, 2170283587, 0.34461963176727295, -4.692631721496582, 12.211173057556152, -28.0621395111084, -126.89909362792969, -13.442365646362305, 0.1572265625, 0.10498046875, -0.759521484375
317, 2170300254, -0.9622194766998291, -4.167851448059082, 11.469953536987305, -26.362794876098633, -146.8157196044922, -25.314228057861328, 0.14013671875, 0.1103515625, -0.761962890625
318, 2170316921, -2.359738826751709, -3.271056652069092, 11.274214744567871, -30.20665168762207, -157.3182373046875, -32.045753479003906, 0.116943359375, 0.120361328125, -0.76708984375
319, 2170333588, -4.243597030639648, -2.901798963546753, 11.832651138305664, -35.81554412841797, -164.62832641601562, -35.32252502441406, 0.095947265625, 0.134765625, -0.776611328125
320, 2170350255, -5.335639953613281, -2.2195587158203125, 12.045178413391113, -38.0982780456543, -176.27783203125, -33.391334533691406, 0.065673828125, 0.151611328125, -0.784423828125
321, 2170366922, -5.3649139404296875, -0.8521368503570557, 10.988879203796387, -39.76667404174805, -182.4453582763672, -25.498138427734375, 0.027099609375, 0.17138671875, -0.79736328125
322, 2170383589, -5.589444160461426, 0.19986388087272644, 10.344343185424805, -45.95197296142578, -176.0384063720703, -15.501860618591309, -0.01416015625, 0.189697265625, -0.8056640625
323, 2170400256, -6.896040439605713, 0.07030721008777618, 11.221792221069336, -50.16197204589844, -168.09173583984375, -7.955605506896973, -0.05322265625, 0.205810546875, -0.809326171875
324, 2170416923, -7.88369607925415, -0.748892068862915, 11.192160606384277, -49.2869873046875, -172.1261749267578, -8.489445686340332, -0.099365234375, 0.2216796875, -0.812744140625
325, 2170433590, -6.688910007476807, -0.2984420955181122, 8.453974723815918, -40.853126525878906, -166.98085021972656, -8.57181453704834, -0.14453125, 0.236328125, -0.8046875
326, 2170450257, -6.444353103637695, 0.6265546679496765, 6.435410022735596, -42.21210479736328, -142.78781127929688, -4.985466003417969, -0.18505859375, 0.24951171875, -0.798095703125
327, 2170466924, -6.870015621185303, 0.3980139493942261, 5.351368427276611, -42.79420471191406, -116.24179077148438, -0.07060521841049194, -0.21923828125, 0.26025390625, -0.787841796875
328, 2170483591, -7.151705265045166, -0.023723753169178963, 4.909492015838623, -32.06932830810547, -90.69512176513672, 3.634080648422241, -0.247802734375, 0.2705078125, -0.783447265625
329, 2170500258, -7.776050090789795, -0.20057767629623413, 5.396941184997559, -23.65106964111328, -67.97206115722656, 2.417543411254883, -0.267333984375, 0.279296875, -0.7734375
330, 2170516925, -7.76849365234375, -0.32862386107444763, 4.812665939331055, -20.435226440429688, -51.99272537231445, -1.0219067335128784, -0.281005859375, 0.283203125, -0.7666015625
331, 2170533592, -7.467687129974365, -0.6434306502342224, 3.7269575595855713, -15.05090618133545, -31.784677505493164, 0.03996238857507706, -0.29150390625, 0.28662109375, -0.765869140625
332, 2170550259, -7.312422275543213, -1.1232972145080566, 3.478288412094116, -7.055981636047363, -7.050488471984863, 4.633640289306641, -0.296875, 0.2890625, -0.759033203125
333, 2170566926, -7.618066787719727, -1.3757389783859253, 4.403940677642822, -6.395112037658691, 13.7639741897583, 5.862578868865967, -0.29443359375, 0.291748046875, -0.759033203125
334, 2170583593, -7.474102973937988, -2.057481288909912, 4.2857232093811035, -1.2029043436050415, 28.928543090820312, 9.451225280761719, -0.2890625, 0.292236328125, -0.7587890625
335, 2170600260, -7.08311653137207, -2.5736541748046875, 1.2801324129104614, 28.895071029663086, 67.65635681152344, 30.87090492248535, -0.275146484375, 0.289306640625, -0.76611328125
336, 2170616927, -5.133762359619141, 0.06376619637012482, 2.64322829246521, 47.5506591796875, 111.93186950683594, 62.64753341674805, -0.248046875, 0.287109375, -0.781982421875
337, 2170633594, -1.2843607664108276, -4.773933410644531, 15.07986068725586, 3.4078118801116943, 117.74883270263672, 29.531234741210938, -0.218017578125, 0.28173828125, -0.78857421875
338, 2170650261, -0.2152821570634842, -7.717120170593262, 10.297209739685059, -26.508743286132812, 144.9310760498047, 12.982929229736328, -0.185791015625, 0.2880859375, -0.794921875
339, 2170666928, -4.77278995513916, 2.172913074493408, 8.976042747497559, -33.888729095458984, 158.2413787841797, 14.004949569702148, -0.14990234375, 0.296630859375, -0.8017578125
340, 2170683595, -6.21057653427124, 0.9128873944282532, 12.24039363861084, -50.74047088623047, 150.53158569335938, 23.768924713134766, -0.11279296875, 0.31005859375, -0.8017578125
341, 2170700262, -7.439479351043701, -4.522401332855225, 11.172439575195312, -40.70758819580078, 128.94236755371094, 24.2802734375, -0.077880859375, 0.3203125, -0.804931640625
342, 2170716929, -7.848207473754883, -6.114415645599365, 10.579367637634277, -27.614013671875, 105.62715911865234, 17.97564697265625, -0.048583984375, 0.32861328125, -0.800537109375
343, 2170733596, -6.00843620300293, -3.888141393661499, 9.521390914916992, -11.460480690002441, 82.72222900390625, 19.104333877563477, -0.02880859375, 0.33349609375, -0.8037109375
344, 2170750263, -4.608060836791992, -2.7170958518981934, 9.062448501586914, -5.366176605224609, 73.34648895263672, 21.78830909729004, -0.0078125, 0.3310546875, -0.80224609375
345, 2170766930, -5.775386333465576, -3.785828113555908, 9.229690551757812, 5.708251953125, 64.01968383789062, 26.695539474487305, 0.010986328125, 0.331787109375, -0.8046875
346, 2170783597, -5.785496234893799, -4.507824897766113, 8.607695579528809, 32.93935775756836, 52.07312774658203, 35.63701248168945, 0.025634765625, 0.3251953125, -0.807861328125
347, 2170800264, -4.781433582305908, -2.32855224609375, 8.631723403930664, 53.12197494506836, 39.96051788330078, 38.519744873046875, 0.039306640625, 0.3125, -0.813232421875
348, 2170816931, -4.883112907409668, -1.7241495847702026, 9.117685317993164, 57.4965934753418, 29.476289749145508, 35.269264221191406, 0.051513671875, 0.2998046875, -0.81591796875
349, 2170833598, -4.2735371589660645, -2.8612961769104004, 8.26520824432373, 56.78447723388672, 25.515811920166016, 30.889230728149414, 0.060302734375, 0.285400390625, -0.822509765625
350, 2170850265, -5.212072849273682, -2.133239507675171, 9.35014820098877, 45.20669937133789, 26.662994384765625, 22.23150062561035, 0.06884765625, 0.2744140625, -0.82373046875
351, 2170866932, -5.560889720916748, -1.396498680114746, 9.707830429077148, 19.789138793945312, 24.033689498901367, 6.22419548034668, 0.076904296875, 0.266845703125, -0.82470703125
352, 2170883599, -5.022968292236328, -1.9262398481369019, 8.94245433807373, 5.2008514404296875, 19.522249221801758, -1.6618822813034058, 0.080078125, 0.263916015625, -0.8291015625
353, 2170900266, -4.529987812042236, -2.161027669906616, 8.429715156555176, 2.785454034805298, 15.503808975219727, -1.7984228134155273, 0.083984375, 0.263916015625, -0.827880859375
354, 2170916933, -3.7954294681549072, -2.1076977252960205, 8.33570384979248, 3.817807197570801, 16.320812225341797, 0.3770449459552765, 0.08935546875, 0.262451171875, -0.826416015625
355, 2170933600, -4.764225482940674, -2.6597437858581543, 8.391640663146973, 1.4382052421569824, 13.759010314941406, 0.38507434725761414, 0.091552734375, 0.262939453125, -0.8271484375
356, 2170950267, -5.272857666015625, -2.2623934745788574, 8.219155311584473, 1.8165615797042847, 6.915077209472656, 1.1768971681594849, 0.093505859375, 0.261962890625, -0.82861328125
357, 2170966934, -5.139909267425537, -1.9355895519256592, 8.244375228881836, 4.4293389320373535, 1.9557923078536987, 3.0118038654327393, 0.096435546875, 0.261474609375, -0.8291015625
358, 2170983601, -4.972083568572998, -2.009402275085449, 8.274909973144531, 3.3411316871643066, 1.2776063680648804, 2.7330479621887207, 0.097900390625, 0.259033203125, -0.8291015625
359, 2171000268, -4.577057838439941, -2.2062253952026367, 8.199503898620605, 2.7397522926330566, 1.6317082643508911, 2.7236032485961914, 0.096923828125, 0.259521484375, -0.8271484375
360, 2171016935, -4.700437068939209, -2.2461318969726562, 8.105429649353027, 5.945662975311279, 1.535731315612793, 6.323385715484619, 0.1005859375, 0.259033203125, -0.82568359375
361, 2171033602, -4.770296096801758, -2.120654821395874, 8.053458213806152, 9.589239120483398, -1.6479731798171997, 8.75389289855957, 0.0986328125, 0.253173828125, -0.82568359375
362, 2171050269, -4.8557538986206055, -1.9747288227081299, 8.179072380065918, 12.048257827758789, -3.130220413208008, 10.492207527160645, 0.10107421875, 0.251953125, -0.82958984375
363, 2171066936, -4.779799461364746, -1.918258547782898, 8.259685516357422, 12.650216102600098, -3.4698009490966797, 11.024652481079102, 0.1005859375, 0.2509765625, -0.83154296875
364, 2171083603, -4.621683597564697, -1.9449145793914795, 8.181142807006836, 12.296515464782715, -1.7262464761734009, 11.833334922790527, 0.101318359375, 0.2451171875, -0.8310546875
365, 2171100270, -4.612372875213623, -1.9000965356826782, 8.259041786193848, 11.105812072753906, 2.3522279262542725, 12.848718643188477, 0.101318359375, 0.243408203125, -0.8330078125
366, 2171116937, -4.625638961791992, -1.836061716079712, 8.302876472473145, 6.594796657562256, 8.60090160369873, 12.468985557556152, 0.104736328125, 0.239501953125, -0.832275390625
367, 2171133604, -4.537705421447754, -2.016495943069458, 8.22868824005127, 6.161484241485596, 15.690718650817871, 13.98914909362793, 0.1103515625, 0.237060546875, -0.832763671875
368, 2171150271, -4.4761576652526855, -2.135490655899048, 8.349588394165039, 10.456038475036621, 24.73933219909668, 18.2326717376709, 0.115966796875, 0.233642578125, -0.83447265625
369, 2171166938, -4.44952917098999, -1.5453015565872192, 8.471240997314453, 3.8101587295532227, 38.45856857299805, 22.42329216003418, 0.124267578125, 0.234130859375, -0.828857421875
370, 2171183605, -4.632756233215332, -1.2463383674621582, 8.490445137023926, -2.9754672050476074, 62.86465835571289, 21.433603286743164, 0.138916015625, 0.230224609375, -0.82763671875
371, 2171200272, -4.514639377593994, -0.9617706537246704, 8.470420837402344, -10.252885818481445, 92.85688781738281, 18.047040939331055, 0.162353515625, 0.2314453125, -0.828125
372, 2171216939, -4.824902534484863, -1.2312405109405518, 8.194422721862793, -17.91592788696289, 128.63839721679688, 14.50763988494873, 0.192138671875, 0.234130859375, -0.817626953125
373, 2171233606, -5.1928606033325195, -1.4674326181411743, 8.089770317077637, -16.267471313476562, 162.1951904296875, 14.709949493408203, 0.22705078125, 0.238037109375, -0.805908203125
374, 2171250273, -5.514177322387695, -1.4946473836898804, 8.07374382019043, -11.532519340515137, 190.8603515625, 15.467264175415039, 0.272216796875, 0.240478515625, -0.79248046875
375, 2171266940, -5.517885684967041, -1.2307653427124023, 7.994747161865234, -7.530957221984863, 221.8531494140625, 16.614301681518555, 0.3203125, 0.23876953125, -0.77392578125
376, 2171283607, -5.569381237030029, -1.410528540611267, 7.939407825469971, -6.512650966644287, 264.4455261230469, 18.607038497924805, 0.376953125, 0.2373046875, -0.74560546875
377, 2171300274, -5.909914016723633, -1.5496318340301514, 7.729361057281494, -5.474659442901611, 324.68597412109375, 23.03404998779297, 0.4443359375, 0.2392578125, -0.70751953125
378, 2171316941, -6.428011894226074, -2.4153995513916016, 7.888730525970459, -1.3621478080749512, 405.3351745605469, 34.30845260620117, 0.522705078125, 0.229736328125, -0.651123046875
379, 2171333608, -10.171224594116211, -3.458940029144287, 9.463114738464355, 4.53020715713501, 467.1312255859375, 65.60161590576172, 0.607666015625, 0.220703125, -0.57568359375
380, 2171350275, -17.317432403564453, -2.4258763790130615, 11.06906509399414, 2.3016560077667236, 463.44146728515625, 90.11598205566406, 0.68115234375, 0.20263671875, -0.490234375
381, 2171366942, -18.168020248413086, -4.7810492515563965, 10.467242240905762, -0.43133744597435, 434.9407958984375, 95.13666534423828, 0.7421875, 0.180419921875, -0.39208984375
382, 2171383609, -15.560569763183594, -6.66319465637207, 11.446333885192871, 20.34382438659668, 408.664794921875, 117.756591796875, 0.786865234375, 0.15283203125, -0.300048828125
383, 2171400276, -10.672140121459961, -6.240254878997803, 14.586315155029297, 39.18833541870117, 365.05364990234375, 127.39169311523438, 0.81787109375, 0.12060546875, -0.20947265625
384, 2171416943, -6.367514610290527, -5.026729106903076, 16.72788429260254, 4.894398212432861, 248.49365234375, 100.23218536376953, 0.828125, 0.091064453125, -0.1396484375
385, 2171433610, -28.889284133911133, -5.581151008605957, 29.412036895751953, -45.09812927246094, 81.7576904296875, 64.72035217285156, 0.828369140625, 0.0693359375, -0.103271484375
386, 2171450277, -8.563776016235352, -10.50367259979248, 19.908601760864258, -49.63871383666992, -146.1923828125, -38.17766189575195, 0.8173828125, 0.072265625, -0.11767578125
387, 2171466944, 0.5635436773300171, -6.5808820724487305, 8.818406105041504, 38.105445861816406, -195.53082275390625, -6.636307716369629, 0.807373046875, 0.07373046875, -0.1474609375
388, 2171483611, -0.9584178328514099, -2.7641444206237793, 8.029396057128906, 77.66986083984375, -183.5813751220703, 10.499754905700684, 0.80419921875, 0.062255859375, -0.16796875
389, 2171500278, -3.828092575073242, -2.845102071762085, 9.912242889404297, 73.68497467041016, -219.81423950195312, -0.5451287627220154, 0.814208984375, 0.052734375, -0.189453125
390, 2171516945, -5.090052127838135, -2.6339077949523926, 9.752152442932129, 69.89005279541016, -279.3708190917969, -4.053152084350586, 0.8369140625, 0.047119140625, -0.244140625
391, 2171533612, -5.740843296051025, -2.284252882003784, 8.775026321411133, 46.83767318725586, -325.5345764160156, -15.084614753723145, 0.85791015625, 0.04638671875, -0.340576171875
392, 2171550279, -5.951787948608398, -2.2957448959350586, 7.132076263427734, 19.9126033782959, -351.5108947753906, -32.53534698486328, 0.844482421875, 0.046630859375, -0.48291015625
393, 2171566946, -6.4766387939453125, -2.4918417930603027, 6.104892730712891, 5.357751846313477, -360.1741027832031, -36.722869873046875, 0.769287109375, 0.046630859375, -0.618408203125
394, 2171583613, -7.581908226013184, -1.628385066986084, 6.843850612640381, -10.195149421691895, -352.17681884765625, -36.63985824584961, 0.6630859375, 0.048095703125, -0.712890625
395, 2171600280, -7.966397762298584, -1.0348197221755981, 7.792542934417725, -44.155269622802734, -346.8678894042969, -49.47130584716797, 0.557373046875, 0.062744140625, -0.76171875
396, 2171616947, -9.018656730651855, -1.7246227264404297, 8.151477813720703, -72.42406463623047, -340.21307373046875, -62.285221099853516, 0.477783203125, 0.101318359375, -0.78759765625
397, 2171633614, -10.81885051727295, -0.8904852867126465, 8.81141185760498, -82.20236206054688, -331.1072692871094, -62.35691452026367, 0.424560546875, 0.14111328125, -0.82275390625
398, 2171650281, -12.456720352172852, 1.1251386404037476, 9.573079109191895, -100.52423858642578, -307.4066467285156, -46.20982360839844, 0.353515625, 0.180419921875, -0.878662109375
399, 2171666948, -17.09221649169922, -0.4561421275138855, 12.81943416595459, -135.8756561279297, -298.6134338378906, -39.10404586791992, 0.244140625, 0.228271484375, -0.918701171875
400, 2171683615, -19.54669189453125, -3.8303256034851074, 12.862354278564453, -133.1328125, -317.6282043457031, -48.94963836669922, 0.111328125, 0.27197265625, -0.9111328125
401, 2171700282, -20.260774612426758, -2.5376176834106445, 10.789450645446777, -102.01449584960938, -325.83538818359375, -65.2730484008789, -7.32421875E-4, 0.296142578125, -0.878662109375
402, 2171716949, -22.7330322265625, 0.7743066549301147, 9.830473899841309, -96.44319152832031, -323.85784912109375, -79.90247344970703, -0.09375, 0.309814453125, -0.843505859375
403, 2171733616, -23.424346923828125, 2.0267043113708496, 5.66201639175415, -95.9526596069336, -314.8293151855469, -71.17173767089844, -0.1728515625, 0.324462890625, -0.80908203125
404, 2171750283, -22.1390380859375, 1.903929352760315, 0.3867064118385315, -86.85186767578125, -271.6368103027344, -57.39829635620117, -0.23681640625, 0.33251953125, -0.773681640625
405, 2171766950, -23.019895553588867, 1.4541561603546143, -3.08693790435791, -75.13614654541016, -209.24537658691406, -66.02376556396484, -0.291259765625, 0.340576171875, -0.7421875
406, 2171783617, -23.532636642456055, 4.847784519195557, -5.854793548583984, -61.504295349121094, -143.48391723632812, -81.93438720703125, -0.326171875, 0.342041015625, -0.719970703125
407, 2171800284, -22.879459381103516, 7.377365589141846, -9.504020690917969, -51.12221145629883, -69.3549575805664, -70.62049865722656, -0.34912109375, 0.344482421875, -0.70166015625
408, 2171816951, -23.26420021057129, 3.483994722366333, -11.148962020874023, 3.7154123783111572, 24.57684898376465, -49.24821090698242, -0.357177734375, 0.341796875, -0.697509765625
409, 2171833618, -6.826035499572754, 3.405883550643921, 0.4310491979122162, 128.52963256835938, 115.69866943359375, 38.274200439453125, -0.331298828125, 0.31640625, -0.7138671875
410, 2171850285, 10.530196189880371, -9.430548667907715, 19.92084503173828, 39.36494064331055, 159.13729858398438, 1.5663838386535645, -0.3046875, 0.302978515625, -0.72705078125
411, 2171866952, -5.436907768249512, 7.868938446044922, 7.417506217956543, 23.682689666748047, 210.0215301513672, 39.11094665527344, -0.2578125, 0.296875, -0.74169921875
412, 2171883619, -8.66884994506836, 10.197476387023926, 14.778875350952148, -45.321170806884766, 251.3699493408203, 45.641170501708984, -0.201904296875, 0.304443359375, -0.749755859375
413, 2171900286, -11.19332504272461, -5.12477970123291, 13.396265983581543, -72.36345672607422, 212.11770629882812, 39.779170989990234, -0.1474609375, 0.321533203125, -0.754150390625
414, 2171916953, -9.770522117614746, -10.37989616394043, 8.874197959899902, -64.3030776977539, 184.58041381835938, 18.585947036743164, -0.104736328125, 0.334228515625, -0.751953125
415, 2171933620, -9.086013793945312, -7.594997882843018, 10.599383354187012, -15.03115463256836, 148.46900939941406, 29.516529083251953, -0.0693359375, 0.3388671875, -0.751220703125
416, 2171950287, -10.46060562133789, -3.752786874771118, 10.37159538269043, 53.426509857177734, 87.55424499511719, 35.5343132019043, -0.044677734375, 0.3310546875, -0.75830078125
417, 2171966954, -6.190105438232422, -1.3704979419708252, 10.985294342041016, 36.34703826904297, 58.92986297607422, 11.857452392578125, -0.025146484375, 0.32177734375, -0.76025390625
418, 2171983621, -5.476864814758301, -2.49827241897583, 9.835381507873535, 20.23497772216797, 33.025787353515625, 4.674348831176758, -0.0166015625, 0.315185546875, -0.761474609375
419, 2172000288, -5.3940815925598145, -2.2912869453430176, 9.87497329711914, 6.078724384307861, 14.938779830932617, 2.210883855819702, -0.0126953125, 0.312744140625, -0.762939453125
420, 2172016955, -5.561820983886719, -3.0076663494110107, 8.461565971374512, -2.7137811183929443, 4.734975337982178, -1.2581472396850586, -0.012939453125, 0.311279296875, -0.761962890625
421, 2172033622, -5.197847843170166, -2.905351161956787, 8.251465797424316, -4.337037086486816, 3.0322813987731934, -3.758586883544922, -0.010986328125, 0.312744140625, -0.762451171875
422, 2172050289, -4.837174415588379, -3.1035573482513428, 8.416013717651367, -5.805094242095947, 3.251795768737793, -4.908175468444824, -0.010498046875, 0.313720703125, -0.764892578125
423, 2172066956, -4.115718364715576, -3.44404673576355, 7.642006874084473, -5.531613826751709, 2.932302474975586, -4.2549872398376465, -0.010498046875, 0.312255859375, -0.759521484375
424, 2172083623, -4.300722122192383, -3.5147016048431396, 7.417977333068848, -1.152008056640625, 3.9423904418945312, 1.468241572380066, -0.010498046875, 0.312744140625, -0.760009765625
425, 2172100290, -4.279544353485107, -3.415316581726074, 7.456356048583984, 6.06425142288208, -3.1682283878326416, 9.842228889465332, -0.007568359375, 0.3154296875, -0.760986328125
426, 2172116957, -3.688344717025757, -3.4969828128814697, 6.315672397613525, 22.947477340698242, -5.128525733947754, 21.63759994506836, -0.007568359375, 0.310791015625, -0.763427734375
427, 2172133624, -4.221612453460693, -3.217094898223877, 7.117190361022949, 46.81566619873047, 1.4611061811447144, 32.852447509765625, -0.0048828125, 0.30029296875, -0.76416015625
428, 2172150291, -4.9132537841796875, -3.160776376724243, 8.006622314453125, 58.535221099853516, 4.7621073722839355, 35.69300079345703, -0.003662109375, 0.290283203125, -0.76806640625
429, 2172166958, -5.330630302429199, -2.141660690307617, 9.129337310791016, 51.54817581176758, 2.0033411979675293, 29.944379806518555, 0.001953125, 0.274658203125, -0.77294921875
430, 2172183625, -5.328606128692627, -1.7713090181350708, 8.954590797424316, 32.98982620239258, 0.8726226091384888, 18.497079849243164, 0.004638671875, 0.2646484375, -0.77685546875
431, 2172200292, -4.799818515777588, -1.9484660625457764, 8.489863395690918, 20.280702590942383, 3.890531301498413, 10.12827205657959, 0.005615234375, 0.26123046875, -0.77685546875
432, 2172216959, -4.494543075561523, -2.458404064178467, 7.99029016494751, 22.27589225769043, 5.105985641479492, 10.753610610961914, 0.00634765625, 0.255615234375, -0.77783203125
433, 2172233626, -4.258592128753662, -3.0935733318328857, 7.82282018661499, 23.54106330871582, -0.2738645374774933, 16.202966690063477, 0.01220703125, 0.250244140625, -0.78271484375
434, 2172250293, -4.188979625701904, -3.352461099624634, 8.014142036437988, 31.73657989501953, -14.406370162963867, 26.24915313720703, 0.007568359375, 0.24267578125, -0.78173828125
435, 2172266960, -5.08806848526001, -2.014585256576538, 8.364190101623535, 43.955909729003906, -24.098175048828125, 35.354087829589844, 0.006591796875, 0.232421875, -0.7841796875
436, 2172283627, -4.616874694824219, -1.2513744831085205, 8.579812049865723, 31.671552658081055, -8.614751815795898, 30.790800094604492, 0.00732421875, 0.2255859375, -0.78857421875
437, 2172300294, -4.591963768005371, -1.239272952079773, 8.756458282470703, 19.903846740722656, 15.111344337463379, 23.09955596923828, 0.0087890625, 0.218017578125, -0.787841796875
438, 2172316961, -4.8708696365356445, -1.4089924097061157, 8.549638748168945, 11.768704414367676, 31.016807556152344, 19.124889373779297, 0.015380859375, 0.214599609375, -0.789306640625
439, 2172333628, -4.243342399597168, -1.2183679342269897, 8.769195556640625, 4.494072437286377, 52.1049690246582, 18.269594192504883, 0.029296875, 0.212646484375, -0.7919921875
440, 2172350295, -4.602975368499756, -1.1877238750457764, 8.633075714111328, -3.6551172733306885, 80.9305419921875, 17.72776222229004, 0.043701171875, 0.213623046875, -0.791259765625
441, 2172366962, -4.528857231140137, -1.0147298574447632, 8.472172737121582, -13.475008964538574, 115.7995376586914, 14.371988296508789, 0.0712890625, 0.214111328125, -0.78662109375
442, 2172383629, -4.739152431488037, -1.1842776536941528, 8.188352584838867, -20.045955657958984, 154.60975646972656, 10.954001426696777, 0.10400390625, 0.21875, -0.781982421875
443, 2172400296, -5.183963298797607, -1.2682089805603027, 8.067707061767578, -22.217575073242188, 189.3836669921875, 6.977596282958984, 0.145263671875, 0.2236328125, -0.773681640625
444, 2172416963, -5.111429214477539, -1.1524171829223633, 8.337756156921387, -20.690086364746094, 224.06967163085938, 3.893319606781006, 0.190673828125, 0.2255859375, -0.75927734375
445, 2172433630, -5.183930397033691, -1.4852359294891357, 8.305191993713379, -21.730466842651367, 265.7115173339844, 4.865730285644531, 0.24755859375, 0.22900390625, -0.740966796875
446, 2172450297, -5.538694858551025, -1.6484124660491943, 7.799469470977783, -11.59320068359375, 322.87493896484375, 13.834870338439941, 0.314697265625, 0.2314453125, -0.710693359375
447, 2172466964, -6.222990036010742, -2.6138715744018555, 7.232097625732422, 15.298628807067871, 405.13641357421875, 37.892822265625, 0.3916015625, 0.2255859375, -0.66943359375
448, 2172483631, -8.43748950958252, -3.7989513874053955, 9.900533676147461, 27.55780029296875, 483.2606506347656, 72.51660919189453, 0.47998046875, 0.212646484375, -0.607666015625
449, 2172500298, -15.699235916137695, -2.741281509399414, 10.993593215942383, 24.64501953125, 498.5679016113281, 108.34456634521484, 0.570068359375, 0.187255859375, -0.527099609375
450, 2172516965, -19.66619110107422, -4.1532697677612305, 11.15400218963623, 24.790224075317383, 460.4684143066406, 112.51039123535156, 0.642822265625, 0.16455078125, -0.443115234375
451, 2172533632, -17.17891502380371, -6.5373640060424805, 10.785794258117676, 62.41761779785156, 429.9545593261719, 132.44265747070312, 0.703369140625, 0.133544921875, -0.354248046875
452, 2172550299, -13.085004806518555, -5.642609119415283, 15.112095832824707, 76.99248504638672, 395.749755859375, 136.71876525878906, 0.748291015625, 0.094970703125, -0.265380859375
453, 2172566966, -6.7562665939331055, -3.5709550380706787, 19.158180236816406, 26.22346305847168, 274.88330078125, 78.47486877441406, 0.772705078125, 0.069580078125, -0.1904296875
454, 2172583633, -29.90679168701172, -2.3705902099609375, 27.06224250793457, -50.614715576171875, 102.20499420166016, 74.35514831542969, 0.782470703125, 0.04736328125, -0.15087890625
455, 2172600300, -13.063873291015625, -9.016722679138184, 23.071510314941406, -128.150390625, -145.23672485351562, -52.10238265991211, 0.779296875, 0.054443359375, -0.159912109375
456, 2172616967, -0.19900721311569214, -9.086544036865234, 9.238123893737793, -63.01988220214844, -227.97238159179688, -68.93488311767578, 0.771728515625, 0.0654296875, -0.197265625
457, 2172633634, 0.1404077708721161, -5.77577543258667, 6.029587745666504, 17.392314910888672, -205.54443359375, -49.85480880737305, 0.76513671875, 0.070556640625, -0.232177734375
458, 2172650301, -3.620274066925049, -3.863706588745117, 9.30785083770752, 58.7523193359375, -224.35780334472656, -64.60791778564453, 0.76123046875, 0.07666015625, -0.2734375
459, 2172666968, -4.572393417358398, -3.501594305038452, 9.4736328125, 68.31214141845703, -293.50787353515625, -85.03821563720703, 0.756103515625, 0.0908203125, -0.33984375
460, 2172683635, -3.359388589859009, -2.3516952991485596, 7.290320873260498, 82.15703582763672, -345.0753173828125, -70.23319244384766, 0.72900390625, 0.10595703125, -0.431884765625
461, 2172700302, -3.3462090492248535, -0.22629019618034363, 5.768963813781738, 82.71184539794922, -370.12957763671875, -32.6898078918457, 0.674072265625, 0.110595703125, -0.533935546875
462, 2172716969, -4.971948146820068, 0.6555595993995667, 7.37681770324707, 41.088504791259766, -373.9888916015625, -0.7230616211891174, 0.581298828125, 0.1064453125, -0.618408203125
463, 2172733636, -7.08255672454834, -0.5944966673851013, 8.149070739746094, -25.418128967285156, -386.84429931640625, -2.562589645385742, 0.466796875, 0.1044921875, -0.66552734375
464, 2172750303, -8.513172149658203, -4.141674518585205, 8.2244291305542, -65.99724578857422, -396.0842590332031, -20.446731567382812, 0.357666015625, 0.10400390625, -0.6748046875
465, 2172766970, -9.65855884552002, -5.0658416748046875, 7.155839920043945, -71.89216613769531, -388.6380310058594, -51.941864013671875, 0.27001953125, 0.09765625, -0.663818359375
466, 2172783637, -9.77426528930664, -1.7894419431686401, 6.7859673500061035, -81.13243103027344, -345.2198791503906, -82.00457763671875, 0.216796875, 0.083251953125, -0.63818359375
467, 2172800304, -12.648275375366211, -0.40492790937423706, 10.190935134887695, -101.61209869384766, -294.64898681640625, -83.1548843383789, 0.2275390625, 0.068603515625, -0.606689453125
468, 2172816971, -17.787864685058594, -3.539449691772461, 13.858400344848633, -110.52378845214844, -295.1990966796875, -83.89456939697266, 0.29833984375, 0.0703125, -0.62353515625
469, 2172833638, -19.861295700073242, -4.193784713745117, 12.006067276000977, -78.84312438964844, -303.6766662597656, -97.26950073242188, 0.35986328125, 0.120361328125, -0.73291015625
470, 2172850305, -22.99610710144043, -0.710962176322937, 12.203712463378906, -55.015933990478516, -303.39697265625, -109.71636199951172, 0.3291015625, 0.2080078125, -0.8818359375
471, 2172866972, -24.417919158935547, 0.9790607690811157, 10.285781860351562, -44.96250915527344, -307.83148193359375, -99.20821380615234, 0.19287109375, 0.288818359375, -0.972900390625
472, 2172883639, -23.826187133789062, 0.2763059437274933, 4.170756816864014, -28.20428466796875, -288.3219299316406, -85.35418701171875, 0.03955078125, 0.3369140625, -0.989013671875
473, 2172900306, -23.212352752685547, 1.0325204133987427, -2.823530673980713, -8.273178100585938, -230.06265258789062, -84.12442016601562, -0.083984375, 0.357421875, -0.970458984375
474, 2172916973, -25.227413177490234, 5.016984462738037, -7.844285488128662, -10.01111888885498, -149.12600708007812, -74.33209991455078, -0.164306640625, 0.3681640625, -0.94873046875
475, 2172933640, -25.33281898498535, 7.404391288757324, -10.380422592163086, -23.06537437438965, -67.68633270263672, -53.4005126953125, -0.21044921875, 0.38134765625, -0.93310546875
476, 2172950307, -23.99348258972168, 6.1717071533203125, -10.65701961517334, -4.061721324920654, 7.6064863204956055, -37.661109924316406, -0.2294921875, 0.388671875, -0.929443359375
477, 2172966974, -10.174851417541504, 5.935161113739014, -3.012254476547241, 55.83837890625, 106.4658203125, 52.011024475097656, -0.2080078125, 0.385986328125, -0.944091796875
478, 2172983641, 5.911596775054932, -12.79832649230957, 22.863727569580078, -28.713638305664062, 137.2650909423828, 21.110694885253906, -0.17578125, 0.40087890625, -0.95361328125
479, 2173000308, -2.1538946628570557, -2.319584369659424, 3.3268849849700928, 7.786407947540283, 192.560302734375, 45.03705978393555, -0.127685546875, 0.413330078125, -0.961669921875
480, 2173016975, -11.789006233215332, 7.386074542999268, 16.03192901611328, -42.68081283569336, 228.43075561523438, 37.135921478271484, -0.063720703125, 0.43310546875, -0.964599609375
481, 2173033642, -8.717900276184082, -1.8718855381011963, 13.159610748291016, -43.606021881103516, 167.6479949951172, 45.905426025390625, -0.010986328125, 0.4541015625, -0.964599609375
482, 2173050309, -7.572490215301514, -10.56960678100586, 7.85586404800415, -46.50813293457031, 159.05722045898438, 24.218175888061523, 0.034423828125, 0.470703125, -0.9580078125
483, 2173066976, -6.8365478515625, -4.574886322021484, 9.08591079711914, -23.623945236206055, 140.693115234375, 25.620737075805664, 0.07763671875, 0.483642578125, -0.955078125
484, 2173083643, -10.656877517700195, -6.890015125274658, 10.589385032653809, 25.042293548583984, 101.244140625, 39.5567741394043, 0.114990234375, 0.48681640625, -0.951904296875
485, 2173100310, -6.431986331939697, -1.574148178100586, 9.96731185913086, 43.125022888183594, 73.15225219726562, 25.498056411743164, 0.1357421875, 0.47314453125, -0.955322265625
486, 2173116977, -5.939356327056885, -2.062317132949829, 10.127342224121094, 32.11260223388672, 44.48011016845703, 11.787364959716797, 0.15625, 0.46728515625, -0.96240234375
487, 2173133644, -4.862775802612305, -2.2883880138397217, 9.396660804748535, 24.529212951660156, 30.055578231811523, 7.861156940460205, 0.166259765625, 0.459228515625, -0.961669921875
488, 2173150311, -4.9287800788879395, -2.0430493354797363, 9.386295318603516, 13.398628234863281, 20.64344024658203, 5.923161506652832, 0.171875, 0.455810546875, -0.964111328125
489, 2173166978, -5.220844268798828, -2.664912462234497, 8.718769073486328, 9.707318305969238, 12.445817947387695, 4.509523391723633, 0.175048828125, 0.452880859375, -0.96435546875
490, 2173183645, -4.932380676269531, -2.5495574474334717, 8.539982795715332, 4.717776775360107, 7.77981424331665, 1.3863837718963623, 0.179931640625, 0.454345703125, -0.96484375
491, 2173200312, -4.988783359527588, -2.7133307456970215, 8.211005210876465, 3.515990734100342, 7.792685031890869, 0.03125390410423279, 0.179443359375, 0.451904296875, -0.96240234375
492, 2173216979, -4.493218898773193, -2.6388514041900635, 8.085403442382812, 6.299656867980957, 7.653698444366455, 1.3849879503250122, 0.181396484375, 0.450927734375, -0.96533203125
493, 2173233646, -4.415413856506348, -2.7107646465301514, 8.03405475616455, 9.204447746276855, 8.248735427856445, 2.956930160522461, 0.18603515625, 0.4482421875, -0.9658203125
494, 2173250313, -4.343379974365234, -2.885016918182373, 7.860855579376221, 11.338166236877441, 6.319636821746826, 5.022851943969727, 0.1865234375, 0.4443359375, -0.966796875
495, 2173266980, -4.330764293670654, -3.008498191833496, 7.552954196929932, 19.351612091064453, 3.391313076019287, 11.36744213104248, 0.190673828125, 0.4404296875, -0.969482421875
496, 2173283647, -4.329100131988525, -2.802175760269165, 7.630011558532715, 36.06619644165039, -2.2351183891296387, 20.77241325378418, 0.193115234375, 0.430908203125, -0.972412109375
497, 2173300314, -4.591897487640381, -3.0340657234191895, 7.733968257904053, 47.34312057495117, -9.170087814331055, 28.446128845214844, 0.1962890625, 0.418212890625, -0.979248046875
498, 2173316981, -5.071979522705078, -2.3094263076782227, 8.602632522583008, 39.79069137573242, -6.371062278747559, 24.90955924987793, 0.19580078125, 0.401611328125, -0.983642578125
499, 2173333648, -4.959277629852295, -1.690500259399414, 8.930416107177734, 19.957260131835938, -0.7819575667381287, 16.566448211669922, 0.19580078125, 0.39501953125, -0.98876953125
500, 2173350315, -4.857545852661133, -1.8092987537384033, 8.352336883544922, 10.271492958068848, 1.9822449684143066, 9.827228546142578, 0.19775390625, 0.3916015625, -0.98876953125
501, 2173366982, -4.540294647216797, -2.2082879543304443, 8.181564331054688, 12.07526683807373, 2.910226345062256, 10.060709953308105, 0.200927734375, 0.3876953125, -0.9912109375
502, 2173383649, -4.244789123535156, -2.534245014190674, 8.107061386108398, 18.408754348754883, -0.7624403834342957, 16.001144409179688, 0.200927734375, 0.382568359375, -0.992431640625
503, 2173400316, -4.646731853485107, -2.5334935188293457, 8.163613319396973, 25.048282623291016, -6.434963226318359, 24.891082763671875, 0.203125, 0.376220703125, -0.992431640625
504, 2173416983, -4.824510097503662, -1.8088927268981934, 8.324016571044922, 22.99453353881836, -1.7351657152175903, 26.913347244262695, 0.2041015625, 0.366455078125, -0.998291015625
505, 2173433650, -4.595799446105957, -1.4771958589553833, 8.567310333251953, 15.566039085388184, 13.861252784729004, 23.842172622680664, 0.210693359375, 0.359619140625, -0.999755859375
506, 2173450317, -4.5935516357421875, -1.3317737579345703, 8.56124210357666, 7.756397247314453, 32.16425323486328, 21.068056106567383, 0.21923828125, 0.358642578125, -0.998046875
507, 2173466984, -4.358317852020264, -1.2248982191085815, 8.69749641418457, 0.09459532797336578, 56.947967529296875, 20.424898147583008, 0.2353515625, 0.354736328125, -0.99365234375
508, 2173483651, -4.6319966316223145, -1.0469146966934204, 8.520885467529297, -5.557768821716309, 84.38358306884766, 18.037456512451172, 0.26220703125, 0.35400390625, -0.987060546875
509, 2173500318, -4.739645004272461, -1.2779821157455444, 8.241105079650879, -12.880757331848145, 116.33367919921875, 14.298867225646973, 0.29052734375, 0.35986328125, -0.9775390625
510, 2173516985, -4.883752346038818, -1.511705994606018, 8.203422546386719, -15.576995849609375, 149.363037109375, 13.989696502685547, 0.329833984375, 0.364013671875, -0.962158203125
511, 2173533652, -5.385349273681641, -1.7082633972167969, 8.112072944641113, -12.420685768127441, 178.9029998779297, 17.31111717224121, 0.3818359375, 0.364013671875, -0.943603515625
512, 2173550319, -5.223233222961426, -1.2871896028518677, 8.192357063293457, -6.972075939178467, 208.49429321289062, 21.218639373779297, 0.435546875, 0.365966796875, -0.919921875
513, 2173566986, -5.073115825653076, -1.6268670558929443, 8.294529914855957, -1.1721973419189453, 250.6401824951172, 27.428813934326172, 0.5048828125, 0.364013671875, -0.88232421875
514, 2173583653, -5.533238410949707, -1.7400814294815063, 7.313557147979736, 8.928025245666504, 310.5742492675781, 46.72101593017578, 0.579345703125, 0.357421875, -0.834228515625
515, 2173600320, -6.261862754821777, -2.2724485397338867, 7.840167045593262, 23.965988159179688, 395.720703125, 68.17989349365234, 0.671142578125, 0.342041015625, -0.7685546875
516, 2173616987, -8.511682510375977, -3.326820135116577, 10.370906829833984, 34.04301452636719, 481.498779296875, 96.56648254394531, 0.776611328125, 0.317626953125, -0.671875
517, 2173633654, -16.073915481567383, -1.2091145515441895, 11.834830284118652, 26.076892852783203, 508.76080322265625, 120.53662872314453, 0.875732421875, 0.286865234375, -0.547607421875
518, 2173650321, -21.165937423706055, -4.542051315307617, 12.364521980285645, 20.106300354003906, 470.2012023925781, 117.94343566894531, 0.94970703125, 0.24853515625, -0.41845703125
519, 2173666988, -17.917583465576172, -5.599366664886475, 12.488959312438965, 38.09766387939453, 432.6146240234375, 127.51616668701172, 0.99755859375, 0.2060546875, -0.293701171875
520, 2173683655, -11.153129577636719, -4.7751030921936035, 15.344488143920898, 36.2164306640625, 372.581787109375, 121.35099029541016, 1.021484375, 0.16162109375, -0.182861328125
521, 2173700322, -8.37990665435791, -4.215356349945068, 15.730085372924805, 19.887134552001953, 233.5988311767578, 90.32361602783203, 1.02294921875, 0.13232421875, -0.1064453125
522, 2173716989, -27.31635093688965, -2.5680861473083496, 28.573530197143555, -28.13142967224121, 84.80256652832031, 64.55419921875, 1.020751953125, 0.108642578125, -0.07080078125
523, 2173733656, -8.322799682617188, -7.742556571960449, 18.561800003051758, -60.09624481201172, -139.1440887451172, -30.565032958984375, 1.00634765625, 0.11767578125, -0.107177734375
524, 2173750323, 0.3029595613479614, -5.834558486938477, 8.118950843811035, 2.5940823554992676, -196.14019775390625, -17.14872932434082, 0.98828125, 0.129638671875, -0.167724609375
525, 2173766990, 0.859081506729126, -3.278245687484741, 5.025225639343262, 49.46631622314453, -182.45635986328125, 5.849698543548584, 0.9716796875, 0.130615234375, -0.22900390625
526, 2173783657, -1.1908495426177979, -3.5171916484832764, 6.602294921875, 62.834468841552734, -186.9909210205078, -0.7559217214584351, 0.9521484375, 0.13671875, -0.28466796875
527, 2173800324, -6.009576797485352, -4.279160499572754, 9.742242813110352, 59.6362190246582, -238.0441436767578, -32.041812896728516, 0.92626953125, 0.146728515625, -0.35400390625
528, 2173816991, -6.567038059234619, -3.8812203407287598, 8.695272445678711, 49.27118682861328, -309.0965576171875, -72.53448486328125, 0.884521484375, 0.1650390625, -0.44482421875
529, 2173833658, -5.4624409675598145, -3.0928001403808594, 5.314866542816162, 49.56375503540039, -346.4916076660156, -87.4962158203125, 0.819091796875, 0.187255859375, -0.548095703125
530, 2173850325, -6.301239013671875, -2.194265365600586, 4.808770656585693, 49.39067840576172, -346.8681640625, -75.40387725830078, 0.733154296875, 0.19580078125, -0.640625
531, 2173866992, -7.824287414550781, -0.909304678440094, 6.380863666534424, 30.489025115966797, -337.47613525390625, -62.92686080932617, 0.635986328125, 0.192626953125, -0.70947265625
532, 2173883659, -8.689327239990234, -1.6368159055709839, 7.158194541931152, -4.542396545410156, -341.5143737792969, -62.613895416259766, 0.538330078125, 0.19091796875, -0.759521484375
533, 2173900326, -10.574256896972656, -3.8082447052001953, 7.720336437225342, -25.770732879638672, -349.0718078613281, -74.44482421875, 0.43505859375, 0.190185546875, -0.796630859375
534, 2173916993, -10.489545822143555, -3.06838321685791, 7.150028228759766, -51.599693298339844, -345.70989990234375, -104.21183776855469, 0.329833984375, 0.194091796875, -0.8125
535, 2173933660, -9.735818862915039, 0.10523790121078491, 6.072368144989014, -83.66244506835938, -309.0324401855469, -116.2531509399414, 0.234619140625, 0.201416015625, -0.805419921875
536, 2173950327, -12.993427276611328, 0.43430817127227783, 9.606239318847656, -112.97493743896484, -265.11676025390625, -86.38671875, 0.170654296875, 0.207763671875, -0.78515625
537, 2173966994, -18.962255477905273, -2.4058632850646973, 14.155719757080078, -135.26754760742188, -279.0562438964844, -68.03218078613281, 0.12158203125, 0.218994140625, -0.76708984375
538, 2173983661, -20.852888107299805, -4.252243995666504, 11.30431842803955, -108.95189666748047, -310.5886535644531, -77.22901153564453, 0.072021484375, 0.234619140625, -0.76025390625
539, 2174000328, -20.575977325439453, -1.7537221908569336, 7.716999053955078, -68.7550048828125, -304.3455810546875, -85.12187957763672, 0.018798828125, 0.24169921875, -0.75341796875
540, 2174016995, -22.911348342895508, 0.6238148212432861, 6.210627555847168, -57.864559173583984, -286.4653625488281, -82.24911499023438, -0.031005859375, 0.2431640625, -0.75244140625
541, 2174033662, -22.809038162231445, 0.7630218267440796, 2.213731050491333, -47.8538818359375, -267.54327392578125, -63.86531066894531, -0.078369140625, 0.248779296875, -0.752685546875
542, 2174050329, -21.081090927124023, 2.7364883422851562, -1.9121336936950684, -36.08820724487305, -225.88632202148438, -42.777408599853516, -0.12548828125, 0.25732421875, -0.75439453125
543, 2174066996, -21.708921432495117, 4.645185947418213, -3.784850835800171, -37.1480827331543, -165.48049926757812, -38.071929931640625, -0.165283203125, 0.26220703125, -0.753662109375
544, 2174083663, -22.329030990600586, 6.758023262023926, -6.4295430183410645, -24.75357437133789, -107.1355972290039, -31.203380584716797, -0.18798828125, 0.267333984375, -0.753173828125
545, 2174100330, -20.76471519470215, 5.627096176147461, -9.7432861328125, 4.957236289978027, -32.169761657714844, -8.142220497131348, -0.202392578125, 0.268310546875, -0.757080078125
546, 2174116997, -10.976993560791016, 3.591452121734619, -7.777980804443359, 77.21314239501953, 87.12763214111328, 65.90943145751953, -0.182861328125, 0.25634765625, -0.764892578125
547, 2174133664, 5.936929702758789, -8.146146774291992, 20.663616180419922, -11.974161148071289, 137.24423217773438, 16.974611282348633, -0.149658203125, 0.249755859375, -0.77490234375
548, 2174150331, -2.4714505672454834, -10.078075408935547, 7.101683139801025, -30.315675735473633, 198.22555541992188, 20.21929931640625, -0.10009765625, 0.25830078125, -0.782958984375
549, 2174166998, -9.764847755432129, 10.404916763305664, 13.249021530151367, -44.40989685058594, 216.61219787597656, 27.675491333007812, -0.04541015625, 0.268310546875, -0.789306640625
550, 2174183665, -9.349869728088379, 1.8904786109924316, 14.073370933532715, -45.929325103759766, 174.489990234375, 50.0307731628418, 0.00341796875, 0.275390625, -0.78857421875
551, 2174200332, -7.051803112030029, -12.055940628051758, 6.286684036254883, -58.91462326049805, 177.12274169921875, 23.225828170776367, 0.050048828125, 0.288330078125, -0.78515625
552, 2174216999, -7.947254180908203, -6.25695276260376, 10.682766914367676, -29.77256202697754, 166.73150634765625, 22.652652740478516, 0.093994140625, 0.297607421875, -0.77685546875
553, 2174233666, -12.152329444885254, -5.059971809387207, 10.718448638916016, 52.9865608215332, 92.77582550048828, 44.06163787841797, 0.12646484375, 0.284912109375, -0.778076171875
554, 2174250333, -5.6761860847473145, -1.9480527639389038, 10.078508377075195, 45.030277252197266, 66.55667877197266, 18.689838409423828, 0.148193359375, 0.27294921875, -0.780517578125
555, 2174267000, -6.070611953735352, -2.591797113418579, 9.603068351745605, 33.41208267211914, 37.59661102294922, 12.19841194152832, 0.16064453125, 0.26513671875, -0.78076171875
556, 2174283667, -5.337446212768555, -2.7757062911987305, 8.830314636230469, 29.526905059814453, 18.59088134765625, 13.039483070373535, 0.165283203125, 0.257080078125, -0.783203125
557, 2174300334, -4.8982062339782715, -2.797022819519043, 8.391641616821289, 25.935928344726562, 15.333677291870117, 13.679039001464844, 0.17138671875, 0.25, -0.780517578125
558, 2174317001, -5.246790409088135, -2.43703031539917, 8.481453895568848, 28.38538932800293, 9.847933769226074, 13.02763557434082, 0.177978515625, 0.244140625, -0.786865234375
559, 2174333668, -4.853791236877441, -2.429623603820801, 8.542712211608887, 27.600242614746094, 5.5883378982543945, 11.146157264709473, 0.177734375, 0.236083984375, -0.78662109375
560, 2174350335, -4.776054859161377, -2.767728090286255, 8.123010635375977, 26.865440368652344, 4.678936004638672, 11.2471923828125, 0.18212890625, 0.22802734375, -0.78759765625
561, 2174367002, -4.549452781677246, -2.656480073928833, 8.016647338867188, 29.599693298339844, 0.6739559769630432, 14.79056453704834, 0.183349609375, 0.222412109375, -0.7900390625
562, 2174383669, -4.789661884307861, -3.0141427516937256, 8.074166297912598, 29.402034759521484, -6.9617743492126465, 19.307998657226562, 0.18359375, 0.21240234375, -0.79443359375
563, 2174400336, -5.220201015472412, -2.5935981273651123, 8.16686725616455, 23.44667625427246, -12.29488468170166, 18.530492782592773, 0.181640625, 0.2060546875, -0.79443359375
564, 2174417003, -5.056986331939697, -1.813809871673584, 8.592940330505371, 18.733430862426758, -8.937775611877441, 14.073472023010254, 0.1826171875, 0.201416015625, -0.79833984375
565, 2174433670, -4.943240642547607, -1.8469315767288208, 8.28476619720459, 16.204238891601562, -6.277848720550537, 10.314115524291992, 0.18017578125, 0.197265625, -0.79833984375
566, 2174450337, -4.730937480926514, -2.0095720291137695, 8.259995460510254, 16.70625877380371, -6.715940475463867, 9.065185546875, 0.182373046875, 0.18994140625, -0.79931640625
567, 2174467004, -4.599038600921631, -2.3270013332366943, 8.243916511535645, 16.730003356933594, -7.357182025909424, 9.781292915344238, 0.180419921875, 0.188232421875, -0.80126953125
568, 2174483671, -4.53516960144043, -2.394662857055664, 8.127429962158203, 21.378707885742188, -10.863560676574707, 14.641436576843262, 0.178955078125, 0.183349609375, -0.80078125
569, 2174500338, -4.71428918838501, -2.266615152359009, 8.20180606842041, 26.86719512939453, -13.517417907714844, 19.514911651611328, 0.177490234375, 0.17529296875, -0.80126953125
570, 2174517005, -4.602682113647461, -1.716068148612976, 8.474748611450195, 18.02334976196289, -5.696622371673584, 16.81318473815918, 0.17578125, 0.168212890625, -0.8046875
571, 2174533672, -4.647148132324219, -1.4769182205200195, 8.519336700439453, 6.336784839630127, 7.3863935470581055, 12.527135848999023, 0.1787109375, 0.164794921875, -0.80615234375
572, 2174550339, -4.594065189361572, -1.5162822008132935, 8.456513404846191, -0.422097772359848, 17.144975662231445, 7.967575550079346, 0.183349609375, 0.163818359375, -0.80908203125
573, 2174567006, -4.514499664306641, -1.7310808897018433, 8.408405303955078, -2.6835849285125732, 27.326820373535156, 6.482769012451172, 0.188720703125, 0.164306640625, -0.803955078125
574, 2174583673, -4.4121928215026855, -1.6566216945648193, 8.420998573303223, -4.833810806274414, 39.7708854675293, 7.505749702453613, 0.19677734375, 0.165771484375, -0.80224609375
575, 2174600340, -4.30026388168335, -1.4192349910736084, 8.45712661743164, -12.316027641296387, 61.75727462768555, 8.776296615600586, 0.210693359375, 0.16796875, -0.799072265625
576, 2174617007, -4.43237829208374, -1.3885713815689087, 8.349533081054688, -18.167356491088867, 87.98062133789062, 6.3236236572265625, 0.23046875, 0.171142578125, -0.793212890625
577, 2174633674, -4.7176408767700195, -1.5401201248168945, 8.102836608886719, -25.381052017211914, 120.22737121582031, 3.056135416030884, 0.25634765625, 0.17626953125, -0.78369140625
578, 2174650341, -5.110962390899658, -1.9444808959960938, 7.988500595092773, -25.041667938232422, 148.59909057617188, 3.103264808654785, 0.291748046875, 0.1787109375, -0.7734375
579, 2174667008, -5.497459888458252, -2.2001891136169434, 7.837846755981445, -17.817228317260742, 172.02122497558594, 8.241275787353516, 0.326904296875, 0.1875, -0.75732421875
580, 2174683675, -5.535884380340576, -1.990242838859558, 7.735090255737305, -13.56356143951416, 196.05198669433594, 13.693955421447754, 0.370361328125, 0.1884765625, -0.73828125
581, 2174700342, -5.245711326599121, -1.7650834321975708, 7.819058418273926, -11.858957290649414, 228.1823272705078, 18.300111770629883, 0.416259765625, 0.187255859375, -0.711181640625
582, 2174717009, -5.49050760269165, -1.676628828048706, 7.896330833435059, -12.1389799118042, 277.1400146484375, 21.143075942993164, 0.472900390625, 0.1865234375, -0.675048828125
583, 2174733676, -6.087336540222168, -2.3048341274261475, 7.242758274078369, -3.164111375808716, 356.6387939453125, 31.25224494934082, 0.537841796875, 0.18408203125, -0.62646484375
584, 2174750343, -7.159853935241699, -2.743739604949951, 7.872859954833984, -0.48367777466773987, 460.7432556152344, 49.833290100097656, 0.6181640625, 0.177001953125, -0.553955078125
585, 2174767010, -10.961030006408691, -3.480032444000244, 11.749906539916992, -9.973540306091309, 532.9664916992188, 86.49143981933594, 0.69970703125, 0.1640625, -0.453369140625
586, 2174783677, -20.03307342529297, -0.762652575969696, 11.174277305603027, -28.128732681274414, 519.2388305664062, 93.73421478271484, 0.7685546875, 0.149658203125, -0.342529296875
587, 2174800344, -19.392507553100586, -5.942263126373291, 10.543927192687988, -25.98349380493164, 476.1366882324219, 89.94942474365234, 0.816650390625, 0.13134765625, -0.236083984375
588, 2174817011, -17.216773986816406, -5.830179691314697, 12.74008846282959, -8.873783111572266, 432.17694091796875, 109.37151336669922, 0.847900390625, 0.108154296875, -0.137451171875
589, 2174833678, -10.116924285888672, -4.574999809265137, 16.253036499023438, -1.2932401895523071, 344.8136901855469, 91.16033935546875, 0.861572265625, 0.0849609375, -0.056640625
590, 2174850345, -16.667875289916992, -1.953750491142273, 18.906131744384766, -59.97924041748047, 172.0852813720703, 81.80828094482422, 0.869384765625, 0.0673828125, -0.020263671875
591, 2174867012, -25.278141021728516, -1.937429428100586, 29.593826293945312, -92.38478088378906, -30.71708869934082, 77.30635070800781, 0.8681640625, 0.045166015625, -0.027099609375
592, 2174883679, -5.923008441925049, -7.7764387130737305, 15.684955596923828, -67.6553726196289, -247.68162536621094, 29.19664192199707, 0.850830078125, 0.038330078125, -0.0986328125
593, 2174900346, -0.25882047414779663, -4.34163761138916, 5.9887566566467285, 11.588748931884766, -283.84600830078125, 73.52568054199219, 0.82177734375, 0.01953125, -0.175048828125
594, 2174917013, 1.129011631011963, -2.202237367630005, 3.3164124488830566, 67.66728210449219, -253.6557159423828, 106.32582092285156, 0.785888671875, -0.015380859375, -0.233642578125
595, 2174933680, -2.190122127532959, -1.853326678276062, 6.475654125213623, 45.07118606567383, -245.7093048095703, 81.80986022949219, 0.74853515625, -0.048828125, -0.274169921875
596, 2174950347, -6.0285468101501465, -4.367969036102295, 8.037158012390137, -0.49340400099754333, -285.1710205078125, 14.580102920532227, 0.71337890625, -0.063720703125, -0.310546875
597, 2174967014, -6.316493988037109, -6.487111568450928, 6.1047773361206055, 10.188777923583984, -327.3806457519531, -39.044410705566406, 0.68017578125, -0.06787109375, -0.348388671875
598, 2174983681, -6.835576057434082, -5.317086219787598, 4.978723049163818, 53.19900131225586, -343.6141052246094, -67.84133911132812, 0.662841796875, -0.0703125, -0.38818359375
599, 2175000348, -8.524497032165527, -2.5077641010284424, 6.433958053588867, 60.891136169433594, -352.6994934082031, -83.398193359375, 0.66064453125, -0.068359375, -0.44091796875
600, 2175017015, -8.393714904785156, -0.7938279509544373, 6.854657173156738, 28.561107635498047, -366.4091491699219, -93.75021362304688, 0.6650390625, -0.052978515625, -0.52734375
601, 2175033682, -7.741858005523682, -1.115372657775879, 5.289877891540527, -0.8533632755279541, -358.6473388671875, -86.04594421386719, 0.640625, -0.020751953125, -0.653564453125
602, 2175050349, -9.728118896484375, -1.5545324087142944, 7.034743309020996, -30.50495719909668, -334.0988464355469, -73.98574829101562, 0.55126953125, 0.02392578125, -0.7822265625
603, 2175067016, -12.492044448852539, -1.14836847782135, 8.840182304382324, -73.7233657836914, -328.5257263183594, -78.65380859375, 0.405517578125, 0.070556640625, -0.849609375
604, 2175083683, -13.462390899658203, -2.3600358963012695, 8.68167781829834, -88.06534576416016, -319.1714782714844, -75.84940338134766, 0.25927734375, 0.111572265625, -0.837890625
605, 2175100350, -15.392817497253418, -2.2345128059387207, 12.204970359802246, -83.50218200683594, -301.78887939453125, -59.57077407836914, 0.165771484375, 0.127685546875, -0.78662109375
606, 2175117017, -19.251190185546875, 1.1741973161697388, 15.375802040100098, -117.33351135253906, -321.1490478515625, -55.14191818237305, 0.128173828125, 0.140869140625, -0.755859375
607, 2175133684, -20.72374153137207, 1.0190308094024658, 11.533517837524414, -147.19500732421875, -342.6918029785156, -51.33077621459961, 0.095458984375, 0.163818359375, -0.76318359375
608, 2175150351, -22.541942596435547, 0.2214212417602539, 8.0087251663208, -130.58206176757812, -330.6142883300781, -42.78004455566406, 0.044677734375, 0.18896484375, -0.784912109375
609, 2175167018, -24.65168571472168, -0.18001188337802887, 3.4378466606140137, -109.60990142822266, -303.3981628417969, -43.211063385009766, -0.015380859375, 0.210205078125, -0.802001953125
610, 2175183685, -23.709331512451172, 0.0125039704144001, -2.7178807258605957, -94.6900863647461, -244.72518920898438, -50.96750259399414, -0.07861328125, 0.23193359375, -0.81494140625
611, 2175200352, -22.690126419067383, 4.190462112426758, -5.960547924041748, -87.22760009765625, -165.97540283203125, -58.105751037597656, -0.128662109375, 0.2470703125, -0.820068359375
612, 2175217019, -23.890796661376953, 6.605016708374023, -9.433494567871094, -96.61773681640625, -90.40027618408203, -52.105064392089844, -0.160888671875, 0.265869140625, -0.81640625
613, 2175233686, -23.90327262878418, 2.042963981628418, -13.267014503479004, -46.14449691772461, -1.9085441827774048, -42.909053802490234, -0.173583984375, 0.2822265625, -0.815673828125
614, 2175250353, -13.526806831359863, 2.2098851203918457, -7.326364040374756, 112.02342224121094, 103.77418518066406, 12.347025871276855, -0.15087890625, 0.262451171875, -0.83056640625
615, 2175267020, 7.738731861114502, -1.3440279960632324, 23.061769485473633, 16.134883880615234, 152.3331756591797, -22.309431076049805, -0.1142578125, 0.250732421875, -0.84130859375
616, 2175283687, -4.833211898803711, 5.81329870223999, 10.062725067138672, 14.557977676391602, 191.89349365234375, 50.67957305908203, -0.0634765625, 0.24853515625, -0.851318359375
617, 2175300354, -9.979040145874023, 8.52449893951416, 13.96170425415039, -31.79351234436035, 210.83493041992188, 41.78495788574219, -0.001708984375, 0.254638671875, -0.852783203125
618, 2175317021, -10.559720039367676, -4.748828411102295, 14.181025505065918, -44.33896255493164, 156.36231994628906, 39.15261459350586, 0.047119140625, 0.267333984375, -0.850830078125
619, 2175333688, -5.490945339202881, -10.706016540527344, 5.544313430786133, -27.839296340942383, 148.96771240234375, 26.893503189086914, 0.08935546875, 0.276123046875, -0.847900390625
620, 2175350355, -5.1539387702941895, -4.963895320892334, 7.689920425415039, 7.79796838760376, 136.87261962890625, 39.854820251464844, 0.127685546875, 0.277099609375, -0.84912109375
621, 2175367022, -10.646803855895996, -5.472565650939941, 10.840988159179688, 48.836212158203125, 112.20491790771484, 52.75279235839844, 0.167724609375, 0.265869140625, -0.845458984375
622, 2175383689, -6.103720188140869, -1.37604820728302, 9.461243629455566, 90.71334838867188, 67.05542755126953, 48.23899841308594, 0.18896484375, 0.242431640625, -0.84521484375
623, 2175400356, -7.5301337242126465, -0.5660640597343445, 12.141440391540527, 76.5539779663086, 35.427459716796875, 34.280635833740234, 0.209228515625, 0.220947265625, -0.8486328125
624, 2175417023, -5.730821132659912, -2.687709093093872, 9.424906730651855, 55.94264221191406, 14.151740074157715, 25.556798934936523, 0.216064453125, 0.202880859375, -0.85302734375
625, 2175433690, -5.219625473022461, -2.3163115978240967, 8.952192306518555, 31.874481201171875, 6.984240531921387, 19.32912254333496, 0.2197265625, 0.19140625, -0.85791015625
626, 2175450357, -5.631864070892334, -1.6645723581314087, 9.057055473327637, 1.9122511148452759, 5.867992877960205, 8.56435775756836, 0.223876953125, 0.187744140625, -0.855712890625
627, 2175467024, -5.01535177230835, -1.7706209421157837, 8.518166542053223, 0.032316822558641434, 1.6674572229385376, 3.2480809688568115, 0.224365234375, 0.189208984375, -0.854736328125
628, 2175483691, -4.5525946617126465, -2.214672327041626, 8.47033405303955, 7.829913139343262, -1.4566715955734253, 4.813645839691162, 0.22314453125, 0.189453125, -0.857177734375
629, 2175500358, -4.5357890129089355, -2.2476983070373535, 8.211852073669434, 15.134964942932129, -4.908090114593506, 8.389686584472656, 0.224365234375, 0.181396484375, -0.856201171875
630, 2175517025, -4.75448751449585, -2.134577512741089, 8.296259880065918, 28.717418670654297, -8.62228012084961, 14.855043411254883, 0.225341796875, 0.17578125, -0.859130859375
631, 2175533692, -4.8824238777160645, -2.0058984756469727, 8.415282249450684, 28.089553833007812, -11.587769508361816, 15.395874977111816, 0.2216796875, 0.166748046875, -0.861572265625
632, 2175550359, -4.75602912902832, -1.6671173572540283, 8.48360538482666, 20.81891632080078, -10.721207618713379, 11.97581672668457, 0.22216796875, 0.16162109375, -0.862548828125
633, 2175567026, -4.613622665405273, -1.6764622926712036, 8.431641578674316, 15.111516952514648, -7.843271255493164, 8.640486717224121, 0.2177734375, 0.1572265625, -0.864990234375
634, 2175583693, -4.525387763977051, -1.8191288709640503, 8.40789794921875, 13.976505279541016, -6.694167137145996, 7.677004814147949, 0.21728515625, 0.153076171875, -0.8662109375
635, 2175600360, -4.560304164886475, -1.8437288999557495, 8.427627563476562, 13.002256393432617, -8.075834274291992, 8.830071449279785, 0.217041015625, 0.1484375, -0.866455078125
636, 2175617027, -4.4731974601745605, -1.5628578662872314, 8.372295379638672, 10.367473602294922, -7.188812732696533, 9.429780006408691, 0.215087890625, 0.14404296875, -0.86767578125
637, 2175633694, -4.493119716644287, -1.3710060119628906, 8.498960494995117, 7.142175197601318, -2.7784414291381836, 8.572722434997559, 0.215576171875, 0.1416015625, -0.866455078125
638, 2175650361, -4.474668502807617, -1.3744889497756958, 8.478665351867676, 3.6701467037200928, 0.9055883288383484, 7.04465913772583, 0.213134765625, 0.137451171875, -0.866943359375
639, 2175667028, -4.336755752563477, -1.5382122993469238, 8.48952579498291, 1.3641773462295532, 5.558834075927734, 6.151998043060303, 0.218505859375, 0.138916015625, -0.867431640625
640, 2175683695, -4.253073692321777, -1.6029325723648071, 8.504670143127441, 1.6556222438812256, 12.586530685424805, 7.627854824066162, 0.220947265625, 0.140625, -0.867431640625
641, 2175700362, -4.564184188842773, -1.3083512783050537, 8.513761520385742, -3.0913305282592773, 21.846078872680664, 7.063758373260498, 0.22509765625, 0.136962890625, -0.86669921875
642, 2175717029, -4.52936315536499, -1.1521000862121582, 8.562604904174805, -8.595346450805664, 31.66478729248047, 3.862172842025757, 0.234619140625, 0.1396484375, -0.864013671875
643, 2175733696, -3.9237847328186035, -0.8980942964553833, 8.622309684753418, -13.998600959777832, 48.13882827758789, 1.3350927829742432, 0.245361328125, 0.1416015625, -0.85791015625
644, 2175750363, -4.361039161682129, -1.3993169069290161, 8.42379093170166, -22.212522506713867, 73.29560089111328, 1.2239986658096313, 0.263671875, 0.1484375, -0.85498046875
645, 2175767030, -4.50270414352417, -1.462270975112915, 8.326762199401855, -23.915847778320312, 98.16790008544922, 1.6615235805511475, 0.28369140625, 0.152099609375, -0.845703125
646, 2175783697, -4.933450222015381, -1.5100746154785156, 8.033019065856934, -24.630159378051758, 123.20773315429688, 1.1234164237976074, 0.3154296875, 0.160888671875, -0.8349609375
647, 2175800364, -5.263232231140137, -1.4640438556671143, 7.975144386291504, -24.86210823059082, 148.91708374023438, -1.6240910291671753, 0.349365234375, 0.164794921875, -0.82275390625
648, 2175817031, -5.264693737030029, -1.930271029472351, 7.983889102935791, -19.411237716674805, 171.5074005126953, 0.19715522229671478, 0.3896484375, 0.16943359375, -0.802001953125
649, 2175833698, -5.14417839050293, -2.297290563583374, 7.887940406799316, -9.685863494873047, 199.53262329101562, 11.19331169128418, 0.433349609375, 0.17041015625, -0.780517578125
650, 2175850365, -5.600306034088135, -1.8825067281723022, 7.772162437438965, -5.792208194732666, 228.3116912841797, 21.93050765991211, 0.48291015625, 0.168701171875, -0.75048828125
651, 2175867032, -5.700928688049316, -1.9784661531448364, 7.340409755706787, -1.4240821599960327, 271.37176513671875, 31.820878982543945, 0.541748046875, 0.167724609375, -0.714599609375
652, 2175883699, -6.142210483551025, -2.2383968830108643, 7.007498264312744, 4.76893949508667, 338.2140197753906, 47.47545623779297, 0.608154296875, 0.1591796875, -0.6640625
