sep=,
DeviceTag:,B,,,,,,,,,,,,,,,,,
FirmwareVersion:,2.2.1,,,,,,,,,,,,,,,,,
AppVersion:,2022.0.1,,,,,,,,,,,,,,,,,
SyncStatus:,Synced,,,,,,,,,,,,,,,,,
OutputRate:,60Hz,,,,,,,,,,,,,,,,,
FilterProfile:,General,,,,,,,,,,,,,,,,,
Measurement Mode:,Inertial Mode - Rate quantities (with mag),,,,,,,,,,,,,,,,,
StartTime:,2022-08-05 15:19:14.527 +0300,,,,,,,,,,,,,,,,,
© Xsens Technologies B. V. 2005-2022,,,,,,,,,,,,,,,,,,,

PacketCounter,SampleTimeFine,Acc_X,Acc_Y,Acc_Z,Gyr_X,Gyr_Y,Gyr_Z,Mag_X,Mag_Y,Mag_Z
1, 2496573446, -4.607287883758545, -1.6602585315704346, 8.334980010986328, -0.25588366389274597, -0.6125660538673401, -0.9678270220756531, -0.028564453125, 0.14990234375, -0.81689453125
2, 2496590113, -4.603636741638184, -1.6496466398239136, 8.327046394348145, -0.26972731947898865, -0.5888103246688843, -1.0849155187606812, -0.027587890625, 0.15087890625, -0.81689453125
3, 2496606780, -4.615503311157227, -1.6668380498886108, 8.360703468322754, -0.25095322728157043, -0.6083272695541382, -1.0442169904708862, -0.029052734375, 0.15283203125, -0.8154296875
4, 2496623447, -4.608785629272461, -1.658308744430542, 8.347787857055664, -0.17652273178100586, -0.6021417379379272, -0.9653170704841614, -0.028076171875, 0.15185546875, -0.812744140625
5, 2496640114, -4.619731426239014, -1.6476378440856934, 8.369078636169434, -0.2341000884771347, -0.7840688824653625, -1.059328556060791, -0.026611328125, 0.1513671875, -0.814697265625
6, 2496656781, -4.6064133644104, -1.6664378643035889, 8.349431991577148, -0.23215351998806, -0.6970752477645874, -1.0802028179168701, -0.029052734375, 0.15087890625, -0.814453125
7, 2496673448, -4.600223541259766, -1.6661579608917236, 8.33442211151123, -0.2056315690279007, -0.6613839268684387, -0.9642030000686646, -0.029052734375, 0.1513671875, -0.81396484375
8, 2496690115, -4.619808197021484, -1.6453876495361328, 8.362896919250488, -0.23851972818374634, -0.6841946244239807, -1.0141571760177612, -0.027587890625, 0.15087890625, -0.8154296875
9, 2496706782, -4.610654830932617, -1.6490850448608398, 8.33498764038086, -0.1912500411272049, -0.7460339665412903, -1.0642333030700684, -0.028564453125, 0.15185546875, -0.81689453125
10, 2496723449, -4.59712028503418, -1.6542737483978271, 8.342713356018066, -0.2094222456216812, -0.538763165473938, -1.0718914270401, -0.029541015625, 0.15087890625, -0.81591796875
11, 2496740116, -4.600768566131592, -1.6596444845199585, 8.355504035949707, -0.19091707468032837, -0.6896860003471375, -1.0168371200561523, -0.029052734375, 0.149658203125, -0.812744140625
12, 2496756783, -4.612173080444336, -1.6507490873336792, 8.332107543945312, -0.23979893326759338, -0.7479677200317383, -0.9694535732269287, -0.027587890625, 0.150390625, -0.814208984375
13, 2496773450, -4.602434158325195, -1.670488953590393, 8.340911865234375, -0.1739102154970169, -0.7333683371543884, -1.037506341934204, -0.028076171875, 0.147705078125, -0.81591796875
14, 2496790117, -4.609285831451416, -1.6662768125534058, 8.35910415649414, -0.17814910411834717, -0.7698536515235901, -1.0982085466384888, -0.027587890625, 0.1513671875, -0.81591796875
15, 2496806784, -4.6017913818359375, -1.654926061630249, 8.342164039611816, -0.2504153847694397, -0.7744511961936951, -1.0380828380584717, -0.028076171875, 0.15087890625, -0.818359375
16, 2496823451, -4.62188720703125, -1.6595237255096436, 8.341127395629883, -0.14313656091690063, -0.7192814946174622, -1.0728520154953003, -0.028564453125, 0.14990234375, -0.81591796875
17, 2496840118, -4.586841106414795, -1.666428804397583, 8.346482276916504, -0.1719892919063568, -0.852044939994812, -1.1300067901611328, -0.028076171875, 0.1533203125, -0.8154296875
18, 2496856785, -4.592251777648926, -1.6441073417663574, 8.362289428710938, -0.10583166778087616, -0.8721380233764648, -1.0040818452835083, -0.029052734375, 0.15185546875, -0.814453125
19, 2496873452, -4.596796989440918, -1.6709530353546143, 8.351775169372559, -0.2150058150291443, -0.7308071851730347, -1.0969536304473877, -0.027587890625, 0.15185546875, -0.814208984375
20, 2496890119, -4.602806568145752, -1.6634809970855713, 8.361268043518066, -0.09488224983215332, -0.776897132396698, -1.0324863195419312, -0.029052734375, 0.15087890625, -0.814453125
21, 2496906786, -4.594195365905762, -1.651628851890564, 8.345749855041504, -0.1633962094783783, -0.8209382891654968, -0.9832203388214111, -0.031005859375, 0.1533203125, -0.8154296875
22, 2496923453, -4.59305477142334, -1.6468325853347778, 8.370224952697754, -0.20191770792007446, -0.7200498580932617, -0.9515246748924255, -0.029052734375, 0.15185546875, -0.81494140625
23, 2496940120, -4.596215724945068, -1.6615806818008423, 8.351529121398926, -0.22121687233448029, -0.6940656900405884, -1.0232529640197754, -0.029052734375, 0.149658203125, -0.814453125
24, 2496956787, -4.594182014465332, -1.6573596000671387, 8.3432035446167, -0.1737053394317627, -0.7103298306465149, -0.9842961430549622, -0.027099609375, 0.149169921875, -0.815185546875
25, 2496973454, -4.592095851898193, -1.6583000421524048, 8.351639747619629, -0.2722629904747009, -0.7120970487594604, -1.0218442678451538, -0.029541015625, 0.15234375, -0.814453125
26, 2496990121, -4.593696594238281, -1.673770546913147, 8.340546607971191, -0.16471527516841888, -0.6865484118461609, -0.9974225759506226, -0.029052734375, 0.150390625, -0.81396484375
27, 2497006788, -4.5888752937316895, -1.6610876321792603, 8.372445106506348, -0.16561169922351837, -0.6633176803588867, -0.8896827101707458, -0.029052734375, 0.15185546875, -0.81787109375
28, 2497023455, -4.58951473236084, -1.6629106998443604, 8.384526252746582, -0.18653729557991028, -0.6626261472702026, -0.9153595566749573, -0.029052734375, 0.150390625, -0.812255859375
29, 2497040122, -4.601378440856934, -1.658300757408142, 8.347126007080078, -0.18725444376468658, -0.5764521956443787, -0.9655218720436096, -0.029052734375, 0.15087890625, -0.813232421875
30, 2497056789, -4.59879732131958, -1.6566648483276367, 8.338364601135254, -0.13773229718208313, -0.4994860291481018, -0.8806158304214478, -0.028564453125, 0.15185546875, -0.81494140625
31, 2497073456, -4.599794387817383, -1.6559679508209229, 8.371809959411621, -0.08806926012039185, -0.4552016854286194, -0.8923335671424866, -0.029052734375, 0.150390625, -0.81494140625
32, 2497090123, -4.6020355224609375, -1.6542142629623413, 8.381911277770996, -0.13477401435375214, -0.5751330852508545, -0.9308807253837585, -0.028076171875, 0.15185546875, -0.8154296875
33, 2497106790, -4.596067428588867, -1.668657898902893, 8.384350776672363, -0.14610764384269714, -0.562608540058136, -1.04887855052948, -0.028076171875, 0.15185546875, -0.8154296875
34, 2497123457, -4.587563991546631, -1.6579878330230713, 8.374031066894531, -0.147798091173172, -0.5497381687164307, -0.9928891658782959, -0.029052734375, 0.1513671875, -0.81494140625
35, 2497140124, -4.590794563293457, -1.6662975549697876, 8.346324920654297, -0.1541244238615036, -0.4703516364097595, -0.9633577466011047, -0.029541015625, 0.150146484375, -0.81396484375
36, 2497156791, -4.604331016540527, -1.649155616760254, 8.3567476272583, -0.13522224128246307, -0.564094066619873, -0.9380267262458801, -0.027099609375, 0.1513671875, -0.815185546875
37, 2497173458, -4.603339672088623, -1.6607085466384888, 8.33651351928711, -0.0834333673119545, -0.608160674571991, -0.9042308330535889, -0.026611328125, 0.15087890625, -0.813720703125
38, 2497190125, -4.594215393066406, -1.6623479127883911, 8.377192497253418, -0.19016148149967194, -0.5185163021087646, -0.8865580558776855, -0.029052734375, 0.15087890625, -0.81396484375
39, 2497206792, -4.597545623779297, -1.64695405960083, 8.369797706604004, -0.09818628430366516, -0.46823856234550476, -0.9208022356033325, -0.029541015625, 0.15234375, -0.8154296875
40, 2497223459, -4.598396301269531, -1.655165195465088, 8.379744529724121, -0.12752562761306763, -0.5461395978927612, -0.9391791820526123, -0.028076171875, 0.150390625, -0.813232421875
41, 2497240126, -4.612349987030029, -1.6562565565109253, 8.320657730102539, -0.08219114691019058, -0.4913924038410187, -0.9451724886894226, -0.027587890625, 0.1513671875, -0.814697265625
42, 2497256793, -4.595212459564209, -1.6610844135284424, 8.349248886108398, -0.08521856367588043, -0.4767577648162842, -0.8923870921134949, -0.029541015625, 0.150390625, -0.81396484375
43, 2497273460, -4.5973639488220215, -1.6496846675872803, 8.361246109008789, -0.1160767450928688, -0.42231497168540955, -0.8799370527267456, -0.028076171875, 0.147705078125, -0.813232421875
44, 2497290127, -4.596960067749023, -1.6458215713500977, 8.370219230651855, -0.15093563497066498, -0.5329746603965759, -0.9728855490684509, -0.028076171875, 0.15185546875, -0.81591796875
45, 2497306794, -4.587780952453613, -1.6433721780776978, 8.369155883789062, -0.1083161011338234, -0.45699456334114075, -0.9243494868278503, -0.027099609375, 0.15185546875, -0.8173828125
46, 2497323461, -4.59340238571167, -1.6487030982971191, 8.377963066101074, -0.07576236128807068, -0.46255257725715637, -0.9120041131973267, -0.029052734375, 0.15087890625, -0.81494140625
47, 2497340128, -4.598445892333984, -1.668845772743225, 8.362156867980957, -0.11018583923578262, -0.5329875349998474, -0.9805951118469238, -0.030517578125, 0.1513671875, -0.814453125
48, 2497356795, -4.603017807006836, -1.6505792140960693, 8.35511302947998, -0.16057880222797394, -0.544474720954895, -0.9388590455055237, -0.029052734375, 0.150146484375, -0.814208984375
49, 2497373462, -4.583430290222168, -1.6411710977554321, 8.343746185302734, -0.0560021698474884, -0.4856552183628082, -0.9451469779014587, -0.030029296875, 0.15087890625, -0.8154296875
50, 2497390129, -4.598278045654297, -1.6556159257888794, 8.363666534423828, -0.22160105407238007, -0.573212206363678, -0.9864345788955688, -0.030029296875, 0.149658203125, -0.81884765625
51, 2497406796, -4.595056056976318, -1.6505930423736572, 8.362241744995117, -0.056744933128356934, -0.5912818908691406, -1.0196030139923096, -0.028564453125, 0.150390625, -0.8154296875
52, 2497423463, -4.594106197357178, -1.6438183784484863, 8.335476875305176, -0.14597958326339722, -0.57355797290802, -0.97273188829422, -0.027099609375, 0.148193359375, -0.814208984375
53, 2497440130, -4.60039758682251, -1.6482758522033691, 8.328642845153809, -0.10298866033554077, -0.5266739726066589, -0.9786229133605957, -0.030029296875, 0.15185546875, -0.81591796875
54, 2497456797, -4.597589492797852, -1.6521855592727661, 8.34493350982666, -0.1037314310669899, -0.603294312953949, -0.9366564154624939, -0.028076171875, 0.148681640625, -0.814697265625
55, 2497473464, -4.598174571990967, -1.6589480638504028, 8.346535682678223, -0.13172611594200134, -0.6601160168647766, -0.9381675720214844, -0.028076171875, 0.14990234375, -0.81640625
56, 2497490131, -4.589428901672363, -1.6519519090652466, 8.369973182678223, -0.02630424126982689, -0.6558516025543213, -0.9423936605453491, -0.029052734375, 0.150390625, -0.81494140625
57, 2497506798, -4.601312160491943, -1.631462812423706, 8.351861953735352, -0.11329776793718338, -0.6850373148918152, -0.8855335712432861, -0.028076171875, 0.15087890625, -0.81787109375
58, 2497523465, -4.587922096252441, -1.6643617153167725, 8.353038787841797, -0.19322220981121063, -0.6158573627471924, -0.9208277463912964, -0.029052734375, 0.149658203125, -0.814208984375
59, 2497540132, -4.587170124053955, -1.6340903043746948, 8.375751495361328, -0.25313031673431396, -0.4780353903770447, -0.9205844402313232, -0.029052734375, 0.15087890625, -0.8154296875
60, 2497556799, -4.600953102111816, -1.6604646444320679, 8.376455307006836, -0.2104083150625229, -0.5000239014625549, -0.9290878176689148, -0.028076171875, 0.15234375, -0.813232421875
61, 2497573466, -4.600651264190674, -1.6433831453323364, 8.361125946044922, -0.267972856760025, -0.5117673277854919, -0.9856791496276855, -0.029052734375, 0.148193359375, -0.814697265625
62, 2497590133, -4.5994343757629395, -1.644485592842102, 8.371434211730957, -0.18735690414905548, -0.5327441692352295, -1.006169319152832, -0.029541015625, 0.15087890625, -0.814453125
63, 2497606800, -4.589261054992676, -1.6497383117675781, 8.365303993225098, -0.23760902881622314, -0.6056122779846191, -1.0071299076080322, -0.027099609375, 0.150390625, -0.81689453125
64, 2497623467, -4.609807968139648, -1.6544276475906372, 8.353714942932129, -0.2616465091705322, -0.4852197468280792, -0.942995548248291, -0.029541015625, 0.150146484375, -0.81640625
65, 2497640134, -4.597692012786865, -1.6462204456329346, 8.360840797424316, -0.1630888730287552, -0.5959306955337524, -0.9379498958587646, -0.030029296875, 0.150146484375, -0.81640625
66, 2497656801, -4.597034931182861, -1.648944616317749, 8.34547233581543, -0.2249051183462143, -0.5327953696250916, -1.0203970670700073, -0.028564453125, 0.149169921875, -0.8154296875
67, 2497673468, -4.5924906730651855, -1.657143235206604, 8.358171463012695, -0.2364308089017868, -0.6043956279754639, -0.9464787244796753, -0.030029296875, 0.150146484375, -0.8134765625
68, 2497690135, -4.598502159118652, -1.6370245218276978, 8.35001277923584, -0.16924871504306793, -0.5654899477958679, -0.9683265089988708, -0.028564453125, 0.149169921875, -0.81640625
69, 2497706802, -4.600414752960205, -1.6540418863296509, 8.37380313873291, -0.18725445866584778, -0.5379307866096497, -0.9709902405738831, -0.030029296875, 0.149658203125, -0.81591796875
70, 2497723469, -4.587748050689697, -1.6406676769256592, 8.347586631774902, -0.22781212627887726, -0.5089371204376221, -0.9979731440544128, -0.029052734375, 0.149169921875, -0.81787109375
71, 2497740136, -4.594826698303223, -1.6462960243225098, 8.372700691223145, -0.11489857733249664, -0.5001007914543152, -0.9444426894187927, -0.028076171875, 0.148193359375, -0.81640625
72, 2497756803, -4.610597133636475, -1.6528563499450684, 8.370287895202637, -0.13795000314712524, -0.5305030345916748, -0.961616039276123, -0.026611328125, 0.149658203125, -0.814208984375
73, 2497773470, -4.610043048858643, -1.6470450162887573, 8.359026908874512, -0.20259645581245422, -0.5758374929428101, -0.9780592918395996, -0.028564453125, 0.149658203125, -0.814697265625
74, 2497790137, -4.599987983703613, -1.6589432954788208, 8.342750549316406, -0.15659603476524353, -0.5391857028007507, -0.9993178248405457, -0.030029296875, 0.149169921875, -0.81396484375
75, 2497806804, -4.608532428741455, -1.6480971574783325, 8.339385032653809, -0.11485422402620316, -0.5570199489593506, -0.9941909313201904, -0.030029296875, 0.150390625, -0.8154296875
76, 2497823471, -4.593203544616699, -1.6458073854446411, 8.33800983428955, -0.1378987729549408, -0.40977758169174194, -1.0206660032272339, -0.031005859375, 0.1513671875, -0.81396484375
77, 2497840138, -4.582178115844727, -1.6608842611312866, 8.37975788116455, -0.23778828978538513, -0.3955497145652771, -0.9492577910423279, -0.028076171875, 0.149658203125, -0.814208984375
78, 2497856805, -4.602975845336914, -1.648055076599121, 8.336822509765625, -0.1766636073589325, -0.45159029960632324, -0.9295872449874878, -0.029052734375, 0.149169921875, -0.811767578125
79, 2497873472, -4.6017560958862305, -1.641676425933838, 8.357610702514648, -0.18342535197734833, -0.3934110701084137, -0.9600152373313904, -0.028564453125, 0.149658203125, -0.814697265625
80, 2497890139, -4.607846260070801, -1.6547589302062988, 8.346748352050781, -0.1751396656036377, -0.4098800718784332, -0.9274102449417114, -0.029052734375, 0.149658203125, -0.813720703125
81, 2497906806, -4.595040321350098, -1.642578125, 8.36170768737793, -0.14293165504932404, -0.4591076076030731, -0.95732581615448, -0.027587890625, 0.154296875, -0.81689453125
82, 2497923473, -4.603636741638184, -1.6505329608917236, 8.36941909790039, -0.22236944735050201, -0.437977135181427, -0.9557250142097473, -0.028564453125, 0.15283203125, -0.818359375
83, 2497940140, -4.598106384277344, -1.6314709186553955, 8.38538646697998, -0.15498246252536774, -0.5174918174743652, -0.9913780689239502, -0.029541015625, 0.149658203125, -0.81396484375
84, 2497956807, -4.610076904296875, -1.6558661460876465, 8.365300178527832, -0.19789649546146393, -0.4661255180835724, -0.9908785223960876, -0.027587890625, 0.149658203125, -0.81640625
85, 2497973474, -4.607171535491943, -1.652766227722168, 8.347488403320312, -0.19712813198566437, -0.5955848693847656, -1.0214087963104248, -0.027099609375, 0.150390625, -0.8173828125
86, 2497990141, -4.598981857299805, -1.6437911987304688, 8.356619834899902, -0.18433460593223572, -0.5360609292984009, -0.9841680526733398, -0.027587890625, 0.148681640625, -0.814208984375
87, 2498006808, -4.6009626388549805, -1.6520863771438599, 8.345987319946289, -0.2410283088684082, -0.5907696485519409, -0.9907376170158386, -0.028564453125, 0.154296875, -0.81689453125
88, 2498023475, -4.60414981842041, -1.6487951278686523, 8.3641357421875, -0.22423917055130005, -0.5538105964660645, -0.9531894326210022, -0.028076171875, 0.15087890625, -0.81494140625
89, 2498040142, -4.594330787658691, -1.6348915100097656, 8.364741325378418, -0.29167741537094116, -0.5784500241279602, -0.9997788667678833, -0.028076171875, 0.14990234375, -0.81494140625
90, 2498056809, -4.607844352722168, -1.6507104635238647, 8.37289810180664, -0.20856422185897827, -0.5632360577583313, -1.0695862770080566, -0.02587890625, 0.1494140625, -0.816162109375
91, 2498073476, -4.608330249786377, -1.647864818572998, 8.328353881835938, -0.2688436806201935, -0.6414443850517273, -0.9775214195251465, -0.028076171875, 0.1513671875, -0.814208984375
92, 2498090143, -4.607762813568115, -1.64353346824646, 8.32635498046875, -0.2714177668094635, -0.5968782901763916, -0.9790582060813904, -0.027099609375, 0.15087890625, -0.813720703125
93, 2498106810, -4.601083755493164, -1.6588208675384521, 8.358760833740234, -0.2813938856124878, -0.7293856739997864, -0.9996253252029419, -0.025146484375, 0.15234375, -0.814697265625
94, 2498123477, -4.609821796417236, -1.6496601104736328, 8.36412239074707, -0.24488301575183868, -0.7044900059700012, -0.9830920696258545, -0.028076171875, 0.15087890625, -0.814208984375
95, 2498140144, -4.607070446014404, -1.653870940208435, 8.345368385314941, -0.1899181753396988, -0.6675310134887695, -0.9549438953399658, -0.029052734375, 0.149169921875, -0.814453125
96, 2498156811, -4.610679626464844, -1.646661639213562, 8.3717622756958, -0.2606220245361328, -0.7347258925437927, -1.05086350440979, -0.026611328125, 0.14990234375, -0.815185546875
97, 2498173478, -4.595425605773926, -1.6562367677688599, 8.332940101623535, -0.13009969890117645, -0.7088826894760132, -1.0157099962234497, -0.027587890625, 0.14990234375, -0.8154296875
98, 2498190145, -4.597001552581787, -1.6527912616729736, 8.35754680633545, -0.2558324635028839, -0.6032559275627136, -1.0093965530395508, -0.028076171875, 0.15234375, -0.812744140625
99, 2498206812, -4.612408638000488, -1.6419183015823364, 8.37221908569336, -0.26370835304260254, -0.6122331619262695, -1.030245304107666, -0.028564453125, 0.1513671875, -0.8154296875
100, 2498223479, -4.602166652679443, -1.6495916843414307, 8.36633586883545, -0.3425442576408386, -0.4371319115161896, -1.025839924812317, -0.031494140625, 0.150146484375, -0.81298828125
101, 2498240146, -4.597637176513672, -1.6675673723220825, 8.366365432739258, -0.23360058665275574, -0.4974370300769806, -1.0717248916625977, -0.028564453125, 0.150390625, -0.81494140625
102, 2498256813, -4.598967552185059, -1.6489455699920654, 8.37215805053711, -0.2726728022098541, -0.5823303461074829, -0.995949923992157, -0.026123046875, 0.15087890625, -0.814697265625
103, 2498273480, -4.60415506362915, -1.6456149816513062, 8.332697868347168, -0.289000928401947, -0.6602826118469238, -0.9769324064254761, -0.029052734375, 0.150146484375, -0.814453125
104, 2498290147, -4.60731315612793, -1.6491327285766602, 8.340286254882812, -0.268587589263916, -0.6293168663978577, -1.066640853881836, -0.027587890625, 0.15087890625, -0.81689453125
105, 2498306814, -4.58836555480957, -1.656991720199585, 8.363048553466797, -0.2663464844226837, -0.7139156460762024, -1.0173109769821167, -0.029052734375, 0.15087890625, -0.81689453125
106, 2498323481, -4.5941009521484375, -1.6523293256759644, 8.364792823791504, -0.2588547170162201, -0.654583752155304, -1.0354573726654053, -0.028564453125, 0.150390625, -0.81494140625
107, 2498340148, -4.576278209686279, -1.6601656675338745, 8.348905563354492, -0.2545646131038666, -0.6021289825439453, -1.0468934774398804, -0.031494140625, 0.149658203125, -0.8125
108, 2498356815, -4.581191062927246, -1.6393769979476929, 8.348852157592773, -0.24300049245357513, -0.5851861834526062, -1.0261600017547607, -0.027587890625, 0.149169921875, -0.813232421875
109, 2498373482, -4.601949214935303, -1.6530636548995972, 8.351387977600098, -0.2938465178012848, -0.5442256927490234, -1.0028486251831055, -0.028076171875, 0.1513671875, -0.814208984375
110, 2498390149, -4.597868919372559, -1.6469933986663818, 8.373669624328613, -0.3450542986392975, -0.5413115620613098, -0.9519087672233582, -0.026611328125, 0.15234375, -0.815185546875
111, 2498406816, -4.600625038146973, -1.6466894149780273, 8.367520332336426, -0.319441556930542, -0.5870686173439026, -1.0819445848464966, -0.028076171875, 0.149658203125, -0.81591796875
112, 2498423483, -4.600893974304199, -1.660605549812317, 8.36424732208252, -0.4072803556919098, -0.5534392595291138, -1.0099983215332031, -0.027099609375, 0.150390625, -0.813232421875
113, 2498440150, -4.60638427734375, -1.657606601715088, 8.343923568725586, -0.34502866864204407, -0.5489057302474976, -0.9685186147689819, -0.029052734375, 0.15234375, -0.814453125
114, 2498456817, -4.599369049072266, -1.6528280973434448, 8.341299057006836, -0.3671068251132965, -0.5809985399246216, -1.0619537830352783, -0.028076171875, 0.150390625, -0.813232421875
115, 2498473484, -4.581923961639404, -1.6611089706420898, 8.348954200744629, -0.3613183796405792, -0.534895658493042, -1.05571711063385, -0.028564453125, 0.15087890625, -0.81494140625
116, 2498490151, -4.598479747772217, -1.6374855041503906, 8.373063087463379, -0.3507530987262726, -0.614679217338562, -1.0553969144821167, -0.030029296875, 0.15185546875, -0.81396484375
117, 2498506818, -4.5938191413879395, -1.6615313291549683, 8.354652404785156, -0.4202531576156616, -0.5812289714813232, -1.0197569131851196, -0.029052734375, 0.15185546875, -0.81396484375
118, 2498523485, -4.597960472106934, -1.6550318002700806, 8.354752540588379, -0.35554271936416626, -0.5229088664054871, -1.0871182680130005, -0.029052734375, 0.15185546875, -0.81396484375
119, 2498540152, -4.594387054443359, -1.6529637575149536, 8.361712455749512, -0.4120955169200897, -0.5427843332290649, -1.0209349393844604, -0.027587890625, 0.148193359375, -0.81640625
120, 2498556819, -4.61124849319458, -1.6553800106048584, 8.33173656463623, -0.29096028208732605, -0.6486672163009644, -1.0378906726837158, -0.028076171875, 0.15087890625, -0.81591796875
121, 2498573486, -4.5996599197387695, -1.655043363571167, 8.347162246704102, -0.21090778708457947, -0.5813058018684387, -1.030360460281372, -0.028564453125, 0.15087890625, -0.81591796875
122, 2498590153, -4.593125820159912, -1.6642465591430664, 8.361698150634766, -0.24250103533267975, -0.6675565838813782, -1.0752595663070679, -0.031982421875, 0.151123046875, -0.81494140625
123, 2498606820, -4.5855889320373535, -1.6592005491256714, 8.353419303894043, -0.27044451236724854, -0.7831978797912598, -0.9525618553161621, -0.027099609375, 0.15185546875, -0.81591796875
124, 2498623487, -4.597166061401367, -1.653565526008606, 8.362213134765625, -0.2155436873435974, -0.7186411619186401, -1.0608140230178833, -0.031005859375, 0.1533203125, -0.81640625
125, 2498640154, -4.593955993652344, -1.643554925918579, 8.372450828552246, -0.161564901471138, -0.6626133322715759, -0.9937470555305481, -0.027587890625, 0.149658203125, -0.81591796875
126, 2498656821, -4.588382720947266, -1.6640890836715698, 8.345637321472168, -0.15527698397636414, -0.6471432447433472, -0.9525618553161621, -0.028564453125, 0.150146484375, -0.814208984375
127, 2498673488, -4.59065580368042, -1.6532765626907349, 8.369715690612793, -0.14206083118915558, -0.5166338086128235, -0.8414924144744873, -0.029052734375, 0.148681640625, -0.813232421875
128, 2498690155, -4.597647666931152, -1.6540486812591553, 8.36309814453125, -0.1890089064836502, -0.45127013325691223, -0.9118632674217224, -0.028564453125, 0.150390625, -0.81689453125
129, 2498706822, -4.611058712005615, -1.6702110767364502, 8.380139350891113, -0.08813329041004181, -0.47313058376312256, -0.8661574125289917, -0.030029296875, 0.1533203125, -0.81494140625
130, 2498723489, -4.597049236297607, -1.6376869678497314, 8.357830047607422, -0.11717809736728668, -0.49595147371292114, -0.8388542532920837, -0.027587890625, 0.1513671875, -0.81591796875
131, 2498740156, -4.595724582672119, -1.6672255992889404, 8.391542434692383, 0.06807214766740799, -0.488972008228302, -0.8685265779495239, -0.028564453125, 0.149658203125, -0.81591796875
132, 2498756823, -4.604363441467285, -1.6413620710372925, 8.355481147766113, 0.10293103009462357, -0.48242801427841187, -0.8476394414901733, -0.027099609375, 0.150390625, -0.814208984375
133, 2498773490, -4.590969085693359, -1.6502225399017334, 8.376079559326172, 0.08506616204977036, -0.5331923961639404, -0.8795272707939148, -0.028076171875, 0.149658203125, -0.81494140625
134, 2498790157, -4.603678226470947, -1.645917534828186, 8.367568016052246, 0.056969042867422104, -0.684217631816864, -0.8938191533088684, -0.030029296875, 0.149169921875, -0.81494140625
135, 2498806824, -4.598904132843018, -1.6610077619552612, 8.359735488891602, -0.027994677424430847, -0.6085705161094666, -0.9323150515556335, -0.029541015625, 0.149169921875, -0.818359375
136, 2498823491, -4.601807117462158, -1.6475214958190918, 8.341185569763184, 0.02308344468474388, -0.5992986559867859, -0.8843936324119568, -0.028564453125, 0.149169921875, -0.81689453125
137, 2498840158, -4.589999198913574, -1.6513465642929077, 8.37172794342041, -0.05369702726602554, -0.585544764995575, -0.9074323773384094, -0.030029296875, 0.149169921875, -0.81787109375
138, 2498856825, -4.600058555603027, -1.634516954421997, 8.354655265808105, -0.18252889811992645, -0.5023674368858337, -0.9459025859832764, -0.029052734375, 0.147216796875, -0.814208984375
139, 2498873492, -4.59084939956665, -1.6449519395828247, 8.367278099060059, -0.08769788593053818, -0.6002335548400879, -1.0134047269821167, -0.029541015625, 0.15087890625, -0.81689453125
140, 2498890159, -4.592973709106445, -1.6560133695602417, 8.365177154541016, 0.019497666507959366, -0.6436343193054199, -0.8942545056343079, -0.028076171875, 0.15185546875, -0.81494140625
141, 2498906826, -4.600693225860596, -1.6573472023010254, 8.387519836425781, 0.006371158640831709, -0.6700665354728699, -0.932532787322998, -0.029052734375, 0.15380859375, -0.8173828125
142, 2498923493, -4.593400955200195, -1.6474589109420776, 8.367997169494629, 0.0015944861806929111, -0.7284689545631409, -0.9826645851135254, -0.027099609375, 0.150390625, -0.81640625
143, 2498940160, -4.615761756896973, -1.6312954425811768, 8.356816291809082, -0.0372280552983284, -0.6642909049987793, -0.9922487139701843, -0.028564453125, 0.15185546875, -0.81494140625
144, 2498956827, -4.606332778930664, -1.6487579345703125, 8.363997459411621, -0.04219692572951317, -0.7295265793800354, -0.9696072340011597, -0.029052734375, 0.149658203125, -0.8154296875
145, 2498973494, -4.599328994750977, -1.6475051641464233, 8.35180377960205, -0.12208293378353119, -0.6240406036376953, -1.024520754814148, -0.028076171875, 0.149658203125, -0.814697265625
146, 2498990161, -4.590307235717773, -1.6459462642669678, 8.362092018127441, -0.13348059356212616, -0.6290351152420044, -1.0012133121490479, -0.029541015625, 0.1513671875, -0.81396484375
147, 2499006828, -4.590963840484619, -1.655606985092163, 8.373632431030273, -0.17928890883922577, -0.617560625076294, -0.9664952754974365, -0.027587890625, 0.150390625, -0.8154296875
148, 2499023495, -4.586782932281494, -1.6535427570343018, 8.350859642028809, -0.1909426748752594, -0.6728583574295044, -1.0390175580978394, -0.029541015625, 0.149169921875, -0.81640625
149, 2499040162, -4.614139080047607, -1.6448227167129517, 8.346125602722168, -0.19118601083755493, -0.5902191400527954, -0.9888807535171509, -0.028076171875, 0.150390625, -0.81689453125
150, 2499056829, -4.604659557342529, -1.6372798681259155, 8.366366386413574, -0.2239702343940735, -0.5594453811645508, -0.9887654185295105, -0.026611328125, 0.148681640625, -0.810791015625
151, 2499073496, -4.605134010314941, -1.6533910036087036, 8.38676929473877, -0.26445114612579346, -0.6129887700080872, -1.0399140119552612, -0.028076171875, 0.148681640625, -0.81591796875
152, 2499090163, -4.599010944366455, -1.637778639793396, 8.38963508605957, -0.20720674097537994, -0.626422643661499, -0.9624483585357666, -0.027587890625, 0.1513671875, -0.814697265625
153, 2499106830, -4.593751907348633, -1.647357702255249, 8.351968765258789, -0.22122971713542938, -0.6504729986190796, -1.0441402196884155, -0.031005859375, 0.15087890625, -0.814453125
154, 2499123497, -4.618340969085693, -1.6444578170776367, 8.367277145385742, -0.2553073763847351, -0.5796666145324707, -1.026211142539978, -0.029052734375, 0.15087890625, -0.81396484375
155, 2499140164, -4.595486164093018, -1.6391139030456543, 8.341750144958496, -0.21870683133602142, -0.5868509411811829, -1.002314567565918, -0.031494140625, 0.15087890625, -0.8154296875
156, 2499156831, -4.594827175140381, -1.6391526460647583, 8.359679222106934, -0.2016615867614746, -0.6030510067939758, -0.9877921938896179, -0.027099609375, 0.149658203125, -0.814208984375
157, 2499173498, -4.59493350982666, -1.6418323516845703, 8.353017807006836, -0.19588594138622284, -0.6537001729011536, -1.045279860496521, -0.029541015625, 0.148681640625, -0.813720703125
158, 2499190165, -4.595541954040527, -1.642615795135498, 8.338618278503418, -0.13081684708595276, -0.7572266459465027, -0.9895465970039368, -0.029052734375, 0.15087890625, -0.81396484375
159, 2499206832, -4.597692489624023, -1.6332404613494873, 8.372212409973145, -0.12753844261169434, -0.7202290892601013, -0.9925817847251892, -0.028076171875, 0.15234375, -0.81494140625
160, 2499223499, -4.5816168785095215, -1.6446324586868286, 8.377558708190918, -0.0794505923986435, -0.7549087405204773, -1.0003808736801147, -0.031005859375, 0.15185546875, -0.8125
161, 2499240166, -4.582940101623535, -1.6463675498962402, 8.372350692749023, 0.08443865925073624, -0.5979412198066711, -0.9228382706642151, -0.029541015625, 0.150146484375, -0.81591796875
162, 2499256833, -4.569845676422119, -1.6451793909072876, 8.345229148864746, -0.010168242268264294, -0.5510188341140747, -0.9729240536689758, -0.027099609375, 0.1494140625, -0.8173828125
163, 2499273500, -4.598165035247803, -1.644594669342041, 8.361525535583496, -0.14714497327804565, -0.4738989770412445, -0.8118072748184204, -0.028564453125, 0.15087890625, -0.813232421875
164, 2499290167, -4.594276428222656, -1.642258644104004, 8.36170768737793, -0.13906414806842804, -0.39181023836135864, -0.9063180685043335, -0.031005859375, 0.150634765625, -0.81689453125
165, 2499306834, -4.598193168640137, -1.6565431356430054, 8.342025756835938, -0.11660181730985641, -0.5010740756988525, -0.9347738027572632, -0.030029296875, 0.150390625, -0.81787109375
166, 2499323501, -4.592548370361328, -1.6573066711425781, 8.388787269592285, -0.1789046972990036, -0.5797434449195862, -0.9428547024726868, -0.028564453125, 0.150390625, -0.81591796875
167, 2499340168, -4.591301441192627, -1.6480435132980347, 8.381904602050781, -0.2631576657295227, -0.660090446472168, -0.9266546368598938, -0.030517578125, 0.149658203125, -0.81591796875
168, 2499356835, -4.584738731384277, -1.6453299522399902, 8.366170883178711, -0.13468436896800995, -0.5183369517326355, -0.9567623734474182, -0.027099609375, 0.14990234375, -0.81689453125
169, 2499373502, -4.585927963256836, -1.6558749675750732, 8.367654800415039, -0.21304644644260406, -0.38284584879875183, -0.9498854279518127, -0.027587890625, 0.148681640625, -0.8173828125
170, 2499390169, -4.598326206207275, -1.6438006162643433, 8.361886978149414, -0.2285805493593216, -0.4712481200695038, -0.9600792527198792, -0.029052734375, 0.1513671875, -0.818359375
171, 2499406836, -4.582912921905518, -1.6490206718444824, 8.363304138183594, -0.27167391777038574, -0.4711584150791168, -0.9253612160682678, -0.029052734375, 0.149658203125, -0.8173828125
172, 2499423503, -4.596405982971191, -1.6471858024597168, 8.340256690979004, -0.3458995223045349, -0.35778379440307617, -0.9193165898323059, -0.031005859375, 0.149169921875, -0.81591796875
173, 2499440170, -4.5807623863220215, -1.6583514213562012, 8.3695707321167, -0.32902076840400696, -0.4268740713596344, -0.8918982744216919, -0.028564453125, 0.149169921875, -0.8173828125
174, 2499456837, -4.595179080963135, -1.6521518230438232, 8.381340980529785, -0.29258665442466736, -0.4455201029777527, -0.9657651782035828, -0.027587890625, 0.149658203125, -0.814208984375
175, 2499473504, -4.600024223327637, -1.6443184614181519, 8.3353853225708, -0.250901997089386, -0.47546133399009705, -0.8829209804534912, -0.029541015625, 0.149658203125, -0.81396484375
176, 2499490171, -4.597522735595703, -1.6406352519989014, 8.342042922973633, -0.27253544330596924, -0.4657948315143585, -0.9755949974060059, -0.031494140625, 0.149169921875, -0.81689453125
177, 2499506838, -4.593551158905029, -1.6399978399276733, 8.382172584533691, -0.23518860340118408, -0.5571529865264893, -0.8819092512130737, -0.027099609375, 0.149169921875, -0.81591796875
178, 2499523505, -4.615321636199951, -1.6275800466537476, 8.346525192260742, -0.22640348970890045, -0.5751972198486328, -0.9960907697677612, -0.029052734375, 0.15185546875, -0.81494140625
179, 2499540172, -4.586369037628174, -1.6571667194366455, 8.355550765991211, -0.2400037795305252, -0.5351901054382324, -0.928088903427124, -0.030029296875, 0.149658203125, -0.81494140625
180, 2499556839, -4.599991798400879, -1.647311806678772, 8.3638334274292, -0.22774812579154968, -0.4464293420314789, -0.9523313641548157, -0.029541015625, 0.149658203125, -0.8173828125
181, 2499573506, -4.5937676429748535, -1.6395344734191895, 8.365467071533203, -0.17520366609096527, -0.5362274646759033, -0.9331858158111572, -0.028564453125, 0.147705078125, -0.814208984375
182, 2499590173, -4.590926647186279, -1.649553894996643, 8.349478721618652, -0.16717411577701569, -0.506465494632721, -0.9066895842552185, -0.027587890625, 0.148681640625, -0.814208984375
183, 2499606840, -4.586681842803955, -1.645291805267334, 8.354277610778809, -0.21538999676704407, -0.5005874037742615, -0.9704906940460205, -0.029052734375, 0.150390625, -0.81689453125
184, 2499623507, -4.591021537780762, -1.634549617767334, 8.35461139678955, -0.19570662081241608, -0.4508090913295746, -0.938551664352417, -0.029541015625, 0.150390625, -0.81396484375
185, 2499640174, -4.609611511230469, -1.6322643756866455, 8.370707511901855, -0.19473335146903992, -0.43110013008117676, -0.9618592858314514, -0.028564453125, 0.149658203125, -0.818359375
186, 2499656841, -4.606895446777344, -1.6434111595153809, 8.36117935180664, -0.144430011510849, -0.4462757110595703, -0.9697225093841553, -0.027099609375, 0.149658203125, -0.814208984375
187, 2499673508, -4.607945919036865, -1.6408350467681885, 8.346750259399414, -0.23579053580760956, -0.49490147829055786, -0.9434694051742554, -0.029052734375, 0.148193359375, -0.813720703125
188, 2499690175, -4.598340034484863, -1.6431360244750977, 8.393860816955566, -0.22969470918178558, -0.5976595282554626, -0.9128238558769226, -0.028076171875, 0.1513671875, -0.81494140625
189, 2499706842, -4.602325916290283, -1.6531615257263184, 8.360968589782715, -0.1553410142660141, -0.6772893667221069, -0.9338003993034363, -0.029052734375, 0.149658203125, -0.814453125
190, 2499723509, -4.606752872467041, -1.6504327058792114, 8.36270809173584, -0.1665721833705902, -0.567410945892334, -0.967071533203125, -0.028564453125, 0.14990234375, -0.81591796875
191, 2499740176, -4.591252326965332, -1.638782024383545, 8.367888450622559, -0.1347356140613556, -0.6328897476196289, -0.9524722099304199, -0.028076171875, 0.149169921875, -0.814697265625
192, 2499756843, -4.5929646492004395, -1.6524475812911987, 8.37525463104248, -0.16059163212776184, -0.5273527503013611, -0.9312266111373901, -0.029541015625, 0.149658203125, -0.81689453125
193, 2499773510, -4.590653419494629, -1.650334358215332, 8.352977752685547, -0.1366821527481079, -0.5089371204376221, -0.9445834755897522, -0.030517578125, 0.150634765625, -0.8154296875
194, 2499790177, -4.591820240020752, -1.6460132598876953, 8.348159790039062, -0.27741116285324097, -0.5709070563316345, -0.9335957169532776, -0.02734375, 0.147216796875, -0.812744140625
195, 2499806844, -4.608202934265137, -1.6537318229675293, 8.374612808227539, -0.21152245998382568, -0.5212696194648743, -1.029784083366394, -0.028564453125, 0.15234375, -0.81640625
196, 2499823511, -4.584130764007568, -1.6485075950622559, 8.369088172912598, -0.2325633019208908, -0.5792952179908752, -0.994553804397583, -0.029052734375, 0.1513671875, -0.81640625
197, 2499840178, -4.590467929840088, -1.641648530960083, 8.353708267211914, -0.12259518355131149, -0.6138467192649841, -0.9569416642189026, -0.028564453125, 0.150390625, -0.81591796875
198, 2499856845, -4.590188026428223, -1.6485474109649658, 8.353813171386719, -0.13296832144260406, -0.627920925617218, -0.9503975510597229, -0.028564453125, 0.148681640625, -0.812744140625
199, 2499873512, -4.589903354644775, -1.6288644075393677, 8.391304969787598, -0.1563527137041092, -0.6105170249938965, -0.9407544136047363, -0.028076171875, 0.148193359375, -0.814697265625
200, 2499890179, -4.6023268699646, -1.6338837146759033, 8.352221488952637, -0.20704026520252228, -0.6755733489990234, -0.9989336133003235, -0.028564453125, 0.14990234375, -0.81787109375
201, 2499906846, -4.597737789154053, -1.6356892585754395, 8.369379043579102, -0.23914575576782227, -0.5769516229629517, -0.99012291431427, -0.027099609375, 0.150390625, -0.8154296875
202, 2499923513, -4.604639053344727, -1.6385053396224976, 8.361714363098145, -0.1805439293384552, -0.6919911503791809, -0.9951815009117126, -0.027587890625, 0.1513671875, -0.81640625
203, 2499940180, -4.589138507843018, -1.6460288763046265, 8.385522842407227, -0.1753445565700531, -0.7482622861862183, -0.9361954927444458, -0.027587890625, 0.149169921875, -0.8154296875
204, 2499956847, -4.603029727935791, -1.6481503248214722, 8.346051216125488, -0.05323600023984909, -0.6873936653137207, -0.9700554013252258, -0.027099609375, 0.15087890625, -0.815185546875
205, 2499973514, -4.590771675109863, -1.6468390226364136, 8.367510795593262, -0.01532919891178608, -0.6009763479232788, -0.9375528693199158, -0.027099609375, 0.148193359375, -0.814697265625
206, 2499990181, -4.598319053649902, -1.6387913227081299, 8.355751991271973, -0.1224927306175232, -0.5946756601333618, -0.9865882992744446, -0.030029296875, 0.149169921875, -0.8173828125
207, 2500006848, -4.5980072021484375, -1.6404575109481812, 8.37173080444336, -0.1532023549079895, -0.6215177178382874, -1.0243158340454102, -0.027099609375, 0.150390625, -0.815185546875
208, 2500023515, -4.603923797607422, -1.6531347036361694, 8.375832557678223, -0.13109862804412842, -0.6508315205574036, -0.9513581991195679, -0.029052734375, 0.15087890625, -0.81689453125
209, 2500040182, -4.594319820404053, -1.627165675163269, 8.379045486450195, -0.10959675163030624, -0.6238229274749756, -1.027953028678894, -0.028076171875, 0.149658203125, -0.81591796875
210, 2500056849, -4.600399017333984, -1.6392571926116943, 8.352006912231445, -0.08694751560688019, -0.590523362159729, -0.9912195801734924, -0.028076171875, 0.147216796875, -0.813720703125
211, 2500073516, -4.601470947265625, -1.6451125144958496, 8.355100631713867, -0.15854258835315704, -0.6339142918586731, -0.8951253890991211, -0.029541015625, 0.148193359375, -0.814453125
212, 2500090183, -4.590662956237793, -1.6350910663604736, 8.358619689941406, -0.10612621158361435, -0.6618961095809937, -0.9127084612846375, -0.028564453125, 0.148193359375, -0.81689453125
213, 2500106850, -4.604549884796143, -1.6505790948867798, 8.3606538772583, -0.09634217619895935, -0.618956446647644, -0.9621922373771667, -0.028564453125, 0.15087890625, -0.8193359375
214, 2500123517, -4.60141658782959, -1.634606122970581, 8.364944458007812, -0.12532293796539307, -0.7025307416915894, -0.9941825866699219, -0.027587890625, 0.1494140625, -0.818359375
215, 2500140184, -4.593367099761963, -1.63938570022583, 8.365466117858887, -0.17700935900211334, -0.6731273531913757, -0.9774190783500671, -0.030029296875, 0.15087890625, -0.8173828125
216, 2500156851, -4.598238945007324, -1.6480923891067505, 8.359515190124512, -0.11155610531568527, -0.5956233143806458, -0.9910321831703186, -0.029541015625, 0.149169921875, -0.81689453125
217, 2500173518, -4.585737228393555, -1.644169569015503, 8.347678184509277, -0.06358352303504944, -0.5931645035743713, -0.9368613362312317, -0.026611328125, 0.149169921875, -0.81640625
218, 2500190185, -4.590576171875, -1.652890920639038, 8.362652778625488, -0.14129245281219482, -0.448260635137558, -0.9445450305938721, -0.029052734375, 0.150146484375, -0.81689453125
219, 2500206852, -4.613768577575684, -1.6397165060043335, 8.36428451538086, -0.223483607172966, -0.40988001227378845, -0.8777856230735779, -0.030029296875, 0.150390625, -0.81640625
220, 2500223519, -4.599215507507324, -1.6388280391693115, 8.382662773132324, -0.15864506363868713, -0.5316172242164612, -0.916576087474823, -0.031005859375, 0.149658203125, -0.8173828125
221, 2500240186, -4.601366996765137, -1.6350094079971313, 8.365095138549805, -0.2753749191761017, -0.5272502303123474, -0.968275249004364, -0.030029296875, 0.148193359375, -0.81640625
222, 2500256853, -4.597206115722656, -1.6480339765548706, 8.34662914276123, -0.22238227725028992, -0.6721668839454651, -0.9702090620994568, -0.028564453125, 0.148681640625, -0.81640625
223, 2500273520, -4.596484661102295, -1.6444188356399536, 8.35852336883545, -0.14567223191261292, -0.6328002214431763, -1.0162094831466675, -0.028564453125, 0.150390625, -0.81689453125
224, 2500290187, -4.600314140319824, -1.6448919773101807, 8.379584312438965, -0.15439334511756897, -0.6237460374832153, -0.9654834270477295, -0.028076171875, 0.149658203125, -0.814697265625
225, 2500306854, -4.59753942489624, -1.6401581764221191, 8.350276947021484, -0.20657923817634583, -0.6518688201904297, -0.9759719371795654, -0.031982421875, 0.15087890625, -0.8173828125
226, 2500323521, -4.621290683746338, -1.633561372756958, 8.383855819702148, -0.1429957151412964, -0.637679398059845, -0.9631015062332153, -0.029052734375, 0.148681640625, -0.81591796875
227, 2500340188, -4.602337837219238, -1.6134052276611328, 8.386648178100586, -0.05062350258231163, -0.5252268314361572, -0.9364003539085388, -0.027587890625, 0.148681640625, -0.815673828125
228, 2500356855, -4.658863067626953, -1.560339331626892, 8.427573204040527, -0.31084850430488586, -0.03902094066143036, -1.0013028383255005, -0.027587890625, 0.148681640625, -0.813720703125
229, 2500373522, -4.561080455780029, -1.6924033164978027, 8.367287635803223, -0.7278488874435425, 0.20933900773525238, -1.2012356519699097, -0.029052734375, 0.147216796875, -0.814697265625
230, 2500390189, -4.613279342651367, -1.6329785585403442, 8.350539207458496, -0.5835726261138916, -0.014868172816932201, -1.1247049570083618, -0.028076171875, 0.148193359375, -0.81591796875
231, 2500406856, -4.5946478843688965, -1.6443830728530884, 8.342002868652344, -0.6043573021888733, -0.3274455666542053, -1.1780434846878052, -0.030029296875, 0.150146484375, -0.81591796875
232, 2500423523, -4.633821487426758, -1.6394588947296143, 8.353184700012207, -0.9003761410713196, -0.6953720450401306, -1.381894826889038, -0.027587890625, 0.149169921875, -0.818359375
233, 2500440190, -4.6128435134887695, -1.6302754878997803, 8.358017921447754, -0.9225308299064636, -0.8609195351600647, -1.452662467956543, -0.026611328125, 0.14990234375, -0.81640625
234, 2500456857, -4.588774681091309, -1.6475541591644287, 8.358905792236328, -0.6530725955963135, -0.9132334589958191, -1.4305204153060913, -0.028076171875, 0.14990234375, -0.81591796875
235, 2500473524, -4.592619895935059, -1.659137487411499, 8.3584623336792, -0.3718835711479187, -0.9694278836250305, -1.324739933013916, -0.029541015625, 0.150146484375, -0.81640625
236, 2500490191, -4.590183734893799, -1.6463292837142944, 8.362030982971191, 9.796858066692948E-4, -0.9776368141174316, -1.1481276750564575, -0.027099609375, 0.1513671875, -0.814697265625
237, 2500506858, -4.5828776359558105, -1.6605596542358398, 8.361700057983398, 0.10916773229837418, -0.8989289999008179, -0.9923256635665894, -0.029541015625, 0.15234375, -0.8173828125
238, 2500523525, -4.600000381469727, -1.652098298072815, 8.378036499023438, 0.24047121405601501, -1.0168242454528809, -0.9315850734710693, -0.027587890625, 0.149169921875, -0.81787109375
239, 2500540192, -4.60790491104126, -1.6358482837677002, 8.334187507629395, 0.2970753014087677, -1.002173662185669, -0.9355934262275696, -0.029541015625, 0.150146484375, -0.8173828125
240, 2500556859, -4.592640399932861, -1.6318250894546509, 8.335902214050293, 0.17806588113307953, -0.9505641460418701, -0.9872415065765381, -0.028564453125, 0.150390625, -0.814208984375
241, 2500573526, -4.596192359924316, -1.656360387802124, 8.37597942352295, 0.18868236243724823, -0.9170113801956177, -0.9395505785942078, -0.028564453125, 0.148193359375, -0.81494140625
242, 2500590193, -4.595341682434082, -1.6346663236618042, 8.376914978027344, -0.04971424117684364, -0.7150552868843079, -0.9963340163230896, -0.029052734375, 0.149658203125, -0.8154296875
243, 2500606860, -4.6377739906311035, -1.5982519388198853, 8.41302490234375, -0.6920454502105713, -0.7398799061775208, -1.2280361652374268, -0.030029296875, 0.15185546875, -0.8173828125
244, 2500623527, -4.5808844566345215, -1.648341417312622, 8.378942489624023, -1.5241990089416504, -0.6681329607963562, -1.5276694297790527, -0.029541015625, 0.150146484375, -0.81396484375
245, 2500640194, -4.566277027130127, -1.657236933708191, 8.368638038635254, -1.3682688474655151, -0.6347339153289795, -1.6484590768814087, -0.029541015625, 0.15087890625, -0.812744140625
246, 2500656861, -4.593918800354004, -1.6522161960601807, 8.363556861877441, -1.2623090744018555, -0.5703179836273193, -1.4610764980316162, -0.028564453125, 0.150390625, -0.812744140625
247, 2500673528, -4.63139533996582, -1.6405317783355713, 8.376553535461426, -1.420326590538025, -0.7467767000198364, -1.5539352893829346, -0.029052734375, 0.149658203125, -0.81591796875
248, 2500690195, -4.593735218048096, -1.6472351551055908, 8.373556137084961, -1.8650527000427246, -0.5158782005310059, -1.7378345727920532, -0.028564453125, 0.15234375, -0.81494140625
249, 2500706862, -4.591257572174072, -1.643919825553894, 8.404162406921387, -1.2195101976394653, -0.16256378591060638, -1.4434548616409302, -0.030029296875, 0.15234375, -0.81494140625
250, 2500723529, -4.626334190368652, -1.6426708698272705, 8.424102783203125, -0.3940129578113556, -0.16307605803012848, -1.1808991432189941, -0.029052734375, 0.15234375, -0.8173828125
251, 2500740196, -4.619342803955078, -1.6223558187484741, 8.334457397460938, 0.3668442666530609, -0.5657972693443298, -1.022638201713562, -0.028076171875, 0.15283203125, -0.81640625
252, 2500756863, -4.571327209472656, -1.5800461769104004, 8.298871994018555, 0.8040915131568909, -1.150740146636963, -0.5756838917732239, -0.028564453125, 0.150390625, -0.8154296875
253, 2500773530, -4.579951286315918, -1.8076423406600952, 8.301124572753906, 1.2474216222763062, -1.57331120967865, -0.5205652713775635, -0.029541015625, 0.150390625, -0.8154296875
254, 2500790197, -4.560173034667969, -1.7088385820388794, 8.335883140563965, 1.4418220520019531, -1.8094987869262695, -0.4792136549949646, -0.029052734375, 0.15234375, -0.81640625
255, 2500806864, -4.585983753204346, -1.6726138591766357, 8.365335464477539, 0.9417982697486877, -2.0111093521118164, -0.4960411489009857, -0.030029296875, 0.1533203125, -0.81591796875
256, 2500823531, -4.57795524597168, -1.674619197845459, 8.359123229980469, 0.48073112964630127, -1.841437816619873, -0.649922251701355, -0.031005859375, 0.149658203125, -0.81689453125
257, 2500840198, -4.57964563369751, -1.66972017288208, 8.35641098022461, 0.3468663692474365, -1.7439430952072144, -0.7753860354423523, -0.030517578125, 0.149169921875, -0.81396484375
258, 2500856865, -4.574363708496094, -1.6585350036621094, 8.343694686889648, 0.1523251235485077, -1.7465426921844482, -0.9010674953460693, -0.031005859375, 0.150390625, -0.81884765625
259, 2500873532, -4.581614017486572, -1.6482561826705933, 8.353659629821777, -0.04286285117268562, -1.6888116598129272, -0.8894906640052795, -0.029541015625, 0.15087890625, -0.81787109375
260, 2500890199, -4.5546112060546875, -1.6538199186325073, 8.36205005645752, -0.08074402809143066, -1.6253178119659424, -0.9463381171226501, -0.032470703125, 0.1513671875, -0.81689453125
261, 2500906866, -4.559926509857178, -1.6575502157211304, 8.365104675292969, 0.017743200063705444, -1.4727559089660645, -1.0217931270599365, -0.030029296875, 0.150146484375, -0.81884765625
262, 2500923533, -4.596385955810547, -1.5931715965270996, 8.426036834716797, -0.8808206915855408, -0.3325040340423584, -1.3126122951507568, -0.033447265625, 0.150634765625, -0.8154296875
263, 2500940200, -4.702995300292969, -1.5033677816390991, 8.419648170471191, -2.9281082153320312, 2.064582347869873, -1.8082823753356934, -0.031982421875, 0.15234375, -0.814453125
264, 2500956867, -4.670739650726318, -1.5207442045211792, 8.496737480163574, -4.851059436798096, 5.158290386199951, -2.3646421432495117, -0.030517578125, 0.15234375, -0.8134765625
265, 2500973534, -4.402781963348389, -1.6685470342636108, 8.484086036682129, -7.765544414520264, 8.710083961486816, -2.384671688079834, -0.027099609375, 0.15234375, -0.81494140625
266, 2500990201, -4.006574630737305, -1.5049965381622314, 8.683579444885254, -10.907358169555664, 13.333542823791504, -1.5315256118774414, -0.024658203125, 0.1552734375, -0.814208984375
267, 2501006868, -4.012644290924072, -1.479857325553894, 9.191224098205566, -12.563848495483398, 26.915014266967773, 0.9792470335960388, -0.019775390625, 0.159423828125, -0.815673828125
268, 2501023535, -1.0681887865066528, -0.2575928270816803, 11.150623321533203, -25.270694732666016, 58.374671936035156, 24.32025146484375, -0.00634765625, 0.1611328125, -0.81396484375
269, 2501040202, -2.4602460861206055, -2.8727827072143555, 11.120075225830078, -36.0919303894043, 99.14441680908203, 59.45219421386719, 0.015625, 0.1708984375, -0.810546875
270, 2501056869, -4.964272499084473, -4.244995594024658, 14.246081352233887, -11.984781265258789, 86.1033706665039, 77.4065933227539, 0.0419921875, 0.172607421875, -0.805419921875
271, 2501073536, -4.233563423156738, -6.253493309020996, 16.219438552856445, 33.87583923339844, 50.02599334716797, 75.30752563476562, 0.064453125, 0.165771484375, -0.799560546875
272, 2501090203, 1.5140588283538818, -6.057412147521973, 12.755653381347656, 56.0175666809082, 28.8575496673584, 61.72812271118164, 0.080078125, 0.152099609375, -0.797607421875
273, 2501106870, 3.626856803894043, -4.6593217849731445, 11.62392520904541, 40.08480453491211, 29.332490921020508, 41.0277099609375, 0.095703125, 0.13916015625, -0.794189453125
274, 2501123537, 4.750942230224609, -4.729101657867432, 10.273972511291504, 22.020843505859375, 23.85525894165039, 19.749191284179688, 0.10595703125, 0.130859375, -0.787841796875
275, 2501140204, 5.330129623413086, -3.726573944091797, 9.600515365600586, 19.772502899169922, 23.57762908935547, 7.332576274871826, 0.12255859375, 0.119384765625, -0.780029296875
276, 2501156871, 3.73083758354187, -2.52321195602417, 11.285170555114746, 1.439185619354248, 18.068761825561523, -3.9153919219970703, 0.135986328125, 0.113525390625, -0.77001953125
277, 2501173538, 1.1009029150009155, -3.2078704833984375, 13.3102445602417, -24.344308853149414, -11.747302055358887, -22.14356231689453, 0.14453125, 0.115966796875, -0.764892578125
278, 2501190205, 0.19032226502895355, -3.973564863204956, 12.737412452697754, -24.35730743408203, -53.78915023803711, -38.04880905151367, 0.146484375, 0.11962890625, -0.7578125
279, 2501206872, -0.007272496819496155, -3.144277811050415, 11.141931533813477, -16.358247756958008, -81.03992462158203, -48.42367935180664, 0.142333984375, 0.1259765625, -0.759521484375
280, 2501223539, -0.8563036918640137, -2.469163417816162, 10.523709297180176, -16.141704559326172, -92.48460388183594, -52.03915786743164, 0.13671875, 0.130615234375, -0.76220703125
281, 2501240206, -2.190889358520508, -2.259800672531128, 10.794831275939941, -20.73224639892578, -100.16177368164062, -51.41793441772461, 0.127685546875, 0.136962890625, -0.763916015625
282, 2501256873, -4.99960470199585, -2.3312768936157227, 12.919425010681152, -27.32036018371582, -114.88151550292969, -51.454227447509766, 0.11572265625, 0.1494140625, -0.772216796875
283, 2501273540, -6.7697038650512695, -2.3170900344848633, 13.628923416137695, -36.47718811035156, -147.34693908691406, -56.365135192871094, 0.09130859375, 0.166748046875, -0.781494140625
284, 2501290207, -6.012045860290527, -1.6075690984725952, 11.430747985839844, -39.284786224365234, -170.51731872558594, -57.189388275146484, 0.05810546875, 0.186279296875, -0.790771484375
285, 2501306874, -5.230131149291992, -0.7611311674118042, 9.438799858093262, -38.490177154541016, -169.2669677734375, -50.470062255859375, 0.01708984375, 0.205078125, -0.80322265625
286, 2501323541, -5.643475532531738, -0.8088759779930115, 9.27860164642334, -37.3248291015625, -157.72264099121094, -40.98640823364258, -0.025146484375, 0.22314453125, -0.809814453125
287, 2501340208, -6.39303731918335, -1.1815675497055054, 9.422371864318848, -33.52677536010742, -148.67161560058594, -33.585872650146484, -0.066162109375, 0.2333984375, -0.813232421875
288, 2501356875, -6.987419605255127, -1.4157105684280396, 9.544842720031738, -26.824771881103516, -144.2211151123047, -28.742019653320312, -0.1103515625, 0.244140625, -0.8115234375
289, 2501373542, -7.622049808502197, -0.6271658539772034, 9.394311904907227, -27.90925407409668, -145.69094848632812, -26.6687068939209, -0.15234375, 0.252197265625, -0.80712890625
290, 2501390209, -6.707551956176758, -0.10793623328208923, 6.989412784576416, -35.43208694458008, -140.26478576660156, -23.05879783630371, -0.192138671875, 0.259521484375, -0.79833984375
291, 2501406876, -6.336938858032227, -0.22783993184566498, 5.167846202850342, -34.22035598754883, -117.28809356689453, -11.173184394836426, -0.227294921875, 0.270751953125, -0.787109375
292, 2501423543, -6.845292091369629, -0.30504709482192993, 4.58156681060791, -33.79072189331055, -91.50251007080078, -1.4642757177352905, -0.2529296875, 0.276611328125, -0.777099609375
293, 2501440210, -6.891836166381836, -0.748383641242981, 3.763484477996826, -33.92242431640625, -65.71682739257812, 2.5724422931671143, -0.27099609375, 0.283935546875, -0.77099609375
294, 2501456877, -7.04818868637085, -1.4144959449768066, 3.6203298568725586, -24.962215423583984, -41.651100158691406, 4.301887035369873, -0.281005859375, 0.291259765625, -0.7646484375
295, 2501473544, -6.803172588348389, -1.7637978792190552, 3.858736515045166, -13.266983032226562, -20.500165939331055, 3.5144855976104736, -0.29150390625, 0.29736328125, -0.758056640625
296, 2501490211, -7.028345108032227, -1.8441115617752075, 4.294358730316162, -11.094043731689453, -2.6060423851013184, 1.6279376745224, -0.291748046875, 0.298828125, -0.757080078125
297, 2501506878, -7.8099470138549805, -2.0721778869628906, 4.239343166351318, -13.558147430419922, 10.733556747436523, -2.0803422927856445, -0.292236328125, 0.30126953125, -0.756591796875
298, 2501523545, -8.077322959899902, -1.7185922861099243, 2.996560573577881, -3.4730777740478516, 26.381433486938477, -7.7196478843688965, -0.287841796875, 0.30419921875, -0.760498046875
299, 2501540212, -8.764460563659668, -1.1117236614227295, -2.0731167793273926, 61.82740020751953, 85.38580322265625, 24.97130584716797, -0.273193359375, 0.29345703125, -0.76611328125
300, 2501556879, -0.31231552362442017, 2.629767656326294, 9.792675971984863, 55.73398208618164, 108.45598602294922, 47.689056396484375, -0.244384765625, 0.280517578125, -0.781982421875
301, 2501573546, 3.14267635345459, -8.827601432800293, 16.565820693969727, -48.50240707397461, 146.06129455566406, 6.216702938079834, -0.213623046875, 0.2890625, -0.788330078125
302, 2501590213, -5.227172374725342, -0.31349971890449524, 7.431832790374756, -25.6016845703125, 165.22950744628906, 29.277626037597656, -0.1748046875, 0.2998046875, -0.794189453125
303, 2501606880, -5.117820739746094, 2.9334473609924316, 11.435806274414062, -80.60295104980469, 196.321533203125, 10.144607543945312, -0.129150390625, 0.313232421875, -0.79833984375
304, 2501623547, -7.684689521789551, 0.08980569243431091, 13.697487831115723, -129.62330627441406, 178.57005310058594, -5.049026966094971, -0.0859375, 0.343017578125, -0.794677734375
305, 2501640214, -10.005755424499512, -6.217945098876953, 11.471406936645508, -125.81694793701172, 147.63307189941406, -12.882596969604492, -0.052734375, 0.368896484375, -0.78076171875
306, 2501656881, -7.438250541687012, -10.989616394042969, 7.497098922729492, -72.73231506347656, 117.93799591064453, -9.12734603881836, -0.022705078125, 0.390625, -0.773681640625
307, 2501673548, -9.505452156066895, -8.394551277160645, 9.83839225769043, 12.150973320007324, 79.29370880126953, 4.4322309494018555, -0.002197265625, 0.392822265625, -0.77392578125
308, 2501690215, -6.25084114074707, -1.9450907707214355, 10.67348861694336, 11.439355850219727, 34.31639099121094, 2.2955803871154785, 0.0087890625, 0.389892578125, -0.777099609375
309, 2501706882, -4.20560359954834, -5.248816013336182, 7.1879191398620605, 7.835542678833008, 17.33507537841797, -0.9261947870254517, 0.01220703125, 0.388427734375, -0.777099609375
310, 2501723549, -4.311412334442139, -2.9548795223236084, 8.902572631835938, 8.338176727294922, 12.635171890258789, -0.9321796298027039, 0.017333984375, 0.383056640625, -0.780029296875
311, 2501740216, -2.7348339557647705, -3.7576205730438232, 7.429153919219971, 8.336523056030273, 11.057899475097656, 2.0010383129119873, 0.017822265625, 0.382568359375, -0.780029296875
312, 2501756883, -4.40275239944458, -3.485424757003784, 8.414739608764648, 9.46596908569336, 11.52964973449707, 5.319077014923096, 0.022705078125, 0.382080078125, -0.77880859375
313, 2501773550, -3.937912940979004, -3.5769102573394775, 8.290101051330566, 6.107895851135254, 10.779013633728027, 4.238013744354248, 0.025390625, 0.378662109375, -0.78076171875
314, 2501790217, -4.849565029144287, -3.5184073448181152, 8.665975570678711, 1.0027052164077759, 6.711660861968994, 0.6271717548370361, 0.02734375, 0.378662109375, -0.783203125
315, 2501806884, -4.200168609619141, -3.957956314086914, 7.949153423309326, 0.5240038633346558, 4.251484394073486, 0.13665015995502472, 0.0283203125, 0.378662109375, -0.78173828125
316, 2501823551, -3.9918339252471924, -3.7139363288879395, 8.142698287963867, 0.5443146228790283, 2.4067933559417725, 0.5285243988037109, 0.03076171875, 0.377197265625, -0.78369140625
317, 2501840218, -4.026330471038818, -4.0524702072143555, 7.772006511688232, 1.5531859397888184, 0.2640092670917511, 1.0228495597839355, 0.03076171875, 0.378173828125, -0.783203125
318, 2501856885, -3.7680935859680176, -3.960580825805664, 7.54476261138916, 4.294436454772949, 2.1068813800811768, 3.3380072116851807, 0.033935546875, 0.376220703125, -0.7841796875
319, 2501873552, -3.2421376705169678, -4.310299873352051, 6.7119245529174805, 10.522225379943848, 5.537720203399658, 9.893765449523926, 0.032958984375, 0.375244140625, -0.78515625
320, 2501890219, -3.8059353828430176, -4.029931545257568, 7.275109767913818, 18.03145980834961, 12.119213104248047, 17.259389877319336, 0.035888671875, 0.3720703125, -0.78759765625
321, 2501906886, -3.93605899810791, -3.9147605895996094, 7.438583850860596, 24.184539794921875, 15.440974235534668, 22.290048599243164, 0.0439453125, 0.3671875, -0.789306640625
322, 2501923553, -4.546511173248291, -3.58677077293396, 8.060822486877441, 26.495893478393555, 16.200149536132812, 23.953397750854492, 0.050537109375, 0.359619140625, -0.792236328125
323, 2501940220, -4.865674018859863, -3.013154983520508, 8.437057495117188, 23.74028205871582, 13.181352615356445, 19.783357620239258, 0.056640625, 0.354248046875, -0.79296875
324, 2501956887, -4.489138603210449, -3.016422748565674, 8.172137260437012, 20.922073364257812, 12.839461326599121, 16.70770835876465, 0.060302734375, 0.34912109375, -0.79541015625
325, 2501973554, -4.04839563369751, -3.322357416152954, 7.678798675537109, 21.679832458496094, 15.416955947875977, 15.8452787399292, 0.066162109375, 0.34326171875, -0.795654296875
326, 2501990221, -4.232564449310303, -3.288008213043213, 7.889991760253906, 23.148578643798828, 18.27780532836914, 17.73271369934082, 0.0732421875, 0.34033203125, -0.796142578125
327, 2502006888, -4.047400951385498, -3.516911745071411, 7.295932769775391, 31.424793243408203, 19.143651962280273, 22.343416213989258, 0.076904296875, 0.329345703125, -0.802490234375
328, 2502023555, -4.552161693572998, -3.3651912212371826, 7.411737442016602, 43.577964782714844, 22.902996063232422, 26.972707748413086, 0.085205078125, 0.3203125, -0.8046875
329, 2502040222, -5.667040824890137, -2.031277894973755, 9.271860122680664, 41.39914321899414, 23.88209342956543, 21.815397262573242, 0.09521484375, 0.309326171875, -0.806884765625
330, 2502056889, -5.270045280456543, -2.245098829269409, 8.865718841552734, 22.918628692626953, 20.312862396240234, 10.08095932006836, 0.101806640625, 0.302978515625, -0.810302734375
331, 2502073556, -4.9455366134643555, -2.385167360305786, 8.505611419677734, 8.87126350402832, 21.867938995361328, 2.6283481121063232, 0.1064453125, 0.2998046875, -0.813232421875
332, 2502090223, -4.589170455932617, -2.6251745223999023, 8.062971115112305, 1.6272492408752441, 27.175159454345703, -0.6981782913208008, 0.11474609375, 0.299072265625, -0.8125
333, 2502106890, -4.394730567932129, -3.057199239730835, 7.365455627441406, 14.593037605285645, 36.494014739990234, 5.0224928855896, 0.120361328125, 0.298583984375, -0.810791015625
334, 2502123557, -5.0060601234436035, -2.964392900466919, 8.04137134552002, 18.019519805908203, 39.2449836730957, 8.55277156829834, 0.1298828125, 0.2890625, -0.8115234375
335, 2502140224, -4.791011333465576, -2.569209575653076, 7.9708943367004395, 10.322592735290527, 40.52785873413086, 10.801515579223633, 0.140869140625, 0.2890625, -0.810791015625
336, 2502156891, -4.3807220458984375, -2.7697947025299072, 8.165419578552246, 2.837296485900879, 53.07370376586914, 15.872458457946777, 0.155029296875, 0.28515625, -0.8056640625
337, 2502173558, -5.027571201324463, -2.4950737953186035, 8.412384986877441, -2.5828139781951904, 75.53141021728516, 19.391014099121094, 0.17333984375, 0.287353515625, -0.806640625
338, 2502190225, -5.449390888214111, -2.225900888442993, 7.933258533477783, -17.293907165527344, 98.35173034667969, 17.007144927978516, 0.193359375, 0.2880859375, -0.80126953125
339, 2502206892, -5.479715347290039, -2.483358144760132, 7.8319292068481445, -20.837045669555664, 123.41636657714844, 14.575305938720703, 0.22265625, 0.291259765625, -0.791259765625
340, 2502223559, -5.704754829406738, -2.3438448905944824, 7.590933322906494, -18.540931701660156, 152.59385681152344, 11.84485912322998, 0.257080078125, 0.294189453125, -0.777587890625
341, 2502240226, -5.7323832511901855, -2.250056743621826, 7.562962532043457, -17.00821876525879, 186.3136444091797, 10.527263641357422, 0.29443359375, 0.2978515625, -0.75927734375
342, 2502256893, -5.103288650512695, -2.656113624572754, 7.953066825866699, -18.481277465820312, 232.30580139160156, 11.708383560180664, 0.341552734375, 0.30078125, -0.736572265625
343, 2502273560, -5.509373664855957, -3.1258609294891357, 7.783575057983398, -11.531641960144043, 290.3388366699219, 23.67156982421875, 0.407958984375, 0.29931640625, -0.704345703125
344, 2502290227, -5.722277641296387, -2.8665506839752197, 8.451675415039062, -8.553722381591797, 375.57952880859375, 40.946876525878906, 0.478759765625, 0.294189453125, -0.6591796875
345, 2502306894, -7.641677379608154, -2.5527729988098145, 10.028511047363281, -21.6971378326416, 461.9159851074219, 71.37666320800781, 0.563720703125, 0.289306640625, -0.591064453125
346, 2502323561, -14.460562705993652, -2.1135525703430176, 10.120195388793945, -39.08917236328125, 490.3017883300781, 88.17699432373047, 0.646484375, 0.275390625, -0.49951171875
347, 2502340228, -17.866031646728516, -4.89309549331665, 10.463834762573242, -59.17566680908203, 478.9441833496094, 93.42607116699219, 0.714599609375, 0.26318359375, -0.400634765625
348, 2502356895, -16.54845428466797, -6.286775588989258, 9.341891288757324, -51.83844757080078, 442.8408508300781, 113.88027954101562, 0.76416015625, 0.24365234375, -0.294189453125
349, 2502373562, -12.924121856689453, -5.663974285125732, 11.673883438110352, -22.44302749633789, 402.3319396972656, 134.5502471923828, 0.802001953125, 0.213134765625, -0.19384765625
350, 2502390229, -6.190619468688965, -4.9515228271484375, 14.178189277648926, -15.848620414733887, 336.42108154296875, 115.94863891601562, 0.81787109375, 0.178466796875, -0.10888671875
351, 2502406896, -24.581958770751953, -3.8659985065460205, 21.80449867248535, -69.16495513916016, 177.4069061279297, 124.55157470703125, 0.8232421875, 0.153076171875, -0.04638671875
352, 2502423563, -19.52947998046875, -5.6143083572387695, 27.219680786132812, -64.3645248413086, -57.96746063232422, 70.41545104980469, 0.818115234375, 0.124755859375, -0.03515625
353, 2502440230, -4.104735851287842, -6.864160060882568, 13.675155639648438, -0.8453897833824158, -235.05068969726562, 45.0651741027832, 0.813720703125, 0.10986328125, -0.0654296875
354, 2502456897, -0.32468411326408386, -4.121976852416992, 6.6320648193359375, 73.14373016357422, -254.47946166992188, 98.96781158447266, 0.810791015625, 0.081787109375, -0.102294921875
355, 2502473564, -0.26326245069503784, -2.2184712886810303, 5.869943618774414, 109.6451187133789, -244.4143829345703, 134.70449829101562, 0.824462890625, 0.045166015625, -0.140380859375
356, 2502490231, -4.190034866333008, -2.0047240257263184, 8.692229270935059, 63.658935546875, -271.151123046875, 103.89061737060547, 0.850830078125, 0.0068359375, -0.1923828125
357, 2502506898, -6.630850315093994, -5.806946277618408, 8.358198165893555, 20.66942024230957, -323.17437744140625, 34.280792236328125, 0.880615234375, -0.013916015625, -0.283935546875
358, 2502523565, -6.8761396408081055, -7.8328094482421875, 6.19729471206665, 44.67097091674805, -359.3919982910156, -12.500544548034668, 0.87255859375, -0.019287109375, -0.424072265625
359, 2502540232, -7.2359466552734375, -6.620279788970947, 4.871059894561768, 87.47607421875, -368.0484313964844, -40.50758361816406, 0.807373046875, -0.028076171875, -0.56689453125
360, 2502556899, -8.21853256225586, -4.277145862579346, 5.280799865722656, 92.8926010131836, -356.5172424316406, -60.24808120727539, 0.703369140625, -0.040771484375, -0.669189453125
361, 2502573566, -8.793651580810547, -2.743152618408203, 6.410044193267822, 50.906436920166016, -336.0075988769531, -82.72949981689453, 0.603515625, -0.035888671875, -0.725341796875
362, 2502590233, -10.644247055053711, -3.5723209381103516, 7.605378150939941, 5.464230060577393, -324.4257507324219, -101.17369079589844, 0.529052734375, -0.015869140625, -0.753173828125
363, 2502606900, -13.380581855773926, -5.166265487670898, 10.07349967956543, -8.099324226379395, -332.6353759765625, -112.45895385742188, 0.480224609375, 0.018798828125, -0.7919921875
364, 2502623567, -13.24142074584961, -3.225186347961426, 10.096498489379883, -10.726359367370605, -350.83538818359375, -115.96401977539062, 0.42041015625, 0.048583984375, -0.8623046875
365, 2502640234, -13.066654205322266, 1.0615177154541016, 10.541913032531738, -39.61722183227539, -343.8786926269531, -93.39132690429688, 0.307861328125, 0.0771484375, -0.930419921875
366, 2502656901, -15.521708488464355, 3.151062250137329, 12.446883201599121, -100.70182800292969, -337.0377197265625, -55.33047103881836, 0.167236328125, 0.103515625, -0.948974609375
367, 2502673568, -16.40890884399414, 2.3435211181640625, 12.463768005371094, -138.7920379638672, -341.71881103515625, -30.638887405395508, 0.03955078125, 0.1396484375, -0.9296875
368, 2502690235, -18.819961547851562, 2.2792372703552246, 11.869422912597656, -145.561279296875, -336.4897766113281, -16.230365753173828, -0.0595703125, 0.171875, -0.8955078125
369, 2502706902, -21.23931884765625, 2.1170904636383057, 10.248555183410645, -142.70887756347656, -328.2521057128906, -8.36414909362793, -0.1416015625, 0.204833984375, -0.856201171875
370, 2502723569, -22.051801681518555, 0.5233930349349976, 5.9524993896484375, -138.72879028320312, -309.8245849609375, -2.4472248554229736, -0.21435546875, 0.234130859375, -0.819580078125
371, 2502740236, -22.664342880249023, 0.2722424864768982, 0.19863247871398926, -134.204345703125, -266.5852966308594, -4.280522346496582, -0.273193359375, 0.2607421875, -0.781005859375
372, 2502756903, -22.60305404663086, 1.5519485473632812, -4.232388019561768, -129.1653594970703, -198.7073211669922, -17.55162239074707, -0.31787109375, 0.284423828125, -0.748291015625
373, 2502773570, -22.981670379638672, 2.995668888092041, -6.870340347290039, -96.63243103027344, -130.41993713378906, -43.894775390625, -0.34716796875, 0.30078125, -0.723388671875
374, 2502790237, -21.949134826660156, 4.800912857055664, -10.328503608703613, -26.895055770874023, -60.179718017578125, -48.52241134643555, -0.362548828125, 0.302490234375, -0.707275390625
375, 2502806904, -19.544143676757812, 6.890083312988281, -8.752323150634766, 25.5394287109375, 26.79989242553711, -32.34638977050781, -0.366943359375, 0.29248046875, -0.706787109375
376, 2502823571, -7.474411487579346, 3.18501877784729, 1.030267596244812, 81.78743743896484, 104.96485900878906, 29.732072830200195, -0.3466796875, 0.277099609375, -0.71875
377, 2502840238, 11.562767028808594, -6.1553192138671875, 20.824539184570312, -12.647555351257324, 148.329833984375, 18.127302169799805, -0.316162109375, 0.2744140625, -0.729736328125
378, 2502856905, -3.1748387813568115, -1.454337239265442, 5.229907035827637, -6.823338031768799, 228.91439819335938, 48.59513854980469, -0.266845703125, 0.27880859375, -0.7412109375
379, 2502873572, -11.903610229492188, 7.7905988693237305, 14.861522674560547, -41.559112548828125, 231.7679443359375, 41.49264144897461, -0.214599609375, 0.288330078125, -0.750244140625
380, 2502890239, -11.747114181518555, -5.973536491394043, 13.694262504577637, -52.047088623046875, 187.18992614746094, 48.72819137573242, -0.166015625, 0.2978515625, -0.75390625
381, 2502906906, -7.482134819030762, -10.243924140930176, 7.5399298667907715, -45.91959762573242, 175.86151123046875, 24.471254348754883, -0.125732421875, 0.307861328125, -0.755615234375
382, 2502923573, -6.01287841796875, -2.4869399070739746, 9.246184349060059, -35.28519821166992, 168.75637817382812, 28.36157989501953, -0.08544921875, 0.311767578125, -0.7568359375
383, 2502940240, -12.333747863769531, -7.529242515563965, 12.1134672164917, 5.7133941650390625, 137.48965454101562, 38.17185592651367, -0.052001953125, 0.31591796875, -0.75634765625
384, 2502956907, -6.1768479347229, -1.2747504711151123, 9.623588562011719, 57.47370147705078, 74.79203796386719, 30.744651794433594, -0.0283203125, 0.30322265625, -0.7626953125
385, 2502973574, -6.347255706787109, -2.516615629196167, 10.208550453186035, 36.46753692626953, 45.26026916503906, 15.892171859741211, -0.01318359375, 0.293701171875, -0.764404296875
386, 2502990241, -5.3897929191589355, -2.7367734909057617, 9.288076400756836, 31.06022071838379, 29.22739028930664, 14.095773696899414, -0.006591796875, 0.2861328125, -0.767578125
387, 2503006908, -5.719013214111328, -2.221100330352783, 9.184094429016113, 23.718969345092773, 15.980489730834961, 10.926176071166992, -7.32421875E-4, 0.28173828125, -0.76806640625
388, 2503023575, -5.362968444824219, -2.613591194152832, 8.752554893493652, 19.077545166015625, 9.641796112060547, 7.088551998138428, 9.765625E-4, 0.275146484375, -0.76953125
389, 2503040242, -4.888071060180664, -2.431940793991089, 8.677921295166016, 11.713011741638184, 8.00989818572998, 2.782367467880249, 0.0048828125, 0.273193359375, -0.767822265625
390, 2503056909, -4.903846263885498, -2.703091859817505, 8.279004096984863, 2.735673666000366, 8.99657154083252, -2.0928397178649902, 0.007080078125, 0.268310546875, -0.768310546875
391, 2503073576, -4.691545009613037, -3.033902883529663, 7.966028690338135, 3.021768093109131, 9.99583911895752, -1.7023998498916626, 0.007080078125, 0.270751953125, -0.7734375
392, 2503090243, -4.780402660369873, -2.854055881500244, 8.088587760925293, 2.250133752822876, 9.55970573425293, -0.25362980365753174, 0.012939453125, 0.272705078125, -0.771728515625
393, 2503106910, -4.827081680297852, -2.7794389724731445, 8.0079927444458, 0.5930301547050476, 8.444425582885742, 0.12863339483737946, 0.014404296875, 0.271728515625, -0.769287109375
394, 2503123577, -4.745711326599121, -2.8328781127929688, 7.7989091873168945, 0.7215803861618042, 8.232186317443848, 0.8613359928131104, 0.015625, 0.270263671875, -0.7666015625
395, 2503140244, -4.602330207824707, -2.8754804134368896, 7.86820125579834, 3.8130083084106445, 7.664506435394287, 3.4333767890930176, 0.01708984375, 0.267822265625, -0.767578125
396, 2503156911, -4.689601898193359, -2.9434316158294678, 7.803375720977783, 7.3021135330200195, 6.876224994659424, 7.47031307220459, 0.02099609375, 0.263916015625, -0.771484375
397, 2503173578, -4.923285484313965, -2.6876821517944336, 7.728409290313721, 11.113829612731934, 6.458255290985107, 10.357062339782715, 0.021484375, 0.2626953125, -0.771484375
398, 2503190245, -4.881710529327393, -2.7358648777008057, 7.665012359619141, 14.950634956359863, 6.6283650398254395, 11.756982803344727, 0.023681640625, 0.2607421875, -0.77001953125
399, 2503206912, -4.935234069824219, -2.6487066745758057, 7.8225555419921875, 17.63965606689453, 7.060760498046875, 12.737773895263672, 0.027587890625, 0.25537109375, -0.772705078125
400, 2503223579, -4.877390384674072, -2.5912606716156006, 8.039180755615234, 14.116008758544922, 11.120981216430664, 12.044039726257324, 0.03271484375, 0.25390625, -0.772216796875
401, 2503240246, -4.718501091003418, -2.669227123260498, 7.682285308837891, 14.940298080444336, 14.012807846069336, 13.46372127532959, 0.0341796875, 0.248779296875, -0.774658203125
402, 2503256913, -5.071625232696533, -2.4265520572662354, 7.984873294830322, 19.42557716369629, 12.583009719848633, 15.91287612915039, 0.039794921875, 0.244384765625, -0.775390625
403, 2503273580, -5.025193214416504, -2.0620193481445312, 8.40465259552002, 13.757974624633789, 13.583309173583984, 15.061267852783203, 0.04443359375, 0.239501953125, -0.77490234375
404, 2503290247, -4.759487152099609, -2.19376540184021, 8.20340347290039, 6.646365165710449, 22.458982467651367, 15.014516830444336, 0.048828125, 0.239501953125, -0.775146484375
405, 2503306914, -5.084582328796387, -1.8578766584396362, 8.10513973236084, 5.463339805603027, 36.38871383666992, 13.486432075500488, 0.056396484375, 0.236083984375, -0.776123046875
406, 2503323581, -4.923882484436035, -2.0243351459503174, 8.064923286437988, -0.9866234064102173, 50.9413948059082, 11.734114646911621, 0.068359375, 0.235595703125, -0.77587890625
407, 2503340248, -4.96309757232666, -2.2210092544555664, 7.856854438781738, -5.327280521392822, 69.58407592773438, 12.602112770080566, 0.083740234375, 0.236083984375, -0.77294921875
408, 2503356915, -5.125193119049072, -2.1798930168151855, 8.04908275604248, -6.2517595291137695, 90.45530700683594, 14.583029747009277, 0.103759765625, 0.2353515625, -0.7705078125
409, 2503373582, -5.21029806137085, -2.072666645050049, 7.8447489738464355, -12.303319931030273, 115.45079803466797, 13.62743854522705, 0.128662109375, 0.235595703125, -0.765625
410, 2503390249, -5.6163811683654785, -2.0250561237335205, 7.614429473876953, -14.861991882324219, 141.34439086914062, 12.59190845489502, 0.158203125, 0.240234375, -0.756591796875
411, 2503406916, -5.828277587890625, -1.859452486038208, 7.576866149902344, -13.69407844543457, 168.0001678466797, 9.862899780273438, 0.196044921875, 0.24267578125, -0.748779296875
412, 2503423583, -5.423104763031006, -1.8887208700180054, 7.884171485900879, -10.927399635314941, 203.0857696533203, 10.042062759399414, 0.236328125, 0.243408203125, -0.734375
413, 2503440250, -5.402223587036133, -2.4825949668884277, 7.761454105377197, -8.931315422058105, 251.9176483154297, 17.356632232666016, 0.28759765625, 0.243408203125, -0.71337890625
414, 2503456917, -6.016711711883545, -2.8275675773620605, 7.191514015197754, -0.4408298134803772, 322.6800537109375, 30.783390045166016, 0.35009765625, 0.240966796875, -0.680908203125
415, 2503473584, -6.739840030670166, -3.1497573852539062, 7.740222930908203, 7.027252674102783, 411.62835693359375, 53.452781677246094, 0.427978515625, 0.2314453125, -0.633544921875
416, 2503490251, -10.216541290283203, -3.531385898590088, 10.92092514038086, -3.2225143909454346, 476.37689208984375, 93.84811401367188, 0.513916015625, 0.217041015625, -0.568603515625
417, 2503506918, -17.35941505432129, -1.6949254274368286, 10.331480979919434, -17.137374877929688, 475.92474365234375, 106.95722198486328, 0.59716796875, 0.203369140625, -0.4873046875
418, 2503523585, -18.63507843017578, -5.623762130737305, 9.595026969909668, -22.32120132446289, 447.7971496582031, 106.9278564453125, 0.662841796875, 0.187255859375, -0.398193359375
419, 2503540252, -16.62741470336914, -6.218358039855957, 10.174445152282715, 2.7156848907470703, 410.4496765136719, 127.9723892211914, 0.714111328125, 0.160888671875, -0.30908203125
420, 2503556919, -11.198735237121582, -4.8835835456848145, 13.668962478637695, 26.641176223754883, 365.3924255371094, 131.5875244140625, 0.751220703125, 0.128173828125, -0.22119140625
421, 2503573586, -9.521219253540039, -4.4405364990234375, 17.0743465423584, 14.326545715332031, 229.73013305664062, 99.33934783935547, 0.773193359375, 0.10009765625, -0.156494140625
422, 2503590253, -29.0010986328125, -3.360527753829956, 26.7264347076416, 6.919147968292236, 75.48744201660156, 102.35401153564453, 0.781005859375, 0.072509765625, -0.121337890625
423, 2503606920, -10.966337203979492, -5.148425579071045, 21.176876068115234, -46.499454498291016, -176.36439514160156, -7.231352806091309, 0.777099609375, 0.062744140625, -0.142578125
424, 2503623587, -0.4422689974308014, -5.184250354766846, 8.861227989196777, 1.4913021326065063, -255.02346801757812, 4.899072170257568, 0.771728515625, 0.060302734375, -0.186279296875
425, 2503640254, 0.9525071382522583, -3.2889950275421143, 3.847010374069214, 52.959869384765625, -239.45263671875, 56.790706634521484, 0.76904296875, 0.042236328125, -0.2333984375
426, 2503656921, -1.151447057723999, -2.714003562927246, 5.966640472412109, 65.70538330078125, -222.56625366210938, 65.9151840209961, 0.77001953125, 0.018310546875, -0.279296875
427, 2503673588, -4.915566921234131, -4.467058181762695, 8.221211433410645, 46.07925033569336, -261.0435791015625, 32.87065887451172, 0.768310546875, 0.0078125, -0.341552734375
428, 2503690255, -6.226534843444824, -5.572666168212891, 7.78428840637207, 41.63805389404297, -308.82135009765625, -9.998013496398926, 0.748291015625, 0.00732421875, -0.42724609375
429, 2503706922, -6.477812767028809, -4.858697414398193, 6.216150283813477, 48.761314392089844, -340.79632568359375, -46.111209869384766, 0.6923828125, 0.015625, -0.521728515625
430, 2503723589, -6.883764743804932, -2.7304601669311523, 5.794909954071045, 40.71271514892578, -352.1950988769531, -65.87985229492188, 0.60546875, 0.0302734375, -0.60546875
431, 2503740256, -7.635036945343018, -0.8380876779556274, 6.7955732345581055, 23.481182098388672, -352.64825439453125, -66.66604614257812, 0.496337890625, 0.033203125, -0.64892578125
432, 2503756923, -8.654833793640137, 0.5140507221221924, 8.57947063446045, -16.896076202392578, -360.29522705078125, -57.58934783935547, 0.39306640625, 0.031494140625, -0.659423828125
433, 2503773590, -10.15591049194336, 0.00870058685541153, 9.099125862121582, -57.938758850097656, -378.57781982421875, -48.16279983520508, 0.308349609375, 0.027587890625, -0.652099609375
434, 2503790257, -9.893831253051758, 0.9430554509162903, 6.988058567047119, -90.3948974609375, -372.03167724609375, -46.1917724609375, 0.252685546875, 0.02001953125, -0.631591796875
435, 2503806924, -11.112018585205078, 2.434309720993042, 5.811233043670654, -124.64950561523438, -315.325439453125, -42.10181427001953, 0.244384765625, 0.0107421875, -0.599609375
436, 2503823591, -15.019492149353027, 0.10729013383388519, 11.067681312561035, -136.3787841796875, -269.16729736328125, -30.0528507232666, 0.3037109375, 0.00830078125, -0.595703125
437, 2503840258, -20.019529342651367, -2.579268455505371, 14.184220314025879, -125.40706634521484, -292.9825439453125, -38.20289611816406, 0.387451171875, 0.035400390625, -0.67919921875
438, 2503856925, -18.709077835083008, -2.0158486366271973, 10.878889083862305, -93.3302993774414, -310.73785400390625, -59.41033172607422, 0.400146484375, 0.104248046875, -0.829833984375
439, 2503873592, -19.57977867126465, 0.3813595771789551, 8.895181655883789, -82.8648681640625, -294.28350830078125, -70.44999694824219, 0.30419921875, 0.190185546875, -0.954345703125
440, 2503890259, -21.37702178955078, -0.3314557671546936, 6.061300754547119, -80.08876037597656, -277.8582458496094, -66.09626770019531, 0.161865234375, 0.26416015625, -1.004150390625
441, 2503906926, -21.25176239013672, -0.343355268239975, 1.6593360900878906, -70.88738250732422, -246.6811065673828, -61.70643615722656, 0.028564453125, 0.316162109375, -1.002685546875
442, 2503923593, -21.626176834106445, 0.15806148946285248, -1.8638396263122559, -73.1448745727539, -191.11038208007812, -73.18328857421875, -0.07080078125, 0.3544921875, -0.978759765625
443, 2503940260, -21.070322036743164, 0.3869866728782654, -5.4992265701293945, -58.98440170288086, -125.55396270751953, -96.7790756225586, -0.142578125, 0.3798828125, -0.952880859375
444, 2503956927, -21.15989875793457, 2.4964911937713623, -8.096369743347168, -24.530092239379883, -48.26185607910156, -116.0679702758789, -0.185791015625, 0.39111328125, -0.936279296875
445, 2503973594, -21.687450408935547, 4.3420186042785645, -8.51996898651123, -11.702863693237305, 23.431257247924805, -109.66327667236328, -0.206787109375, 0.396484375, -0.93017578125
446, 2503990261, -14.907382011413574, 1.0384241342544556, -6.649068832397461, 28.196897506713867, 95.37659454345703, -69.16065216064453, -0.203857421875, 0.399658203125, -0.93408203125
447, 2504006928, 2.796461582183838, -2.5530359745025635, 18.711942672729492, 54.062034606933594, 109.52935028076172, -11.580114364624023, -0.18505859375, 0.39013671875, -0.9521484375
448, 2504023595, 6.550223350524902, -2.860826015472412, 8.91246509552002, -17.70301055908203, 181.86563110351562, -3.707977294921875, -0.146484375, 0.400146484375, -0.958984375
449, 2504040262, -9.146038055419922, 8.131319046020508, 12.445588111877441, -19.4230899810791, 216.85299682617188, 45.50468444824219, -0.087890625, 0.415283203125, -0.96240234375
450, 2504056929, -10.179145812988281, 4.73146915435791, 16.38278579711914, -31.963659286499023, 167.97691345214844, 56.162635803222656, -0.03515625, 0.431884765625, -0.962646484375
451, 2504073596, -8.650273323059082, -9.823765754699707, 9.047205924987793, -25.321895599365234, 127.2490463256836, 47.885963439941406, 0.008056640625, 0.44677734375, -0.96484375
452, 2504090263, -6.591296672821045, -7.94270133972168, 8.198623657226562, 3.0559043884277344, 121.12828063964844, 39.205806732177734, 0.045654296875, 0.453125, -0.962158203125
453, 2504106930, -6.4835100173950195, -2.969088315963745, 10.064529418945312, 15.601489067077637, 102.4330825805664, 41.283145904541016, 0.0791015625, 0.453369140625, -0.962890625
454, 2504123597, -9.927752494812012, -6.150381565093994, 9.891579627990723, 43.028690338134766, 74.41985321044922, 41.462730407714844, 0.106689453125, 0.444091796875, -0.96826171875
455, 2504140264, -5.828849792480469, -0.8353462219238281, 10.27202320098877, 36.40011215209961, 56.115814208984375, 26.046875, 0.12841796875, 0.433349609375, -0.96875
456, 2504156931, -6.70086145401001, -2.2758448123931885, 10.280454635620117, 21.039424896240234, 34.65105438232422, 6.689467906951904, 0.138916015625, 0.42578125, -0.969970703125
457, 2504173598, -5.238770484924316, -1.9787189960479736, 9.334161758422852, 15.012786865234375, 15.928967475891113, 0.6462926864624023, 0.14404296875, 0.4228515625, -0.973388671875
458, 2504190265, -4.16840124130249, -1.9370020627975464, 8.621089935302734, 11.675552368164062, 10.348403930664062, 0.03756745904684067, 0.1494140625, 0.41845703125, -0.972900390625
459, 2504206932, -4.672821998596191, -2.5168352127075195, 8.731534957885742, 4.119721412658691, 9.538986206054688, -2.0094451904296875, 0.1494140625, 0.41845703125, -0.976318359375
460, 2504223599, -3.8532602787017822, -2.567807197570801, 8.206265449523926, -1.7653045654296875, 9.203715324401855, -3.484929084777832, 0.152099609375, 0.41943359375, -0.97265625
461, 2504240266, -4.616111755371094, -2.9705867767333984, 8.364221572875977, -3.631294012069702, 12.412389755249023, -2.992948055267334, 0.156494140625, 0.42041015625, -0.970703125
462, 2504256933, -4.9301581382751465, -2.3636133670806885, 8.619754791259766, -6.2252068519592285, 6.511281967163086, -3.454219341278076, 0.157470703125, 0.41943359375, -0.969482421875
463, 2504273600, -4.321013450622559, -2.4903857707977295, 8.129919052124023, -3.88476824760437, 5.359528541564941, -2.6393380165100098, 0.158935546875, 0.42333984375, -0.97119140625
464, 2504290267, -4.577662944793701, -2.55172061920166, 8.101740837097168, -3.325963258743286, 6.504826545715332, -2.246631145477295, 0.160888671875, 0.427001953125, -0.969970703125
465, 2504306934, -4.308978080749512, -2.6927273273468018, 7.908613204956055, -0.16348588466644287, 7.568201541900635, -0.8898493647575378, 0.163818359375, 0.425537109375, -0.971923828125
466, 2504323601, -4.657180309295654, -2.5781455039978027, 8.11262321472168, 2.1675965785980225, 8.485635757446289, 1.1901646852493286, 0.166748046875, 0.425537109375, -0.970458984375
467, 2504340268, -4.67727518081665, -2.6380558013916016, 8.120664596557617, 4.579366683959961, 7.582493782043457, 3.4163825511932373, 0.16845703125, 0.424072265625, -0.968994140625
468, 2504356935, -4.555128574371338, -2.6313083171844482, 7.897863864898682, 6.686997890472412, 4.7877516746521, 5.491255283355713, 0.169921875, 0.421630859375, -0.96826171875
469, 2504373602, -4.299417018890381, -2.695793867111206, 7.795161247253418, 13.145572662353516, 4.851633071899414, 9.782313346862793, 0.175537109375, 0.419677734375, -0.97216796875
470, 2504390269, -4.243593692779541, -2.7378695011138916, 7.785404682159424, 19.615550994873047, 8.656222343444824, 13.792988777160645, 0.177978515625, 0.41357421875, -0.97314453125
471, 2504406936, -4.765433311462402, -2.512960910797119, 7.912126541137695, 24.465978622436523, 10.662211418151855, 16.696046829223633, 0.18212890625, 0.40869140625, -0.97607421875
472, 2504423603, -4.901660442352295, -2.4675352573394775, 8.0435791015625, 24.00510025024414, 11.24949836730957, 16.246156692504883, 0.184814453125, 0.400146484375, -0.97705078125
473, 2504440270, -4.870483875274658, -2.092223644256592, 8.651473999023438, 17.056133270263672, 15.361350059509277, 13.140057563781738, 0.19189453125, 0.392578125, -0.981689453125
474, 2504456937, -4.936126708984375, -2.0559754371643066, 8.249139785766602, 4.328778266906738, 21.468496322631836, 8.805706977844238, 0.1982421875, 0.392578125, -0.979248046875
475, 2504473604, -4.913691997528076, -1.9287753105163574, 8.180693626403809, 4.058579444885254, 25.425334930419922, 6.459890842437744, 0.206787109375, 0.39111328125, -0.9794921875
476, 2504490271, -4.690654754638672, -1.9759490489959717, 8.158848762512207, 1.5636801719665527, 32.08042526245117, 3.4105801582336426, 0.21728515625, 0.393310546875, -0.976806640625
477, 2504506938, -4.071305274963379, -2.144165515899658, 8.200353622436523, -0.7435934543609619, 45.41929244995117, 6.574951171875, 0.228759765625, 0.390380859375, -0.973876953125
478, 2504523605, -4.625655651092529, -2.1989786624908447, 8.30666446685791, -1.115234375, 62.91023635864258, 11.936182975769043, 0.24609375, 0.39013671875, -0.968017578125
479, 2504540272, -5.3189544677734375, -1.8280938863754272, 8.186787605285645, -10.11203670501709, 81.49636840820312, 12.10474681854248, 0.26904296875, 0.392333984375, -0.964599609375
480, 2504556939, -5.213768482208252, -2.0984249114990234, 8.068400382995605, -17.726734161376953, 101.81776428222656, 9.402836799621582, 0.297607421875, 0.39453125, -0.950927734375
481, 2504573606, -5.294700622558594, -2.021829843521118, 7.867720127105713, -18.8551082611084, 125.4901123046875, 8.02449893951416, 0.328857421875, 0.400634765625, -0.9365234375
482, 2504590273, -5.844607353210449, -1.922926902770996, 7.6146321296691895, -18.72987937927246, 150.2344512939453, 5.821897983551025, 0.36865234375, 0.407470703125, -0.922119140625
483, 2504606940, -5.859780311584473, -1.675705909729004, 7.653263568878174, -17.863506317138672, 176.86183166503906, 2.5093958377838135, 0.413330078125, 0.410888671875, -0.900634765625
484, 2504623607, -5.342125415802002, -2.2505085468292236, 7.923737525939941, -18.544031143188477, 219.1198272705078, 3.681525468826294, 0.467041015625, 0.41845703125, -0.8701171875
485, 2504640274, -5.51820707321167, -2.668827533721924, 7.667688369750977, -15.775945663452148, 272.7255859375, 11.600584030151367, 0.52734375, 0.4189453125, -0.82861328125
486, 2504656941, -6.203422546386719, -3.0927486419677734, 7.613325595855713, -10.552984237670898, 345.7105712890625, 23.39910316467285, 0.606201171875, 0.4208984375, -0.77392578125
487, 2504673608, -6.818819046020508, -3.079024314880371, 9.15125560760498, -15.274396896362305, 429.52667236328125, 52.987525939941406, 0.699462890625, 0.416015625, -0.690673828125
488, 2504690275, -11.16850471496582, -2.7953803539276123, 9.702033042907715, -32.19086456298828, 475.18511962890625, 81.70903015136719, 0.794677734375, 0.405517578125, -0.582275390625
489, 2504706942, -17.694345474243164, -2.311621904373169, 10.245136260986328, -54.2788200378418, 474.1331481933594, 77.4066162109375, 0.873779296875, 0.391845703125, -0.458740234375
490, 2504723609, -17.55004119873047, -5.994946002960205, 9.401838302612305, -63.57945251464844, 453.3698425292969, 86.52691650390625, 0.93359375, 0.373046875, -0.328369140625
491, 2504740276, -15.948918342590332, -5.6423869132995605, 10.770132064819336, -52.001625061035156, 417.08685302734375, 112.22557067871094, 0.972412109375, 0.342529296875, -0.202880859375
492, 2504756943, -10.739011764526367, -5.908865451812744, 12.759623527526855, -30.614025115966797, 352.52960205078125, 118.1111831665039, 0.993896484375, 0.3056640625, -0.095703125
493, 2504773610, -9.585464477539062, -6.5985941886901855, 13.706032752990723, -15.957476615905762, 226.16192626953125, 106.5938491821289, 0.996826171875, 0.27392578125, -0.022216796875
494, 2504790277, -27.689821243286133, -5.7897257804870605, 26.158384323120117, 11.335611343383789, 97.15299987792969, 109.3188247680664, 0.996337890625, 0.238525390625, 0.01416015625
495, 2504806944, -10.196621894836426, -6.766729831695557, 19.4273738861084, 7.009860515594482, -136.18043518066406, 14.823455810546875, 0.990478515625, 0.2294921875, -0.0205078125
496, 2504823611, -2.219189167022705, -4.631773948669434, 10.382698059082031, 60.92586898803711, -206.13543701171875, 32.708736419677734, 0.97802734375, 0.22705078125, -0.090576171875
497, 2504840278, -1.4531458616256714, -1.464525580406189, 8.009699821472168, 86.4495849609375, -226.05133056640625, 77.7052230834961, 0.969970703125, 0.20849609375, -0.162841796875
498, 2504856945, -2.7372708320617676, -0.8460739850997925, 8.665471076965332, 76.97463989257812, -259.6066589355469, 93.40535736083984, 0.95947265625, 0.184814453125, -0.2421875
499, 2504873612, -5.996780872344971, -2.1576075553894043, 9.690437316894531, 44.60624313354492, -320.6849670410156, 80.95106506347656, 0.936767578125, 0.165283203125, -0.33935546875
500, 2504890279, -7.574710845947266, -4.031253337860107, 7.520409107208252, 35.9952392578125, -382.3558654785156, 56.75580596923828, 0.893310546875, 0.154541015625, -0.45361328125
501, 2504906946, -6.131011009216309, -3.854771852493286, 4.583264350891113, 45.934444427490234, -411.09539794921875, 41.76353454589844, 0.82080078125, 0.140625, -0.57568359375
502, 2504923613, -5.005345344543457, -3.334392786026001, 2.6588618755340576, 48.69835662841797, -395.1561584472656, 32.814353942871094, 0.724853515625, 0.121337890625, -0.677978515625
503, 2504940280, -6.7722930908203125, -2.0374882221221924, 4.387412071228027, 15.993806838989258, -349.5019836425781, 6.769573211669922, 0.619873046875, 0.10302734375, -0.74462890625
504, 2504956947, -9.469886779785156, -2.5423715114593506, 6.965521812438965, -33.53526306152344, -330.3096923828125, -30.889253616333008, 0.5234375, 0.0966796875, -0.788818359375
505, 2504973614, -10.847869873046875, -4.287617206573486, 8.05689811706543, -41.84573745727539, -337.5687561035156, -57.77638626098633, 0.423095703125, 0.10107421875, -0.8212890625
506, 2504990281, -10.247570037841797, -2.5830249786376953, 7.87938928604126, -23.319883346557617, -332.9670715332031, -68.72870635986328, 0.31396484375, 0.1005859375, -0.83056640625
507, 2505006948, -10.832235336303711, 1.5495785474777222, 9.610188484191895, -48.69447708129883, -310.86712646484375, -66.57703399658203, 0.2236328125, 0.09716796875, -0.8173828125
508, 2505023615, -12.733865737915039, 2.9801578521728516, 12.141057968139648, -108.91754913330078, -295.8533020019531, -57.6705322265625, 0.16064453125, 0.1015625, -0.796630859375
509, 2505040282, -15.494507789611816, 2.059899091720581, 14.798859596252441, -150.11729431152344, -303.52203369140625, -48.709251403808594, 0.109619140625, 0.11962890625, -0.78271484375
510, 2505056949, -18.044870376586914, 1.1473170518875122, 15.409457206726074, -153.02389526367188, -326.1740417480469, -34.01802444458008, 0.056884765625, 0.140869140625, -0.77685546875
511, 2505073616, -21.354400634765625, 1.2982125282287598, 13.846620559692383, -143.59381103515625, -341.92718505859375, -23.15580177307129, 0.001220703125, 0.160888671875, -0.772216796875
512, 2505090283, -24.380023956298828, 1.3326462507247925, 8.579451560974121, -138.403076171875, -337.7231140136719, -20.42690658569336, -0.054443359375, 0.1826171875, -0.768798828125
513, 2505106950, -26.868688583374023, 0.4818524718284607, 0.8446897268295288, -125.05684661865234, -289.57952880859375, -11.614378929138184, -0.11328125, 0.209228515625, -0.768310546875
514, 2505123617, -23.545610427856445, 1.3069053888320923, -5.9688334465026855, -108.28418731689453, -205.4156036376953, -26.70384407043457, -0.159423828125, 0.233642578125, -0.766845703125
515, 2505140284, -25.190187454223633, 5.659838676452637, -9.012317657470703, -91.01545715332031, -110.30252838134766, -67.91268157958984, -0.190673828125, 0.249755859375, -0.763671875
516, 2505156951, -27.669309616088867, 5.783242702484131, -11.796887397766113, -52.59928894042969, -50.619937896728516, -70.91134643554688, -0.209228515625, 0.259765625, -0.76416015625
517, 2505173618, -23.917179107666016, 7.7184576988220215, -12.222288131713867, 1.7994205951690674, 24.71367073059082, -66.85417175292969, -0.214111328125, 0.256591796875, -0.76806640625
518, 2505190285, -1.4137232303619385, 1.2838248014450073, 4.731790065765381, 82.61898803710938, 70.33405303955078, -44.979095458984375, -0.204345703125, 0.23779296875, -0.77783203125
519, 2505206952, 10.089755058288574, -0.533688485622406, 26.624910354614258, -47.81736373901367, 152.38717651367188, -18.39844512939453, -0.17138671875, 0.234375, -0.78759765625
520, 2505223619, 0.13032269477844238, 3.2354485988616943, 0.09273331612348557, -27.58837890625, 204.9017333984375, 18.79999542236328, -0.124755859375, 0.245361328125, -0.79638671875
521, 2505240286, -11.039462089538574, 9.591377258300781, 15.887771606445312, -65.85070037841797, 229.11863708496094, 34.111610412597656, -0.0625, 0.2607421875, -0.80517578125
522, 2505256953, -10.372774124145508, -6.7220659255981445, 12.057480812072754, -66.0408706665039, 180.06756591796875, 39.37651443481445, -0.012939453125, 0.275146484375, -0.804931640625
523, 2505273620, -9.077796936035156, -12.602367401123047, 8.133553504943848, -53.762123107910156, 169.3638458251953, 14.047905921936035, 0.033203125, 0.2880859375, -0.801513671875
524, 2505290287, -6.240431308746338, -1.950844168663025, 10.066859245300293, -26.371538162231445, 142.44085693359375, 25.3989200592041, 0.070556640625, 0.2958984375, -0.7998046875
525, 2505306954, -12.324014663696289, -8.487200736999512, 11.310046195983887, 21.759733200073242, 95.6647720336914, 41.138179779052734, 0.10302734375, 0.2958984375, -0.799560546875
526, 2505323621, -5.3729119300842285, -0.6621251106262207, 9.750008583068848, 48.927703857421875, 56.5596923828125, 34.87490463256836, 0.123046875, 0.281982421875, -0.80126953125
527, 2505340288, -5.499801158905029, -2.899996519088745, 8.91459846496582, 43.38703155517578, 30.68841552734375, 22.635343551635742, 0.1337890625, 0.27197265625, -0.806396484375
528, 2505356955, -5.374701499938965, -2.5406992435455322, 9.16472339630127, 48.95669174194336, 23.332687377929688, 24.38137435913086, 0.143798828125, 0.25732421875, -0.8095703125
529, 2505373622, -4.599623680114746, -1.3037587404251099, 9.195327758789062, 47.55060958862305, 13.223711967468262, 23.628442764282227, 0.148681640625, 0.245849609375, -0.810546875
530, 2505390289, -4.987576961517334, -2.5319528579711914, 8.589943885803223, 50.5904541015625, 7.855982780456543, 23.186378479003906, 0.15380859375, 0.232421875, -0.816650390625
531, 2505406956, -4.8909783363342285, -2.3472812175750732, 8.577795028686523, 46.80833435058594, 3.3543660640716553, 20.950363159179688, 0.156982421875, 0.219970703125, -0.821044921875
532, 2505423623, -4.768815517425537, -2.4680070877075195, 8.481160163879395, 37.57129669189453, 1.616984248161316, 16.924121856689453, 0.156982421875, 0.209228515625, -0.823486328125
533, 2505440290, -4.71265983581543, -2.729797124862671, 8.664762496948242, 18.859539031982422, 3.6435089111328125, 12.41185188293457, 0.16259765625, 0.204833984375, -0.82080078125
534, 2505456957, -4.7505388259887695, -1.7764766216278076, 8.430953025817871, 16.983898162841797, -1.2214840650558472, 10.938206672668457, 0.162841796875, 0.1982421875, -0.82275390625
535, 2505473624, -4.795560359954834, -1.8851284980773926, 8.601156234741211, 22.415756225585938, -6.8136725425720215, 11.020010948181152, 0.162841796875, 0.191650390625, -0.826416015625
536, 2505490291, -4.505527019500732, -1.8776648044586182, 8.484103202819824, 24.069826126098633, -10.084772109985352, 11.274735450744629, 0.161376953125, 0.186767578125, -0.826904296875
537, 2505506958, -4.535684585571289, -1.6736167669296265, 8.540014266967773, 20.259117126464844, -8.814871788024902, 10.164824485778809, 0.160400390625, 0.18310546875, -0.830322265625
538, 2505523625, -4.630665302276611, -1.7535203695297241, 8.475564956665039, 15.231523513793945, -5.650961875915527, 8.587620735168457, 0.16162109375, 0.174560546875, -0.829345703125
539, 2505540292, -4.668734550476074, -1.5346882343292236, 8.56244945526123, 9.602174758911133, -5.052325248718262, 7.385879993438721, 0.16015625, 0.173583984375, -0.829833984375
540, 2505556959, -4.527801990509033, -1.684383511543274, 8.419185638427734, 7.038928985595703, -2.7365641593933105, 6.3740363121032715, 0.16162109375, 0.170654296875, -0.831298828125
541, 2505573626, -4.437271595001221, -1.8069254159927368, 8.439787864685059, 4.816065311431885, 0.5062414407730103, 6.5229339599609375, 0.16162109375, 0.169677734375, -0.833740234375
542, 2505590293, -4.506006240844727, -1.746385931968689, 8.401948928833008, 4.167846202850342, 2.542938232421875, 8.164965629577637, 0.162109375, 0.168212890625, -0.831787109375
543, 2505606960, -4.570234298706055, -1.7067791223526, 8.39725112915039, 3.375697135925293, 5.315027236938477, 8.755403518676758, 0.161865234375, 0.16748046875, -0.833251953125
544, 2505623627, -4.5635175704956055, -1.7349989414215088, 8.38306999206543, 1.8845775127410889, 9.160524368286133, 9.681127548217773, 0.165283203125, 0.166015625, -0.83251953125
545, 2505640294, -4.334189414978027, -1.7574784755706787, 8.46027946472168, 1.150970697402954, 14.318496704101562, 10.386195182800293, 0.169677734375, 0.166748046875, -0.83349609375
546, 2505656961, -4.575845241546631, -1.67721426486969, 8.449222564697266, 0.7160366177558899, 22.522930145263672, 11.991706848144531, 0.173828125, 0.1640625, -0.8349609375
547, 2505673628, -4.465710163116455, -1.4497512578964233, 8.491753578186035, 0.4442477524280548, 32.071022033691406, 12.991308212280273, 0.18115234375, 0.162841796875, -0.832763671875
548, 2505690295, -4.076324939727783, -1.2395586967468262, 8.620535850524902, -7.192493438720703, 52.66838073730469, 14.41799545288086, 0.191650390625, 0.163330078125, -0.82763671875
549, 2505706962, -4.434398174285889, -1.0916670560836792, 8.490761756896973, -14.35385799407959, 77.1703872680664, 14.314215660095215, 0.213134765625, 0.1650390625, -0.826171875
550, 2505723629, -4.62283992767334, -0.948843240737915, 8.264440536499023, -20.934934616088867, 105.96837615966797, 9.776894569396973, 0.235595703125, 0.170166015625, -0.816650390625
551, 2505740296, -4.863141059875488, -1.2303396463394165, 8.104636192321777, -24.826343536376953, 136.44761657714844, 4.908205986022949, 0.267333984375, 0.175048828125, -0.806640625
552, 2505756963, -5.370107650756836, -1.338050365447998, 8.144168853759766, -24.044811248779297, 165.72637939453125, 2.570981502532959, 0.3046875, 0.17626953125, -0.792724609375
553, 2505773630, -5.397001266479492, -1.289467692375183, 8.189275741577148, -22.91313934326172, 191.9490203857422, 0.052724286913871765, 0.345458984375, 0.18408203125, -0.775390625
554, 2505790297, -5.0965471267700195, -1.7371562719345093, 8.195061683654785, -16.663591384887695, 231.2014923095703, 3.2766451835632324, 0.393310546875, 0.189697265625, -0.748779296875
555, 2505806964, -5.000863075256348, -2.0964322090148926, 7.803372859954834, -7.004673480987549, 282.53448486328125, 19.177907943725586, 0.45458984375, 0.192626953125, -0.720947265625
556, 2505823631, -5.756491184234619, -2.3737783432006836, 6.847292423248291, 1.8162312507629395, 350.6314392089844, 38.352394104003906, 0.5224609375, 0.1875, -0.67041015625
557, 2505840298, -6.398087501525879, -3.4311461448669434, 8.522719383239746, 15.244905471801758, 438.7453308105469, 64.6916275024414, 0.602294921875, 0.174560546875, -0.60546875
558, 2505856965, -10.923768997192383, -3.947531223297119, 10.771119117736816, 18.480838775634766, 499.61376953125, 103.75445556640625, 0.689697265625, 0.154541015625, -0.5126953125
559, 2505873632, -20.24845314025879, -3.0301101207733154, 11.622137069702148, 2.296715497970581, 485.4224853515625, 122.28569793701172, 0.765380859375, 0.128173828125, -0.414794921875
560, 2505890299, -18.35418701171875, -4.51991081237793, 10.401800155639648, -2.8612313270568848, 440.9068298339844, 122.16972351074219, 0.813232421875, 0.100830078125, -0.317138671875
561, 2505906966, -15.594304084777832, -5.822718143463135, 11.873456001281738, 24.55609130859375, 406.3662109375, 134.14306640625, 0.843505859375, 0.070068359375, -0.228515625
562, 2505923633, -8.242250442504883, -5.269684791564941, 14.735250473022461, 45.160430908203125, 349.5407409667969, 129.5010986328125, 0.864990234375, 0.033935546875, -0.1484375
563, 2505940300, -16.20517921447754, -1.8463466167449951, 19.752424240112305, 20.613887786865234, 198.78875732421875, 127.70427703857422, 0.865478515625, -7.32421875E-4, -0.1015625
564, 2505956967, -24.57767105102539, 0.41916459798812866, 28.310649871826172, -53.06145095825195, 26.050504684448242, 96.177734375, 0.8583984375, -0.03125, -0.095947265625
565, 2505973634, -7.330478668212891, -7.019745826721191, 17.212522506713867, -106.84237670898438, -187.58914184570312, -2.463296413421631, 0.83642578125, -0.033203125, -0.14501953125
566, 2505990301, 0.45028141140937805, -6.510002613067627, 6.646918773651123, -48.99043273925781, -225.9713592529297, 5.550633907318115, 0.80322265625, -0.03125, -0.201904296875
567, 2506006968, 1.2072211503982544, -4.99461030960083, 3.4687654972076416, 16.195680618286133, -190.61476135253906, 9.55385684967041, 0.770263671875, -0.0400390625, -0.24072265625
568, 2506023635, -1.789104700088501, -4.970455169677734, 6.892748832702637, 55.23869323730469, -190.05380249023438, -18.040996551513672, 0.74267578125, -0.04736328125, -0.266357421875
569, 2506040302, -5.095452785491943, -4.900852203369141, 9.139286994934082, 83.48780059814453, -239.59486389160156, -50.95716857910156, 0.7158203125, -0.053466796875, -0.2900390625
570, 2506056969, -5.684076309204102, -2.316392660140991, 8.74350357055664, 83.60440826416016, -294.73748779296875, -77.7432861328125, 0.6953125, -0.05810546875, -0.31982421875
571, 2506073636, -5.968916416168213, 0.040435899049043655, 7.3860578536987305, 54.13395690917969, -326.9990539550781, -91.78731536865234, 0.6884765625, -0.05419921875, -0.3603515625
572, 2506090303, -6.52309513092041, 0.7301055788993835, 6.791482448577881, 20.82087516784668, -340.13702392578125, -78.55772399902344, 0.69384765625, -0.0419921875, -0.4169921875
573, 2506106970, -7.6385626792907715, 1.2602338790893555, 7.853951454162598, -1.8788213729858398, -347.6819763183594, -56.07155227661133, 0.697998046875, -0.02001953125, -0.51025390625
574, 2506123637, -9.441898345947266, 0.29191258549690247, 8.981986999511719, -25.54639434814453, -367.7100524902344, -39.97602462768555, 0.666748046875, 0.007568359375, -0.64208984375
575, 2506140304, -10.263712882995605, -1.0202523469924927, 8.062051773071289, -33.22087097167969, -384.2913513183594, -31.481117248535156, 0.560546875, 0.0498046875, -0.774658203125
576, 2506156971, -9.154304504394531, 0.8318579196929932, 6.56419038772583, -53.56952667236328, -364.2241516113281, -31.70884895324707, 0.39990234375, 0.084228515625, -0.834716796875
577, 2506173638, -10.867657661437988, 2.756793260574341, 7.2712578773498535, -99.36224365234375, -305.6110534667969, -26.380977630615234, 0.263671875, 0.11474609375, -0.811767578125
578, 2506190305, -17.13678741455078, 0.2397555410861969, 13.649317741394043, -146.80606079101562, -284.6577453613281, -18.856855392456055, 0.191650390625, 0.138916015625, -0.760498046875
579, 2506206972, -20.44249153137207, -4.190620422363281, 12.880036354064941, -141.41751098632812, -315.5951232910156, -23.87981605529785, 0.169189453125, 0.158935546875, -0.7392578125
580, 2506223639, -21.393798828125, -4.784883499145508, 9.44926929473877, -97.38919830322266, -318.62152099609375, -45.94123077392578, 0.140625, 0.170654296875, -0.75927734375
581, 2506240306, -23.74119758605957, -0.7949033379554749, 8.478582382202148, -84.82591247558594, -304.03253173828125, -79.1923599243164, 0.092041015625, 0.18603515625, -0.79248046875
582, 2506256973, -24.75029182434082, 2.015976667404175, 4.736604690551758, -88.7150650024414, -288.0953369140625, -80.66032409667969, 0.029541015625, 0.20361328125, -0.817138671875
583, 2506273640, -23.123132705688477, 2.768812417984009, -0.46260082721710205, -79.40091705322266, -243.37010192871094, -62.780052185058594, -0.037109375, 0.217041015625, -0.833984375
584, 2506290307, -23.072769165039062, 1.9019725322723389, -4.574002742767334, -58.76653289794922, -182.015869140625, -64.7692642211914, -0.09619140625, 0.234375, -0.843017578125
585, 2506306974, -24.191322326660156, 4.42282772064209, -8.039450645446777, -43.55568313598633, -115.11933898925781, -72.83599853515625, -0.135498046875, 0.241455078125, -0.849853515625
586, 2506323641, -22.857484817504883, 5.131521701812744, -11.902289390563965, -35.53862380981445, -40.72311782836914, -63.580955505371094, -0.16162109375, 0.246337890625, -0.847900390625
587, 2506340308, -22.316484451293945, 1.5657058954238892, -11.713462829589844, 22.391550064086914, 53.885955810546875, -52.342864990234375, -0.15771484375, 0.246826171875, -0.849853515625
588, 2506356975, 1.8128094673156738, 3.7211973667144775, 10.058839797973633, 108.99565124511719, 110.20783996582031, 2.9452807903289795, -0.130615234375, 0.217529296875, -0.869140625
589, 2506373642, 9.891566276550293, -1.2404677867889404, 17.186201095581055, -23.380035400390625, 188.1445770263672, -7.440895080566406, -0.085205078125, 0.21630859375, -0.874755859375
590, 2506390309, -8.754874229431152, 7.026500701904297, 7.692829132080078, -25.50966453552246, 224.62039184570312, 43.975059509277344, -0.023193359375, 0.224365234375, -0.885498046875
591, 2506406976, -11.11461067199707, 6.339154243469238, 15.880350112915039, -18.075090408325195, 200.038818359375, 61.48008346557617, 0.03759765625, 0.23095703125, -0.890869140625
592, 2506423643, -10.017455101013184, -10.761019706726074, 9.529131889343262, -8.232885360717773, 147.08168029785156, 47.504844665527344, 0.08447265625, 0.236083984375, -0.892578125
593, 2506440310, -7.401116847991943, -6.799558639526367, 7.751189231872559, 33.052799224853516, 138.65390014648438, 48.4937744140625, 0.12548828125, 0.229736328125, -0.88916015625
594, 2506456977, -11.869882583618164, -2.2869720458984375, 12.754765510559082, 71.98040771484375, 92.5069808959961, 54.2152099609375, 0.16259765625, 0.2099609375, -0.89111328125
595, 2506473644, -7.130375862121582, -3.3757152557373047, 10.876057624816895, 94.65113830566406, 48.253414154052734, 41.71748352050781, 0.180908203125, 0.182373046875, -0.897705078125
596, 2506490311, -7.300201416015625, -0.2974183261394501, 11.206628799438477, 62.73011016845703, 17.992115020751953, 26.08283233642578, 0.190673828125, 0.16552734375, -0.89990234375
597, 2506506978, -5.591638565063477, -2.0005204677581787, 9.439364433288574, 35.147037506103516, 3.13382625579834, 15.13623046875, 0.19384765625, 0.153564453125, -0.901611328125
598, 2506523645, -4.71575927734375, -1.7000036239624023, 9.055867195129395, 15.20849895477295, -0.14221467077732086, 9.904794692993164, 0.194580078125, 0.146484375, -0.9052734375
599, 2506540312, -4.564657211303711, -1.0406267642974854, 8.817747116088867, 6.555232524871826, -0.7160800099372864, 7.794773101806641, 0.194091796875, 0.14501953125, -0.90576171875
600, 2506556979, -4.5489821434021, -1.1711477041244507, 8.605500221252441, 1.995543122291565, 0.7871103286743164, 3.9069676399230957, 0.197021484375, 0.140869140625, -0.903564453125
601, 2506573646, -4.304739475250244, -1.2999223470687866, 8.55697250366211, -4.096982002258301, 4.540934085845947, 0.258451372385025, 0.197021484375, 0.142822265625, -0.904052734375
602, 2506590313, -4.342440128326416, -1.3489315509796143, 8.456018447875977, -10.30490493774414, 8.246915817260742, -1.865220069885254, 0.199462890625, 0.14697265625, -0.903076171875
603, 2506606980, -4.500979900360107, -1.9001144170761108, 8.299284934997559, -9.743576049804688, 8.390205383300781, -0.3021147549152374, 0.201904296875, 0.1474609375, -0.901611328125
604, 2506623647, -4.741393566131592, -1.917481780052185, 8.446366310119629, -7.235602855682373, 4.155078887939453, 0.24038168787956238, 0.205322265625, 0.151611328125, -0.89990234375
605, 2506640314, -4.558611869812012, -1.70170259475708, 8.560502052307129, -5.00438928604126, 0.6532711982727051, 0.3424226641654968, 0.203857421875, 0.14990234375, -0.8994140625
606, 2506656981, -4.5399980545043945, -1.673775315284729, 8.548022270202637, -2.612239360809326, 0.5982038378715515, 0.3332148492336273, 0.205810546875, 0.152099609375, -0.900390625
607, 2506673648, -4.709067344665527, -1.5141804218292236, 8.501255989074707, 0.13291071355342865, 0.5124652981758118, 0.07459058612585068, 0.20751953125, 0.151611328125, -0.89892578125
608, 2506690315, -4.6129655838012695, -1.671316385269165, 8.423067092895508, 1.114696741104126, 1.2726759910583496, -0.18884244561195374, 0.20751953125, 0.151611328125, -0.90185546875
609, 2506706982, -4.490651607513428, -1.768949270248413, 8.441904067993164, 1.0335941314697266, 2.2832632064819336, 0.576484203338623, 0.20751953125, 0.152587890625, -0.9033203125
610, 2506723649, -4.480925559997559, -1.8169139623641968, 8.38774585723877, 1.2190043926239014, 3.4835381507873535, 2.031400680541992, 0.20849609375, 0.151611328125, -0.9013671875
611, 2506740316, -4.5093674659729, -1.7633259296417236, 8.363009452819824, 2.211381196975708, 3.891343593597412, 4.121793746948242, 0.2099609375, 0.151123046875, -0.90185546875
612, 2506756983, -4.507530689239502, -1.788103699684143, 8.351449012756348, 1.806847333908081, 4.417591571807861, 5.6020965576171875, 0.2138671875, 0.148681640625, -0.900634765625
613, 2506773650, -4.469064235687256, -1.6860750913619995, 8.406898498535156, -1.008705496788025, 8.381792068481445, 6.664639472961426, 0.216552734375, 0.149169921875, -0.901611328125
614, 2506790317, -4.450066089630127, -1.7616863250732422, 8.430492401123047, -3.977898359298706, 13.20848560333252, 7.129012107849121, 0.218505859375, 0.149169921875, -0.901123046875
615, 2506806984, -4.344888687133789, -1.8226054906845093, 8.434130668640137, -4.15807580947876, 21.177228927612305, 8.465737342834473, 0.225341796875, 0.149658203125, -0.900146484375
616, 2506823651, -4.45434045791626, -1.4740482568740845, 8.526407241821289, -6.40184211730957, 30.922616958618164, 10.778203964233398, 0.23193359375, 0.148681640625, -0.896484375
617, 2506840318, -4.081641674041748, -1.3183014392852783, 8.501617431640625, -11.364115715026855, 51.955322265625, 12.512454986572266, 0.243896484375, 0.14990234375, -0.896240234375
618, 2506856985, -4.344215393066406, -1.1871026754379272, 8.458405494689941, -15.150683403015137, 76.86746978759766, 11.225852966308594, 0.2607421875, 0.152587890625, -0.888916015625
619, 2506873652, -4.521932125091553, -1.4422730207443237, 8.273962020874023, -19.004230499267578, 106.95519256591797, 10.403565406799316, 0.28662109375, 0.1591796875, -0.880859375
620, 2506890319, -4.952702522277832, -1.4213908910751343, 8.13868522644043, -16.170377731323242, 137.02529907226562, 11.367805480957031, 0.322509765625, 0.162109375, -0.869140625
621, 2506906986, -5.380972385406494, -1.4640988111495972, 8.105199813842773, -12.14382266998291, 163.0609893798828, 11.56472396850586, 0.36181640625, 0.161865234375, -0.854248046875
622, 2506923653, -5.180234909057617, -1.389155387878418, 8.15417194366455, -11.508249282836914, 191.68084716796875, 10.300765991210938, 0.40673828125, 0.164794921875, -0.834716796875
623, 2506940320, -5.444805145263672, -1.6182329654693604, 8.01086139678955, -8.032649993896484, 225.07077026367188, 14.006097793579102, 0.45849609375, 0.166748046875, -0.8056640625
624, 2506956987, -5.405367851257324, -1.6394925117492676, 7.667609214782715, -6.366930961608887, 270.2043762207031, 21.217891693115234, 0.519287109375, 0.1640625, -0.772216796875
625, 2506973654, -5.683006763458252, -2.5163040161132812, 6.99955940246582, -3.4273533821105957, 334.7763366699219, 39.02027893066406, 0.588623046875, 0.16015625, -0.7216796875
626, 2506990321, -6.246433258056641, -3.162858247756958, 8.050885200500488, 6.237416744232178, 426.4486999511719, 62.607261657714844, 0.671630859375, 0.149169921875, -0.650146484375
627, 2507006988, -9.823847770690918, -3.8188302516937256, 10.41690731048584, 8.647882461547852, 504.40008544921875, 95.36962890625, 0.7646484375, 0.129638671875, -0.5498046875
628, 2507023655, -19.042421340942383, -1.3132539987564087, 11.435486793518066, 0.9401870965957642, 504.18084716796875, 114.9167709350586, 0.840576171875, 0.102783203125, -0.4345703125
629, 2507040322, -19.36125946044922, -4.2686262130737305, 10.553499221801758, -2.1475565433502197, 461.5087890625, 106.88524627685547, 0.896484375, 0.07275390625, -0.326904296875
630, 2507056989, -17.012361526489258, -6.113173007965088, 11.53464126586914, 22.972341537475586, 426.0647888183594, 121.10643005371094, 0.931640625, 0.041259765625, -0.22314453125
631, 2507073656, -9.840340614318848, -4.7633771896362305, 13.635444641113281, 45.295352935791016, 375.72802734375, 122.64617156982422, 0.94482421875, 0.00244140625, -0.1337890625
632, 2507090323, -8.706145286560059, -1.0037906169891357, 17.399240493774414, 28.993364334106445, 239.38165283203125, 105.64891052246094, 0.955078125, -0.02783203125, -0.074951171875
633, 2507106990, -27.786571502685547, -0.826487123966217, 26.282421112060547, -15.990852355957031, 88.21615600585938, 130.30328369140625, 0.946044921875, -0.063232421875, -0.0615234375
634, 2507123657, -12.310111999511719, -4.849717140197754, 21.69271469116211, -95.49009704589844, -163.29473876953125, 13.23078441619873, 0.9306640625, -0.066162109375, -0.120849609375
635, 2507140324, -1.3616530895233154, -7.006211280822754, 9.277477264404297, -52.85198211669922, -251.09120178222656, 8.408955574035645, 0.904296875, -0.060546875, -0.205810546875
636, 2507156991, -0.15712876617908478, -5.222021102905273, 4.087855815887451, 9.521415710449219, -243.81346130371094, 21.3531551361084, 0.864501953125, -0.056396484375, -0.280517578125
637, 2507173658, -1.3573813438415527, -4.86384391784668, 4.949960708618164, 56.75493621826172, -230.8702850341797, 4.73552131652832, 0.8271484375, -0.05859375, -0.34130859375
638, 2507190325, -4.3819580078125, -4.519101142883301, 7.550339221954346, 81.21928405761719, -258.0442810058594, -22.744659423828125, 0.779296875, -0.056884765625, -0.39501953125
639, 2507206992, -6.052663803100586, -2.531160831451416, 7.736757278442383, 76.24821472167969, -306.1351623535156, -51.637386322021484, 0.726318359375, -0.052490234375, -0.458251953125
640, 2507223659, -6.140570163726807, -0.583450198173523, 6.1177802085876465, 50.87738037109375, -337.8360595703125, -63.10633850097656, 0.657958984375, -0.050048828125, -0.512451171875
641, 2507240326, -6.781429767608643, -0.35901740193367004, 6.2470808029174805, 29.40027618408203, -342.71612548828125, -47.96384811401367, 0.585693359375, -0.046630859375, -0.550048828125
642, 2507256993, -8.12826156616211, 0.35776853561401367, 7.6470160484313965, 2.294198751449585, -349.4084777832031, -35.79463577270508, 0.52685546875, -0.0517578125, -0.561767578125
643, 2507273660, -9.612619400024414, -0.7703642845153809, 7.78275203704834, -24.255128860473633, -364.9434814453125, -31.172344207763672, 0.503173828125, -0.059326171875, -0.580322265625
644, 2507290327, -10.290432929992676, -1.9881011247634888, 7.444184303283691, -30.38896942138672, -363.4078063964844, -29.896690368652344, 0.494384765625, -0.063232421875, -0.635498046875
645, 2507306994, -10.855690002441406, -1.1728054285049438, 8.27391529083252, -47.07692337036133, -350.34088134765625, -40.32582473754883, 0.4677734375, -0.058837890625, -0.719970703125
646, 2507323661, -11.074749946594238, 0.19735071063041687, 8.499856948852539, -81.0476303100586, -326.8466796875, -49.34830856323242, 0.410400390625, -0.0419921875, -0.800537109375
647, 2507340328, -12.927143096923828, 0.7084863781929016, 10.586183547973633, -105.2597427368164, -292.72076416015625, -40.018978118896484, 0.33349609375, -0.012939453125, -0.861572265625
648, 2507356995, -17.530197143554688, 1.4214091300964355, 15.002126693725586, -128.03164672851562, -294.27911376953125, -23.300745010375977, 0.255859375, 0.020263671875, -0.905029296875
649, 2507373662, -19.98007583618164, 0.9842309951782227, 13.547623634338379, -142.46888732910156, -321.2550964355469, -12.670732498168945, 0.159912109375, 0.062744140625, -0.943359375
650, 2507390329, -21.064369201660156, 0.6172442436218262, 10.313064575195312, -140.8249053955078, -321.7276916503906, -17.73534393310547, 0.04248046875, 0.119140625, -0.955078125
651, 2507406996, -23.199403762817383, 0.4534379243850708, 6.897809028625488, -126.3054428100586, -306.84844970703125, -31.154478073120117, -0.066162109375, 0.167724609375, -0.936767578125
