sep=,
DeviceTag:,B,,,,,,,,,,,,,,,,,
FirmwareVersion:,2.2.1,,,,,,,,,,,,,,,,,
AppVersion:,2022.0.1,,,,,,,,,,,,,,,,,
SyncStatus:,Synced,,,,,,,,,,,,,,,,,
OutputRate:,60Hz,,,,,,,,,,,,,,,,,
FilterProfile:,General,,,,,,,,,,,,,,,,,
Measurement Mode:,Inertial Mode - Rate quantities (with mag),,,,,,,,,,,,,,,,,
StartTime:,2022-08-05 15:12:46.926 +0300,,,,,,,,,,,,,,,,,
© Xsens Technologies B. V. 2005-2022,,,,,,,,,,,,,,,,,,,

PacketCounter,SampleTimeFine,Acc_X,Acc_Y,Acc_Z,Gyr_X,Gyr_Y,Gyr_Z,Mag_X,Mag_Y,Mag_Z
1, 2108965694, -4.5914626121521, -1.6461061239242554, 8.367627143859863, -0.1747170239686966, -0.8703196048736572, -1.0449085235595703, -0.022216796875, 0.131103515625, -0.821533203125
2, 2108982361, -4.603837490081787, -1.6425851583480835, 8.380606651306152, -0.03232322633266449, -0.8784772157669067, -1.010318636894226, -0.022216796875, 0.130615234375, -0.821533203125
3, 2108999028, -4.578327178955078, -1.643491268157959, 8.365121841430664, -0.05469592288136482, -0.9045381546020508, -0.956672728061676, -0.021728515625, 0.13330078125, -0.822509765625
4, 2109015695, -4.567948341369629, -1.6541574001312256, 8.37028694152832, 0.052128251641988754, -0.7679840922355652, -0.9747810363769531, -0.023681640625, 0.1328125, -0.8232421875
5, 2109032362, -4.5877485275268555, -1.6457496881484985, 8.378283500671387, -0.06713088601827621, -0.8176342844963074, -0.9246441125869751, -0.025146484375, 0.1318359375, -0.8232421875
6, 2109049029, -4.593339443206787, -1.6416144371032715, 8.367271423339844, -0.10375703871250153, -0.8283914923667908, -0.8454239368438721, -0.021728515625, 0.13134765625, -0.820556640625
7, 2109065696, -4.587464809417725, -1.641744613647461, 8.360406875610352, -0.004968863911926746, -0.7428835034370422, -0.9008753895759583, -0.022216796875, 0.130615234375, -0.823486328125
8, 2109082363, -4.590567111968994, -1.65475332736969, 8.394512176513672, 0.10829689353704453, -0.8167120814323425, -0.8921670913696289, -0.025146484375, 0.131103515625, -0.822021484375
9, 2109099030, -4.577766418457031, -1.6431244611740112, 8.393595695495605, 0.14339911937713623, -0.882127046585083, -0.9003761410713196, -0.024658203125, 0.130615234375, -0.822509765625
10, 2109115697, -4.580895900726318, -1.6328520774841309, 8.385122299194336, 0.12782657146453857, -0.8454367518424988, -0.8407880067825317, -0.023193359375, 0.131103515625, -0.82373046875
11, 2109132364, -4.579985618591309, -1.6282637119293213, 8.380672454833984, 0.1850820630788803, -0.8140717148780823, -0.8078985810279846, -0.021728515625, 0.130859375, -0.823486328125
12, 2109149031, -4.584650039672852, -1.6420685052871704, 8.376945495605469, 0.13266736268997192, -0.6801324486732483, -0.8005120754241943, -0.024658203125, 0.1328125, -0.82275390625
13, 2109165698, -4.584682941436768, -1.6402655839920044, 8.38136100769043, 0.10088202357292175, -0.6658661961555481, -0.8491122722625732, -0.019775390625, 0.130126953125, -0.822509765625
14, 2109182365, -4.573514938354492, -1.6184931993484497, 8.346098899841309, -0.06553009897470474, -0.6504217386245728, -0.8645951151847839, -0.020751953125, 0.1318359375, -0.820556640625
15, 2109199032, -4.5893378257751465, -1.6349961757659912, 8.37971019744873, -0.24273152649402618, -0.5423617362976074, -0.9102370142936707, -0.023193359375, 0.130126953125, -0.822021484375
16, 2109215699, -4.577937602996826, -1.6116540431976318, 8.398324966430664, -0.4297042787075043, -0.464332640171051, -0.9626149535179138, -0.023681640625, 0.130615234375, -0.82470703125
17, 2109232366, -4.6078081130981445, -1.639417290687561, 8.372223854064941, -0.4630008041858673, -0.45702022314071655, -1.1695142984390259, -0.023193359375, 0.1318359375, -0.82421875
18, 2109249033, -4.564143657684326, -1.6192752122879028, 8.375267028808594, -0.6911073923110962, -0.3734971880912781, -1.1652113199234009, -0.021728515625, 0.130126953125, -0.821533203125
19, 2109265700, -4.5791730880737305, -1.6194937229156494, 8.37259578704834, -1.4619088172912598, 0.016091179102659225, -1.5439207553863525, -0.022705078125, 0.127685546875, -0.822021484375
20, 2109282367, -4.6040520668029785, -1.6125681400299072, 8.352453231811523, -2.206815719604492, 0.2849476635456085, -1.7890470027923584, -0.023681640625, 0.13232421875, -0.819580078125
21, 2109299034, -4.570655822753906, -1.6476694345474243, 8.358118057250977, -2.544109344482422, 0.5359136462211609, -1.9558368921279907, -0.021728515625, 0.1318359375, -0.822509765625
22, 2109315701, -4.617144584655762, -1.641601324081421, 8.349793434143066, -2.622253894805908, 0.622407853603363, -2.0673038959503174, -0.022216796875, 0.134765625, -0.826171875
23, 2109332368, -4.59656286239624, -1.675405740737915, 8.338079452514648, -2.014580011367798, 0.4738669991493225, -1.9097084999084473, -0.021728515625, 0.134765625, -0.822021484375
24, 2109349035, -4.584621429443359, -1.701839566230774, 8.371084213256836, -1.6782082319259644, 0.12287052720785141, -1.7318795919418335, -0.021240234375, 0.1337890625, -0.823974609375
25, 2109365702, -4.595577716827393, -1.6743395328521729, 8.326017379760742, -1.5852468013763428, 0.14752274751663208, -1.6399427652359009, -0.020263671875, 0.134765625, -0.821044921875
26, 2109382369, -4.58591365814209, -1.672383189201355, 8.34676456451416, -1.6543755531311035, 0.30569398403167725, -1.6431316137313843, -0.022216796875, 0.1337890625, -0.820556640625
27, 2109399036, -4.615103244781494, -1.696819543838501, 8.359814643859863, -1.5219322443008423, 0.2954617440700531, -1.6676685810089111, -0.022705078125, 0.1337890625, -0.82470703125
28, 2109415703, -4.599705219268799, -1.695816993713379, 8.329739570617676, -1.2236849069595337, 0.1330515593290329, -1.461857557296753, -0.019287109375, 0.13623046875, -0.822998046875
29, 2109432370, -4.600071907043457, -1.715880274772644, 8.355798721313477, -0.8214505314826965, -0.12319708615541458, -1.2547149658203125, -0.021240234375, 0.13623046875, -0.82421875
30, 2109449037, -4.607942581176758, -1.7041423320770264, 8.341935157775879, -0.38123223185539246, -0.4924425482749939, -0.9612189531326294, -0.020263671875, 0.1376953125, -0.822509765625
31, 2109465704, -4.608455657958984, -1.7012218236923218, 8.332991600036621, -0.179519385099411, -0.49578502774238586, -0.8745455741882324, -0.020263671875, 0.13427734375, -0.820068359375
32, 2109482371, -4.61931848526001, -1.6896355152130127, 8.351330757141113, -0.07752964645624161, -0.5722389817237854, -0.8526340126991272, -0.020751953125, 0.1337890625, -0.820068359375
33, 2109499038, -4.600186824798584, -1.6968584060668945, 8.320587158203125, 0.0621684230864048, -0.7018391489982605, -0.7998589873313904, -0.020263671875, 0.13720703125, -0.821044921875
34, 2109515705, -4.595219612121582, -1.7064857482910156, 8.352314949035645, 0.2460804134607315, -0.7934558391571045, -0.7492098808288574, -0.022216796875, 0.13623046875, -0.82275390625
35, 2109532372, -4.607697010040283, -1.6778533458709717, 8.349542617797852, 0.3642573952674866, -0.8326303958892822, -0.6802988648414612, -0.020751953125, 0.13623046875, -0.821044921875
36, 2109549039, -4.600905895233154, -1.6741907596588135, 8.343038558959961, 0.5956169366836548, -0.8635064959526062, -0.6555570363998413, -0.020751953125, 0.13427734375, -0.821044921875
37, 2109565706, -4.612061023712158, -1.6769641637802124, 8.346118927001953, 0.6655139923095703, -1.0626581907272339, -0.6170355677604675, -0.020263671875, 0.134765625, -0.819580078125
38, 2109582373, -4.595997333526611, -1.6750906705856323, 8.357721328735352, 0.4652099013328552, -1.036699652671814, -0.5681537389755249, -0.018798828125, 0.13232421875, -0.822021484375
39, 2109599040, -4.620420932769775, -1.6737117767333984, 8.35157585144043, 0.3441770374774933, -0.9293951392173767, -0.7443178296089172, -0.022705078125, 0.13330078125, -0.821044921875
40, 2109615707, -4.592111110687256, -1.6542203426361084, 8.381172180175781, 0.08009730279445648, -0.7568296194076538, -0.9027579426765442, -0.021240234375, 0.13427734375, -0.823974609375
41, 2109632374, -4.602820873260498, -1.6843550205230713, 8.344008445739746, -0.05578445643186569, -0.6556978821754456, -0.9842961430549622, -0.021728515625, 0.13427734375, -0.820556640625
42, 2109649041, -4.59628438949585, -1.6843706369400024, 8.354927062988281, -0.13714320957660675, -0.7372615933418274, -0.9816323518753052, -0.021240234375, 0.13232421875, -0.823486328125
43, 2109665708, -4.599710941314697, -1.6678202152252197, 8.362730026245117, -0.25190091133117676, -0.7167585492134094, -0.9578765034675598, -0.021728515625, 0.130859375, -0.822021484375
44, 2109682375, -4.59566593170166, -1.67048978805542, 8.337505340576172, -0.32544776797294617, -0.7424865365028381, -1.0523489713668823, -0.021728515625, 0.13427734375, -0.820556640625
45, 2109699042, -4.60283899307251, -1.6803520917892456, 8.343931198120117, -0.33627650141716003, -0.7130746841430664, -1.1098648309707642, -0.020751953125, 0.1357421875, -0.821533203125
46, 2109715709, -4.58658504486084, -1.6759698390960693, 8.360939025878906, -0.5659253597259521, -0.5589587092399597, -1.2468901872634888, -0.023193359375, 0.1337890625, -0.82421875
47, 2109732376, -4.592386245727539, -1.6565159559249878, 8.384437561035156, -0.9583632946014404, -0.39429473876953125, -1.4020392894744873, -0.021728515625, 0.1357421875, -0.822021484375
48, 2109749043, -4.606294631958008, -1.669958233833313, 8.369413375854492, -0.9978323578834534, -0.29823431372642517, -1.4285740852355957, -0.019775390625, 0.1328125, -0.823486328125
49, 2109765710, -4.5995588302612305, -1.690619707107544, 8.369297981262207, -0.8699225187301636, -0.4582112431526184, -1.3196303844451904, -0.022216796875, 0.1337890625, -0.822509765625
50, 2109782377, -4.605533599853516, -1.6909732818603516, 8.331840515136719, -0.49412018060684204, -0.5600088834762573, -1.2133376598358154, -0.022705078125, 0.134765625, -0.822509765625
51, 2109799044, -4.6098551750183105, -1.6857270002365112, 8.357704162597656, -0.3180585205554962, -0.6644574403762817, -1.0869646072387695, -0.022216796875, 0.13623046875, -0.821533203125
52, 2109815711, -4.59329891204834, -1.690120816230774, 8.340984344482422, -0.16581661999225616, -0.7316652536392212, -1.05056893825531, -0.020751953125, 0.1376953125, -0.82421875
53, 2109832378, -4.609321117401123, -1.6760221719741821, 8.365203857421875, -0.16814737021923065, -0.7284379005432129, -1.0261344909667969, -0.021240234375, 0.13671875, -0.822509765625
54, 2109849045, -4.591370105743408, -1.682740330696106, 8.360139846801758, -0.3174949884414673, -0.7482749819755554, -1.0876432657241821, -0.021240234375, 0.13720703125, -0.822509765625
55, 2109865712, -4.5851569175720215, -1.6938506364822388, 8.366119384765625, -0.3350653052330017, -0.7621954679489136, -1.0328704118728638, -0.021728515625, 0.1337890625, -0.822021484375
56, 2109882379, -4.585825443267822, -1.6854771375656128, 8.36447525024414, -0.20629748702049255, -0.8020744919776917, -1.0761688947677612, -0.019775390625, 0.13525390625, -0.820556640625
57, 2109899046, -4.596928119659424, -1.6941519975662231, 8.352920532226562, -0.16735337674617767, -0.7464309334754944, -1.0463299751281738, -0.020751953125, 0.13525390625, -0.822021484375
58, 2109915713, -4.593138694763184, -1.6892603635787964, 8.372686386108398, -0.3120907247066498, -0.7516431212425232, -1.1200816631317139, -0.023193359375, 0.1376953125, -0.82421875
59, 2109932380, -4.614943504333496, -1.67812979221344, 8.361186027526855, -0.31002894043922424, -0.7541275024414062, -1.106711983680725, -0.022216796875, 0.13427734375, -0.8232421875
60, 2109949047, -4.602282524108887, -1.685788869857788, 8.360568046569824, -0.327612042427063, -0.8035216331481934, -1.096543788909912, -0.021728515625, 0.13525390625, -0.822021484375
61, 2109965714, -4.602611541748047, -1.7088679075241089, 8.350817680358887, -0.1422913521528244, -0.8341287970542908, -1.1872767210006714, -0.022216796875, 0.134765625, -0.820556640625
62, 2109982381, -4.598377704620361, -1.6864418983459473, 8.349486351013184, -0.10001758486032486, -0.878028929233551, -1.001469373703003, -0.018310546875, 0.13525390625, -0.821533203125
63, 2109999048, -4.595578193664551, -1.6912786960601807, 8.352977752685547, -0.08776192367076874, -0.8510460257530212, -1.0199233293533325, -0.022705078125, 0.134765625, -0.82275390625
64, 2110015715, -4.593163967132568, -1.673400640487671, 8.367216110229492, -0.05262129381299019, -0.9163456559181213, -0.9331346750259399, -0.020263671875, 0.13671875, -0.823974609375
65, 2110032382, -4.586852073669434, -1.6848965883255005, 8.333430290222168, -0.07787541300058365, -0.7731705904006958, -1.0029163360595703, -0.021728515625, 0.13623046875, -0.822021484375
66, 2110049049, -4.567716121673584, -1.7015701532363892, 8.347320556640625, -0.03414172679185867, -0.6198016405105591, -0.8871726393699646, -0.020751953125, 0.13525390625, -0.823974609375
67, 2110065716, -4.581364154815674, -1.6814095973968506, 8.358195304870605, -0.15073074400424957, -0.3483967185020447, -0.8700505495071411, -0.021728515625, 0.1337890625, -0.821533203125
68, 2110082383, -4.601742267608643, -1.6807069778442383, 8.328008651733398, -0.02501079998910427, -0.299642950296402, -0.8199905157089233, -0.023681640625, 0.1337890625, -0.8232421875
69, 2110099050, -4.5779571533203125, -1.702386498451233, 8.347503662109375, 0.35273170471191406, -0.4772927165031433, -0.6714242100715637, -0.022705078125, 0.134765625, -0.820556640625
70, 2110115717, -4.583532333374023, -1.692224383354187, 8.347167015075684, 0.9124971628189087, -0.7680991888046265, -0.3965614140033722, -0.023193359375, 0.134765625, -0.82470703125
71, 2110132384, -4.581335544586182, -1.691126823425293, 8.364984512329102, 1.1241734027862549, -0.9420607686042786, -0.34410661458969116, -0.021728515625, 0.13623046875, -0.822021484375
72, 2110149051, -4.5891337394714355, -1.6734286546707153, 8.352912902832031, 1.2386107444763184, -0.9975889325141907, -0.3413916826248169, -0.023681640625, 0.13330078125, -0.8232421875
73, 2110165718, -4.589468002319336, -1.6680455207824707, 8.377542495727539, 0.969216525554657, -0.9365028142929077, -0.2913828492164612, -0.021728515625, 0.1337890625, -0.822021484375
74, 2110182385, -4.580416202545166, -1.68040132522583, 8.350963592529297, 0.3109701871871948, -0.9630119800567627, -0.601360559463501, -0.022705078125, 0.13330078125, -0.822998046875
75, 2110199052, -4.597260475158691, -1.6510374546051025, 8.358224868774414, 0.05539386719465256, -0.7005842328071594, -0.7426275014877319, -0.022216796875, 0.13427734375, -0.820556640625
76, 2110215719, -4.5749921798706055, -1.6766507625579834, 8.369490623474121, -0.08295953273773193, -0.5952903032302856, -0.8165968060493469, -0.022705078125, 0.13330078125, -0.8232421875
77, 2110232386, -4.582714080810547, -1.668140172958374, 8.336258888244629, -0.19586031138896942, -0.5715345144271851, -0.9317514896392822, -0.024169921875, 0.1328125, -0.82373046875
78, 2110249053, -4.604700565338135, -1.6579402685165405, 8.360649108886719, -0.2593541741371155, -0.6592836380004883, -0.9213272333145142, -0.021240234375, 0.134765625, -0.82421875
79, 2110265720, -4.587244510650635, -1.6457960605621338, 8.357023239135742, -0.23082269728183746, -0.625025749206543, -0.9234828948974609, -0.021240234375, 0.129638671875, -0.820556640625
80, 2110282387, -4.58765172958374, -1.6521379947662354, 8.358318328857422, -0.3201715648174286, -0.49689915776252747, -0.9884580373764038, -0.021728515625, 0.1337890625, -0.822021484375
81, 2110299054, -4.592803955078125, -1.6726813316345215, 8.369497299194336, -0.4221997857093811, -0.499690979719162, -1.0457537174224854, -0.022705078125, 0.13232421875, -0.8271484375
82, 2110315721, -4.5918803215026855, -1.6664482355117798, 8.351507186889648, -0.6423152685165405, -0.497283399105072, -1.1484991312026978, -0.021728515625, 0.1328125, -0.823974609375
83, 2110332388, -4.59645938873291, -1.6636360883712769, 8.375638008117676, -0.9117991924285889, -0.4369910657405853, -1.304249882698059, -0.022705078125, 0.13134765625, -0.82470703125
84, 2110349055, -4.592229843139648, -1.6544151306152344, 8.369902610778809, -0.8464228510856628, -0.427693635225296, -1.3725076913833618, -0.019775390625, 0.13330078125, -0.823486328125
85, 2110365722, -4.60719633102417, -1.6719017028808594, 8.346030235290527, -0.8762872219085693, -0.48870307207107544, -1.2925833463668823, -0.020751953125, 0.134765625, -0.822998046875
86, 2110382389, -4.591902732849121, -1.6845325231552124, 8.348026275634766, -0.7633224129676819, -0.45331913232803345, -1.2793670892715454, -0.020263671875, 0.1328125, -0.823974609375
87, 2110399056, -4.590686321258545, -1.6736012697219849, 8.349578857421875, -0.6107860207557678, -0.5991194844245911, -1.1669787168502808, -0.021240234375, 0.13232421875, -0.823974609375
88, 2110415723, -4.589702606201172, -1.6760036945343018, 8.349701881408691, -0.4271813929080963, -0.6827961206436157, -1.109413981437683, -0.022705078125, 0.13232421875, -0.820556640625
89, 2110432390, -4.59254264831543, -1.6745141744613647, 8.362682342529297, -0.31402450799942017, -0.737594485282898, -1.064745545387268, -0.021728515625, 0.1328125, -0.823974609375
90, 2110449057, -4.590943336486816, -1.6889827251434326, 8.365001678466797, -0.26892057061195374, -0.8083881139755249, -1.0528484582901, -0.020263671875, 0.13525390625, -0.822509765625
91, 2110465724, -4.592011451721191, -1.6893006563186646, 8.354110717773438, -0.17621536552906036, -0.7972081303596497, -1.0254684686660767, -0.020263671875, 0.13330078125, -0.821044921875
92, 2110482391, -4.589641094207764, -1.6826940774917603, 8.346570014953613, -0.1660471260547638, -0.7922776937484741, -1.0118809938430786, -0.023681640625, 0.1357421875, -0.82373046875
93, 2110499058, -4.578261375427246, -1.6814839839935303, 8.356430053710938, -0.09584272652864456, -0.845257580280304, -0.9115175604820251, -0.020751953125, 0.1357421875, -0.822998046875
94, 2110515725, -4.597428321838379, -1.6787654161453247, 8.354035377502441, -0.04812626540660858, -0.8088105916976929, -0.9523313641548157, -0.021240234375, 0.1357421875, -0.822509765625
95, 2110532392, -4.576507091522217, -1.6818664073944092, 8.350934028625488, -0.03713841363787651, -0.8056858777999878, -0.9853333234786987, -0.022216796875, 0.13623046875, -0.8232421875
96, 2110549059, -4.575300693511963, -1.6898363828659058, 8.371074676513672, -0.08472681045532227, -0.747045636177063, -0.9268980622291565, -0.021240234375, 0.13623046875, -0.822998046875
97, 2110565726, -4.587162971496582, -1.6783301830291748, 8.368489265441895, -0.09324303269386292, -0.7702764272689819, -1.006054162979126, -0.021240234375, 0.1328125, -0.822998046875
98, 2110582393, -4.592129230499268, -1.6859045028686523, 8.339099884033203, -0.17266802489757538, -0.6911970973014832, -1.0047093629837036, -0.022705078125, 0.13232421875, -0.820556640625
99, 2110599060, -4.577795028686523, -1.6935805082321167, 8.361241340637207, -0.2375577688217163, -0.7072947025299072, -0.963267982006073, -0.020751953125, 0.13671875, -0.823486328125
100, 2110615727, -4.592984199523926, -1.6882531642913818, 8.329754829406738, -0.27994680404663086, -0.715593159198761, -0.9812992811203003, -0.021728515625, 0.13134765625, -0.823486328125
101, 2110632394, -4.572939872741699, -1.6833603382110596, 8.352725982666016, -0.3577325642108917, -0.6267043352127075, -1.0392097234725952, -0.022216796875, 0.134765625, -0.82373046875
102, 2110649061, -4.587935447692871, -1.6770081520080566, 8.331151008605957, -0.3413148522377014, -0.6355406641960144, -0.9757285118103027, -0.020263671875, 0.134765625, -0.823974609375
103, 2110665728, -4.589509963989258, -1.6812822818756104, 8.332048416137695, -0.3746754229068756, -0.528313159942627, -1.1102336645126343, -0.022705078125, 0.1337890625, -0.822998046875
104, 2110682395, -4.584280490875244, -1.676892876625061, 8.35051155090332, -0.4233907163143158, -0.5829578042030334, -1.103164553642273, -0.022216796875, 0.1357421875, -0.82470703125
105, 2110699062, -4.584375381469727, -1.6665973663330078, 8.352916717529297, -0.32092714309692383, -0.6744464635848999, -0.9800316095352173, -0.021728515625, 0.1337890625, -0.820068359375
106, 2110715729, -4.573619365692139, -1.6836292743682861, 8.357257843017578, -0.3449774384498596, -0.5867228507995605, -1.0985541343688965, -0.022216796875, 0.1357421875, -0.82421875
107, 2110732396, -4.594277381896973, -1.6799488067626953, 8.355670928955078, -0.5209494829177856, -0.49301886558532715, -1.1306980848312378, -0.021240234375, 0.1357421875, -0.823486328125
108, 2110749063, -4.582162380218506, -1.6959404945373535, 8.372099876403809, -0.4244536757469177, -0.5380843877792358, -1.1103616952896118, -0.023681640625, 0.1337890625, -0.82275390625
109, 2110765730, -4.590788841247559, -1.68354070186615, 8.375462532043457, -0.21833546459674835, -0.6351565718650818, -1.0419374704360962, -0.022216796875, 0.1328125, -0.820556640625
110, 2110782397, -4.581228733062744, -1.6840115785598755, 8.392032623291016, -0.21774634718894958, -0.643186092376709, -1.0060027837753296, -0.023681640625, 0.134765625, -0.8232421875
111, 2110799064, -4.58015251159668, -1.672909140586853, 8.375720024108887, -0.2750803828239441, -0.7045412659645081, -1.0425647497177124, -0.022705078125, 0.13427734375, -0.8232421875
112, 2110815731, -4.577064514160156, -1.673964262008667, 8.334229469299316, -0.38872164487838745, -0.5555727481842041, -1.0388365983963013, -0.023193359375, 0.1357421875, -0.8232421875
113, 2110832398, -4.574221134185791, -1.678626298904419, 8.336241722106934, -0.4129151701927185, -0.5038018226623535, -1.1243976354599, -0.023193359375, 0.13427734375, -0.82470703125
114, 2110849065, -4.578907012939453, -1.6855084896087646, 8.368151664733887, -0.3749571144580841, -0.5976466536521912, -1.039273738861084, -0.021240234375, 0.1328125, -0.821533203125
115, 2110865732, -4.591785907745361, -1.678431510925293, 8.38276195526123, -0.4278217554092407, -0.6002976298332214, -1.03997802734375, -0.024169921875, 0.13427734375, -0.821533203125
116, 2110882399, -4.578447341918945, -1.6751971244812012, 8.368221282958984, -0.49802619218826294, -0.5505834221839905, -1.100167989730835, -0.022216796875, 0.1328125, -0.821533203125
117, 2110899066, -4.592775821685791, -1.6722767353057861, 8.357538223266602, -0.5464725494384766, -0.5932797193527222, -1.1164830923080444, -0.022216796875, 0.13427734375, -0.821044921875
118, 2110915733, -4.587672710418701, -1.6886109113693237, 8.342589378356934, -0.47690847516059875, -0.5573707818984985, -1.2172819375991821, -0.023193359375, 0.1337890625, -0.822509765625
119, 2110932400, -4.596029281616211, -1.6711961030960083, 8.36606502532959, -0.6044213175773621, -0.5983383059501648, -1.238399624824524, -0.0234375, 0.13720703125, -0.82177734375
120, 2110949067, -4.587984085083008, -1.6911669969558716, 8.362728118896484, -0.5404024124145508, -0.5286077260971069, -1.2219818830490112, -0.020751953125, 0.13525390625, -0.82421875
121, 2110965734, -4.574352264404297, -1.702205777168274, 8.339000701904297, -0.33766502141952515, -0.6324031949043274, -1.1926554441452026, -0.023193359375, 0.13525390625, -0.822265625
122, 2110982401, -4.5783562660217285, -1.6873098611831665, 8.364848136901855, -0.20947344601154327, -0.7811616659164429, -0.9781361222267151, -0.021240234375, 0.13427734375, -0.820556640625
123, 2110999068, -4.568078517913818, -1.6759483814239502, 8.392489433288574, -0.09314057976007462, -0.8249465823173523, -0.9257071018218994, -0.023681640625, 0.1357421875, -0.821044921875
124, 2111015735, -4.586184978485107, -1.6980037689208984, 8.36438274383545, -0.18975169956684113, -0.7957097887992859, -0.9280633926391602, -0.023681640625, 0.13623046875, -0.82177734375
125, 2111032402, -4.58420991897583, -1.6898117065429688, 8.344781875610352, -0.1261681318283081, -0.8237812519073486, -0.9767914414405823, -0.0234375, 0.13720703125, -0.8232421875
126, 2111049069, -4.575744152069092, -1.6958543062210083, 8.360055923461914, -0.14690163731575012, -0.8151625990867615, -0.9705292582511902, -0.021240234375, 0.1357421875, -0.822998046875
127, 2111065736, -4.577208995819092, -1.694726824760437, 8.37686538696289, -0.07992443442344666, -0.7408217787742615, -0.9209558367729187, -0.024658203125, 0.134765625, -0.822265625
128, 2111082403, -4.584927082061768, -1.6866862773895264, 8.354880332946777, -0.09043844044208527, -0.7704044580459595, -0.9446732401847839, -0.023193359375, 0.134765625, -0.822509765625
129, 2111099070, -4.582665920257568, -1.6752204895019531, 8.351935386657715, -0.040071070194244385, -0.7869117856025696, -0.9399220943450928, -0.023681640625, 0.1328125, -0.821044921875
130, 2111115737, -4.584005832672119, -1.6950706243515015, 8.358268737792969, -0.13396722078323364, -0.6976770162582397, -0.9877921342849731, -0.024169921875, 0.1337890625, -0.821533203125
131, 2111132404, -4.58151912689209, -1.6808327436447144, 8.371574401855469, -0.14017830789089203, -0.6810417175292969, -0.9851157665252686, -0.022705078125, 0.134765625, -0.82470703125
132, 2111149071, -4.56924295425415, -1.7010912895202637, 8.386368751525879, 0.009892904199659824, -0.6244759559631348, -0.9019255042076111, -0.02490234375, 0.13720703125, -0.822265625
133, 2111165738, -4.567733287811279, -1.6953860521316528, 8.35550594329834, -0.02160431072115898, -0.5718803405761719, -0.9215705394744873, -0.024169921875, 0.131103515625, -0.822021484375
134, 2111182405, -4.5788187980651855, -1.6866118907928467, 8.374526023864746, -0.04715297743678093, -0.6352845430374146, -0.8856359124183655, -0.022216796875, 0.134765625, -0.819091796875
135, 2111199072, -4.577059745788574, -1.6900010108947754, 8.37906265258789, 0.0014151014620438218, -0.6344905495643616, -0.7929946780204773, -0.023193359375, 0.134765625, -0.82275390625
136, 2111215739, -4.565685272216797, -1.6795419454574585, 8.357831001281738, 0.036581333726644516, -0.679069459438324, -0.7548317909240723, -0.022705078125, 0.13720703125, -0.82373046875
137, 2111232406, -4.5652265548706055, -1.688642144203186, 8.36374568939209, 0.16321052610874176, -0.6303669214248657, -0.7821093201637268, -0.025146484375, 0.134765625, -0.821044921875
138, 2111249073, -4.580071449279785, -1.6798025369644165, 8.355215072631836, 0.10460866242647171, -0.49096980690956116, -0.7092796564102173, -0.022705078125, 0.1337890625, -0.822509765625
139, 2111265740, -4.587025165557861, -1.676163673400879, 8.361096382141113, 0.14858567714691162, -0.41894692182540894, -0.7146199345588684, -0.022705078125, 0.134765625, -0.82373046875
140, 2111282407, -4.56680965423584, -1.6789363622665405, 8.362738609313965, 0.26998984813690186, -0.45274287462234497, -0.6346186399459839, -0.023681640625, 0.13330078125, -0.821533203125
141, 2111299074, -4.572272300720215, -1.6727932691574097, 8.362040519714355, 0.3516303300857544, -0.49463242292404175, -0.6378458142280579, -0.021728515625, 0.13330078125, -0.822509765625
142, 2111315741, -4.559594631195068, -1.674980640411377, 8.356806755065918, 0.542137622833252, -0.5688709020614624, -0.4704669117927551, -0.022216796875, 0.1337890625, -0.823486328125
143, 2111332408, -4.5888352394104, -1.6627215147018433, 8.357354164123535, 0.3290911912918091, -0.4265666902065277, -0.524650514125824, -0.024658203125, 0.13525390625, -0.82421875
144, 2111349075, -4.592086315155029, -1.6556838750839233, 8.355793952941895, 0.2389344871044159, -0.4774719476699829, -0.5818309187889099, -0.020263671875, 0.1357421875, -0.826171875
145, 2111365742, -4.587329864501953, -1.6495121717453003, 8.358895301818848, 0.2934126853942871, -0.48661571741104126, -0.6518815755844116, -0.023681640625, 0.1318359375, -0.822509765625
146, 2111382409, -4.590122222900391, -1.6532644033432007, 8.366984367370605, 0.052707698196172714, -0.5416770577430725, -0.7428129315376282, -0.023681640625, 0.13232421875, -0.82275390625
147, 2111399076, -4.578483581542969, -1.6598480939865112, 8.370735168457031, -0.014215047471225262, -0.4031694829463959, -0.8207204937934875, -0.021728515625, 0.1328125, -0.82421875
148, 2111415743, -4.587830543518066, -1.6675918102264404, 8.371036529541016, -0.0016776317497715354, -0.5236132144927979, -0.792802631855011, -0.024169921875, 0.1357421875, -0.82470703125
149, 2111432410, -4.572010040283203, -1.6763992309570312, 8.368903160095215, 0.007498118095099926, -0.4623476266860962, -0.8526596426963806, -0.023193359375, 0.1337890625, -0.8232421875
150, 2111449077, -4.572651386260986, -1.6683553457260132, 8.376129150390625, 0.02513246238231659, -0.5510829091072083, -0.7857336401939392, -0.022705078125, 0.1337890625, -0.82373046875
151, 2111465744, -4.581393718719482, -1.6578364372253418, 8.348990440368652, 0.09721941500902176, -0.48913857340812683, -0.7167714834213257, -0.023193359375, 0.1318359375, -0.8232421875
152, 2111482411, -4.596485614776611, -1.6548242568969727, 8.353968620300293, 0.05572683364152908, -0.5479069352149963, -0.7894090414047241, -0.022705078125, 0.1328125, -0.822998046875
153, 2111499078, -4.574587821960449, -1.6486172676086426, 8.373138427734375, 0.008176853880286217, -0.44438034296035767, -0.6690805554389954, -0.023681640625, 0.1328125, -0.822021484375
154, 2111515745, -4.578376293182373, -1.6729344129562378, 8.37505054473877, -0.04795977845788002, -0.2864139974117279, -0.8380602598190308, -0.020751953125, 0.1318359375, -0.823974609375
155, 2111532412, -4.588770389556885, -1.646653175354004, 8.355839729309082, 0.045994002372026443, -0.4314587116241455, -0.7703787088394165, -0.023193359375, 0.1337890625, -0.821533203125
156, 2111549079, -4.574502468109131, -1.6478577852249146, 8.362435340881348, 0.029204878956079483, -0.5095518231391907, -0.807504415512085, -0.023193359375, 0.13427734375, -0.82275390625
157, 2111565746, -4.584365367889404, -1.657378911972046, 8.369318962097168, -0.004635898396372795, -0.31595826148986816, -0.6988680958747864, -0.021240234375, 0.1318359375, -0.821044921875
158, 2111582413, -4.588662624359131, -1.6495859622955322, 8.360289573669434, 0.025747163221240044, -0.4311129152774811, -0.818569004535675, -0.023193359375, 0.1318359375, -0.821044921875
159, 2111599080, -4.577764987945557, -1.6596580743789673, 8.357708930969238, 0.20576603710651398, -0.3955753743648529, -0.7133393883705139, -0.023193359375, 0.1318359375, -0.821533203125
160, 2111615747, -4.59072732925415, -1.6461424827575684, 8.352313995361328, 0.24732264876365662, -0.41651371121406555, -0.5879523754119873, -0.022705078125, 0.13330078125, -0.822998046875
161, 2111632414, -4.589557647705078, -1.651578426361084, 8.371994972229004, 0.2228112816810608, -0.47710055112838745, -0.7026844024658203, -0.020751953125, 0.130859375, -0.822509765625
162, 2111649081, -4.587957859039307, -1.6410959959030151, 8.365922927856445, 0.008881201967597008, -0.35651591420173645, -0.8080037832260132, -0.024169921875, 0.13232421875, -0.8232421875
163, 2111665748, -4.586039066314697, -1.6627277135849, 8.362872123718262, -0.03076085075736046, -0.36559563875198364, -0.7953639030456543, -0.020263671875, 0.13134765625, -0.821533203125
164, 2111682415, -4.574554443359375, -1.6565614938735962, 8.378308296203613, -0.01639212854206562, -0.3950759172439575, -0.772120475769043, -0.024169921875, 0.130126953125, -0.822021484375
165, 2111699082, -4.579287052154541, -1.643649935722351, 8.359895706176758, -0.12236467003822327, -0.18642200529575348, -0.7190764546394348, -0.023681640625, 0.13232421875, -0.822509765625
166, 2111715749, -4.590662956237793, -1.647834062576294, 8.353666305541992, -0.25216978788375854, -0.07774734497070312, -0.7419998645782471, -0.023681640625, 0.1318359375, -0.8232421875
167, 2111732416, -4.609620571136475, -1.6471288204193115, 8.376011848449707, -0.24414025247097015, -0.2651298940181732, -0.7907281517982483, -0.022705078125, 0.13330078125, -0.8232421875
168, 2111749083, -4.608912944793701, -1.6360119581222534, 8.370803833007812, -0.16970977187156677, -0.3898765742778778, -0.8424145579338074, -0.020751953125, 0.1337890625, -0.822998046875
169, 2111765750, -4.617453575134277, -1.6459388732910156, 8.346514701843262, -0.13573448359966278, -0.49582338333129883, -0.8740461468696594, -0.021240234375, 0.13134765625, -0.822021484375
170, 2111782417, -4.590895652770996, -1.6435301303863525, 8.379904747009277, -0.12405510246753693, -0.5387246608734131, -0.9373992085456848, -0.020751953125, 0.13134765625, -0.821533203125
171, 2111799084, -4.585026264190674, -1.6440929174423218, 8.375207901000977, -0.09325582534074783, -0.5975186228752136, -0.9022457003593445, -0.024169921875, 0.1337890625, -0.822021484375
172, 2111815751, -4.590824604034424, -1.6581168174743652, 8.35152530670166, -0.20691217482089996, -0.5895529985427856, -0.9795832633972168, -0.019287109375, 0.1337890625, -0.822998046875
173, 2111832418, -4.593691349029541, -1.6291072368621826, 8.36793327331543, -0.108841173350811, -0.5235748291015625, -0.9435718655586243, -0.022216796875, 0.13232421875, -0.823486328125
174, 2111849085, -4.60737419128418, -1.6512614488601685, 8.371465682983398, -0.12144260853528976, -0.5092957019805908, -0.9820292592048645, -0.021240234375, 0.1328125, -0.821533203125
175, 2111865752, -4.60052490234375, -1.6367193460464478, 8.342077255249023, -0.10743246227502823, -0.47220849990844727, -0.9011186957359314, -0.020751953125, 0.130859375, -0.824462890625
176, 2111882419, -4.587279796600342, -1.6277226209640503, 8.366490364074707, -0.1149497926235199, -0.5334356427192688, -0.8894906044006348, -0.023681640625, 0.130126953125, -0.8232421875
177, 2111899086, -4.599770545959473, -1.6147968769073486, 8.356975555419922, -0.18183736503124237, -0.5354079008102417, -0.9648303985595703, -0.020263671875, 0.13037109375, -0.822998046875
178, 2111915753, -4.593572616577148, -1.6547003984451294, 8.351585388183594, -0.2887703478336334, -0.3840239942073822, -1.0066559314727783, -0.020751953125, 0.13232421875, -0.821533203125
179, 2111932420, -4.610479831695557, -1.640409231185913, 8.380144119262695, -0.26301974058151245, -0.48687535524368286, -0.9601367712020874, -0.020751953125, 0.13232421875, -0.8251953125
180, 2111949087, -4.593682765960693, -1.6510168313980103, 8.351094245910645, -0.2116505354642868, -0.5793336033821106, -0.9744479656219482, -0.021728515625, 0.1328125, -0.822021484375
181, 2111965754, -4.585262298583984, -1.6521836519241333, 8.34703254699707, -0.2973506450653076, -0.5307207703590393, -0.8369333744049072, -0.022216796875, 0.13134765625, -0.8251953125
182, 2111982421, -4.590096473693848, -1.628983974456787, 8.356796264648438, -0.29583945870399475, -0.4248121976852417, -0.900183916091919, -0.020751953125, 0.129638671875, -0.821044921875
183, 2111999088, -4.583815097808838, -1.6204345226287842, 8.364501953125, -0.33542391657829285, -0.35176485776901245, -1.0181047916412354, -0.022216796875, 0.13232421875, -0.821044921875
184, 2112015755, -4.605230808258057, -1.6473466157913208, 8.34786605834961, -0.384113609790802, -0.3852406144142151, -0.9437382221221924, -0.020263671875, 0.1328125, -0.822021484375
185, 2112032422, -4.593196868896484, -1.6473102569580078, 8.367855072021484, -0.29472529888153076, -0.3316076397895813, -0.9563013315200806, -0.022216796875, 0.131103515625, -0.822021484375
186, 2112049089, -4.592326641082764, -1.6440588235855103, 8.340248107910156, -0.24577945470809937, -0.4080871343612671, -0.8950485587120056, -0.020263671875, 0.1318359375, -0.824462890625
187, 2112065756, -4.599552631378174, -1.6522566080093384, 8.377488136291504, -0.19218488037586212, -0.39589551091194153, -0.8544524312019348, -0.020263671875, 0.128173828125, -0.824462890625
188, 2112082423, -4.603070259094238, -1.640311360359192, 8.363144874572754, -0.2624533474445343, -0.4171796441078186, -0.87530118227005, -0.020751953125, 0.130859375, -0.821533203125
189, 2112099090, -4.598315238952637, -1.6365498304367065, 8.360099792480469, -0.26098063588142395, -0.3785044848918915, -0.922031581401825, -0.021728515625, 0.130859375, -0.823486328125
190, 2112115757, -4.584805488586426, -1.651822566986084, 8.369256019592285, -0.3042660057544708, -0.36303433775901794, -0.8192222118377686, -0.020263671875, 0.13525390625, -0.82470703125
191, 2112132424, -4.6041669845581055, -1.6493690013885498, 8.352824211120605, -0.3967534899711609, -0.2381596863269806, -0.8556433916091919, -0.021240234375, 0.1318359375, -0.8251953125
192, 2112149091, -4.594612121582031, -1.6431560516357422, 8.371792793273926, -0.3125261664390564, -0.3163040280342102, -0.8701658844947815, -0.021240234375, 0.130859375, -0.82666015625
193, 2112165758, -4.606889247894287, -1.640394687652588, 8.366842269897461, -0.36889970302581787, -0.35368573665618896, -0.8857255578041077, -0.020751953125, 0.1318359375, -0.82568359375
194, 2112182425, -4.608766078948975, -1.6471220254898071, 8.372270584106445, -0.3628807067871094, -0.3240262567996979, -0.9449933171272278, -0.021240234375, 0.130859375, -0.821533203125
195, 2112199092, -4.612415313720703, -1.6450111865997314, 8.354364395141602, -0.40664002299308777, -0.39224565029144287, -0.9063436985015869, -0.019287109375, 0.1328125, -0.824462890625
196, 2112215759, -4.599578857421875, -1.6495121717453003, 8.37173843383789, -0.6092620491981506, -0.5197969079017639, -1.0668072700500488, -0.022216796875, 0.13330078125, -0.822998046875
197, 2112232426, -4.594861030578613, -1.6453629732131958, 8.358611106872559, -0.4602473974227905, -0.3901326060295105, -0.9957705140113831, -0.020751953125, 0.13232421875, -0.822998046875
198, 2112249093, -4.588363170623779, -1.6443276405334473, 8.371278762817383, -0.4193823039531708, -0.3760584592819214, -0.9729880094528198, -0.019287109375, 0.13232421875, -0.822998046875
199, 2112265760, -4.615387916564941, -1.6490540504455566, 8.378218650817871, -0.38457468152046204, -0.34217286109924316, -0.8762360215187073, -0.020263671875, 0.1318359375, -0.820556640625
200, 2112282427, -4.61210298538208, -1.6590263843536377, 8.36715316772461, -0.2959803640842438, -0.5002672076225281, -0.8967005610466003, -0.020263671875, 0.1328125, -0.821044921875
201, 2112299094, -4.60105037689209, -1.6556308269500732, 8.34869384765625, -0.2292976975440979, -0.44653183221817017, -0.8328609466552734, -0.019775390625, 0.13330078125, -0.822021484375
202, 2112315761, -4.59019136428833, -1.6441996097564697, 8.348685264587402, -0.21971850097179413, -0.47079983353614807, -0.8711903095245361, -0.022216796875, 0.13330078125, -0.8251953125
203, 2112332428, -4.594972133636475, -1.6373122930526733, 8.386346817016602, -0.18062075972557068, -0.4246969521045685, -0.9023993611335754, -0.018798828125, 0.1318359375, -0.825439453125
204, 2112349095, -4.607158184051514, -1.6424829959869385, 8.32514476776123, -0.3136531114578247, -0.42865416407585144, -0.8542476296424866, -0.018798828125, 0.13037109375, -0.824951171875
205, 2112365762, -4.609626770019531, -1.6443815231323242, 8.36364459991455, -0.20007359981536865, -0.49369755387306213, -0.8421071171760559, -0.021240234375, 0.1318359375, -0.822021484375
206, 2112382429, -4.6053876876831055, -1.6538935899734497, 8.333627700805664, -0.22435443103313446, -0.4334949254989624, -0.8950613737106323, -0.020751953125, 0.13134765625, -0.822998046875
207, 2112399096, -4.618330478668213, -1.6614030599594116, 8.347075462341309, -0.24971099197864532, -0.46631762385368347, -0.7618113160133362, -0.018798828125, 0.1318359375, -0.822021484375
208, 2112415763, -4.609523296356201, -1.650830864906311, 8.35706901550293, -0.23139792680740356, -0.5062350034713745, -0.908559262752533, -0.019287109375, 0.130859375, -0.825439453125
209, 2112432430, -4.600868225097656, -1.6553937196731567, 8.369349479675293, -0.22160105407238007, -0.4176918864250183, -0.8310680389404297, -0.021728515625, 0.134765625, -0.823486328125
210, 2112449097, -4.621965408325195, -1.638825535774231, 8.359258651733398, -0.22037164866924286, -0.3798363208770752, -0.822436511516571, -0.019775390625, 0.1328125, -0.822509765625
211, 2112465764, -4.598689556121826, -1.6510099172592163, 8.351398468017578, -0.10183607786893845, -0.3093501925468445, -0.8068383932113647, -0.019287109375, 0.1318359375, -0.822021484375
212, 2112482431, -4.622143268585205, -1.6535353660583496, 8.364555358886719, -0.09430595487356186, -0.3361026346683502, -0.900183916091919, -0.018798828125, 0.1318359375, -0.822998046875
213, 2112499098, -4.620869159698486, -1.6518223285675049, 8.34792709350586, -0.19843347370624542, -0.39082199335098267, -0.8456539511680603, -0.018798828125, 0.130126953125, -0.821533203125
214, 2112515765, -4.622220516204834, -1.6425952911376953, 8.373180389404297, -0.13409529626369476, -0.39508867263793945, -0.8459745645523071, -0.022705078125, 0.1318359375, -0.8251953125
215, 2112532432, -4.620913505554199, -1.6224344968795776, 8.33896255493164, -0.26319605112075806, -0.42102155089378357, -0.9060364365577698, -0.019287109375, 0.13330078125, -0.822998046875
216, 2112549099, -4.634428977966309, -1.6543077230453491, 8.370667457580566, -0.29980945587158203, -0.47749751806259155, -0.9546108245849609, -0.018798828125, 0.1328125, -0.822509765625
217, 2112565766, -4.607355117797852, -1.6561790704727173, 8.352617263793945, -0.31664982438087463, -0.4780994951725006, -0.9971151947975159, -0.020263671875, 0.1337890625, -0.823486328125
218, 2112582433, -4.61049222946167, -1.6444345712661743, 8.34365463256836, -0.22432881593704224, -0.4520769417285919, -0.9614110589027405, -0.018310546875, 0.13134765625, -0.820556640625
219, 2112599100, -4.599127292633057, -1.6288864612579346, 8.363946914672852, -0.15019288659095764, -0.4738990068435669, -1.0016359090805054, -0.019775390625, 0.13134765625, -0.821533203125
220, 2112615767, -4.614824295043945, -1.640159249305725, 8.322056770324707, -0.18086406588554382, -0.5668602585792542, -0.9589138627052307, -0.019287109375, 0.13134765625, -0.822998046875
221, 2112632434, -4.614233493804932, -1.6440116167068481, 8.35715103149414, -0.1813507229089737, -0.4982694685459137, -0.8981092572212219, -0.019775390625, 0.13427734375, -0.822509765625
222, 2112649101, -4.624447345733643, -1.6546413898468018, 8.348896026611328, -0.1959243267774582, -0.5706765055656433, -0.8877105116844177, -0.018310546875, 0.1328125, -0.823486328125
223, 2112665768, -4.597087383270264, -1.6426982879638672, 8.323817253112793, -0.12005952000617981, -0.5791671872138977, -0.8515965938568115, -0.020751953125, 0.130859375, -0.820556640625
224, 2112682435, -4.603069305419922, -1.6439201831817627, 8.345791816711426, -0.1495269238948822, -0.5744799971580505, -0.9007985591888428, -0.019775390625, 0.1328125, -0.821533203125
225, 2112699102, -4.62019681930542, -1.6331263780593872, 8.374906539916992, -0.10366740822792053, -0.5585618019104004, -0.8588322997093201, -0.019775390625, 0.13134765625, -0.823486328125
226, 2112715769, -4.615832328796387, -1.645337700843811, 8.350652694702148, -0.09426754713058472, -0.5582159757614136, -0.928165853023529, -0.022216796875, 0.1328125, -0.82421875
227, 2112732436, -4.6160888671875, -1.6399208307266235, 8.348045349121094, -0.09542011469602585, -0.5448973178863525, -0.953304648399353, -0.018310546875, 0.1337890625, -0.825439453125
228, 2112749103, -4.6334686279296875, -1.6326594352722168, 8.349092483520508, 0.042753998190164566, -0.5400437712669373, -0.9267955422401428, -0.018798828125, 0.134765625, -0.823974609375
229, 2112765770, -4.611051082611084, -1.6442770957946777, 8.348255157470703, -0.03412892296910286, -0.6747793555259705, -0.9542011022567749, -0.018310546875, 0.1328125, -0.821044921875
230, 2112782437, -4.616965293884277, -1.6345258951187134, 8.337432861328125, 0.008151242509484291, -0.6247321963310242, -0.9324560761451721, -0.019775390625, 0.130126953125, -0.823486328125
231, 2112799104, -4.612030029296875, -1.638639211654663, 8.35115909576416, -0.06131679564714432, -0.6490641832351685, -0.9904046654701233, -0.017822265625, 0.13134765625, -0.822998046875
232, 2112815771, -4.620419979095459, -1.6246247291564941, 8.348182678222656, -0.03516623377799988, -0.7076532244682312, -0.9639723300933838, -0.021240234375, 0.130859375, -0.822509765625
233, 2112832438, -4.606311798095703, -1.6434171199798584, 8.358158111572266, -0.11624322831630707, -0.5827529430389404, -0.924810528755188, -0.018310546875, 0.13330078125, -0.822021484375
234, 2112849105, -4.612697124481201, -1.6318942308425903, 8.348052024841309, -0.0548752062022686, -0.6838462352752686, -0.9066382646560669, -0.020751953125, 0.130859375, -0.822998046875
235, 2112865772, -4.606678485870361, -1.6321415901184082, 8.349536895751953, -0.20459425449371338, -0.603588879108429, -1.0010979175567627, -0.021240234375, 0.130126953125, -0.823974609375
236, 2112882439, -4.608980655670166, -1.6396437883377075, 8.383163452148438, -0.2068609595298767, -0.5600088834762573, -0.9610141515731812, -0.019287109375, 0.13037109375, -0.820556640625
237, 2112899106, -4.626437664031982, -1.637133002281189, 8.35000228881836, -0.20569559931755066, -0.7250699996948242, -0.9379498958587646, -0.021728515625, 0.1328125, -0.822021484375
238, 2112915773, -4.605928421020508, -1.6426453590393066, 8.349132537841797, -0.19833193719387054, -0.6937968730926514, -0.9988440871238708, -0.020751953125, 0.130859375, -0.823974609375
239, 2112932440, -4.61055850982666, -1.6461896896362305, 8.350665092468262, -0.09194959700107574, -0.8736748695373535, -1.015633225440979, -0.021728515625, 0.1318359375, -0.823486328125
240, 2112949107, -4.617499351501465, -1.6419448852539062, 8.359550476074219, -0.1179080531001091, -0.7785619497299194, -0.949001669883728, -0.022705078125, 0.1337890625, -0.8251953125
241, 2112965774, -4.628737926483154, -1.6426011323928833, 8.367928504943848, -0.0540555976331234, -0.8652352690696716, -0.9867546558380127, -0.021240234375, 0.1318359375, -0.822021484375
242, 2112982441, -4.6077375411987305, -1.6389695405960083, 8.354443550109863, -0.1627814918756485, -0.8094508647918701, -1.0131102800369263, -0.020263671875, 0.13232421875, -0.822021484375
243, 2112999108, -4.620316505432129, -1.6493449211120605, 8.352441787719727, -0.19408024847507477, -0.8526340126991272, -0.9771116971969604, -0.020263671875, 0.13037109375, -0.822998046875
244, 2113015775, -4.614511966705322, -1.6429208517074585, 8.348662376403809, -0.13017654418945312, -0.8366643786430359, -0.9380522966384888, -0.020263671875, 0.13330078125, -0.823486328125
245, 2113032442, -4.605232238769531, -1.6427407264709473, 8.349837303161621, -0.053748246282339096, -0.758148729801178, -1.041706919670105, -0.021240234375, 0.129638671875, -0.824462890625
246, 2113049109, -4.611687183380127, -1.6305832862854004, 8.348249435424805, -0.07909675687551498, -0.6716052293777466, -1.0130301713943481, -0.020263671875, 0.1318359375, -0.823486328125
247, 2113065776, -4.595168113708496, -1.6453272104263306, 8.33484172821045, -0.08092331886291504, -0.7280025482177734, -1.0645407438278198, -0.020751953125, 0.130859375, -0.822021484375
248, 2113082443, -4.604874134063721, -1.6348371505737305, 8.365233421325684, -0.1017976701259613, -0.7611965537071228, -0.9248745441436768, -0.020263671875, 0.129638671875, -0.824951171875
249, 2113099110, -4.624520778656006, -1.6408799886703491, 8.361289024353027, -0.13103456795215607, -0.5971985459327698, -0.9435461163520813, -0.020751953125, 0.13134765625, -0.824951171875
250, 2113115777, -4.588575839996338, -1.6314270496368408, 8.354117393493652, -0.10533222556114197, -0.5491874814033508, -0.9036160111427307, -0.020263671875, 0.13037109375, -0.824462890625
251, 2113132444, -4.614538669586182, -1.6275224685668945, 8.373608589172363, -0.17827719449996948, -0.7014806270599365, -0.9246568083763123, -0.019287109375, 0.13525390625, -0.826171875
252, 2113149111, -4.604677200317383, -1.6349172592163086, 8.360991477966309, 8.003968978300691E-4, -0.7815459370613098, -0.9847443699836731, -0.020751953125, 0.1318359375, -0.821533203125
253, 2113165778, -4.601219654083252, -1.6307995319366455, 8.342233657836914, -0.15742847323417664, -0.6741518974304199, -1.04887855052948, -0.021240234375, 0.130615234375, -0.822509765625
254, 2113182445, -4.61412239074707, -1.648465871810913, 8.345833778381348, -0.07152347266674042, -0.727118968963623, -0.9877025485038757, -0.019775390625, 0.13037109375, -0.821533203125
255, 2113199112, -4.598347187042236, -1.6460119485855103, 8.356307029724121, -0.06536360830068588, -0.7266451120376587, -0.9732442498207092, -0.019287109375, 0.130126953125, -0.822021484375
256, 2113215779, -4.602552890777588, -1.627543568611145, 8.368760108947754, -0.14125405251979828, -0.6962684988975525, -0.9585937857627869, -0.020263671875, 0.13232421875, -0.823486328125
257, 2113232446, -4.607351303100586, -1.628442406654358, 8.358858108520508, -0.16694356501102448, -0.7353662252426147, -0.9532407522201538, -0.022705078125, 0.13232421875, -0.8251953125
258, 2113249113, -4.588576316833496, -1.6305592060089111, 8.368352890014648, -0.13669496774673462, -0.7028251886367798, -0.9423936605453491, -0.020263671875, 0.1318359375, -0.822998046875
259, 2113265780, -4.596192836761475, -1.6419322490692139, 8.354390144348145, -0.25115811824798584, -0.6294960975646973, -0.9568647742271423, -0.021728515625, 0.130859375, -0.823486328125
260, 2113282447, -4.607496738433838, -1.620775580406189, 8.373878479003906, -0.19249223172664642, -0.5844561457633972, -0.9663798809051514, -0.018798828125, 0.130126953125, -0.821533203125
261, 2113299114, -4.604695796966553, -1.63019859790802, 8.36542797088623, -0.21992343664169312, -0.6296113133430481, -0.9926201701164246, -0.020751953125, 0.13134765625, -0.822998046875
262, 2113315781, -4.605369567871094, -1.624384880065918, 8.360377311706543, -0.11078773438930511, -0.6729608774185181, -0.9606555700302124, -0.020751953125, 0.1318359375, -0.8251953125
263, 2113332448, -4.6139631271362305, -1.620486855506897, 8.36730670928955, -0.3248586654663086, -0.7585968971252441, -0.9851540327072144, -0.021240234375, 0.1328125, -0.8251953125
264, 2113349115, -4.601820945739746, -1.6313525438308716, 8.335683822631836, -0.3059692978858948, -0.3544157147407532, -1.0171186923980713, -0.020263671875, 0.1318359375, -0.823486328125
265, 2113365782, -4.6164326667785645, -1.6277536153793335, 8.344612121582031, -0.3853815197944641, -0.4688020944595337, -1.0693687200546265, -0.019287109375, 0.13134765625, -0.822021484375
266, 2113382449, -4.599442005157471, -1.6204586029052734, 8.370466232299805, -0.5892329812049866, -0.5016247630119324, -1.2529733180999756, -0.021240234375, 0.130126953125, -0.822509765625
267, 2113399116, -4.616116523742676, -1.645701289176941, 8.360755920410156, -0.6758167147636414, -0.6403942704200745, -1.3785139322280884, -0.019775390625, 0.1328125, -0.822998046875
268, 2113415783, -4.624126434326172, -1.6396762132644653, 8.378973007202148, -0.8113206028938293, -0.8312729597091675, -1.4878801107406616, -0.022705078125, 0.130615234375, -0.821533203125
269, 2113432450, -4.632638931274414, -1.6465229988098145, 8.364217758178711, -0.8044052124023438, -0.9030653238296509, -1.4463235139846802, -0.022705078125, 0.13330078125, -0.82568359375
270, 2113449117, -4.607762813568115, -1.6441770792007446, 8.365753173828125, -0.7197808027267456, -1.1613436937332153, -1.5435106754302979, -0.022216796875, 0.1318359375, -0.823974609375
271, 2113465784, -4.583837509155273, -1.6688220500946045, 8.362815856933594, -0.3627398908138275, -1.345678448677063, -1.3634792566299438, -0.022705078125, 0.1318359375, -0.823486328125
272, 2113482451, -4.573582172393799, -1.6737552881240845, 8.355550765991211, -0.1928636133670807, -1.320757269859314, -1.2774717807769775, -0.022216796875, 0.1318359375, -0.821533203125
273, 2113499118, -4.580321788787842, -1.6503242254257202, 8.345620155334473, -0.08392000943422318, -1.2741934061050415, -1.007014513015747, -0.022705078125, 0.13232421875, -0.822021484375
274, 2113515785, -4.594777584075928, -1.6489425897598267, 8.345108032226562, -0.029300928115844727, -1.2374775409698486, -0.972962498664856, -0.021240234375, 0.1318359375, -0.822021484375
275, 2113532452, -4.583004474639893, -1.6361455917358398, 8.36544418334961, 0.0707358792424202, -1.052156925201416, -1.026390552520752, -0.023193359375, 0.13232421875, -0.82373046875
276, 2113549119, -4.591418266296387, -1.6440534591674805, 8.37221622467041, 0.08626998215913773, -1.0640283823013306, -0.9717971086502075, -0.022705078125, 0.13427734375, -0.82470703125
277, 2113565786, -4.588109493255615, -1.6290267705917358, 8.365243911743164, 0.03364868834614754, -0.9528437256813049, -0.9538426399230957, -0.023193359375, 0.13232421875, -0.822998046875
278, 2113582453, -4.584648609161377, -1.628722071647644, 8.371112823486328, 0.02921128273010254, -0.8976803421974182, -0.95717853307724, -0.021728515625, 0.1328125, -0.822509765625
279, 2113599120, -4.590756893157959, -1.6399883031845093, 8.359310150146484, 0.005064910743385553, -0.9559555053710938, -1.0142756700515747, -0.022705078125, 0.13134765625, -0.821044921875
280, 2113615787, -4.587123870849609, -1.6506283283233643, 8.365788459777832, 0.02418624237179756, -0.9069104790687561, -1.011659860610962, -0.022216796875, 0.13330078125, -0.821533203125
281, 2113632454, -4.582362174987793, -1.640150785446167, 8.360939979553223, 0.032368045300245285, -0.9214680790901184, -0.9892392754554749, -0.023193359375, 0.1328125, -0.822021484375
282, 2113649121, -4.588077068328857, -1.661637306213379, 8.377894401550293, 0.193958580493927, -0.9893162250518799, -0.8606507778167725, -0.022705078125, 0.131103515625, -0.821533203125
283, 2113665788, -4.579861164093018, -1.6153802871704102, 8.361942291259766, 0.24164943397045135, -1.059200406074524, -0.8708574771881104, -0.021728515625, 0.130859375, -0.822509765625
284, 2113682455, -4.574682235717773, -1.6540067195892334, 8.365084648132324, 0.2150762528181076, -1.0387614965438843, -0.8176854252815247, -0.019287109375, 0.129150390625, -0.822998046875
285, 2113699122, -4.5820159912109375, -1.6297976970672607, 8.366560935974121, 0.32099759578704834, -1.0877841711044312, -0.8319902420043945, -0.023193359375, 0.13134765625, -0.822509765625
286, 2113715789, -4.584491729736328, -1.6384994983673096, 8.36947250366211, 0.3699050545692444, -1.009486198425293, -0.8704220056533813, -0.020751953125, 0.130615234375, -0.822509765625
287, 2113732456, -4.587998390197754, -1.6348087787628174, 8.378857612609863, 0.475147545337677, -1.0562164783477783, -0.8351020812988281, -0.02587890625, 0.1337890625, -0.82470703125
288, 2113749123, -4.568567276000977, -1.6416888236999512, 8.378748893737793, 0.5070482492446899, -1.167362928390503, -0.7198194265365601, -0.024169921875, 0.131103515625, -0.822509765625
289, 2113765790, -4.588024616241455, -1.6454583406448364, 8.363441467285156, 0.7343352437019348, -1.2359535694122314, -0.6714881062507629, -0.023193359375, 0.128173828125, -0.822998046875
290, 2113782457, -4.56443452835083, -1.657728672027588, 8.359825134277344, 0.7643790245056152, -1.2908800840377808, -0.6365524530410767, -0.024169921875, 0.130126953125, -0.822998046875
291, 2113799124, -4.5672926902771, -1.6297259330749512, 8.390764236450195, 0.6402086019515991, -1.3110755681991577, -0.5435143113136292, -0.022216796875, 0.128173828125, -0.823486328125
292, 2113815791, -4.567087173461914, -1.6219569444656372, 8.39217758178711, 0.39125317335128784, -1.0730311870574951, -0.6114007234573364, -0.024169921875, 0.130126953125, -0.821533203125
293, 2113832458, -4.586142539978027, -1.610190987586975, 8.398391723632812, 0.05219227448105812, -0.8846113681793213, -0.7596854567527771, -0.023193359375, 0.130126953125, -0.8251953125
294, 2113849125, -4.5841064453125, -1.6157430410385132, 8.380932807922363, -0.17730394005775452, -0.8114103078842163, -0.8354479074478149, -0.022216796875, 0.13232421875, -0.82568359375
295, 2113865792, -4.574664115905762, -1.6463284492492676, 8.361631393432617, -0.3630600571632385, -0.9170626997947693, -0.837573766708374, -0.021728515625, 0.130126953125, -0.8271484375
296, 2113882459, -4.581216335296631, -1.616688847541809, 8.384664535522461, -0.35805270075798035, -0.8858150839805603, -0.8343207836151123, -0.024169921875, 0.130615234375, -0.8232421875
297, 2113899126, -4.574254512786865, -1.6347278356552124, 8.378536224365234, -0.252835750579834, -1.1042914390563965, -0.7922263741493225, -0.022216796875, 0.130615234375, -0.823486328125
298, 2113915793, -4.558112621307373, -1.6184738874435425, 8.388676643371582, -0.48555269837379456, -0.9053322076797485, -1.0045045614242554, -0.024169921875, 0.129638671875, -0.8251953125
299, 2113932460, -4.520066738128662, -1.601631999015808, 8.407073974609375, -1.4452093839645386, 0.0510525107383728, -1.3870044946670532, -0.023681640625, 0.129638671875, -0.826171875
300, 2113949127, -4.4836955070495605, -1.4947785139083862, 8.431710243225098, -3.881937265396118, 2.3521487712860107, -2.0244534015655518, -0.022705078125, 0.1328125, -0.822021484375
301, 2113965794, -4.4702043533325195, -1.4747557640075684, 8.441184997558594, -5.401910781860352, 5.390148639678955, -2.5653810501098633, -0.020751953125, 0.13232421875, -0.823974609375
302, 2113982461, -4.394837856292725, -1.555616855621338, 8.40158462524414, -7.758872032165527, 9.797650337219238, -2.901869297027588, -0.020263671875, 0.13330078125, -0.821044921875
303, 2113999128, -4.323718547821045, -1.5682344436645508, 8.379276275634766, -9.394375801086426, 14.64925479888916, -2.7044472694396973, -0.016845703125, 0.13720703125, -0.820556640625
304, 2114015795, -4.343903064727783, -1.381364345550537, 8.603734016418457, -10.763392448425293, 24.23993682861328, -2.7466869354248047, -0.0107421875, 0.138427734375, -0.821533203125
305, 2114032462, -2.5060253143310547, -1.6139873266220093, 8.867742538452148, -12.775687217712402, 50.86927795410156, -0.7350659370422363, -9.765625E-4, 0.142578125, -0.8203125
306, 2114049129, -3.130932092666626, -1.9508428573608398, 9.420568466186523, -23.356773376464844, 116.95877075195312, 9.989507675170898, 0.02197265625, 0.145751953125, -0.8193359375
307, 2114065796, -4.0662031173706055, -2.1516659259796143, 10.019187927246094, -28.164356231689453, 156.12908935546875, 17.553361892700195, 0.05615234375, 0.150634765625, -0.812744140625
308, 2114082463, -5.139010429382324, -3.0011391639709473, 10.607208251953125, -14.467220306396484, 177.0349884033203, 33.591243743896484, 0.09912109375, 0.15185546875, -0.8046875
309, 2114099130, -6.340878486633301, -3.8121073246002197, 11.779935836791992, 0.9805466532707214, 173.4459686279297, 47.35163879394531, 0.1435546875, 0.147705078125, -0.796875
310, 2114115797, -4.512623310089111, -1.8272284269332886, 11.147963523864746, -4.952964782714844, 163.4573516845703, 54.48956298828125, 0.183349609375, 0.149169921875, -0.784912109375
311, 2114132464, -2.863906145095825, -3.668104648590088, 13.067817687988281, 8.099235534667969, 112.33743286132812, 57.23020935058594, 0.222412109375, 0.143310546875, -0.774658203125
312, 2114149131, -5.111680030822754, -3.492980718612671, 16.002023696899414, 40.304351806640625, 66.30391693115234, 65.82688903808594, 0.24267578125, 0.13037109375, -0.76416015625
313, 2114165798, -0.30603498220443726, -1.9448645114898682, 12.988383293151855, 37.848297119140625, 5.468535900115967, 59.175880432128906, 0.25537109375, 0.114501953125, -0.75927734375
314, 2114182465, 1.618843913078308, -2.184110403060913, 10.127653121948242, 20.347766876220703, -15.59605884552002, 53.30774688720703, 0.259521484375, 0.101318359375, -0.7490234375
315, 2114199132, 1.9120922088623047, -3.98047137260437, 9.824828147888184, 15.554158210754395, -28.725788116455078, 43.775672912597656, 0.26416015625, 0.09326171875, -0.744384765625
316, 2114215799, 1.8831526041030884, -4.422235012054443, 10.07825756072998, 13.957265853881836, -47.7384147644043, 21.802209854125977, 0.2607421875, 0.087158203125, -0.7373046875
317, 2114232466, 1.5636138916015625, -4.344704627990723, 10.047470092773438, 3.8389718532562256, -64.77616882324219, -5.583382606506348, 0.25732421875, 0.084228515625, -0.73974609375
318, 2114249133, -0.1471981257200241, -4.107816696166992, 11.305970191955566, -8.072434425354004, -82.68904113769531, -29.601078033447266, 0.251708984375, 0.083251953125, -0.73583984375
319, 2114265800, -2.008574962615967, -3.68377423286438, 12.547836303710938, -21.419723510742188, -113.62908172607422, -50.92631530761719, 0.2392578125, 0.089111328125, -0.740234375
320, 2114282467, -2.695038318634033, -3.164957284927368, 11.929574966430664, -28.206506729125977, -143.7252197265625, -64.28575134277344, 0.22607421875, 0.0986328125, -0.7431640625
321, 2114299134, -3.4935755729675293, -2.3591928482055664, 11.19430160522461, -29.075227737426758, -159.49609375, -67.54713439941406, 0.204833984375, 0.111083984375, -0.756591796875
322, 2114315801, -4.553292751312256, -1.4915462732315063, 11.129027366638184, -32.957820892333984, -167.52828979492188, -65.23149871826172, 0.177734375, 0.12646484375, -0.770751953125
323, 2114332468, -5.313142776489258, -0.7542849183082581, 11.24545669555664, -36.599815368652344, -171.7979736328125, -56.504180908203125, 0.14697265625, 0.150634765625, -0.78173828125
324, 2114349135, -6.389428615570068, -0.1989717185497284, 11.903948783874512, -41.70994567871094, -173.84181213378906, -43.40278625488281, 0.109375, 0.166015625, -0.793212890625
325, 2114365802, -7.748739242553711, -0.20691826939582825, 12.468277931213379, -50.037353515625, -178.9382781982422, -32.61712646484375, 0.0693359375, 0.182861328125, -0.80517578125
326, 2114382469, -8.451213836669922, -0.5607732534408569, 12.00369930267334, -54.418216705322266, -186.22244262695312, -25.12472152709961, 0.024658203125, 0.20166015625, -0.817138671875
327, 2114399136, -8.201451301574707, -0.4903871417045593, 10.523006439208984, -52.16426086425781, -187.7478485107422, -16.621566772460938, -0.028564453125, 0.2197265625, -0.8193359375
328, 2114415803, -7.697118759155273, -0.021786686033010483, 8.695649147033691, -50.63636779785156, -177.50933837890625, -7.2405314445495605, -0.0791015625, 0.236328125, -0.818603515625
329, 2114432470, -7.781797409057617, 0.17487302422523499, 7.571008205413818, -51.105289459228516, -158.86810302734375, 3.014340877532959, -0.125244140625, 0.25244140625, -0.8154296875
330, 2114449137, -8.86125659942627, 0.25482985377311707, 7.229635715484619, -51.71075439453125, -142.5359344482422, 13.080942153930664, -0.162841796875, 0.264892578125, -0.802734375
331, 2114465804, -9.737825393676758, 0.22596754133701324, 6.365593433380127, -51.89558792114258, -136.3273468017578, 21.06709098815918, -0.196533203125, 0.281494140625, -0.79345703125
332, 2114482471, -8.344456672668457, -0.08197545260190964, 3.2404210567474365, -37.87621307373047, -120.51844024658203, 30.237506866455078, -0.22705078125, 0.289794921875, -0.7783203125
333, 2114499138, -7.732174873352051, -0.01645965501666069, 1.4899778366088867, -22.85163688659668, -84.05136108398438, 36.2041130065918, -0.246337890625, 0.298583984375, -0.77001953125
334, 2114515805, -8.403435707092285, -0.4638509154319763, 1.898435115814209, -20.683982849121094, -46.255496978759766, 30.776874542236328, -0.25732421875, 0.30712890625, -0.765380859375
335, 2114532472, -8.415133476257324, -1.1309280395507812, 2.184030055999756, -15.844355583190918, -17.492088317871094, 21.67620086669922, -0.259521484375, 0.314697265625, -0.760986328125
336, 2114549139, -7.991071701049805, -1.4941908121109009, 2.6177308559417725, -3.9956893920898438, 8.915312767028809, 17.243026733398438, -0.260498046875, 0.318603515625, -0.762451171875
337, 2114565806, -7.575930118560791, -1.9146078824996948, 3.5171425342559814, 2.2621805667877197, 30.88005828857422, 15.085180282592773, -0.255615234375, 0.316162109375, -0.762451171875
338, 2114582473, -7.119848728179932, -2.208583116531372, 4.581144332885742, 5.259760856628418, 47.486724853515625, 13.661823272705078, -0.241455078125, 0.31640625, -0.765625
339, 2114599140, -2.958574056625366, -5.002719402313232, 3.653503894805908, 59.698238372802734, 71.98070526123047, 32.180023193359375, -0.2265625, 0.310302734375, -0.77490234375
340, 2114615807, -0.35988926887512207, -1.1368296146392822, 10.724013328552246, 66.18707275390625, 82.27305603027344, 39.39509201049805, -0.206298828125, 0.295166015625, -0.786376953125
341, 2114632474, 2.4916529655456543, -6.056789875030518, 11.190245628356934, -5.044288635253906, 133.23876953125, 2.9594573974609375, -0.178955078125, 0.294189453125, -0.794921875
342, 2114649141, -4.235724925994873, -1.196770191192627, 10.301639556884766, -14.621075630187988, 154.1769561767578, 12.811749458312988, -0.1416015625, 0.3017578125, -0.801025390625
343, 2114665808, -7.131006240844727, 4.74245548248291, 12.1659574508667, -12.74128532409668, 134.63134765625, 30.64011001586914, -0.106689453125, 0.302978515625, -0.803466796875
344, 2114682475, -8.127137184143066, -2.9054059982299805, 12.400945663452148, -10.387594223022461, 105.91204071044922, 41.86472702026367, -0.0751953125, 0.3046875, -0.807861328125
345, 2114699142, -6.155309677124023, -7.48882532119751, 8.84033203125, -6.771990776062012, 97.50294494628906, 18.589214324951172, -0.05126953125, 0.3076171875, -0.805419921875
346, 2114715809, -5.152629375457764, -1.6265069246292114, 9.903900146484375, -1.3264334201812744, 92.93888854980469, 15.302446365356445, -0.0263671875, 0.308349609375, -0.8115234375
347, 2114732476, -4.339939117431641, -1.7524012327194214, 9.057638168334961, -8.514636039733887, 88.8314437866211, 15.977757453918457, -0.004150390625, 0.31005859375, -0.81005859375
348, 2114749143, -5.394761085510254, -3.2268989086151123, 9.13936710357666, -15.443028450012207, 86.80168151855469, 10.359158515930176, 0.017822265625, 0.316162109375, -0.8076171875
349, 2114765810, -7.025139331817627, -2.8534743785858154, 10.147451400756836, -5.998531341552734, 71.93070220947266, 14.128758430480957, 0.037841796875, 0.31591796875, -0.80810546875
350, 2114782477, -6.8892292976379395, -4.129086017608643, 9.163871765136719, 20.013996124267578, 41.2541389465332, 19.552770614624023, 0.05126953125, 0.31298828125, -0.808349609375
351, 2114799144, -5.23492431640625, -1.8528568744659424, 9.395350456237793, 28.82290267944336, 28.06047248840332, 17.63266372680664, 0.060302734375, 0.304931640625, -0.8115234375
352, 2114815811, -4.818831920623779, -2.1082355976104736, 8.75622272491455, 29.743793487548828, 18.379045486450195, 16.05754852294922, 0.06591796875, 0.301025390625, -0.8154296875
353, 2114832478, -4.517003059387207, -2.1717162132263184, 8.432418823242188, 29.29401969909668, 17.391469955444336, 13.804779052734375, 0.071533203125, 0.29150390625, -0.8173828125
354, 2114849145, -4.479797840118408, -2.085045099258423, 8.5789794921875, 23.28607177734375, 17.73737144470215, 9.595016479492188, 0.076171875, 0.28564453125, -0.81982421875
355, 2114865812, -5.077271461486816, -2.469290256500244, 8.784921646118164, 13.347989082336426, 19.587255477905273, 4.326294422149658, 0.082763671875, 0.280517578125, -0.817626953125
356, 2114882479, -5.376310348510742, -1.963487148284912, 9.027420997619629, 2.5114998817443848, 15.364922523498535, -1.6710634231567383, 0.083740234375, 0.281494140625, -0.819580078125
357, 2114899146, -4.428502082824707, -1.9013336896896362, 8.574618339538574, -2.108093738555908, 14.711469650268555, -5.244102954864502, 0.090576171875, 0.28173828125, -0.8193359375
358, 2114915813, -4.414444923400879, -2.371070384979248, 8.218352317810059, -2.4223098754882812, 13.89989948272705, -4.953281879425049, 0.091796875, 0.28125, -0.8193359375
359, 2114932480, -4.26268196105957, -2.7384488582611084, 8.032843589782715, -0.7566123008728027, 12.11530590057373, -2.4755964279174805, 0.09765625, 0.28466796875, -0.8203125
360, 2114949147, -4.784215450286865, -2.549119234085083, 8.17824649810791, 2.033297061920166, 9.857518196105957, 0.2486545890569687, 0.0986328125, 0.283203125, -0.81884765625
361, 2114965814, -5.0945916175842285, -2.260443687438965, 8.188883781433105, -0.17903274297714233, 5.992788314819336, 1.0073282718658447, 0.102783203125, 0.279296875, -0.819091796875
362, 2114982481, -5.050753116607666, -2.169286012649536, 8.1019287109375, 1.228596568107605, 3.4427120685577393, 1.794458031654358, 0.1025390625, 0.28125, -0.816650390625
363, 2114999148, -4.9268927574157715, -2.184969663619995, 8.053672790527344, 3.9890828132629395, 0.7254862785339355, 3.4991114139556885, 0.101318359375, 0.27783203125, -0.817626953125
364, 2115015815, -4.729464530944824, -2.233227252960205, 7.941291809082031, 8.216665267944336, -2.2950267791748047, 5.833953857421875, 0.103271484375, 0.277099609375, -0.817626953125
365, 2115032482, -4.464042663574219, -2.4244046211242676, 8.005446434020996, 13.560815811157227, -5.1959381103515625, 9.48001766204834, 0.104248046875, 0.275146484375, -0.822509765625
366, 2115049149, -4.71699857711792, -2.374701738357544, 8.154526710510254, 17.31400489807129, -7.702022075653076, 12.936478614807129, 0.103759765625, 0.271240234375, -0.822998046875
367, 2115065816, -4.82972526550293, -2.107591390609741, 8.313728332519531, 18.84537124633789, -7.863384246826172, 14.007864952087402, 0.1044921875, 0.2646484375, -0.823486328125
368, 2115082483, -4.842234134674072, -1.7870608568191528, 8.381048202514648, 14.674296379089355, -4.865957736968994, 11.798165321350098, 0.10302734375, 0.26220703125, -0.823486328125
369, 2115099150, -4.749328136444092, -1.7771737575531006, 8.39527416229248, 7.9155120849609375, 0.9341660737991333, 8.803646087646484, 0.103515625, 0.257080078125, -0.825439453125
370, 2115115817, -4.694089889526367, -1.8465527296066284, 8.363082885742188, 3.2778565883636475, 7.124756813049316, 6.773517608642578, 0.10546875, 0.258544921875, -0.827392578125
371, 2115132484, -4.637507438659668, -1.9313560724258423, 8.257281303405762, 1.2845995426177979, 13.46904468536377, 7.172399520874023, 0.10888671875, 0.2587890625, -0.824462890625
372, 2115149151, -4.722734451293945, -1.9408944845199585, 8.270071029663086, 0.1967250555753708, 19.892833709716797, 8.453978538513184, 0.114501953125, 0.2568359375, -0.8251953125
373, 2115165818, -4.545574188232422, -2.02247953414917, 8.280597686767578, -1.6772911548614502, 28.303037643432617, 9.332035064697266, 0.12060546875, 0.25634765625, -0.82470703125
374, 2115182485, -4.0535430908203125, -1.6059893369674683, 8.414606094360352, -5.9117865562438965, 49.849395751953125, 12.3275785446167, 0.133544921875, 0.25439453125, -0.822265625
375, 2115199152, -4.467552185058594, -1.4776263236999512, 8.327780723571777, -15.07370662689209, 75.65945434570312, 12.86279010772705, 0.14990234375, 0.257080078125, -0.818115234375
376, 2115215819, -4.677898406982422, -1.6385623216629028, 8.169149398803711, -21.312612533569336, 106.09111785888672, 9.72647476196289, 0.171875, 0.2607421875, -0.81103515625
377, 2115232486, -4.9326491355896, -1.7589915990829468, 8.031551361083984, -22.538192749023438, 137.6226348876953, 9.141603469848633, 0.20654296875, 0.26611328125, -0.805419921875
378, 2115249153, -5.481642723083496, -1.7833305597305298, 7.8397626876831055, -22.641740798950195, 164.83279418945312, 9.157082557678223, 0.240966796875, 0.27294921875, -0.790771484375
379, 2115265820, -5.838854789733887, -1.7042394876480103, 7.74517297744751, -18.90326499938965, 188.68157958984375, 9.068373680114746, 0.28271484375, 0.276611328125, -0.7734375
380, 2115282487, -5.74216365814209, -1.4550833702087402, 7.830414772033691, -16.492706298828125, 220.2835693359375, 6.885631084442139, 0.33154296875, 0.278564453125, -0.752685546875
381, 2115299154, -5.683065891265869, -1.9619375467300415, 7.726672172546387, -12.587784767150879, 263.884765625, 6.746221542358398, 0.38623046875, 0.279541015625, -0.72705078125
382, 2115315821, -5.822233200073242, -2.716843605041504, 7.2573723793029785, -5.10692834854126, 326.166748046875, 16.635766983032227, 0.44921875, 0.280517578125, -0.686279296875
383, 2115332488, -6.326584339141846, -3.370589017868042, 7.685757637023926, 0.8838973045349121, 407.3437194824219, 38.93258285522461, 0.52685546875, 0.276611328125, -0.63037109375
384, 2115349155, -8.959794044494629, -3.615861654281616, 9.376971244812012, -8.424365043640137, 479.30230712890625, 84.22977447509766, 0.61328125, 0.263427734375, -0.55224609375
385, 2115365822, -17.455976486206055, -2.7640328407287598, 10.40194034576416, -16.253625869750977, 485.2370910644531, 110.25745391845703, 0.6923828125, 0.240478515625, -0.4560546875
386, 2115382489, -18.655860900878906, -5.840951919555664, 9.733964920043945, -23.014301300048828, 455.9007568359375, 118.33992767333984, 0.7529296875, 0.218505859375, -0.35546875
387, 2115399156, -18.160295486450195, -7.132006645202637, 11.098491668701172, -10.459765434265137, 415.9246520996094, 146.4192657470703, 0.79541015625, 0.18359375, -0.258056640625
388, 2115415823, -13.067010879516602, -6.389089107513428, 14.558699607849121, 8.64307689666748, 355.96185302734375, 155.3424072265625, 0.82373046875, 0.145751953125, -0.169189453125
389, 2115432490, -5.842003345489502, -4.294963836669922, 15.777482986450195, -10.515859603881836, 215.2959442138672, 117.02490997314453, 0.834228515625, 0.1162109375, -0.107666015625
390, 2115449157, -28.98661231994629, -5.966081142425537, 25.133060455322266, -25.716590881347656, 88.80311584472656, 103.81340026855469, 0.833740234375, 0.08642578125, -0.06982421875
391, 2115465824, -10.26127815246582, -8.350784301757812, 20.36368751525879, -60.25035095214844, -140.99717712402344, -19.14828109741211, 0.8212890625, 0.0791015625, -0.08642578125
392, 2115482491, 0.55406653881073, -6.738946914672852, 7.713143825531006, 12.783663749694824, -205.55726623535156, -14.843445777893066, 0.81298828125, 0.07861328125, -0.121337890625
393, 2115499158, 0.8806959986686707, -3.3418025970458984, 4.757687568664551, 84.65032958984375, -183.70169067382812, 29.12262535095215, 0.80810546875, 0.069580078125, -0.141845703125
394, 2115515825, -2.346132755279541, -1.853110671043396, 7.952388763427734, 107.5851058959961, -191.3778076171875, 40.764427185058594, 0.8193359375, 0.048583984375, -0.1630859375
395, 2115532492, -5.14054012298584, -1.6909843683242798, 9.801047325134277, 89.72469329833984, -251.319580078125, 25.00157928466797, 0.839599609375, 0.033447265625, -0.205322265625
396, 2115549159, -5.695172309875488, -1.8725758790969849, 8.679637908935547, 62.924198150634766, -312.7030029296875, 3.92187237739563, 0.8662109375, 0.021728515625, -0.29052734375
397, 2115565826, -5.940164089202881, -1.7588350772857666, 6.368953704833984, 49.094390869140625, -347.2068176269531, -5.508144855499268, 0.866455078125, 0.015380859375, -0.419921875
398, 2115582493, -6.382515907287598, -1.883815884590149, 5.560749530792236, 37.24812698364258, -357.7162170410156, -1.7344377040863037, 0.811279296875, 0.005615234375, -0.56201171875
399, 2115599160, -7.7023396492004395, -2.308135747909546, 6.254270076751709, 19.142831802368164, -354.6153259277344, -6.47632360458374, 0.712890625, -0.009033203125, -0.671142578125
400, 2115615827, -9.116720199584961, -2.342550277709961, 7.310216903686523, -11.61441707611084, -353.9580078125, -27.81525230407715, 0.604736328125, -0.002685546875, -0.73779296875
401, 2115632494, -11.010612487792969, -3.8335061073303223, 8.087169647216797, -27.53531265258789, -361.3594665527344, -42.92752456665039, 0.51513671875, 0.0166015625, -0.774658203125
402, 2115649161, -12.312549591064453, -4.005215644836426, 7.85073709487915, -28.315711975097656, -365.8706970214844, -56.057044982910156, 0.452880859375, 0.043212890625, -0.807373046875
403, 2115665828, -10.870387077331543, -1.5720113515853882, 5.349674701690674, -49.40109634399414, -324.0773010253906, -72.28113555908203, 0.388671875, 0.073486328125, -0.864501953125
404, 2115682495, -13.431032180786133, -0.35586684942245483, 9.030956268310547, -86.92717742919922, -254.6415557861328, -70.42570495605469, 0.309814453125, 0.11279296875, -0.922607421875
405, 2115699162, -19.196552276611328, 0.1277104616165161, 15.710623741149902, -132.6753387451172, -265.13116455078125, -68.32511138916016, 0.1943359375, 0.15869140625, -0.9404296875
406, 2115715829, -18.29733657836914, 0.9410539269447327, 13.548770904541016, -148.21994018554688, -302.4149475097656, -46.93995666503906, 0.074951171875, 0.20068359375, -0.922607421875
407, 2115732496, -18.94383430480957, 0.3040919899940491, 10.973045349121094, -142.5505828857422, -317.44439697265625, -13.743053436279297, -0.024169921875, 0.234619140625, -0.8876953125
408, 2115749163, -21.022167205810547, -0.16239894926548004, 9.157427787780762, -136.861328125, -319.35247802734375, -6.459441661834717, -0.10498046875, 0.263427734375, -0.854736328125
409, 2115765830, -21.279586791992188, 0.3640226721763611, 4.5884270668029785, -139.99632263183594, -304.3653869628906, -12.000469207763672, -0.1767578125, 0.291259765625, -0.81787109375
410, 2115782497, -20.75119972229004, 0.8787829875946045, -0.12019389867782593, -140.67245483398438, -255.00347900390625, -13.156844139099121, -0.233642578125, 0.3173828125, -0.779541015625
411, 2115799164, -21.345430374145508, 0.733542799949646, -2.2713122367858887, -137.15036010742188, -188.61021423339844, -39.399288177490234, -0.2783203125, 0.339111328125, -0.742919921875
412, 2115815831, -20.208728790283203, 1.5696091651916504, -6.243746757507324, -100.1564712524414, -124.17942810058594, -86.64689636230469, -0.31396484375, 0.353759765625, -0.71826171875
413, 2115832498, -21.945695877075195, 4.492529392242432, -8.135602951049805, -57.93918991088867, -53.87266159057617, -107.444091796875, -0.33349609375, 0.353515625, -0.700439453125
414, 2115849165, -21.169448852539062, 5.897455215454102, -7.292375087738037, -31.17670249938965, 14.472609519958496, -102.7655258178711, -0.34033203125, 0.348876953125, -0.695556640625
415, 2115865832, -11.860595703125, -3.7529966831207275, -6.006429195404053, 102.24473571777344, 84.9787826538086, -93.5531234741211, -0.337890625, 0.326904296875, -0.704345703125
416, 2115882499, 8.794792175292969, 2.394099235534668, 22.618497848510742, 120.86324310302734, 112.60057830810547, -50.59052658081055, -0.31884765625, 0.286865234375, -0.725830078125
417, 2115899166, 7.086049556732178, 10.344215393066406, 8.850532531738281, 55.628536224365234, 187.6967010498047, -3.0751688480377197, -0.286865234375, 0.271484375, -0.7412109375
418, 2115915833, -10.131488800048828, 21.068912506103516, 13.62677001953125, -4.8741960525512695, 218.84857177734375, 51.081050872802734, -0.23095703125, 0.271484375, -0.755126953125
419, 2115932500, -12.415726661682129, -2.9679105281829834, 16.49077033996582, -13.677240371704102, 169.44650268554688, 84.32889556884766, -0.190673828125, 0.279052734375, -0.76025390625
420, 2115949167, -7.4700493812561035, -17.673498153686523, 5.580725193023682, 3.2797653675079346, 171.6014404296875, 41.45969772338867, -0.149169921875, 0.2783203125, -0.77001953125
421, 2115965834, -6.779815196990967, -0.6546633839607239, 10.676504135131836, 44.89102554321289, 149.6234588623047, 51.514732360839844, -0.108642578125, 0.272705078125, -0.775634765625
422, 2115982501, -6.860342025756836, -0.8296418786048889, 10.505889892578125, 45.184226989746094, 120.13114166259766, 49.51453399658203, -0.074951171875, 0.258544921875, -0.782958984375
423, 2115999168, -9.789196968078613, -4.8938679695129395, 10.917202949523926, 62.694183349609375, 91.42205810546875, 42.07416534423828, -0.052001953125, 0.24853515625, -0.788818359375
424, 2116015835, -7.194356918334961, -0.27102941274642944, 11.665852546691895, 69.87210845947266, 51.856292724609375, 34.27857208251953, -0.03271484375, 0.231201171875, -0.79150390625
425, 2116032502, -5.736639976501465, -2.1511716842651367, 9.820552825927734, 40.179847717285156, 27.01520538330078, 18.762741088867188, -0.023681640625, 0.21875, -0.796630859375
426, 2116049169, -4.754501819610596, -0.6969885230064392, 9.739906311035156, 18.48563575744629, 29.097126007080078, 12.651187896728516, -0.01708984375, 0.21484375, -0.798583984375
427, 2116065836, -5.5015549659729, -1.597448468208313, 9.182823181152344, 0.9992877244949341, 22.04558753967285, 3.7149429321289062, -0.013427734375, 0.211669921875, -0.794921875
428, 2116082503, -4.393648624420166, -2.014177083969116, 9.006322860717773, -14.751001358032227, 20.872047424316406, -1.0777463912963867, -0.007568359375, 0.21484375, -0.794921875
429, 2116099170, -4.80566930770874, -2.4235856533050537, 8.653647422790527, -8.190232276916504, 14.650919914245605, 0.2906467914581299, -7.32421875E-4, 0.218017578125, -0.795654296875
430, 2116115837, -4.895012855529785, -2.1723568439483643, 8.478843688964844, 3.441214084625244, 4.951979637145996, 3.6901822090148926, 4.8828125E-4, 0.218017578125, -0.796142578125
431, 2116132504, -4.852479934692383, -1.9371298551559448, 8.430251121520996, 9.494369506835938, -1.0834689140319824, 6.615321636199951, 0.00146484375, 0.216796875, -0.795654296875
432, 2116149171, -4.748114109039307, -1.5443710088729858, 8.467195510864258, 9.357123374938965, -2.8859379291534424, 6.902005195617676, 9.765625E-4, 0.212890625, -0.799072265625
433, 2116165838, -4.633944034576416, -1.730337381362915, 8.454385757446289, 7.218421459197998, -0.8717026710510254, 4.920334815979004, 9.765625E-4, 0.21044921875, -0.796142578125
434, 2116182505, -4.719066143035889, -1.7803884744644165, 8.350934028625488, 7.640570640563965, -0.3619331121444702, 4.956871509552002, 0.00244140625, 0.207275390625, -0.797607421875
435, 2116199172, -4.61146354675293, -1.928415298461914, 8.351546287536621, 10.859184265136719, -1.9528160095214844, 7.672872543334961, -4.8828125E-4, 0.204345703125, -0.798095703125
436, 2116215839, -4.676145553588867, -2.0732438564300537, 8.262640953063965, 15.605515480041504, -7.510321617126465, 11.845643043518066, 0.001220703125, 0.202392578125, -0.800048828125
437, 2116232506, -4.751672744750977, -1.775355577468872, 8.390104293823242, 15.007524490356445, -8.744291305541992, 13.19015884399414, -0.001220703125, 0.19873046875, -0.801025390625
438, 2116249173, -4.60675048828125, -1.6159684658050537, 8.475432395935059, 11.603137016296387, -7.0351386070251465, 12.261344909667969, -0.002197265625, 0.1962890625, -0.802001953125
439, 2116265840, -4.469974040985107, -1.6312958002090454, 8.466497421264648, 8.567282676696777, -4.215840816497803, 12.05394172668457, -7.32421875E-4, 0.191162109375, -0.802001953125
440, 2116282507, -4.233201026916504, -1.7245680093765259, 8.450138092041016, 7.190893173217773, 0.24825768172740936, 13.32712459564209, -2.44140625E-4, 0.192626953125, -0.799560546875
441, 2116299174, -4.234979629516602, -1.6596903800964355, 8.521136283874512, 9.59045124053955, 8.463465690612793, 15.373154640197754, 0.002197265625, 0.189697265625, -0.800537109375
442, 2116315841, -4.5886759757995605, -1.366016149520874, 8.520840644836426, 8.922633171081543, 16.39368438720703, 17.24885368347168, 0.00439453125, 0.186279296875, -0.80078125
443, 2116332508, -4.526150226593018, -1.1746208667755127, 8.555734634399414, 4.986778736114502, 26.6724910736084, 17.50868034362793, 0.014892578125, 0.184814453125, -0.8017578125
444, 2116349175, -4.157949447631836, -0.9876618981361389, 8.719269752502441, 1.0303360223770142, 42.98068618774414, 16.823116302490234, 0.02294921875, 0.184814453125, -0.802978515625
445, 2116365842, -4.335296630859375, -1.2693322896957397, 8.660126686096191, -3.9122116565704346, 65.08574676513672, 18.982606887817383, 0.037841796875, 0.185546875, -0.80126953125
446, 2116382509, -4.431041717529297, -1.169398546218872, 8.455917358398438, -5.421472072601318, 92.47200775146484, 22.349515914916992, 0.058837890625, 0.1826171875, -0.797119140625
447, 2116399176, -4.527243614196777, -1.0767395496368408, 8.323270797729492, -6.576848030090332, 122.93294525146484, 25.174230575561523, 0.085693359375, 0.183837890625, -0.794189453125
448, 2116415843, -4.730618953704834, -0.9107905626296997, 8.09608268737793, -6.687830448150635, 156.30970764160156, 27.128210067749023, 0.11962890625, 0.184326171875, -0.7919921875
449, 2116432510, -5.106120586395264, -0.8830440044403076, 7.798986911773682, -6.809117317199707, 190.82720947265625, 25.323108673095703, 0.164794921875, 0.185546875, -0.783203125
450, 2116449177, -5.38126277923584, -0.5099063515663147, 7.676792144775391, -6.228885650634766, 224.70033264160156, 21.50572967529297, 0.21533203125, 0.18798828125, -0.76953125
451, 2116465844, -5.705024719238281, -1.1563383340835571, 7.9228315353393555, 0.6719662547111511, 261.9891052246094, 27.841815948486328, 0.270263671875, 0.183349609375, -0.751220703125
452, 2116482511, -5.711960792541504, -2.1987178325653076, 7.885669708251953, 13.165946960449219, 309.03900146484375, 50.5346794128418, 0.3310546875, 0.17626953125, -0.719482421875
453, 2116499178, -6.251235485076904, -2.211228370666504, 7.734834671020508, 33.33273696899414, 382.5994567871094, 76.22683715820312, 0.4130859375, 0.160888671875, -0.68310546875
454, 2116515845, -8.344200134277344, -2.8495140075683594, 9.34597110748291, 48.98930358886719, 460.94842529296875, 101.3650894165039, 0.500732421875, 0.137451171875, -0.625
455, 2116532512, -16.635494232177734, -2.042233943939209, 11.583549499511719, 37.80010986328125, 490.9071350097656, 117.96227264404297, 0.587646484375, 0.11328125, -0.544677734375
456, 2116549179, -20.598413467407227, -1.731130599975586, 11.60208511352539, 25.669679641723633, 460.0625915527344, 111.48867797851562, 0.659912109375, 0.085693359375, -0.457275390625
457, 2116565846, -17.028268814086914, -3.7553703784942627, 12.058595657348633, 23.763408660888672, 448.08941650390625, 102.27149200439453, 0.715087890625, 0.062744140625, -0.359619140625
458, 2116582513, -13.304712295532227, -3.6688919067382812, 15.658369064331055, 20.998798370361328, 400.5791015625, 95.05104064941406, 0.75537109375, 0.0361328125, -0.26416015625
459, 2116599180, -7.7794108390808105, -1.3104914426803589, 18.155126571655273, 20.493825912475586, 249.49203491210938, 77.90180206298828, 0.775390625, 0.01513671875, -0.1953125
460, 2116615847, -29.300460815429688, -2.1705713272094727, 26.958654403686523, -15.765941619873047, 103.6260757446289, 82.85443878173828, 0.782470703125, -0.013427734375, -0.1552734375
461, 2116632514, -12.282268524169922, -5.14246940612793, 22.404747009277344, -66.39974975585938, -148.7141876220703, -25.0365047454834, 0.781494140625, -0.012939453125, -0.16650390625
462, 2116649181, 1.479721188545227, -4.177666664123535, 8.216988563537598, -8.393305778503418, -221.2734375, -15.844679832458496, 0.7724609375, -0.013427734375, -0.206298828125
463, 2116665848, 3.1822574138641357, -0.8555121421813965, 3.763279676437378, 44.6071662902832, -186.591064453125, 16.969499588012695, 0.76416015625, -0.024169921875, -0.240478515625
464, 2116682515, 0.40841591358184814, -0.5306799411773682, 6.6590681076049805, 47.368648529052734, -171.9770965576172, 2.269366979598999, 0.765869140625, -0.03466796875, -0.271484375
465, 2116699182, -5.59415864944458, -3.2424540519714355, 10.291937828063965, 51.1427116394043, -224.5076904296875, -24.34103012084961, 0.765869140625, -0.034912109375, -0.32177734375
466, 2116715849, -6.889682769775391, -3.2646968364715576, 9.525752067565918, 71.47174835205078, -301.6752014160156, -41.28105545043945, 0.749755859375, -0.0283203125, -0.3984375
467, 2116732516, -6.327438831329346, -2.4702794551849365, 7.448811054229736, 78.4883804321289, -343.9780578613281, -44.20610046386719, 0.70703125, -0.02197265625, -0.494140625
468, 2116749183, -7.116865634918213, -0.9692113399505615, 6.977962970733643, 53.28507614135742, -358.6825866699219, -48.206634521484375, 0.628662109375, -0.015380859375, -0.58154296875
469, 2116765850, -8.268491744995117, -0.3943847119808197, 7.02473258972168, 8.067130088806152, -367.5282897949219, -50.00684356689453, 0.52099609375, -0.01171875, -0.642578125
470, 2116782517, -8.960257530212402, -0.4869585335254669, 7.524909973144531, -24.52644157409668, -364.9427490234375, -43.835079193115234, 0.4140625, -0.01025390625, -0.65869140625
471, 2116799184, -10.025299072265625, -1.162482738494873, 8.246403694152832, -44.91412353515625, -366.3681335449219, -35.164363861083984, 0.325927734375, -0.014404296875, -0.654541015625
472, 2116815851, -11.660415649414062, -1.3839205503463745, 9.501262664794922, -67.9820785522461, -373.12451171875, -34.13028335571289, 0.267333984375, -0.023681640625, -0.635498046875
473, 2116832518, -12.440729141235352, -0.031192533671855927, 9.524327278137207, -108.94319152832031, -365.93670654296875, -43.45675277709961, 0.244873046875, -0.034423828125, -0.602294921875
474, 2116849185, -12.802560806274414, 1.5419909954071045, 8.866256713867188, -153.6105194091797, -324.7083435058594, -43.86935043334961, 0.290283203125, -0.031982421875, -0.604736328125
475, 2116865852, -16.282751083374023, 0.06296882033348083, 11.960044860839844, -163.93435668945312, -295.9925231933594, -31.185104370117188, 0.36865234375, -0.00390625, -0.684326171875
476, 2116882519, -20.313562393188477, -0.733632504940033, 13.512743949890137, -139.69717407226562, -310.27239990234375, -29.104022979736328, 0.39013671875, 0.06298828125, -0.837890625
477, 2116899186, -20.628421783447266, 1.4928946495056152, 10.745979309082031, -120.1368408203125, -320.9974060058594, -49.13075256347656, 0.2900390625, 0.157470703125, -0.968994140625
478, 2116915853, -21.518943786621094, 1.1510541439056396, 7.708531379699707, -104.77261352539062, -305.2958679199219, -67.83898162841797, 0.13330078125, 0.24072265625, -1.016357421875
479, 2116932520, -23.244131088256836, -0.45417171716690063, 4.1767778396606445, -71.27664947509766, -275.6022033691406, -81.46227264404297, -0.009521484375, 0.295166015625, -1.006591796875
480, 2116949187, -22.543737411499023, 1.1399410963058472, -1.7103476524353027, -43.980140686035156, -228.01351928710938, -93.1957015991211, -0.118896484375, 0.325927734375, -0.9775390625
481, 2116965854, -22.232091903686523, 6.068282604217529, -6.204428195953369, -45.468936920166016, -148.6800994873047, -91.81730651855469, -0.19384765625, 0.34130859375, -0.949951171875
482, 2116982521, -23.965961456298828, 8.425029754638672, -7.826960563659668, -63.896453857421875, -83.5973129272461, -76.49578094482422, -0.240966796875, 0.3603515625, -0.928466796875
483, 2116999188, -21.278703689575195, 6.730066776275635, -9.886104583740234, -27.02564811706543, -16.91872215270996, -60.81806945800781, -0.2626953125, 0.375732421875, -0.91650390625
484, 2117015855, -9.155915260314941, 6.749279022216797, -6.539224624633789, 40.39814376831055, 95.58696746826172, 20.290176391601562, -0.250732421875, 0.376953125, -0.928955078125
485, 2117032522, 6.613961219787598, -6.692330837249756, 23.412017822265625, -55.09939956665039, 138.18907165527344, 26.98568344116211, -0.21875, 0.394775390625, -0.937255859375
486, 2117049189, -1.1012967824935913, -10.61266040802002, 1.3556286096572876, -35.12519454956055, 195.1501007080078, 20.20450782775879, -0.168701171875, 0.41943359375, -0.93896484375
487, 2117065856, -11.827951431274414, 7.402430534362793, 15.142746925354004, -40.263038635253906, 245.2438201904297, 26.3442440032959, -0.10546875, 0.43603515625, -0.947509765625
488, 2117082523, -9.946329116821289, 0.7675690650939941, 15.171614646911621, -26.957653045654297, 169.06663513183594, 54.60008239746094, -0.051025390625, 0.455322265625, -0.948486328125
489, 2117099190, -7.152383804321289, -10.714941024780273, 7.861733913421631, -29.537620544433594, 154.40786743164062, 30.56805419921875, -0.0048828125, 0.46923828125, -0.94677734375
490, 2117115857, -6.1728057861328125, -3.5642385482788086, 9.334590911865234, -19.68117332458496, 151.19786071777344, 25.0943546295166, 0.039306640625, 0.479736328125, -0.94384765625
491, 2117132524, -6.8907060623168945, -1.3155972957611084, 11.039137840270996, -31.29533576965332, 132.99586486816406, 20.8834285736084, 0.07958984375, 0.4921875, -0.93701171875
492, 2117149191, -11.642440795898438, -8.324394226074219, 10.821078300476074, 16.606569290161133, 90.34464263916016, 29.353069305419922, 0.1103515625, 0.495849609375, -0.93505859375
493, 2117165858, -5.754187107086182, -0.33750835061073303, 10.660948753356934, 34.89946746826172, 47.30086135864258, 18.346586227416992, 0.128662109375, 0.484619140625, -0.93798828125
494, 2117182525, -5.969104766845703, -3.6805362701416016, 8.784160614013672, 27.32197380065918, 23.67234230041504, 11.512458801269531, 0.13916015625, 0.48046875, -0.939697265625
495, 2117199192, -4.442992210388184, -1.8613145351409912, 8.407965660095215, 39.34983825683594, 14.039015769958496, 17.855810165405273, 0.145751953125, 0.470703125, -0.9501953125
496, 2117215859, -2.9802944660186768, -1.6717413663864136, 7.901733875274658, 48.29720687866211, 13.375537872314453, 23.963788986206055, 0.15283203125, 0.4580078125, -0.951904296875
497, 2117232526, -3.7331724166870117, -1.8489936590194702, 8.77251148223877, 52.992916107177734, 22.535232543945312, 26.034578323364258, 0.16259765625, 0.441162109375, -0.95849609375
498, 2117249193, -5.329543113708496, -3.662151575088501, 8.746869087219238, 45.924156188964844, 23.442630767822266, 20.770057678222656, 0.168212890625, 0.43017578125, -0.9638671875
499, 2117265860, -5.396493911743164, -2.196321725845337, 9.028948783874512, 36.411865234375, 12.476906776428223, 17.16313934326172, 0.175048828125, 0.4189453125, -0.9677734375
500, 2117282527, -5.1377058029174805, -2.296109914779663, 8.67009449005127, 25.860689163208008, 5.81890869140625, 12.460033416748047, 0.18017578125, 0.41162109375, -0.9716796875
501, 2117299194, -4.570887088775635, -2.0927579402923584, 8.773907661437988, 13.554169654846191, 2.964230537414551, 8.893204689025879, 0.181640625, 0.405517578125, -0.97265625
502, 2117315861, -4.343754768371582, -2.381525993347168, 8.4750394821167, 7.6765570640563965, 1.4590599536895752, 7.451779842376709, 0.1826171875, 0.401123046875, -0.973876953125
503, 2117332528, -5.1957783699035645, -1.830274224281311, 8.284229278564453, 5.732424736022949, 1.0695545673370361, 6.7917399406433105, 0.18310546875, 0.402099609375, -0.974609375
504, 2117349195, -5.166316032409668, -1.6874537467956543, 8.273171424865723, 2.0435798168182373, 0.9131118655204773, 5.073267936706543, 0.185302734375, 0.401611328125, -0.973876953125
505, 2117365862, -5.072096347808838, -1.7585617303848267, 8.15927505493164, 4.14959716796875, 1.7056714296340942, 5.1555867195129395, 0.189208984375, 0.399169921875, -0.972412109375
506, 2117382529, -4.835306644439697, -1.9386894702911377, 8.14913272857666, 7.436398506164551, 0.5065231919288635, 6.391106128692627, 0.188232421875, 0.39599609375, -0.976318359375
507, 2117399196, -4.519791126251221, -2.0402793884277344, 8.250003814697266, 10.26799201965332, -2.05574107170105, 8.509051322937012, 0.190185546875, 0.3935546875, -0.976806640625
508, 2117415863, -4.512857437133789, -2.014967441558838, 8.286738395690918, 11.288315773010254, -3.461329221725464, 10.983421325683594, 0.1884765625, 0.3896484375, -0.978759765625
509, 2117432530, -4.5464348793029785, -1.8940849304199219, 8.283740043640137, 10.82930850982666, -2.3588807582855225, 12.736138343811035, 0.19091796875, 0.388427734375, -0.978759765625
510, 2117449197, -4.514090538024902, -1.8745290040969849, 8.230034828186035, 12.530406951904297, 1.7963935136795044, 14.58301067352295, 0.19189453125, 0.383056640625, -0.980712890625
511, 2117465864, -4.6036481857299805, -1.7393062114715576, 8.333024024963379, 9.742372512817383, 7.50385856628418, 15.139155387878418, 0.194091796875, 0.379638671875, -0.981689453125
512, 2117482531, -4.443003177642822, -1.735150933265686, 8.434284210205078, 8.017874717712402, 18.11431884765625, 15.612503051757812, 0.20361328125, 0.376708984375, -0.9814453125
513, 2117499198, -4.495238780975342, -1.6131402254104614, 8.480792999267578, 7.013042449951172, 32.21261978149414, 18.53968620300293, 0.211669921875, 0.374267578125, -0.980712890625
514, 2117515865, -4.407250881195068, -1.63270902633667, 8.552870750427246, 3.332552194595337, 53.04054641723633, 22.358182907104492, 0.2255859375, 0.372802734375, -0.9775390625
515, 2117532532, -4.4852190017700195, -1.2813599109649658, 8.576325416564941, -0.7527428269386292, 77.1994400024414, 23.471126556396484, 0.248046875, 0.371337890625, -0.973876953125
516, 2117549199, -4.573681831359863, -1.2703955173492432, 8.327816009521484, -5.948199272155762, 110.08348846435547, 22.70880126953125, 0.27880859375, 0.37109375, -0.9658203125
517, 2117565866, -4.876638412475586, -1.251717448234558, 8.264392852783203, -8.99641227722168, 145.98236083984375, 23.07503890991211, 0.31884765625, 0.373046875, -0.948974609375
518, 2117582533, -5.147754669189453, -1.292777419090271, 8.185481071472168, -6.040081024169922, 178.8142547607422, 25.831750869750977, 0.3681640625, 0.371337890625, -0.934326171875
519, 2117599200, -5.067346096038818, -1.372064232826233, 8.347808837890625, -1.6934053897857666, 213.75967407226562, 29.121557235717773, 0.424072265625, 0.369873046875, -0.90771484375
520, 2117615867, -5.303821086883545, -1.4787495136260986, 7.740608215332031, 4.5623297691345215, 256.4577331542969, 41.4549446105957, 0.493408203125, 0.365234375, -0.876220703125
521, 2117632534, -5.55568790435791, -1.9154133796691895, 7.740113258361816, 14.504437446594238, 312.2888488769531, 64.70468139648438, 0.572265625, 0.354248046875, -0.82666015625
522, 2117649201, -6.385750770568848, -2.499296188354492, 8.297423362731934, 32.26526641845703, 393.0018310546875, 86.105224609375, 0.662841796875, 0.333251953125, -0.760986328125
523, 2117665868, -9.3748779296875, -3.2642319202423096, 10.63858699798584, 46.78339767456055, 467.6548156738281, 113.87684631347656, 0.766845703125, 0.304931640625, -0.67041015625
524, 2117682535, -18.013259887695312, -0.7892768979072571, 12.574066162109375, 32.16901779174805, 474.0165100097656, 125.06568145751953, 0.861328125, 0.263671875, -0.5546875
525, 2117699202, -20.604639053344727, -5.012709617614746, 12.704791069030762, 32.312564849853516, 429.65008544921875, 124.0849609375, 0.929443359375, 0.227294921875, -0.443359375
526, 2117715869, -15.590554237365723, -5.1144561767578125, 13.454919815063477, 49.245849609375, 390.0572509765625, 133.0604248046875, 0.974609375, 0.1796875, -0.330078125
527, 2117732536, -8.499756813049316, -4.065176486968994, 15.143579483032227, 32.52908706665039, 322.96612548828125, 117.75505828857422, 1.0, 0.137939453125, -0.232421875
528, 2117749203, -13.70129680633545, -4.833386421203613, 16.723867416381836, 42.921016693115234, 194.01768493652344, 101.56574249267578, 1.007568359375, 0.105712890625, -0.17431640625
529, 2117765870, -19.147979736328125, -2.7351107597351074, 27.00248146057129, -22.356088638305664, 28.056819915771484, 37.330650329589844, 1.00537109375, 0.08544921875, -0.153076171875
530, 2117782537, -3.022803544998169, -5.327602863311768, 12.927848815917969, -46.105194091796875, -122.53697967529297, -18.46805763244629, 0.98779296875, 0.095458984375, -0.187744140625
531, 2117799204, 1.3545740842819214, -4.429067611694336, 6.091875076293945, -2.8319404125213623, -127.41822052001953, 4.805211067199707, 0.9736328125, 0.098876953125, -0.22509765625
532, 2117815871, -0.5966388583183289, -3.6536717414855957, 6.7903971672058105, 29.88164710998535, -119.8418197631836, 20.369319915771484, 0.961181640625, 0.098876953125, -0.265625
533, 2117832538, -3.6561217308044434, -4.30802583694458, 9.018195152282715, 39.090919494628906, -162.0913543701172, 4.540328025817871, 0.9443359375, 0.10205078125, -0.3115234375
534, 2117849205, -5.051260471343994, -4.662839889526367, 9.60797119140625, 40.81818771362305, -225.68275451660156, -27.21707534790039, 0.9228515625, 0.112060546875, -0.3779296875
535, 2117865872, -5.422336101531982, -4.000931262969971, 8.434588432312012, 31.41916847229004, -276.3199462890625, -67.09822845458984, 0.881591796875, 0.134033203125, -0.461181640625
536, 2117882539, -5.878317832946777, -3.6345226764678955, 7.117758274078369, 28.524503707885742, -310.236572265625, -97.30728149414062, 0.81689453125, 0.15869140625, -0.551025390625
537, 2117899206, -6.379371166229248, -2.6425304412841797, 6.109651565551758, 41.899688720703125, -330.28515625, -109.07486724853516, 0.73291015625, 0.17626953125, -0.632080078125
538, 2117915873, -6.892102241516113, -0.1965325027704239, 6.619349002838135, 36.820133209228516, -334.2922668457031, -103.64767456054688, 0.6376953125, 0.18017578125, -0.70166015625
539, 2117932540, -8.879072189331055, 1.3842962980270386, 8.601840019226074, -1.4297205209732056, -336.1971740722656, -88.1051025390625, 0.54345703125, 0.182861328125, -0.751953125
540, 2117949207, -11.46939468383789, 1.061213493347168, 10.302157402038574, -47.5365104675293, -353.020751953125, -72.99351501464844, 0.443603515625, 0.189208984375, -0.787109375
541, 2117965874, -10.788484573364258, 1.1152124404907227, 9.08926010131836, -79.14543151855469, -370.09552001953125, -56.12614440917969, 0.330810546875, 0.194580078125, -0.807861328125
542, 2117982541, -10.829473495483398, 1.8529075384140015, 7.551494598388672, -109.64049530029297, -349.0003967285156, -31.316261291503906, 0.233154296875, 0.197265625, -0.7998046875
543, 2117999208, -12.893532752990723, 1.1899234056472778, 7.937785625457764, -136.46841430664062, -298.1101989746094, -8.131067276000977, 0.16357421875, 0.205810546875, -0.783203125
544, 2118015875, -17.16999053955078, -1.312860131263733, 12.919438362121582, -152.5965118408203, -277.78741455078125, 7.020386219024658, 0.1181640625, 0.21533203125, -0.76806640625
545, 2118032542, -19.782827377319336, -2.325207471847534, 13.144144058227539, -160.01510620117188, -300.4671325683594, -0.13553375005722046, 0.06884765625, 0.234130859375, -0.75537109375
546, 2118049209, -19.60798454284668, -2.5578880310058594, 9.617674827575684, -157.1402587890625, -305.1203918457031, -16.346628189086914, 0.022705078125, 0.255126953125, -0.745849609375
547, 2118065876, -20.65794563293457, -1.254962682723999, 7.126880645751953, -141.75791931152344, -288.56610107421875, -32.93840026855469, -0.02587890625, 0.275390625, -0.740966796875
548, 2118082543, -20.526941299438477, 0.9481128454208374, 3.7844204902648926, -126.75548553466797, -258.5918884277344, -48.69999694824219, -0.0732421875, 0.295654296875, -0.739501953125
549, 2118099210, -19.935270309448242, 1.1885472536087036, 0.16931471228599548, -99.13199615478516, -206.94461059570312, -67.6958236694336, -0.115966796875, 0.318359375, -0.736083984375
550, 2118115877, -20.788902282714844, 0.39405423402786255, -3.348052501678467, -49.945404052734375, -146.88531494140625, -110.14766693115234, -0.158447265625, 0.32763671875, -0.737548828125
551, 2118132544, -21.823833465576172, 3.9313557147979736, -6.42731237411499, 10.357670783996582, -86.07189178466797, -128.32608032226562, -0.190185546875, 0.322265625, -0.742431640625
552, 2118149211, -21.48605728149414, 8.307507514953613, -7.847177505493164, 26.285783767700195, -25.23563575744629, -107.35606384277344, -0.20849609375, 0.30908203125, -0.746826171875
553, 2118165878, -18.481891632080078, 7.788678169250488, -6.794139385223389, 32.12501907348633, 36.60981750488281, -94.92119598388672, -0.209716796875, 0.29833984375, -0.7568359375
554, 2118182545, -1.6891226768493652, 2.571377992630005, 4.979408264160156, 158.1641387939453, 93.63434600830078, -23.09237289428711, -0.19482421875, 0.261962890625, -0.7734375
555, 2118199212, 11.77914810180664, 0.9173723459243774, 25.276975631713867, 2.4526758193969727, 147.218017578125, -15.860440254211426, -0.16015625, 0.249755859375, -0.7890625
556, 2118215879, -0.6780956387519836, 8.615915298461914, 0.06764514744281769, 4.274189472198486, 202.4044952392578, 38.601627349853516, -0.116943359375, 0.25048828125, -0.80224609375
557, 2118232546, -13.680826187133789, 8.681268692016602, 18.131366729736328, -62.94558334350586, 245.61431884765625, 40.36448669433594, -0.0498046875, 0.263671875, -0.8076171875
558, 2118249213, -9.700845718383789, -7.230249881744385, 11.382804870605469, -75.04328155517578, 192.47389221191406, 34.51581954956055, 0.005859375, 0.279296875, -0.81005859375
559, 2118265880, -9.5886869430542, -10.475582122802734, 9.277519226074219, -67.64855194091797, 182.14834594726562, 13.945874214172363, 0.051025390625, 0.29541015625, -0.8017578125
560, 2118282547, -10.085823059082031, -5.886971950531006, 11.777383804321289, -35.547306060791016, 147.06556701660156, 20.550344467163086, 0.0908203125, 0.309814453125, -0.7939453125
561, 2118299214, -9.566606521606445, -4.402541160583496, 9.78347396850586, 41.66932678222656, 77.71517944335938, 33.058902740478516, 0.115234375, 0.29931640625, -0.799560546875
562, 2118315881, -6.114946365356445, -0.9588597416877747, 10.939352989196777, 26.032960891723633, 53.44972610473633, 11.032036781311035, 0.134765625, 0.2939453125, -0.798583984375
563, 2118332548, -5.678454399108887, -3.5614829063415527, 8.818598747253418, 22.425981521606445, 26.36310577392578, 8.568272590637207, 0.140869140625, 0.2880859375, -0.80224609375
564, 2118349215, -4.7368364334106445, -2.7359743118286133, 8.619503021240234, 24.856735229492188, 16.146080017089844, 12.811306953430176, 0.1494140625, 0.280029296875, -0.80322265625
565, 2118365882, -4.860105037689209, -2.660365343093872, 8.427508354187012, 24.42193603515625, 12.9690523147583, 12.291657447814941, 0.151611328125, 0.273681640625, -0.8046875
566, 2118382549, -4.860015869140625, -2.3126280307769775, 8.714866638183594, 23.2128849029541, 10.170541763305664, 9.751914024353027, 0.158203125, 0.26806640625, -0.805419921875
567, 2118399216, -4.557213306427002, -2.5878117084503174, 8.414352416992188, 20.268436431884766, 6.846960544586182, 7.374095916748047, 0.160888671875, 0.26171875, -0.809814453125
568, 2118415883, -4.448762893676758, -2.9059793949127197, 7.971899032592773, 21.71389389038086, 6.059048175811768, 8.470924377441406, 0.164794921875, 0.256591796875, -0.80908203125
569, 2118432550, -4.1610541343688965, -2.8785672187805176, 7.723135948181152, 30.314176559448242, 3.9721930027008057, 13.178200721740723, 0.1650390625, 0.251220703125, -0.81103515625
570, 2118449217, -4.346328258514404, -2.944451332092285, 7.806921005249023, 41.699920654296875, 4.266819477081299, 19.100399017333984, 0.167236328125, 0.239501953125, -0.81298828125
571, 2118465884, -5.009910583496094, -1.9503270387649536, 8.724019050598145, 37.896080017089844, 2.3926446437835693, 17.370250701904297, 0.170166015625, 0.2275390625, -0.81640625
572, 2118482551, -4.837130069732666, -2.0890069007873535, 8.62339973449707, 27.60373306274414, 1.3294892311096191, 13.120985984802246, 0.171875, 0.219970703125, -0.8203125
573, 2118499218, -4.775490760803223, -2.3369827270507812, 8.190603256225586, 14.081997871398926, 1.4041215181350708, 8.831107139587402, 0.174560546875, 0.216064453125, -0.8193359375
574, 2118515885, -4.506589889526367, -2.3959128856658936, 8.267427444458008, 16.46749496459961, -2.5337140560150146, 11.563399314880371, 0.176513671875, 0.2119140625, -0.82177734375
575, 2118532552, -4.645020008087158, -2.3771800994873047, 8.34285831451416, 21.337745666503906, -5.8200273513793945, 16.2028865814209, 0.172607421875, 0.205810546875, -0.82275390625
576, 2118549219, -4.936728000640869, -1.9464060068130493, 8.401805877685547, 22.167226791381836, -7.497602939605713, 19.148643493652344, 0.17431640625, 0.199462890625, -0.8232421875
577, 2118565886, -4.986690998077393, -1.6584017276763916, 8.441828727722168, 16.189430236816406, -0.3054704964160919, 17.5843505859375, 0.17578125, 0.1943359375, -0.82666015625
578, 2118582553, -4.792462348937988, -1.6127523183822632, 8.469293594360352, 6.713460922241211, 9.542604446411133, 13.479819297790527, 0.17724609375, 0.19189453125, -0.8271484375
579, 2118599220, -4.5458292961120605, -1.8124759197235107, 8.435111999511719, 2.694230318069458, 19.160242080688477, 11.383853912353516, 0.179931640625, 0.1904296875, -0.828857421875
580, 2118615887, -4.51775598526001, -1.9884339570999146, 8.256755828857422, 6.606020450592041, 28.934856414794922, 14.191108703613281, 0.18896484375, 0.18798828125, -0.8271484375
581, 2118632554, -4.247311115264893, -1.966874122619629, 8.324159622192383, 6.687699317932129, 41.08046340942383, 20.526512145996094, 0.1982421875, 0.18505859375, -0.823486328125
582, 2118649221, -4.93320894241333, -1.4643964767456055, 8.332050323486328, 4.338410377502441, 56.77616882324219, 22.434284210205078, 0.21240234375, 0.1806640625, -0.8212890625
583, 2118665888, -4.66873836517334, -1.3302781581878662, 8.3436918258667, -3.680522918701172, 76.60462188720703, 18.841224670410156, 0.230712890625, 0.181640625, -0.81689453125
584, 2118682555, -4.696042537689209, -1.508884072303772, 8.158498764038086, -11.028167724609375, 104.43807983398438, 17.007030487060547, 0.255859375, 0.183349609375, -0.809814453125
585, 2118699222, -5.083746433258057, -1.421615481376648, 8.042868614196777, -13.126934051513672, 134.73570251464844, 16.739105224609375, 0.28466796875, 0.18359375, -0.80029296875
586, 2118715889, -5.452773094177246, -1.5982388257980347, 7.933690547943115, -10.617910385131836, 162.0652618408203, 17.063983917236328, 0.323486328125, 0.1865234375, -0.786376953125
587, 2118732556, -5.470744609832764, -1.4623926877975464, 7.900532245635986, -7.1543049812316895, 188.57754516601562, 19.27787971496582, 0.366943359375, 0.186767578125, -0.76904296875
588, 2118749223, -5.567252159118652, -1.2631092071533203, 7.820291996002197, -6.250931739807129, 218.3458709716797, 21.628341674804688, 0.412841796875, 0.186279296875, -0.74755859375
589, 2118765890, -5.749771595001221, -1.0021260976791382, 7.6426849365234375, -5.492879867553711, 259.4078674316406, 21.9349308013916, 0.466064453125, 0.18359375, -0.712158203125
590, 2118782557, -5.946895122528076, -1.5926390886306763, 6.916484355926514, -2.037445306777954, 330.17095947265625, 24.98928451538086, 0.527587890625, 0.179443359375, -0.669189453125
591, 2118799224, -6.669099807739258, -2.6967990398406982, 7.707248210906982, 8.082403182983398, 430.6033935546875, 40.48710250854492, 0.605712890625, 0.175537109375, -0.60205078125
592, 2118815891, -8.822807312011719, -3.3669841289520264, 11.023059844970703, 8.818379402160645, 527.1744995117188, 73.72191619873047, 0.692626953125, 0.1611328125, -0.5107421875
593, 2118832558, -18.759368896484375, -0.6924251317977905, 11.853021621704102, -4.550060749053955, 544.9036254882812, 99.58142852783203, 0.770263671875, 0.143310546875, -0.392578125
594, 2118849225, -21.46700096130371, -5.448624134063721, 10.80457592010498, 0.4745578169822693, 492.70361328125, 97.39938354492188, 0.82373046875, 0.122802734375, -0.280029296875
595, 2118865892, -18.7766170501709, -6.541872978210449, 11.34920597076416, 27.63642692565918, 441.8465576171875, 118.57575988769531, 0.85595703125, 0.09375, -0.180908203125
596, 2118882559, -9.717720985412598, -5.239935398101807, 14.315178871154785, 55.34858703613281, 380.2099914550781, 122.88724517822266, 0.87060546875, 0.056396484375, -0.093505859375
597, 2118899226, -8.490804672241211, -3.8470394611358643, 15.960548400878906, 24.80707359313965, 248.38909912109375, 77.98186492919922, 0.872314453125, 0.036376953125, -0.034423828125
598, 2118915893, -31.07852554321289, -2.0837016105651855, 28.459123611450195, -32.4437141418457, 87.07074737548828, 65.25028991699219, 0.86865234375, 0.01318359375, -0.013427734375
599, 2118932560, -11.449203491210938, -7.30111026763916, 20.493253707885742, -81.73605346679688, -172.56552124023438, -52.08013916015625, 0.849609375, 0.02099609375, -0.055908203125
600, 2118949227, -1.4830918312072754, -5.830679893493652, 9.035759925842285, -6.914474010467529, -266.639892578125, -23.302200317382812, 0.821533203125, 0.02685546875, -0.124267578125
601, 2118965894, -0.3831334412097931, -2.5468907356262207, 4.618412017822266, 49.2088623046875, -270.5556640625, 30.142837524414062, 0.7880859375, 0.00927734375, -0.179443359375
602, 2118982561, -1.942282795906067, -1.6734861135482788, 5.733660697937012, 56.56849670410156, -267.8168029785156, 40.07384490966797, 0.758056640625, -0.0126953125, -0.224609375
603, 2118999228, -5.879937171936035, -3.333287239074707, 7.5198540687561035, 28.483150482177734, -310.8662414550781, 13.888776779174805, 0.72998046875, -0.0302734375, -0.265869140625
604, 2119015895, -6.329206943511963, -5.132020950317383, 5.629823684692383, 30.688167572021484, -356.3920593261719, -14.869306564331055, 0.70361328125, -0.037109375, -0.310791015625
605, 2119032562, -6.523859024047852, -4.840482234954834, 4.394662380218506, 56.76654815673828, -373.535400390625, -23.61180305480957, 0.6962890625, -0.045166015625, -0.361572265625
606, 2119049229, -7.920418739318848, -2.8357348442077637, 5.564545154571533, 57.53218078613281, -373.8333435058594, -31.047588348388672, 0.697265625, -0.0458984375, -0.433349609375
607, 2119065896, -7.665306091308594, -0.3725054860115051, 5.8138251304626465, 17.312942504882812, -369.14453125, -47.32011795043945, 0.690673828125, -0.033203125, -0.53857421875
608, 2119082563, -8.659489631652832, -0.33367371559143066, 7.007857799530029, -32.078914642333984, -361.43304443359375, -48.95233154296875, 0.6484375, -0.00146484375, -0.670654296875
609, 2119099230, -11.19836711883545, -0.7548802495002747, 9.011719703674316, -74.27466583251953, -370.7405700683594, -47.41622543334961, 0.531982421875, 0.049560546875, -0.790283203125
610, 2119115897, -10.557926177978516, -0.17125263810157776, 6.501665115356445, -99.57781982421875, -366.38079833984375, -51.56601333618164, 0.372802734375, 0.096923828125, -0.8349609375
611, 2119132564, -11.130820274353027, 1.0675119161605835, 5.912008285522461, -126.82318878173828, -311.8847961425781, -48.69418716430664, 0.243408203125, 0.135009765625, -0.80419921875
612, 2119149231, -14.33423137664795, -0.2583920359611511, 10.388325691223145, -141.10862731933594, -270.51287841796875, -41.50284194946289, 0.18017578125, 0.158447265625, -0.756103515625
613, 2119165898, -18.16034698486328, -1.7942084074020386, 14.236534118652344, -129.42799377441406, -286.5464782714844, -34.28670120239258, 0.16162109375, 0.1728515625, -0.73681640625
614, 2119182565, -18.81473159790039, -0.33497104048728943, 12.926737785339355, -115.46814727783203, -314.01739501953125, -33.77606201171875, 0.135009765625, 0.19140625, -0.754638671875
615, 2119199232, -19.89722442626953, 1.0896748304367065, 9.569674491882324, -110.23236846923828, -314.07476806640625, -33.359840393066406, 0.085693359375, 0.20947265625, -0.784912109375
616, 2119215899, -22.129484176635742, 1.113152027130127, 5.935387134552002, -103.68135833740234, -296.6968688964844, -35.75493240356445, 0.01953125, 0.231689453125, -0.8115234375
617, 2119232566, -22.763612747192383, 0.7232934236526489, 0.8953452110290527, -85.73377990722656, -256.1526794433594, -41.21050262451172, -0.044921875, 0.251708984375, -0.825439453125
618, 2119249233, -23.360733032226562, 1.1701377630233765, -3.065075635910034, -67.93267059326172, -194.76629638671875, -58.344215393066406, -0.108154296875, 0.266845703125, -0.830810546875
619, 2119265900, -22.831371307373047, 2.3861799240112305, -7.361971855163574, -28.381776809692383, -122.03878784179688, -87.83169555664062, -0.154052734375, 0.2705078125, -0.834716796875
620, 2119282567, -23.115942001342773, 6.806868076324463, -9.236068725585938, 10.525745391845703, -35.84654235839844, -101.05416870117188, -0.180419921875, 0.265625, -0.837890625
621, 2119299234, -25.314218521118164, 7.457492351531982, -13.842914581298828, 69.8424301147461, 88.8438949584961, -59.115901947021484, -0.178466796875, 0.24609375, -0.853759765625
622, 2119315901, 4.059152126312256, 9.145166397094727, 13.566615104675293, 45.43539047241211, 138.65283203125, -16.453067779541016, -0.141357421875, 0.2314453125, -0.865478515625
623, 2119332568, 2.4201817512512207, -0.9544574022293091, 17.298744201660156, -31.70621681213379, 185.87669372558594, 31.149648666381836, -0.09375, 0.239990234375, -0.876953125
624, 2119349235, -7.906473159790039, 6.033276557922363, 8.037899017333984, -56.14064407348633, 229.5900115966797, 31.05211639404297, -0.032470703125, 0.25146484375, -0.88232421875
625, 2119365902, -10.858458518981934, 0.7064439058303833, 15.967948913574219, -76.88640594482422, 193.8451690673828, 34.0976676940918, 0.025146484375, 0.271728515625, -0.88330078125
626, 2119382569, -6.689931869506836, -12.862343788146973, 5.771165370941162, -77.58343505859375, 172.75631713867188, 16.933040618896484, 0.073486328125, 0.293701171875, -0.881103515625
627, 2119399236, -7.3636651039123535, -7.669604301452637, 8.901325225830078, -50.639007568359375, 178.90139770507812, 18.15544319152832, 0.124267578125, 0.309326171875, -0.873046875
628, 2119415903, -13.610380172729492, -5.161366939544678, 11.273200035095215, 54.02244186401367, 99.84838104248047, 52.77906799316406, 0.162109375, 0.301025390625, -0.874755859375
629, 2119432570, -5.719910621643066, -1.2493126392364502, 9.967653274536133, 44.7957763671875, 67.54580688476562, 27.475074768066406, 0.184326171875, 0.28564453125, -0.874755859375
630, 2119449237, -7.237235069274902, -2.8970155715942383, 10.036980628967285, 43.61599349975586, 40.48799514770508, 20.119997024536133, 0.197998046875, 0.275146484375, -0.8759765625
631, 2119465904, -5.242795944213867, -2.214967727661133, 9.272787094116211, 45.64503860473633, 17.430814743041992, 16.380502700805664, 0.207763671875, 0.26220703125, -0.877685546875
632, 2119482571, -4.9745941162109375, -2.281860113143921, 9.03244686126709, 31.148988723754883, 10.716113090515137, 13.379191398620605, 0.21630859375, 0.253173828125, -0.8818359375
633, 2119499238, -5.549035549163818, -2.1369681358337402, 8.918280601501465, 24.475473403930664, 5.607113838195801, 9.901310920715332, 0.216552734375, 0.24609375, -0.88427734375
634, 2119515905, -5.055810451507568, -2.208101987838745, 8.650577545166016, 16.221670150756836, 3.24910831451416, 4.307733535766602, 0.218017578125, 0.24072265625, -0.88671875
635, 2119532572, -4.730563163757324, -2.1339783668518066, 8.584684371948242, 7.321424961090088, 6.907331466674805, -0.40610235929489136, 0.219970703125, 0.23828125, -0.88525390625
636, 2119549239, -4.709576606750488, -2.762751579284668, 8.149320602416992, 2.678391456604004, 9.266570091247559, -2.5740132331848145, 0.22314453125, 0.2373046875, -0.884765625
637, 2119565906, -4.619546413421631, -2.880976438522339, 7.929487228393555, 2.8192224502563477, 10.089887619018555, 0.5458387732505798, 0.22412109375, 0.23876953125, -0.88720703125
638, 2119582573, -4.679995536804199, -2.7860267162323, 7.750845909118652, 6.920036315917969, 9.175811767578125, 4.55371618270874, 0.22900390625, 0.23681640625, -0.886962890625
639, 2119599240, -4.758836269378662, -2.555516004562378, 7.9466681480407715, 11.301375389099121, 6.927311897277832, 8.001675605773926, 0.230712890625, 0.232666015625, -0.884521484375
640, 2119615907, -4.827827453613281, -2.6589934825897217, 7.9348859786987305, 9.839681625366211, 4.758041858673096, 9.315248489379883, 0.233154296875, 0.228759765625, -0.88427734375
641, 2119632574, -4.64517068862915, -2.672787666320801, 7.736678600311279, 15.355751037597656, 0.4855342507362366, 13.117453575134277, 0.236083984375, 0.225830078125, -0.890380859375
642, 2119649241, -4.831709861755371, -2.5968685150146484, 7.985293388366699, 24.13886833190918, -6.866160869598389, 18.39365005493164, 0.23583984375, 0.216796875, -0.890380859375
643, 2119665908, -5.019830226898193, -2.0885515213012695, 8.30004596710205, 25.2305850982666, -13.013216018676758, 20.28327751159668, 0.235595703125, 0.20751953125, -0.89111328125
644, 2119682575, -5.158751487731934, -1.9147952795028687, 8.337014198303223, 20.945035934448242, -10.606149673461914, 19.187335968017578, 0.234130859375, 0.201171875, -0.897216796875
645, 2119699242, -4.952049255371094, -1.8092262744903564, 8.341707229614258, 12.97114086151123, -1.4100706577301025, 14.38305377960205, 0.234619140625, 0.196044921875, -0.897216796875
646, 2119715909, -4.786660194396973, -1.976395606994629, 8.347229957580566, 6.1775383949279785, 9.186726570129395, 10.751906394958496, 0.236328125, 0.192626953125, -0.89501953125
647, 2119732576, -4.650203704833984, -2.007497549057007, 8.312183380126953, 4.5564751625061035, 18.701189041137695, 10.379199028015137, 0.240234375, 0.191650390625, -0.8984375
648, 2119749243, -4.3395915031433105, -1.9322847127914429, 8.253600120544434, 2.4429240226745605, 31.827598571777344, 13.596546173095703, 0.250732421875, 0.189208984375, -0.893798828125
649, 2119765910, -4.711568355560303, -1.6505976915359497, 8.151793479919434, -3.4108755588531494, 49.56416320800781, 14.524798393249512, 0.2626953125, 0.189208984375, -0.888916015625
650, 2119782577, -4.751681804656982, -1.8278392553329468, 8.11414623260498, -3.202059268951416, 64.73991394042969, 13.951510429382324, 0.277099609375, 0.1884765625, -0.88671875
651, 2119799244, -4.894109725952148, -2.0884923934936523, 8.031396865844727, -1.5776658058166504, 81.98294830322266, 15.818914413452148, 0.298095703125, 0.185546875, -0.8828125
