sep=,
DeviceTag:,B,,,,,,,,,,,,,,,,,
FirmwareVersion:,2.2.1,,,,,,,,,,,,,,,,,
AppVersion:,2022.0.1,,,,,,,,,,,,,,,,,
SyncStatus:,Synced,,,,,,,,,,,,,,,,,
OutputRate:,60Hz,,,,,,,,,,,,,,,,,
FilterProfile:,General,,,,,,,,,,,,,,,,,
Measurement Mode:,Inertial Mode - Rate quantities (with mag),,,,,,,,,,,,,,,,,
StartTime:,2022-08-05 15:08:29.900 +0300,,,,,,,,,,,,,,,,,
© Xsens Technologies B. V. 2005-2022,,,,,,,,,,,,,,,,,,,

PacketCounter,SampleTimeFine,Acc_X,Acc_Y,Acc_Z,Gyr_X,Gyr_Y,Gyr_Z,Mag_X,Mag_Y,Mag_Z
1, 1851960554, -4.590373992919922, -1.6378521919250488, 8.376681327819824, -0.4237493574619293, -0.4902399182319641, -1.0355855226516724, -0.020263671875, 0.13330078125, -0.787353515625
2, 1851977221, -4.592780113220215, -1.6500658988952637, 8.373373985290527, -0.4743087887763977, -0.42191803455352783, -1.0660006999969482, -0.017822265625, 0.13232421875, -0.786376953125
3, 1851993888, -4.601491451263428, -1.6351268291473389, 8.365620613098145, -0.561955451965332, -0.35071471333503723, -1.0267235040664673, -0.017822265625, 0.134765625, -0.786865234375
4, 1852010555, -4.603698253631592, -1.6469463109970093, 8.353363990783691, -0.4726567268371582, -0.4797899127006531, -1.0827769041061401, -0.019775390625, 0.13427734375, -0.788818359375
5, 1852027222, -4.59495210647583, -1.6370142698287964, 8.364740371704102, -0.453383207321167, -0.4813394844532013, -0.9651888608932495, -0.020263671875, 0.134765625, -0.787841796875
6, 1852043889, -4.603871822357178, -1.634747862815857, 8.358909606933594, -0.4264514744281769, -0.6032816171646118, -1.0000479221343994, -0.019775390625, 0.13427734375, -0.7900390625
7, 1852060556, -4.615604400634766, -1.635812759399414, 8.350802421569824, -0.42141854763031006, -0.657298743724823, -1.031218409538269, -0.017333984375, 0.1337890625, -0.791015625
8, 1852077223, -4.589684963226318, -1.656387448310852, 8.349930763244629, -0.44385525584220886, -0.6070465445518494, -1.0600327253341675, -0.019287109375, 0.1337890625, -0.786376953125
9, 1852093890, -4.612987995147705, -1.6516846418380737, 8.351383209228516, -0.641546905040741, -0.5362530946731567, -1.0401573181152344, -0.017822265625, 0.13427734375, -0.787841796875
10, 1852110557, -4.604957580566406, -1.639299988746643, 8.355733871459961, -0.6977794766426086, -0.6249881982803345, -1.1415706872940063, -0.019287109375, 0.1337890625, -0.787841796875
11, 1852127224, -4.6130242347717285, -1.6460672616958618, 8.364145278930664, -0.6635610461235046, -0.5608540773391724, -1.2098414897918701, -0.021240234375, 0.134765625, -0.7900390625
12, 1852143891, -4.6039838790893555, -1.6380897760391235, 8.367900848388672, -0.6861514449119568, -0.5866588950157166, -1.2469542026519775, -0.018798828125, 0.13330078125, -0.788330078125
13, 1852160558, -4.604937553405762, -1.6619442701339722, 8.355029106140137, -0.6133089065551758, -0.5637354850769043, -1.3499171733856201, -0.018798828125, 0.13427734375, -0.7900390625
14, 1852177225, -4.588658809661865, -1.6695384979248047, 8.362945556640625, -0.6383068561553955, -0.5466902256011963, -1.3038911819458008, -0.020751953125, 0.13427734375, -0.788330078125
15, 1852193892, -4.583117961883545, -1.6317567825317383, 8.37332534790039, -0.6105427145957947, -0.5362274050712585, -1.2564181089401245, -0.021240234375, 0.133544921875, -0.785888671875
16, 1852210559, -4.590619087219238, -1.6465152502059937, 8.353043556213379, -0.771877110004425, -0.3528149425983429, -1.2977570295333862, -0.019287109375, 0.1357421875, -0.786865234375
17, 1852227226, -4.608104228973389, -1.6406680345535278, 8.378683090209961, -1.1863290071487427, -0.10704827308654785, -1.4706939458847046, -0.019287109375, 0.13525390625, -0.788818359375
18, 1852243893, -4.607728004455566, -1.6839946508407593, 8.379833221435547, -1.5513229370117188, -0.04405384510755539, -1.5678558349609375, -0.021240234375, 0.1357421875, -0.78857421875
19, 1852260560, -4.612898349761963, -1.706303596496582, 8.376226425170898, -1.4870222806930542, -0.029493024572730064, -1.5810335874557495, -0.019287109375, 0.13818359375, -0.787841796875
20, 1852277227, -4.603816509246826, -1.68693208694458, 8.372907638549805, -1.2988969087600708, -0.1501416265964508, -1.466724157333374, -0.020751953125, 0.13623046875, -0.785888671875
21, 1852293894, -4.609472274780273, -1.7029671669006348, 8.365715026855469, -1.1290719509124756, -0.2213449627161026, -1.346946358680725, -0.020263671875, 0.134765625, -0.78955078125
22, 1852310561, -4.604680061340332, -1.6861727237701416, 8.363646507263184, -0.9711694717407227, -0.23188455402851105, -1.2548941373825073, -0.020751953125, 0.1357421875, -0.7880859375
23, 1852327228, -4.6107072830200195, -1.6882739067077637, 8.346246719360352, -0.8757750988006592, -0.370231568813324, -1.1999166011810303, -0.020751953125, 0.138671875, -0.7890625
24, 1852343895, -4.629978656768799, -1.675269365310669, 8.358353614807129, -0.9383596777915955, -0.4153611361980438, -1.3042242527008057, -0.019287109375, 0.1357421875, -0.788818359375
25, 1852360562, -4.6025495529174805, -1.6696467399597168, 8.36074447631836, -1.2480429410934448, -0.22733834385871887, -1.248273491859436, -0.017333984375, 0.13720703125, -0.786376953125
26, 1852377229, -4.617783546447754, -1.691545844078064, 8.357008934020996, -1.072672724723816, -0.23678943514823914, -1.3471001386642456, -0.018310546875, 0.13818359375, -0.786376953125
27, 1852393896, -4.608586311340332, -1.6968034505844116, 8.34703540802002, -0.7946596741676331, -0.49057283997535706, -1.2378233671188354, -0.020751953125, 0.13671875, -0.785888671875
28, 1852410563, -4.613720417022705, -1.7134212255477905, 8.351110458374023, -0.38867270946502686, -0.6694391369819641, -0.9931451678276062, -0.020263671875, 0.1376953125, -0.786865234375
29, 1852427230, -4.609158515930176, -1.6718852519989014, 8.347735404968262, -0.2548847794532776, -0.5930492877960205, -1.0056955814361572, -0.02099609375, 0.13916015625, -0.78857421875
30, 1852443897, -4.616230487823486, -1.6788253784179688, 8.361342430114746, -0.22809475660324097, -0.5273202061653137, -1.0233142375946045, -0.018798828125, 0.13916015625, -0.788330078125
31, 1852460564, -4.60808801651001, -1.681129813194275, 8.346016883850098, -0.23407448828220367, -0.5839055180549622, -0.9951045513153076, -0.018310546875, 0.13623046875, -0.788818359375
32, 1852477231, -4.626243591308594, -1.6834839582443237, 8.328548431396484, -0.43060073256492615, -0.5828298330307007, -1.0392353534698486, -0.017822265625, 0.13818359375, -0.786865234375
33, 1852493898, -4.608890056610107, -1.7012460231781006, 8.312712669372559, -0.4285389184951782, -0.6485903859138489, -1.1230144500732422, -0.019775390625, 0.13623046875, -0.786376953125
34, 1852510565, -4.606012344360352, -1.7006545066833496, 8.37047290802002, -0.5013173818588257, -0.5619170069694519, -1.139931559562683, -0.020751953125, 0.1376953125, -0.785888671875
35, 1852527232, -4.6169352531433105, -1.6938095092773438, 8.369173049926758, -0.47653713822364807, -0.6331586837768555, -1.0986053943634033, -0.021240234375, 0.13818359375, -0.78857421875
36, 1852543899, -4.6149678230285645, -1.6827713251113892, 8.351607322692871, -0.47871413826942444, -0.6037297248840332, -1.1192620992660522, -0.018310546875, 0.13916015625, -0.786865234375
37, 1852560566, -4.609948635101318, -1.695548415184021, 8.363121032714844, -0.3240646719932556, -0.6319293975830078, -1.0719555616378784, -0.020751953125, 0.138671875, -0.787109375
38, 1852577233, -4.599028587341309, -1.6954683065414429, 8.366114616394043, -0.20485036075115204, -0.7718002796173096, -1.0560243129730225, -0.019775390625, 0.138671875, -0.787841796875
39, 1852593900, -4.606995582580566, -1.6917123794555664, 8.33309268951416, -0.15384268760681152, -0.6617553234100342, -0.9952711462974548, -0.018798828125, 0.1396484375, -0.786865234375
40, 1852610567, -4.617950439453125, -1.7039499282836914, 8.350398063659668, -0.15664726495742798, -0.730205237865448, -0.9593877196311951, -0.018798828125, 0.13671875, -0.788330078125
41, 1852627234, -4.60831356048584, -1.6858410835266113, 8.351791381835938, -0.07163872569799423, -0.6594117879867554, -0.925681471824646, -0.018798828125, 0.140625, -0.7880859375
42, 1852643901, -4.60457706451416, -1.69357168674469, 8.342832565307617, -0.0313115268945694, -0.7292319536209106, -0.9243110418319702, -0.017822265625, 0.13818359375, -0.786865234375
43, 1852660568, -4.6096625328063965, -1.6911814212799072, 8.348535537719727, -0.017864858731627464, -0.7505930066108704, -0.948323130607605, -0.022216796875, 0.13671875, -0.786376953125
44, 1852677235, -4.617061614990234, -1.7132238149642944, 8.357741355895996, 0.1579471379518509, -0.8367157578468323, -0.7758087515830994, -0.018310546875, 0.1376953125, -0.785888671875
45, 1852693902, -4.617708206176758, -1.6892138719558716, 8.36239242553711, 0.16169938445091248, -0.8901693224906921, -0.796657383441925, -0.020751953125, 0.1376953125, -0.785400390625
46, 1852710569, -4.6097540855407715, -1.6904851198196411, 8.36752700805664, 0.1600729525089264, -0.8987881541252136, -0.888568639755249, -0.019287109375, 0.1376953125, -0.785888671875
47, 1852727236, -4.62306022644043, -1.6988149881362915, 8.354313850402832, 0.22063419222831726, -0.871881902217865, -0.7647952437400818, -0.018798828125, 0.138671875, -0.7890625
48, 1852743903, -4.587678909301758, -1.7060388326644897, 8.344886779785156, 0.3649361729621887, -0.9841552376747131, -0.7429220080375671, -0.0224609375, 0.1376953125, -0.787109375
49, 1852760570, -4.596710681915283, -1.6859570741653442, 8.347935676574707, 0.297561913728714, -0.9322382211685181, -0.7949413657188416, -0.018310546875, 0.1357421875, -0.787841796875
50, 1852777237, -4.583341121673584, -1.6932616233825684, 8.364961624145508, 0.1643630713224411, -0.7517839074134827, -0.8025099039077759, -0.020751953125, 0.13818359375, -0.786376953125
51, 1852793904, -4.598191738128662, -1.6826752424240112, 8.354207038879395, 0.19799256324768066, -0.7565351128578186, -0.7405912280082703, -0.019775390625, 0.1357421875, -0.787841796875
52, 1852810571, -4.589028358459473, -1.6912453174591064, 8.335002899169922, 0.31670743227005005, -0.755766749382019, -0.7311016321182251, -0.019287109375, 0.138671875, -0.787353515625
53, 1852827238, -4.603896141052246, -1.6884381771087646, 8.357606887817383, 0.4220525026321411, -0.6964861154556274, -0.6057019233703613, -0.021728515625, 0.13720703125, -0.786376953125
54, 1852843905, -4.596719264984131, -1.6564159393310547, 8.362825393676758, 0.4979173243045807, -0.7134161591529846, -0.5446668863296509, -0.0205078125, 0.1396484375, -0.7900390625
55, 1852860572, -4.5960469245910645, -1.6849092245101929, 8.349129676818848, 0.5685186386108398, -0.6947700381278992, -0.5272117853164673, -0.022216796875, 0.13720703125, -0.785888671875
56, 1852877239, -4.59746789932251, -1.6781022548675537, 8.366755485534668, 0.7536600828170776, -0.5894506573677063, -0.4968222975730896, -0.020751953125, 0.13623046875, -0.785888671875
57, 1852893906, -4.578723907470703, -1.6602998971939087, 8.357067108154297, 0.6917669773101807, -0.6637915372848511, -0.4495925009250641, -0.019775390625, 0.13525390625, -0.788818359375
58, 1852910573, -4.576089859008789, -1.6752103567123413, 8.391121864318848, 0.5547902584075928, -0.4611310064792633, -0.5124332308769226, -0.019287109375, 0.13671875, -0.785400390625
59, 1852927240, -4.6104278564453125, -1.6458202600479126, 8.350165367126465, 0.0826713889837265, -0.2823672294616699, -0.7265554666519165, -0.019287109375, 0.13720703125, -0.788330078125
60, 1852943907, -4.606000900268555, -1.6623317003250122, 8.371746063232422, 0.06136162579059601, -0.349165141582489, -0.8414667844772339, -0.021240234375, 0.13671875, -0.78857421875
61, 1852960574, -4.610075950622559, -1.6647663116455078, 8.34764289855957, 0.08752498775720596, -0.5232418179512024, -0.8336164355278015, -0.020263671875, 0.133056640625, -0.785400390625
62, 1852977241, -4.611133575439453, -1.657923936843872, 8.366256713867188, -0.06148328259587288, -0.567910373210907, -0.8628405928611755, -0.019287109375, 0.13525390625, -0.786865234375
63, 1852993908, -4.596617698669434, -1.6606459617614746, 8.364140510559082, -0.07868220657110214, -0.5899884700775146, -0.9550590515136719, -0.019287109375, 0.1337890625, -0.786376953125
64, 1853010575, -4.600677013397217, -1.6596815586090088, 8.367005348205566, -0.1794917732477188, -0.6462855935096741, -0.9162468314170837, -0.017822265625, 0.13525390625, -0.785400390625
65, 1853027242, -4.588977813720703, -1.6714351177215576, 8.372947692871094, -0.23125708103179932, -0.6741390824317932, -0.9453519582748413, -0.020263671875, 0.13623046875, -0.79052734375
66, 1853043909, -4.606836795806885, -1.6642649173736572, 8.380281448364258, -0.12256957590579987, -0.6271141171455383, -0.9056779742240906, -0.018798828125, 0.1357421875, -0.788818359375
67, 1853060576, -4.603594779968262, -1.6614900827407837, 8.344624519348145, -0.30545708537101746, -0.5526324510574341, -0.951460599899292, -0.019775390625, 0.13525390625, -0.788330078125
68, 1853077243, -4.608349323272705, -1.6380422115325928, 8.376317024230957, -0.31307685375213623, -0.6082247495651245, -0.9580943584442139, -0.019287109375, 0.1337890625, -0.785888671875
69, 1853093910, -4.60496187210083, -1.6595255136489868, 8.35623550415039, -0.3591028153896332, -0.6956665515899658, -1.0772316455841064, -0.020263671875, 0.13525390625, -0.785888671875
70, 1853110577, -4.606296539306641, -1.671376347541809, 8.374587059020996, -0.41828104853630066, -0.644710123538971, -1.1641868352890015, -0.019775390625, 0.13427734375, -0.787841796875
71, 1853127244, -4.608835697174072, -1.6668953895568848, 8.361817359924316, -0.4237108826637268, -0.5667834877967834, -1.1492801904678345, -0.019775390625, 0.1376953125, -0.78857421875
72, 1853143911, -4.5902018547058105, -1.676636815071106, 8.363932609558105, -0.3930140435695648, -0.6530597805976868, -1.0495188236236572, -0.017822265625, 0.1357421875, -0.788330078125
73, 1853160578, -4.5874247550964355, -1.6933027505874634, 8.372027397155762, -0.2709311544895172, -0.6882516741752625, -0.9534328579902649, -0.018798828125, 0.1357421875, -0.785888671875
74, 1853177245, -4.601129531860352, -1.6720056533813477, 8.362546920776367, -0.21335378289222717, -0.6021289229393005, -0.9144245386123657, -0.018798828125, 0.1357421875, -0.788330078125
75, 1853193912, -4.592180252075195, -1.6681383848190308, 8.364420890808105, -0.2198978215456009, -0.5168258547782898, -0.8743534684181213, -0.020263671875, 0.1337890625, -0.786865234375
76, 1853210579, -4.613838195800781, -1.6679511070251465, 8.36424732208252, -0.273249089717865, -0.5231137275695801, -0.8818196058273315, -0.019775390625, 0.134765625, -0.78955078125
77, 1853227246, -4.600395679473877, -1.673277735710144, 8.366206169128418, -0.2499030977487564, -0.5910258293151855, -1.0300915241241455, -0.018798828125, 0.13671875, -0.7890625
78, 1853243913, -4.606724262237549, -1.6580679416656494, 8.366259574890137, -0.12113525718450546, -0.6384861469268799, -0.9680063128471375, -0.020263671875, 0.13623046875, -0.786865234375
79, 1853260580, -4.606263637542725, -1.6689424514770508, 8.347352027893066, -0.21727252006530762, -0.5694983601570129, -0.865990936756134, -0.020263671875, 0.13671875, -0.786865234375
80, 1853277247, -4.602811813354492, -1.6582387685775757, 8.348329544067383, -0.11601272225379944, -0.7558692693710327, -0.8960731029510498, -0.018798828125, 0.134765625, -0.786376953125
81, 1853293914, -4.604974746704102, -1.6699577569961548, 8.351357460021973, -0.24830232560634613, -0.741154670715332, -1.001430869102478, -0.021240234375, 0.13525390625, -0.787353515625
82, 1853310581, -4.596588611602783, -1.6572619676589966, 8.356851577758789, -0.3035617172718048, -0.6268067359924316, -0.9697225093841553, -0.019775390625, 0.13623046875, -0.78857421875
83, 1853327248, -4.602623462677002, -1.6707954406738281, 8.3557767868042, -0.21956485509872437, -0.7032990455627441, -0.9961162805557251, -0.020263671875, 0.13671875, -0.7900390625
84, 1853343915, -4.608797073364258, -1.6673259735107422, 8.35238265991211, -0.2576509714126587, -0.7840688824653625, -0.9569417238235474, -0.020263671875, 0.13720703125, -0.7880859375
85, 1853360582, -4.59133768081665, -1.6599980592727661, 8.330477714538574, -0.28077924251556396, -0.7242246866226196, -0.9949510097503662, -0.022216796875, 0.13671875, -0.7890625
86, 1853377249, -4.609408378601074, -1.6676092147827148, 8.372987747192383, -0.17823879420757294, -0.7449838519096375, -1.0165040493011475, -0.019287109375, 0.134765625, -0.7890625
87, 1853393916, -4.6118574142456055, -1.6682813167572021, 8.371709823608398, -0.14284202456474304, -0.8967645764350891, -1.014198899269104, -0.02294921875, 0.13671875, -0.7880859375
88, 1853410583, -4.599764347076416, -1.6717422008514404, 8.365184783935547, -0.2078854739665985, -1.0008291006088257, -1.1116167306900024, -0.020751953125, 0.13525390625, -0.78857421875
89, 1853427250, -4.589345932006836, -1.6765581369400024, 8.356345176696777, -0.13020215928554535, -0.8450142741203308, -1.029118299484253, -0.021240234375, 0.1357421875, -0.78857421875
90, 1853443917, -4.59231424331665, -1.652603030204773, 8.354711532592773, -0.12282570451498032, -0.9106468558311462, -0.930983304977417, -0.018798828125, 0.13525390625, -0.788330078125
91, 1853460584, -4.607638835906982, -1.6658854484558105, 8.370534896850586, -0.15379145741462708, -0.8464612364768982, -0.9315595030784607, -0.019287109375, 0.134765625, -0.78955078125
92, 1853477251, -4.601994037628174, -1.6673005819320679, 8.369147300720215, -0.04523202404379845, -0.9026939272880554, -0.9500645995140076, -0.019287109375, 0.134765625, -0.788818359375
93, 1853493918, -4.602193832397461, -1.666076898574829, 8.363581657409668, -0.041774313896894455, -0.9241573810577393, -0.9274614453315735, -0.019287109375, 0.13525390625, -0.788330078125
94, 1853510585, -4.590645790100098, -1.644452691078186, 8.34614372253418, -0.15886276960372925, -0.7974770665168762, -0.9251051545143127, -0.019287109375, 0.13525390625, -0.7890625
95, 1853527252, -4.602579593658447, -1.657129168510437, 8.357185363769531, -0.19304288923740387, -0.7910481691360474, -1.0317435264587402, -0.019775390625, 0.1376953125, -0.78857421875
96, 1853543919, -4.602336406707764, -1.6737446784973145, 8.374147415161133, -0.18437302112579346, -0.7756422162055969, -1.029528021812439, -0.022216796875, 0.1357421875, -0.79052734375
97, 1853560586, -4.579410076141357, -1.6797763109207153, 8.355328559875488, -0.22138385474681854, -0.7667109370231628, -0.9850209951400757, -0.020263671875, 0.13330078125, -0.791015625
98, 1853577253, -4.574509620666504, -1.6710460186004639, 8.373479843139648, -0.22005149722099304, -0.5789493918418884, -0.9850643873214722, -0.020751953125, 0.134765625, -0.785400390625
99, 1853593920, -4.582698345184326, -1.6635384559631348, 8.36679458618164, -0.33172285556793213, -0.5120490193367004, -0.980313241481781, -0.018310546875, 0.13427734375, -0.788330078125
100, 1853610587, -4.581996440887451, -1.6607203483581543, 8.37353229522705, -0.21989785134792328, -0.5292224884033203, -0.8791943788528442, -0.019775390625, 0.13623046875, -0.786376953125
101, 1853627254, -4.59430456161499, -1.6639814376831055, 8.346307754516602, -0.3709743320941925, -0.535190224647522, -0.9350684881210327, -0.019775390625, 0.1376953125, -0.787841796875
102, 1853643921, -4.583126544952393, -1.6589397192001343, 8.352734565734863, -0.22318905591964722, -0.5072337985038757, -1.0094988346099854, -0.021728515625, 0.1376953125, -0.78955078125
103, 1853660588, -4.593866348266602, -1.6631380319595337, 8.366290092468262, -0.2913956940174103, -0.4392194151878357, -0.9461460113525391, -0.019287109375, 0.13671875, -0.787841796875
104, 1853677255, -4.590714454650879, -1.670688271522522, 8.351438522338867, -0.20606698095798492, -0.46972405910491943, -0.9706060886383057, -0.023193359375, 0.1357421875, -0.78759765625
105, 1853693922, -4.597684860229492, -1.6613562107086182, 8.378023147583008, -0.24270589649677277, -0.5287613272666931, -0.903014063835144, -0.020751953125, 0.1357421875, -0.787841796875
106, 1853710589, -4.592764854431152, -1.6565299034118652, 8.368572235107422, -0.1115817204117775, -0.6193790435791016, -0.9225309491157532, -0.019287109375, 0.13623046875, -0.787841796875
107, 1853727256, -4.5867719650268555, -1.6561039686203003, 8.3602294921875, -0.19137807190418243, -0.5332435369491577, -0.903257429599762, -0.0224609375, 0.13720703125, -0.7880859375
108, 1853743923, -4.593202590942383, -1.6482278108596802, 8.361373901367188, -0.22198526561260223, -0.4911362826824188, -0.9804669618606567, -0.019287109375, 0.13671875, -0.7900390625
109, 1853760590, -4.604520797729492, -1.6560132503509521, 8.366251945495605, -0.2608909606933594, -0.43770819902420044, -0.9410616755485535, -0.021728515625, 0.13623046875, -0.785888671875
110, 1853777257, -4.598410129547119, -1.6763097047805786, 8.389436721801758, -0.22564789652824402, -0.5059789419174194, -0.9419839382171631, -0.019775390625, 0.134765625, -0.786376953125
111, 1853793924, -4.597395420074463, -1.663423776626587, 8.34862232208252, -0.15261328220367432, -0.5607003569602966, -0.9360032677650452, -0.020263671875, 0.1357421875, -0.786865234375
112, 1853810591, -4.590971946716309, -1.6665701866149902, 8.380515098571777, -0.19089144468307495, -0.48036620020866394, -0.9104547500610352, -0.020751953125, 0.134765625, -0.787353515625
113, 1853827258, -4.585360527038574, -1.6544896364212036, 8.355422019958496, -0.25657519698143005, -0.4345962107181549, -0.9104546308517456, -0.020751953125, 0.1337890625, -0.78955078125
114, 1853843925, -4.600683212280273, -1.6602760553359985, 8.359916687011719, -0.2668907046318054, -0.43686944246292114, -0.9137266278266907, -0.020751953125, 0.13623046875, -0.787841796875
115, 1853860592, -4.602567195892334, -1.664279580116272, 8.351484298706055, -0.28126585483551025, -0.40774139761924744, -1.0489554405212402, -0.020751953125, 0.13623046875, -0.78857421875
116, 1853877259, -4.586520195007324, -1.6706043481826782, 8.36458969116211, -0.29156219959259033, -0.4458530843257904, -0.9569289088249207, -0.020751953125, 0.13427734375, -0.78857421875
117, 1853893926, -4.594205856323242, -1.6701698303222656, 8.359628677368164, -0.3325296640396118, -0.3534040153026581, -1.0039536952972412, -0.020751953125, 0.13623046875, -0.78955078125
118, 1853910593, -4.599422931671143, -1.661557674407959, 8.349485397338867, -0.22270244359970093, -0.5036353468894958, -0.9684418439865112, -0.019287109375, 0.13525390625, -0.787841796875
119, 1853927260, -4.594921112060547, -1.6571009159088135, 8.355279922485352, -0.021924471482634544, -0.5759783983230591, -0.9044612646102905, -0.019287109375, 0.1357421875, -0.791015625
120, 1853943927, -4.591012001037598, -1.647534966468811, 8.350744247436523, -0.12255678325891495, -0.6888407468795776, -0.943635880947113, -0.019287109375, 0.134765625, -0.7890625
121, 1853960594, -4.596343040466309, -1.6379058361053467, 8.369542121887207, -0.22382938861846924, -0.6386141777038574, -0.9558658599853516, -0.021728515625, 0.1337890625, -0.786865234375
122, 1853977261, -4.607423782348633, -1.651343822479248, 8.343888282775879, -0.2751060128211975, -0.5793336629867554, -1.0233298540115356, -0.018798828125, 0.13671875, -0.788330078125
123, 1853993928, -4.603547096252441, -1.6591928005218506, 8.364627838134766, -0.35237956047058105, -0.6358481049537659, -1.041105031967163, -0.017333984375, 0.13525390625, -0.787353515625
124, 1854010595, -4.591132640838623, -1.6715682744979858, 8.365401268005371, -0.31276950240135193, -0.6853446364402771, -1.1220027208328247, -0.021240234375, 0.13671875, -0.786865234375
125, 1854027262, -4.601589679718018, -1.6714084148406982, 8.36201000213623, -0.33836936950683594, -0.6127069592475891, -1.068638563156128, -0.021240234375, 0.13525390625, -0.78955078125
126, 1854043929, -4.593769073486328, -1.661452054977417, 8.357646942138672, -0.27502918243408203, -0.6067648530006409, -1.060468316078186, -0.020263671875, 0.13671875, -0.787841796875
127, 1854060596, -4.599871635437012, -1.6645708084106445, 8.368043899536133, -0.2674477994441986, -0.6395491361618042, -1.1138451099395752, -0.020751953125, 0.1337890625, -0.787353515625
128, 1854077263, -4.587287425994873, -1.664982795715332, 8.35336685180664, -0.17428161203861237, -0.6387038826942444, -1.0423855781555176, -0.019287109375, 0.134765625, -0.786865234375
129, 1854093930, -4.600958824157715, -1.6748104095458984, 8.355400085449219, -0.30128219723701477, -0.666519284248352, -0.9740124940872192, -0.020263671875, 0.13427734375, -0.7890625
130, 1854110597, -4.597416400909424, -1.6584891080856323, 8.377654075622559, -0.4578654170036316, -0.5802556872367859, -1.0799850225448608, -0.019775390625, 0.13525390625, -0.787353515625
131, 1854127264, -4.598609447479248, -1.678439974784851, 8.362564086914062, -0.4249657988548279, -0.633542537689209, -1.1015914678573608, -0.021240234375, 0.13525390625, -0.78759765625
132, 1854143931, -4.591165542602539, -1.6680983304977417, 8.344037055969238, -0.43895044922828674, -0.617816686630249, -1.1275222301483154, -0.019775390625, 0.13720703125, -0.788330078125
133, 1854160598, -4.602010250091553, -1.668114423751831, 8.340659141540527, -0.5096030235290527, -0.5954568386077881, -1.1077749729156494, -0.020751953125, 0.1357421875, -0.787353515625
134, 1854177265, -4.5960822105407715, -1.6801271438598633, 8.365909576416016, -0.5451407432556152, -0.5310025215148926, -1.1042146682739258, -0.020263671875, 0.1337890625, -0.786376953125
135, 1854193932, -4.5935492515563965, -1.675605297088623, 8.381821632385254, -0.3915925621986389, -0.5520561337471008, -1.0719555616378784, -0.020263671875, 0.13525390625, -0.785888671875
136, 1854210599, -4.599454879760742, -1.6722698211669922, 8.368897438049316, -0.37744155526161194, -0.6262817978858948, -0.95596843957901, -0.019775390625, 0.13720703125, -0.787353515625
137, 1854227266, -4.591769695281982, -1.6550512313842773, 8.356063842773438, -0.23791635036468506, -0.6783522963523865, -0.9397683143615723, -0.020751953125, 0.13671875, -0.787353515625
138, 1854243933, -4.597523212432861, -1.668725609779358, 8.373041152954102, -0.19569382071495056, -0.6037425398826599, -0.9004912972450256, -0.019287109375, 0.1357421875, -0.7900390625
139, 1854260600, -4.593260765075684, -1.6686557531356812, 8.380797386169434, -0.22608329355716705, -0.6542635560035706, -0.9455695748329163, -0.021240234375, 0.13623046875, -0.786865234375
140, 1854277267, -4.605334758758545, -1.6615276336669922, 8.344444274902344, -0.2047223150730133, -0.5469335317611694, -0.932686448097229, -0.019287109375, 0.1337890625, -0.788330078125
141, 1854293934, -4.606784820556641, -1.6641430854797363, 8.35434627532959, -0.21386602520942688, -0.542477011680603, -0.9356576204299927, -0.018798828125, 0.13623046875, -0.784423828125
142, 1854310601, -4.591334819793701, -1.6708873510360718, 8.357083320617676, -0.18784354627132416, -0.6160367131233215, -0.9548670649528503, -0.020263671875, 0.13671875, -0.786865234375
143, 1854327268, -4.588277339935303, -1.6750544309616089, 8.339141845703125, -0.13768106698989868, -0.5818308591842651, -0.81831294298172, -0.021728515625, 0.1376953125, -0.7890625
144, 1854343935, -4.593048572540283, -1.6715155839920044, 8.354365348815918, -0.12538695335388184, -0.5954440236091614, -0.9276278614997864, -0.020751953125, 0.13525390625, -0.7890625
145, 1854360602, -4.579314708709717, -1.6605191230773926, 8.353540420532227, -0.044822223484516144, -0.58065265417099, -0.8104753494262695, -0.019287109375, 0.13525390625, -0.785888671875
146, 1854377269, -4.6008501052856445, -1.662785291671753, 8.372335433959961, -0.18987976014614105, -0.6024363040924072, -0.8884021043777466, -0.018310546875, 0.1357421875, -0.787841796875
147, 1854393936, -4.600113391876221, -1.6490474939346313, 8.355521202087402, -0.2501976490020752, -0.5976594686508179, -0.9889575242996216, -0.019287109375, 0.134765625, -0.788818359375
148, 1854410603, -4.594526290893555, -1.6781823635101318, 8.37671947479248, -0.3003601133823395, -0.6878674626350403, -1.0579452514648438, -0.020751953125, 0.13525390625, -0.787841796875
149, 1854427270, -4.596062183380127, -1.6690285205841064, 8.376437187194824, -0.2011493593454361, -0.610670804977417, -1.0121755599975586, -0.019775390625, 0.13623046875, -0.78857421875
150, 1854443937, -4.589672565460205, -1.6662641763687134, 8.390377044677734, -0.2721605598926544, -0.6790438890457153, -0.9633960723876953, -0.021728515625, 0.13623046875, -0.785888671875
151, 1854460604, -4.595524787902832, -1.661063313484192, 8.365796089172363, -0.28810441493988037, -0.6409450173377991, -1.0303349494934082, -0.021240234375, 0.13623046875, -0.785400390625
152, 1854477271, -4.587571620941162, -1.656238079071045, 8.374934196472168, -0.2755157947540283, -0.5871327519416809, -0.9860633015632629, -0.020263671875, 0.134765625, -0.783447265625
153, 1854493938, -4.597699165344238, -1.6605961322784424, 8.372831344604492, -0.3460659384727478, -0.6445178985595703, -0.9999325275421143, -0.019287109375, 0.134765625, -0.788330078125
154, 1854510605, -4.595707893371582, -1.6781892776489258, 8.369485855102539, -0.32665157318115234, -0.5350620746612549, -1.0098447799682617, -0.020751953125, 0.13671875, -0.7890625
155, 1854527272, -4.590765953063965, -1.6627943515777588, 8.334700584411621, -0.25360414385795593, -0.7037090063095093, -1.0357264280319214, -0.020751953125, 0.1357421875, -0.787353515625
156, 1854543939, -4.595944404602051, -1.6805731058120728, 8.374429702758789, -0.25607573986053467, -0.6205316781997681, -0.960552990436554, -0.021728515625, 0.1376953125, -0.786376953125
157, 1854560606, -4.601544380187988, -1.6637943983078003, 8.356618881225586, -0.24787971377372742, -0.6824888586997986, -0.983771026134491, -0.021728515625, 0.134765625, -0.785888671875
158, 1854577273, -4.5907769203186035, -1.6864955425262451, 8.369217872619629, -0.13404406607151031, -0.7783699631690979, -1.0897051095962524, -0.020263671875, 0.134765625, -0.786376953125
159, 1854593940, -4.5980329513549805, -1.6832598447799683, 8.367000579833984, -0.19404181838035583, -0.6918502449989319, -1.0008419752120972, -0.018798828125, 0.13525390625, -0.789306640625
160, 1854610607, -4.593007564544678, -1.674196720123291, 8.360372543334961, -0.3711536228656769, -0.5690117478370667, -1.058201551437378, -0.019775390625, 0.13720703125, -0.788330078125
161, 1854627274, -4.588654518127441, -1.6788334846496582, 8.355030059814453, -0.3368838429450989, -0.3798363506793976, -1.0676525831222534, -0.020751953125, 0.1376953125, -0.7880859375
162, 1854643941, -4.5972981452941895, -1.6691075563430786, 8.356760025024414, -0.35734838247299194, -0.49043193459510803, -1.003594994544983, -0.020263671875, 0.1357421875, -0.7890625
163, 1854660608, -4.598039150238037, -1.6816880702972412, 8.360121726989746, -0.2421424835920334, -0.6222477555274963, -0.9456592202186584, -0.021728515625, 0.1376953125, -0.787109375
164, 1854677275, -4.590404033660889, -1.6746171712875366, 8.3836669921875, -0.23703411221504211, -0.5518714785575867, -1.003578543663025, -0.021728515625, 0.1337890625, -0.78857421875
165, 1854693942, -4.594618320465088, -1.6779590845108032, 8.354044914245605, -0.3335798382759094, -0.6220043897628784, -0.9206997156143188, -0.019287109375, 0.1337890625, -0.788330078125
166, 1854710609, -4.589404582977295, -1.6712713241577148, 8.37998104095459, -0.26708924770355225, -0.7052072882652283, -0.9904686808586121, -0.020263671875, 0.13525390625, -0.7890625
167, 1854727276, -4.590257167816162, -1.670440673828125, 8.342896461486816, -0.22916963696479797, -0.6266787052154541, -0.974511981010437, -0.022216796875, 0.13623046875, -0.78857421875
168, 1854743943, -4.579779624938965, -1.6722745895385742, 8.378809928894043, -0.21610714495182037, -0.6024362444877625, -0.9696327447891235, -0.019287109375, 0.13623046875, -0.787353515625
169, 1854760610, -4.5851640701293945, -1.6742769479751587, 8.384343147277832, -0.20660485327243805, -0.643826425075531, -0.8989418148994446, -0.018310546875, 0.13623046875, -0.786376953125
170, 1854777277, -4.603940963745117, -1.6631439924240112, 8.358857154846191, -0.2576253116130829, -0.613693118095398, -0.9603096842765808, -0.020751953125, 0.13427734375, -0.785888671875
171, 1854793944, -4.591743469238281, -1.668501377105713, 8.359514236450195, -0.21837389469146729, -0.6578750014305115, -0.982631266117096, -0.020263671875, 0.13427734375, -0.787353515625
172, 1854810611, -4.593890190124512, -1.6676223278045654, 8.340727806091309, -0.25669050216674805, -0.5661303400993347, -0.9266803860664368, -0.020751953125, 0.1376953125, -0.786376953125
173, 1854827278, -4.588198661804199, -1.6594995260238647, 8.366525650024414, -0.23045027256011963, -0.6302645206451416, -0.9411386847496033, -0.021240234375, 0.13671875, -0.78857421875
174, 1854843945, -4.589200496673584, -1.6716171503067017, 8.368975639343262, -0.1328018456697464, -0.624642550945282, -1.0399268865585327, -0.020263671875, 0.1357421875, -0.786376953125
175, 1854860612, -4.5909342765808105, -1.6581043004989624, 8.366630554199219, -0.3100545108318329, -0.6387166380882263, -0.9525618553161621, -0.016357421875, 0.1357421875, -0.787841796875
176, 1854877279, -4.585571765899658, -1.6684175729751587, 8.368233680725098, -0.31408852338790894, -0.5710991621017456, -1.0622353553771973, -0.021240234375, 0.13671875, -0.787353515625
177, 1854893946, -4.602239608764648, -1.6652222871780396, 8.35804557800293, -0.4052441418170929, -0.5141237378120422, -1.0239059925079346, -0.022705078125, 0.13525390625, -0.787109375
178, 1854910613, -4.5937628746032715, -1.6730103492736816, 8.410293579101562, -0.32433363795280457, -0.483606219291687, -1.054718255996704, -0.021728515625, 0.1337890625, -0.7880859375
179, 1854927280, -4.583276748657227, -1.6810030937194824, 8.367654800415039, -0.29160061478614807, -0.4378618896007538, -1.0045684576034546, -0.0224609375, 0.13671875, -0.78857421875
180, 1854943947, -4.597925186157227, -1.6683263778686523, 8.360271453857422, -0.28862953186035156, -0.5053001046180725, -0.9996508955955505, -0.02197265625, 0.1376953125, -0.78662109375
181, 1854960614, -4.583563804626465, -1.6839704513549805, 8.373779296875, -0.35519689321517944, -0.518196165561676, -0.9539194107055664, -0.020263671875, 0.13623046875, -0.786376953125
182, 1854977281, -4.5952935218811035, -1.6697096824645996, 8.363442420959473, -0.34482377767562866, -0.5723670125007629, -1.0057467222213745, -0.021240234375, 0.13330078125, -0.787353515625
183, 1854993948, -4.604297637939453, -1.6758066415786743, 8.374025344848633, -0.3373320698738098, -0.6271013021469116, -1.118506669998169, -0.019775390625, 0.13623046875, -0.785888671875
184, 1855010615, -4.590816020965576, -1.6753406524658203, 8.388601303100586, -0.2982214689254761, -0.5727512240409851, -1.019654393196106, -0.018798828125, 0.13623046875, -0.7890625
185, 1855027282, -4.590580463409424, -1.6759883165359497, 8.372177124023438, -0.36746537685394287, -0.5337174534797668, -1.0397603511810303, -0.020751953125, 0.1376953125, -0.7890625
186, 1855043949, -4.584067344665527, -1.6727113723754883, 8.35091781616211, -0.4052441418170929, -0.5656692981719971, -1.103036642074585, -0.021484375, 0.1396484375, -0.79052734375
187, 1855060616, -4.58897590637207, -1.6776330471038818, 8.357315063476562, -0.48094242811203003, -0.44162699580192566, -1.1067631244659424, -0.020751953125, 0.1376953125, -0.786376953125
188, 1855077283, -4.606234073638916, -1.684329628944397, 8.369538307189941, -0.5821126103401184, -0.44527676701545715, -1.099450707435608, -0.021240234375, 0.13525390625, -0.785400390625
189, 1855093950, -4.585124492645264, -1.69106924533844, 8.38920783996582, -0.5359073281288147, -0.43181735277175903, -1.0422834157943726, -0.020263671875, 0.13720703125, -0.785400390625
190, 1855110617, -4.597459316253662, -1.6840711832046509, 8.3668794631958, -0.3624965250492096, -0.6319805383682251, -1.1188138723373413, -0.019287109375, 0.134765625, -0.788330078125
191, 1855127284, -4.580843925476074, -1.6951435804367065, 8.357975006103516, -0.34990790486335754, -0.6700025200843811, -1.0892056226730347, -0.022216796875, 0.13720703125, -0.78955078125
192, 1855143951, -4.578592300415039, -1.680241584777832, 8.353864669799805, -0.2365589141845703, -0.690403163433075, -1.0208710432052612, -0.018798828125, 0.13671875, -0.79150390625
193, 1855160618, -4.595658302307129, -1.68168306350708, 8.357708930969238, -0.2659878730773926, -0.6517919301986694, -1.0845056772232056, -0.018310546875, 0.13720703125, -0.787841796875
194, 1855177285, -4.584615230560303, -1.666945219039917, 8.369218826293945, -0.34260833263397217, -0.6315963864326477, -1.0653859376907349, -0.019287109375, 0.13623046875, -0.788818359375
195, 1855193952, -4.598731517791748, -1.6787211894989014, 8.343728065490723, -0.3902479112148285, -0.5851476788520813, -1.127650260925293, -0.018798828125, 0.13623046875, -0.7890625
196, 1855210619, -4.595686912536621, -1.6802918910980225, 8.382590293884277, -0.5404024124145508, -0.6138851642608643, -1.121324062347412, -0.022216796875, 0.1357421875, -0.786865234375
197, 1855227286, -4.587106227874756, -1.6930406093597412, 8.368870735168457, -0.4213801622390747, -0.6934510469436646, -1.1115912199020386, -0.020751953125, 0.13916015625, -0.7880859375
198, 1855243953, -4.598108768463135, -1.6979901790618896, 8.365212440490723, -0.2488551139831543, -0.756362795829773, -0.9978410005569458, -0.021240234375, 0.13623046875, -0.78759765625
199, 1855260620, -4.586832523345947, -1.6762551069259644, 8.351860046386719, -0.238185316324234, -0.7012630105018616, -1.1069552898406982, -0.021484375, 0.138671875, -0.786376953125
200, 1855277287, -4.5965070724487305, -1.6941297054290771, 8.377004623413086, -0.2875281572341919, -0.6574011445045471, -1.103151798248291, -0.019775390625, 0.13623046875, -0.787841796875
201, 1855293954, -4.584622859954834, -1.688040018081665, 8.363759994506836, -0.2612111270427704, -0.7212023138999939, -1.09755539894104, -0.021240234375, 0.13671875, -0.78857421875
202, 1855310621, -4.600447654724121, -1.6902073621749878, 8.353864669799805, -0.3521873950958252, -0.6521121859550476, -1.0885396003723145, -0.021240234375, 0.1357421875, -0.78759765625
203, 1855327288, -4.593883514404297, -1.6828614473342896, 8.368932723999023, -0.39706090092658997, -0.7459315061569214, -0.9940161108970642, -0.02392578125, 0.1376953125, -0.787109375
204, 1855343955, -4.596632957458496, -1.692739725112915, 8.36596393585205, -0.24004222452640533, -0.7077685594558716, -1.021485686302185, -0.02197265625, 0.1376953125, -0.78857421875
205, 1855360622, -4.5941619873046875, -1.6992027759552002, 8.36974048614502, -0.14031916856765747, -0.6736779808998108, -0.9629862308502197, -0.019775390625, 0.13720703125, -0.787353515625
206, 1855377289, -4.577505588531494, -1.6975692510604858, 8.38036060333252, -0.10512733459472656, -0.7637323141098022, -0.9868701100349426, -0.019287109375, 0.13623046875, -0.788818359375
207, 1855393956, -4.579110145568848, -1.6864683628082275, 8.364107131958008, -0.13304516673088074, -0.6419054269790649, -0.8841503262519836, -0.020751953125, 0.13720703125, -0.785400390625
208, 1855410623, -4.58351993560791, -1.6748517751693726, 8.347535133361816, -0.17639465630054474, -0.6483085751533508, -0.9472728371620178, -0.020751953125, 0.13671875, -0.7880859375
209, 1855427290, -4.5903849601745605, -1.6841826438903809, 8.373372077941895, -0.13917940855026245, -0.6612558960914612, -0.9197391867637634, -0.021240234375, 0.1376953125, -0.78759765625
210, 1855443957, -4.5875468254089355, -1.6734951734542847, 8.355565071105957, -0.1154620423913002, -0.700776219367981, -0.8664904236793518, -0.021728515625, 0.13720703125, -0.78955078125
211, 1855460624, -4.588128566741943, -1.6796597242355347, 8.35552978515625, -0.15929818153381348, -0.7035424709320068, -0.9073939323425293, -0.021728515625, 0.13720703125, -0.78955078125
212, 1855477291, -4.57772159576416, -1.6701608896255493, 8.374350547790527, -0.19017428159713745, -0.7340983748435974, -1.0192700624465942, -0.019775390625, 0.13671875, -0.787841796875
213, 1855493958, -4.597901821136475, -1.6826430559158325, 8.36732006072998, -0.21364831924438477, -0.609582245349884, -0.9981652498245239, -0.019287109375, 0.1376953125, -0.787841796875
214, 1855510625, -4.580786228179932, -1.6859793663024902, 8.367316246032715, -0.06230289116501808, -0.6201475262641907, -0.976394534111023, -0.020751953125, 0.13671875, -0.78759765625
215, 1855527292, -4.587036609649658, -1.6863867044448853, 8.364102363586426, -0.14121563732624054, -0.6652387380599976, -0.9754212498664856, -0.023193359375, 0.1357421875, -0.78759765625
216, 1855543959, -4.577953815460205, -1.6893408298492432, 8.386985778808594, -0.1582864671945572, -0.673972487449646, -0.8682064414024353, -0.021728515625, 0.1376953125, -0.78759765625
217, 1855560626, -4.58174467086792, -1.6879850625991821, 8.3526611328125, -0.05832011252641678, -0.73055100440979, -0.9123755097389221, -0.021728515625, 0.13525390625, -0.7900390625
218, 1855577293, -4.5951313972473145, -1.6810569763183594, 8.366511344909668, -0.08900412917137146, -0.6632921099662781, -0.8848803043365479, -0.018310546875, 0.13916015625, -0.786865234375
219, 1855593960, -4.582108020782471, -1.6935977935791016, 8.352499961853027, -0.09429315477609634, -0.743523895740509, -0.8659781217575073, -0.021240234375, 0.1337890625, -0.78955078125
220, 1855610627, -4.5580735206604, -1.6721668243408203, 8.348594665527344, -0.07478908449411392, -0.6932973265647888, -0.8645566701889038, -0.019775390625, 0.1357421875, -0.78857421875
221, 1855627294, -4.580043792724609, -1.6747967004776, 8.382386207580566, -0.13387757539749146, -0.6844738125801086, -0.9529076814651489, -0.020751953125, 0.13671875, -0.7900390625
222, 1855643961, -4.592328071594238, -1.6764756441116333, 8.378397941589355, -0.14590276777744293, -0.5090908408164978, -0.9248105883598328, -0.019775390625, 0.13671875, -0.79052734375
223, 1855660628, -4.577279090881348, -1.6810249090194702, 8.36407470703125, -0.17618975043296814, -0.6791718602180481, -0.936707615852356, -0.019775390625, 0.13623046875, -0.7890625
224, 1855677295, -4.591231822967529, -1.6872578859329224, 8.388029098510742, -0.16092459857463837, -0.6072387099266052, -0.9112614393234253, -0.021240234375, 0.13623046875, -0.7880859375
225, 1855693962, -4.571260452270508, -1.6850799322128296, 8.350638389587402, -0.13536310195922852, -0.6415084004402161, -0.9686722755432129, -0.020263671875, 0.134765625, -0.787841796875
226, 1855710629, -4.579102039337158, -1.667644739151001, 8.354387283325195, -0.09629093110561371, -0.6287533640861511, -0.8672075867652893, -0.020751953125, 0.13671875, -0.786865234375
227, 1855727296, -4.587501049041748, -1.6707735061645508, 8.379375457763672, -0.18995659053325653, -0.5790006518363953, -0.9770091772079468, -0.020263671875, 0.13720703125, -0.786376953125
228, 1855743963, -4.567897796630859, -1.6740158796310425, 8.359109878540039, -0.2878611385822296, -0.457570880651474, -0.9650736451148987, -0.021240234375, 0.13671875, -0.78857421875
229, 1855760630, -4.57522439956665, -1.674451231956482, 8.389620780944824, -0.1653555929660797, -0.5279161930084229, -0.9119529724121094, -0.021728515625, 0.1357421875, -0.786376953125
230, 1855777297, -4.5922698974609375, -1.6824181079864502, 8.369866371154785, -0.17990359663963318, -0.4144262671470642, -0.9229919910430908, -0.021240234375, 0.13818359375, -0.785400390625
231, 1855793964, -4.5841779708862305, -1.671973705291748, 8.377828598022461, -0.24996712803840637, -0.5278009176254272, -0.9715920686721802, -0.020263671875, 0.1376953125, -0.787841796875
232, 1855810631, -4.588919162750244, -1.6836738586425781, 8.353324890136719, -0.199778214097023, -0.5248228311538696, -0.9246866106987, -0.020263671875, 0.13623046875, -0.7880859375
233, 1855827298, -4.590601921081543, -1.6879961490631104, 8.362149238586426, -0.25269484519958496, -0.46545958518981934, -0.9472216367721558, -0.021728515625, 0.13671875, -0.7890625
234, 1855843965, -4.591946601867676, -1.6802061796188354, 8.368518829345703, -0.2801901400089264, -0.48976603150367737, -0.9598870277404785, -0.020751953125, 0.1376953125, -0.78759765625
235, 1855860632, -4.587360858917236, -1.6794137954711914, 8.353446960449219, -0.17188681662082672, -0.44170376658439636, -0.9350683689117432, -0.020263671875, 0.13720703125, -0.787841796875
236, 1855877299, -4.578747272491455, -1.6824471950531006, 8.364587783813477, -0.17813631892204285, -0.5803709030151367, -0.8645566701889038, -0.020263671875, 0.1376953125, -0.785888671875
237, 1855893966, -4.584315299987793, -1.6804866790771484, 8.329581260681152, -0.0804750993847847, -0.47278478741645813, -0.889132022857666, -0.021728515625, 0.13720703125, -0.785888671875
238, 1855910633, -4.587970733642578, -1.6933587789535522, 8.385226249694824, -0.10309110581874847, -0.3373832702636719, -0.8694358468055725, -0.021240234375, 0.13623046875, -0.786376953125
239, 1855927300, -4.582184314727783, -1.6847245693206787, 8.343873023986816, -0.20168718695640564, -0.5353566408157349, -0.9900972843170166, -0.023193359375, 0.134765625, -0.7880859375
240, 1855943967, -4.5834856033325195, -1.6832480430603027, 8.359639167785645, -0.24525438249111176, -0.4768316149711609, -0.9525746703147888, -0.019775390625, 0.1376953125, -0.78857421875
241, 1855960634, -4.597469806671143, -1.6813404560089111, 8.33188533782959, -0.31118151545524597, -0.5096670389175415, -0.9933629035949707, -0.020751953125, 0.13720703125, -0.786376953125
242, 1855977301, -4.59037446975708, -1.682617425918579, 8.360980987548828, -0.2952888011932373, -0.5109093189239502, -0.9596437215805054, -0.020751953125, 0.1357421875, -0.787841796875
243, 1855993968, -4.583862781524658, -1.6881046295166016, 8.35304069519043, -0.25615260004997253, -0.46708595752716064, -0.9535095691680908, -0.021240234375, 0.1357421875, -0.78857421875
244, 1856010635, -4.583138942718506, -1.6763886213302612, 8.341337203979492, -0.29035836458206177, -0.4925578236579895, -0.9582991600036621, -0.020263671875, 0.138671875, -0.78857421875
245, 1856027302, -4.590601444244385, -1.6721396446228027, 8.364717483520508, -0.24645820260047913, -0.5389040112495422, -0.9718226194381714, -0.021240234375, 0.138671875, -0.786376953125
246, 1856043969, -4.589478015899658, -1.6792360544204712, 8.372354507446289, -0.16344745457172394, -0.5828939080238342, -0.9664824604988098, -0.0224609375, 0.13671875, -0.78857421875
247, 1856060636, -4.585949897766113, -1.673691987991333, 8.363205909729004, -0.12095598131418228, -0.5348188281059265, -0.9187915921211243, -0.020751953125, 0.13720703125, -0.78759765625
248, 1856077303, -4.598659992218018, -1.67658269405365, 8.349273681640625, -0.2706109881401062, -0.5977748036384583, -0.935696005821228, -0.020263671875, 0.13525390625, -0.787353515625
249, 1856093970, -4.58428430557251, -1.6951223611831665, 8.35013484954834, -0.10823926329612732, -0.5739933848381042, -0.9451597929000854, -0.020751953125, 0.13818359375, -0.785888671875
250, 1856110637, -4.5870890617370605, -1.676884651184082, 8.364538192749023, -0.15695463120937347, -0.550801157951355, -0.8987625241279602, -0.021728515625, 0.1357421875, -0.7880859375
251, 1856127304, -4.5837483406066895, -1.6771472692489624, 8.367510795593262, -0.2865164577960968, -0.5113447308540344, -0.9452109932899475, -0.021240234375, 0.13720703125, -0.78759765625
252, 1856143971, -4.592830657958984, -1.6781787872314453, 8.363327026367188, -0.1658422350883484, -0.5600345134735107, -0.9908913969993591, -0.020263671875, 0.13720703125, -0.7880859375
253, 1856160638, -4.591756820678711, -1.6844658851623535, 8.33829116821289, -0.20445339381694794, -0.4932621717453003, -0.9684674739837646, -0.021240234375, 0.13671875, -0.787353515625
254, 1856177305, -4.602687358856201, -1.6841801404953003, 8.361251831054688, -0.207872673869133, -0.4624757468700409, -0.9085593223571777, -0.020751953125, 0.1376953125, -0.785400390625
255, 1856193972, -4.5941243171691895, -1.684291958808899, 8.364667892456055, -0.2898077070713043, -0.4663560390472412, -0.9375784993171692, -0.020751953125, 0.13623046875, -0.7890625
256, 1856210639, -4.581612586975098, -1.68601393699646, 8.37942886352539, -0.2838527262210846, -0.392463356256485, -0.9559683203697205, -0.019775390625, 0.138671875, -0.786865234375
257, 1856227306, -4.598835468292236, -1.6789524555206299, 8.376853942871094, -0.3332083821296692, -0.37429118156433105, -0.9475802183151245, -0.019775390625, 0.13623046875, -0.786376953125
258, 1856243973, -4.601112365722656, -1.6766419410705566, 8.351506233215332, -0.33665332198143005, -0.4714273512363434, -0.9880867600440979, -0.02099609375, 0.13916015625, -0.787109375
259, 1856260640, -4.588155746459961, -1.699147343635559, 8.346019744873047, -0.263144850730896, -0.49090576171875, -0.8556562066078186, -0.020751953125, 0.13720703125, -0.78759765625
260, 1856277307, -4.584298610687256, -1.67344331741333, 8.357632637023926, -0.179404154419899, -0.5620706677436829, -0.8911426067352295, -0.020751953125, 0.1357421875, -0.786376953125
261, 1856293974, -4.601802349090576, -1.677193284034729, 8.373553276062012, -0.1627815067768097, -0.6065856218338013, -0.8782339096069336, -0.021728515625, 0.13623046875, -0.7880859375
262, 1856310641, -4.595462322235107, -1.6765090227127075, 8.356954574584961, -0.1767532378435135, -0.6319165229797363, -0.9121065735816956, -0.021240234375, 0.13623046875, -0.786865234375
263, 1856327308, -4.603334903717041, -1.6733508110046387, 8.37255859375, -0.14624850451946259, -0.5964045524597168, -0.9054345488548279, -0.021728515625, 0.13525390625, -0.7890625
264, 1856343975, -4.6072540283203125, -1.672210454940796, 8.346437454223633, -0.11007057130336761, -0.6517406702041626, -0.8878641724586487, -0.020263671875, 0.13671875, -0.7890625
265, 1856360642, -4.587970733642578, -1.6743497848510742, 8.355341911315918, -0.16352126002311707, -0.6472716331481934, -0.982036828994751, -0.018798828125, 0.13818359375, -0.787841796875
266, 1856377309, -4.593322277069092, -1.6651182174682617, 8.36790657043457, -0.12878066301345825, -0.5678719878196716, -1.0155819654464722, -0.019287109375, 0.13720703125, -0.787353515625
267, 1856393976, -4.603461265563965, -1.6701574325561523, 8.347294807434082, -0.11989305913448334, -0.664457380771637, -0.9458256959915161, -0.018798828125, 0.13671875, -0.787353515625
268, 1856410643, -4.5929155349731445, -1.6880333423614502, 8.36661148071289, -0.24843037128448486, -0.6702202558517456, -0.928882896900177, -0.021484375, 0.13818359375, -0.787109375
269, 1856427310, -4.594290256500244, -1.6781880855560303, 8.348145484924316, -0.19055849313735962, -0.5959435701370239, -0.912068247795105, -0.0224609375, 0.13720703125, -0.7861328125
270, 1856443977, -4.593478679656982, -1.672141432762146, 8.364296913146973, -0.1817605346441269, -0.6251291632652283, -1.0128798484802246, -0.020263671875, 0.134765625, -0.787841796875
271, 1856460644, -4.591207981109619, -1.6831194162368774, 8.376742362976074, -0.16119354963302612, -0.6931437253952026, -0.9547390341758728, -0.019287109375, 0.1376953125, -0.787353515625
272, 1856477311, -4.589057445526123, -1.6844508647918701, 8.357538223266602, -0.14384092390537262, -0.6482574343681335, -0.9801467657089233, -0.020263671875, 0.13525390625, -0.787841796875
273, 1856493978, -4.5934319496154785, -1.6614164113998413, 8.356879234313965, -0.13788597285747528, -0.6724998354911804, -1.013020634651184, -0.021728515625, 0.13427734375, -0.7880859375
274, 1856510645, -4.587711811065674, -1.6723307371139526, 8.36180591583252, -0.284198522567749, -0.7089723348617554, -0.988573431968689, -0.021240234375, 0.13427734375, -0.786865234375
275, 1856527312, -4.609278678894043, -1.6851164102554321, 8.370647430419922, -0.25556352734565735, -0.6146920323371887, -1.0151722431182861, -0.019775390625, 0.1376953125, -0.78955078125
276, 1856543979, -4.587374687194824, -1.6708399057388306, 8.35798454284668, -0.26994505524635315, -0.6909922361373901, -0.9557507038116455, -0.021240234375, 0.134765625, -0.7890625
277, 1856560646, -4.597893714904785, -1.6694904565811157, 8.357094764709473, -0.22595520317554474, -0.5976978540420532, -0.9695559144020081, -0.019287109375, 0.138671875, -0.78857421875
278, 1856577313, -4.584636688232422, -1.6710742712020874, 8.343514442443848, -0.2870286703109741, -0.6588226556777954, -0.9163327217102051, -0.018798828125, 0.1376953125, -0.7890625
279, 1856593980, -4.593582630157471, -1.6728793382644653, 8.36444091796875, -0.24996712803840637, -0.5619938373565674, -0.9558146595954895, -0.020751953125, 0.13525390625, -0.786865234375
280, 1856610647, -4.596418380737305, -1.6792552471160889, 8.375316619873047, -0.2521441876888275, -0.6806318759918213, -1.0422319173812866, -0.020751953125, 0.1357421875, -0.785888671875
281, 1856627314, -4.586467266082764, -1.6641407012939453, 8.343181610107422, -0.22161386907100677, -0.6893402338027954, -1.0427314043045044, -0.0224609375, 0.13671875, -0.78857421875
282, 1856643981, -4.5981125831604, -1.673842430114746, 8.367015838623047, -0.2735436260700226, -0.7002127766609192, -1.0493011474609375, -0.021240234375, 0.13671875, -0.78955078125
283, 1856660648, -4.614947319030762, -1.6706631183624268, 8.34136962890625, -0.2256222516298294, -0.750977098941803, -1.0074371099472046, -0.021240234375, 0.13720703125, -0.786376953125
284, 1856677315, -4.590928077697754, -1.664442539215088, 8.356573104858398, -0.23853106796741486, -0.5995293259620667, -1.0330626964569092, -0.019287109375, 0.1357421875, -0.78955078125
285, 1856693982, -4.5909929275512695, -1.6870980262756348, 8.335295677185059, -0.2123420685529709, -0.6611149907112122, -1.0628758668899536, -0.021728515625, 0.1376953125, -0.78857421875
286, 1856710649, -4.58944034576416, -1.671327829360962, 8.34473705291748, -0.22810667753219604, -0.6278312802314758, -0.930458128452301, -0.021728515625, 0.13720703125, -0.787109375
287, 1856727316, -4.586526870727539, -1.6805288791656494, 8.381742477416992, -0.1329042911529541, -0.633171558380127, -0.9783923029899597, -0.021240234375, 0.13720703125, -0.79052734375
288, 1856743983, -4.598089218139648, -1.687439203262329, 8.356536865234375, -0.10779103636741638, -0.6537256836891174, -0.9045636653900146, -0.02197265625, 0.13818359375, -0.7880859375
289, 1856760650, -4.596800804138184, -1.682180643081665, 8.360660552978516, -0.15439334511756897, -0.6708734035491943, -0.8710494637489319, -0.020263671875, 0.13623046875, -0.786376953125
290, 1856777317, -4.595768451690674, -1.668308973312378, 8.364136695861816, -0.12838365137577057, -0.7187819480895996, -0.9288957118988037, -0.020751953125, 0.1357421875, -0.784423828125
291, 1856793984, -4.581684589385986, -1.6772621870040894, 8.380899429321289, -0.12341479957103729, -0.6486416459083557, -0.9338390827178955, -0.019775390625, 0.13623046875, -0.78857421875
292, 1856810651, -4.590719223022461, -1.6868492364883423, 8.35395622253418, -0.18177330493927002, -0.6335556507110596, -0.9771243929862976, -0.021240234375, 0.13671875, -0.787353515625
293, 1856827318, -4.5929975509643555, -1.6667042970657349, 8.369423866271973, -0.2571258842945099, -0.6115031838417053, -0.9523313641548157, -0.020263671875, 0.13720703125, -0.7880859375
294, 1856843985, -4.575547218322754, -1.6796865463256836, 8.352206230163574, -0.2804974913597107, -0.6021289229393005, -1.095442295074463, -0.020263671875, 0.13623046875, -0.78857421875
295, 1856860652, -4.576488018035889, -1.6805933713912964, 8.348196983337402, -0.34839674830436707, -0.5649137496948242, -0.9887654185295105, -0.020751953125, 0.13818359375, -0.7890625
296, 1856877319, -4.590857982635498, -1.6729062795639038, 8.355449676513672, -0.2997710406780243, -0.5179144144058228, -1.0148136615753174, -0.019287109375, 0.1357421875, -0.787841796875
297, 1856893986, -4.5950212478637695, -1.6743361949920654, 8.36214828491211, -0.23485565185546875, -0.5955721735954285, -1.010024070739746, -0.020751953125, 0.13818359375, -0.7880859375
298, 1856910653, -4.577702045440674, -1.6803160905838013, 8.365046501159668, -0.23170529305934906, -0.7056554555892944, -1.012930989265442, -0.022216796875, 0.13720703125, -0.787109375
299, 1856927320, -4.595963001251221, -1.6778604984283447, 8.366097450256348, -0.2905935049057007, -0.6139604449272156, -1.0384907722473145, -0.019287109375, 0.1376953125, -0.786865234375
300, 1856943987, -4.591701984405518, -1.6678340435028076, 8.36187744140625, -0.2576509714126587, -0.6252444386482239, -1.0713921785354614, -0.020263671875, 0.1396484375, -0.79052734375
301, 1856960654, -4.5802001953125, -1.6807435750961304, 8.349555015563965, -0.3344634473323822, -0.6155756711959839, -1.029950737953186, -0.019287109375, 0.13330078125, -0.787841796875
302, 1856977321, -4.583789348602295, -1.6855031251907349, 8.36196231842041, -0.2564343512058258, -0.6531238555908203, -0.9655347466468811, -0.020263671875, 0.134765625, -0.786865234375
303, 1856993988, -4.592607498168945, -1.6634944677352905, 8.362184524536133, -0.34245458245277405, -0.8001919388771057, -0.9925176501274109, -0.020751953125, 0.13671875, -0.786865234375
304, 1857010655, -4.583171844482422, -1.6900187730789185, 8.359939575195312, -0.19742268323898315, -0.6763417720794678, -0.9914419651031494, -0.0224609375, 0.13671875, -0.7880859375
305, 1857027322, -4.582887649536133, -1.6850552558898926, 8.363082885742188, -0.24799497425556183, -0.6740366220474243, -1.0293872356414795, -0.020263671875, 0.1357421875, -0.784912109375
306, 1857043989, -4.587350845336914, -1.665368676185608, 8.392781257629395, -0.1260785162448883, -0.6631256341934204, -0.9925177693367004, -0.020751953125, 0.134765625, -0.785400390625
307, 1857060656, -4.582973003387451, -1.6788361072540283, 8.357150077819824, -0.3256014585494995, -0.5375722050666809, -1.0604426860809326, -0.019775390625, 0.13720703125, -0.787841796875
308, 1857077323, -4.5903520584106445, -1.668163776397705, 8.371602058410645, -0.30174317955970764, -0.5391985177993774, -1.0224077701568604, -0.022216796875, 0.13671875, -0.786376953125
309, 1857093990, -4.5950541496276855, -1.6975654363632202, 8.352273941040039, -0.3769932985305786, -0.48547592759132385, -0.9962955713272095, -0.019287109375, 0.1357421875, -0.787841796875
310, 1857110657, -4.5825066566467285, -1.6660469770431519, 8.362966537475586, -0.3161759376525879, -0.6603850722312927, -0.9874976873397827, -0.02197265625, 0.13916015625, -0.78662109375
311, 1857127324, -4.607194423675537, -1.6738102436065674, 8.352558135986328, -0.3957418203353882, -0.5675902366638184, -1.0877201557159424, -0.022216796875, 0.13671875, -0.78955078125
312, 1857143991, -4.580151557922363, -1.6690207719802856, 8.363685607910156, -0.3967023193836212, -0.6100817322731018, -1.0843521356582642, -0.020751953125, 0.13818359375, -0.78759765625
313, 1857160658, -4.583846092224121, -1.6787784099578857, 8.381861686706543, -0.313140869140625, -0.6315707564353943, -1.0860040187835693, -0.018798828125, 0.13525390625, -0.785400390625
314, 1857177325, -4.589136123657227, -1.6592835187911987, 8.379810333251953, -0.33187657594680786, -0.6629078984260559, -1.12608802318573, -0.020751953125, 0.1376953125, -0.786865234375
315, 1857193992, -4.591022491455078, -1.682618498802185, 8.37452220916748, -0.3877122104167938, -0.6761496067047119, -1.1589490175247192, -0.021240234375, 0.1376953125, -0.78857421875
316, 1857210659, -4.581790924072266, -1.6859477758407593, 8.345166206359863, -0.4100465178489685, -0.6209543347358704, -1.112052083015442, -0.02099609375, 0.13916015625, -0.7880859375
317, 1857227326, -4.584291458129883, -1.6884177923202515, 8.345259666442871, -0.4898045063018799, -0.5365220308303833, -1.1254603862762451, -0.021240234375, 0.13623046875, -0.7880859375
318, 1857243993, -4.590512752532959, -1.6942909955978394, 8.352737426757812, -0.37868377566337585, -0.656005322933197, -1.129801869392395, -0.021484375, 0.13818359375, -0.7890625
319, 1857260660, -4.591010570526123, -1.6910196542739868, 8.349319458007812, -0.29749149084091187, -0.6582335829734802, -1.0787813663482666, -0.020263671875, 0.13671875, -0.785888671875
320, 1857277327, -4.574923515319824, -1.690706491470337, 8.374616622924805, -0.38063034415245056, -0.6693239212036133, -1.054769515991211, -0.020263671875, 0.1357421875, -0.786376953125
321, 1857293994, -4.589756488800049, -1.670582890510559, 8.348690032958984, -0.3493316173553467, -0.6622291207313538, -1.0918182134628296, -0.021728515625, 0.13720703125, -0.787109375
322, 1857310661, -4.576149940490723, -1.6802419424057007, 8.350984573364258, -0.34268513321876526, -0.7538201808929443, -1.1259853839874268, -0.021240234375, 0.13671875, -0.78857421875
323, 1857327328, -4.574490070343018, -1.7030946016311646, 8.380094528198242, -0.25822725892066956, -0.7815459370613098, -1.0929450988769531, -0.021728515625, 0.13623046875, -0.78759765625
324, 1857343995, -4.575403690338135, -1.6910066604614258, 8.3670015335083, -0.23383112251758575, -0.678275465965271, -1.0191420316696167, -0.020263671875, 0.138671875, -0.786865234375
325, 1857360662, -4.580642223358154, -1.6961119174957275, 8.355205535888672, -0.26616719365119934, -0.6852678060531616, -0.989559531211853, -0.020751953125, 0.13720703125, -0.787353515625
326, 1857377329, -4.581655502319336, -1.6862653493881226, 8.341545104980469, -0.38690540194511414, -0.5803197622299194, -1.0567798614501953, -0.019287109375, 0.13720703125, -0.787353515625
327, 1857393996, -4.583003044128418, -1.6824883222579956, 8.355917930603027, -0.28200864791870117, -0.6676718592643738, -0.9791479706764221, -0.021240234375, 0.13623046875, -0.7900390625
328, 1857410663, -4.583165168762207, -1.6945048570632935, 8.369026184082031, -0.31591981649398804, -0.6093516945838928, -0.9667512774467468, -0.0224609375, 0.13671875, -0.78857421875
329, 1857427330, -4.570444583892822, -1.6895862817764282, 8.374393463134766, -0.2232787013053894, -0.6226574778556824, -1.0046452283859253, -0.02197265625, 0.13916015625, -0.78759765625
330, 1857443997, -4.582125663757324, -1.697029948234558, 8.348662376403809, -0.310067355632782, -0.6165874004364014, -1.004440426826477, -0.020263671875, 0.1376953125, -0.787841796875
331, 1857460664, -4.577062129974365, -1.6794577836990356, 8.368539810180664, -0.20234030485153198, -0.6686963438987732, -0.9244903326034546, -0.020751953125, 0.1376953125, -0.786376953125
332, 1857477331, -4.575735092163086, -1.688420295715332, 8.377280235290527, -0.13806071877479553, -0.5872830748558044, -1.0079841613769531, -0.021240234375, 0.134765625, -0.787841796875
333, 1857493998, -4.564804553985596, -1.706644058227539, 8.36544132232666, -0.1652275174856186, -0.6448764801025391, -0.8949844837188721, -0.020751953125, 0.13671875, -0.78759765625
334, 1857510665, -4.597761154174805, -1.6905615329742432, 8.369731903076172, -0.13921785354614258, -0.592332124710083, -0.9529077410697937, -0.0224609375, 0.13671875, -0.7880859375
335, 1857527332, -4.578258037567139, -1.6726436614990234, 8.357725143432617, -0.22012834250926971, -0.5197200775146484, -0.865491509437561, -0.02294921875, 0.1376953125, -0.7880859375
336, 1857543999, -4.582055568695068, -1.690922498703003, 8.356024742126465, -0.24150212109088898, -0.5345242023468018, -0.9593749046325684, -0.021240234375, 0.1376953125, -0.786865234375
337, 1857560666, -4.580800533294678, -1.6831974983215332, 8.354469299316406, -0.18324606120586395, -0.6275111436843872, -0.9555457234382629, -0.020751953125, 0.13818359375, -0.786376953125
338, 1857577333, -4.575268268585205, -1.6873899698257446, 8.345224380493164, -0.1906224936246872, -0.5112294554710388, -0.9187018871307373, -0.017822265625, 0.13720703125, -0.785400390625
339, 1857594000, -4.601106643676758, -1.6722288131713867, 8.378259658813477, -0.2317437380552292, -0.5935231447219849, -0.9753828048706055, -0.022705078125, 0.13623046875, -0.78662109375
340, 1857610667, -4.57649564743042, -1.6870940923690796, 8.370169639587402, -0.2029678225517273, -0.6460290551185608, -0.9783025979995728, -0.020751953125, 0.13671875, -0.78759765625
341, 1857627334, -4.57994270324707, -1.6851497888565063, 8.35372543334961, -0.26728135347366333, -0.5365732908248901, -0.9196239113807678, -0.02294921875, 0.1376953125, -0.78857421875
342, 1857644001, -4.588939189910889, -1.695788025856018, 8.363526344299316, -0.21423743665218353, -0.6162287592887878, -0.9789814949035645, -0.021728515625, 0.13720703125, -0.786376953125
343, 1857660668, -4.575639724731445, -1.685495138168335, 8.375982284545898, -0.10047861188650131, -0.6147175431251526, -0.8797962069511414, -0.02099609375, 0.13916015625, -0.7880859375
344, 1857677335, -4.583184242248535, -1.6909340620040894, 8.368040084838867, -0.1359522044658661, -0.5582415461540222, -0.9738972783088684, -0.019775390625, 0.1376953125, -0.787353515625
345, 1857694002, -4.575830936431885, -1.6790156364440918, 8.381460189819336, -0.07066544145345688, -0.658592164516449, -0.889862060546875, -0.019775390625, 0.13671875, -0.787841796875
346, 1857710669, -4.5815935134887695, -1.6850767135620117, 8.348532676696777, -0.12341479957103729, -0.5899117588996887, -0.9291775822639465, -0.019287109375, 0.1376953125, -0.788330078125
347, 1857727336, -4.592639446258545, -1.6947277784347534, 8.385708808898926, -0.3346811532974243, -0.6414316892623901, -1.0134433507919312, -0.018798828125, 0.1376953125, -0.788330078125
348, 1857744003, -4.566509246826172, -1.691164255142212, 8.356111526489258, -0.1988954246044159, -0.5867485404014587, -0.9934526085853577, -0.02099609375, 0.13916015625, -0.78857421875
349, 1857760670, -4.566971778869629, -1.6943329572677612, 8.386947631835938, -0.16387006640434265, -0.6099920272827148, -0.974806547164917, -0.020751953125, 0.13720703125, -0.7890625
350, 1857777337, -4.573835372924805, -1.6852829456329346, 8.348461151123047, -0.09289725869894028, -0.5868253111839294, -0.937194287776947, -0.019775390625, 0.138671875, -0.787841796875
351, 1857794004, -4.566309452056885, -1.6938493251800537, 8.355874061584473, -0.005929339677095413, -0.7039009928703308, -0.9061772227287292, -0.019775390625, 0.134765625, -0.786865234375
352, 1857810671, -4.567615985870361, -1.6817371845245361, 8.377796173095703, 0.049310848116874695, -0.7078710198402405, -0.8358832001686096, -0.020751953125, 0.13720703125, -0.786376953125
353, 1857827338, -4.58098030090332, -1.6808083057403564, 8.352432250976562, 0.10985926538705826, -0.7114567756652832, -0.8549134731292725, -0.02197265625, 0.14013671875, -0.78857421875
354, 1857844005, -4.579582691192627, -1.6750526428222656, 8.351258277893066, 0.05468951538205147, -0.819952130317688, -0.8605867624282837, -0.02294921875, 0.13623046875, -0.787109375
355, 1857860672, -4.5722270011901855, -1.6839522123336792, 8.362383842468262, 0.13064397871494293, -0.755420982837677, -0.8597927689552307, -0.020263671875, 0.13671875, -0.787841796875
356, 1857877339, -4.571606159210205, -1.6873271465301514, 8.35783863067627, 0.17143219709396362, -0.6466438174247742, -0.8329506516456604, -0.019775390625, 0.1357421875, -0.785888671875
357, 1857894006, -4.586589336395264, -1.6706302165985107, 8.388809204101562, 0.2555570900440216, -0.4322655200958252, -0.7270675897598267, -0.0224609375, 0.1376953125, -0.787109375
358, 1857910673, -4.562200546264648, -1.663586974143982, 8.342268943786621, -0.1365925371646881, -0.44169101119041443, -0.7952743172645569, -0.020263671875, 0.13623046875, -0.785400390625
359, 1857927340, -4.593921661376953, -1.6581114530563354, 8.391246795654297, -0.287105530500412, -0.3925786316394806, -0.9439175128936768, -0.0224609375, 0.13720703125, -0.78662109375
360, 1857944007, -4.584657192230225, -1.6699894666671753, 8.371132850646973, -0.40529534220695496, -0.18291309475898743, -0.9147703647613525, -0.021728515625, 0.1376953125, -0.78662109375
361, 1857960674, -4.56431245803833, -1.684656023979187, 8.35970401763916, -0.4210343360900879, -0.3924121558666229, -1.0175542831420898, -0.021240234375, 0.13671875, -0.78759765625
362, 1857977341, -4.583713054656982, -1.6920709609985352, 8.346882820129395, -0.26470720767974854, -0.44017985463142395, -1.0262751579284668, -0.021728515625, 0.1357421875, -0.785888671875
363, 1857994008, -4.581134796142578, -1.6796904802322388, 8.394856452941895, -0.2653091251850128, -0.46344900131225586, -0.9841295480728149, -0.021728515625, 0.13720703125, -0.787109375
364, 1858010675, -4.576903820037842, -1.6839021444320679, 8.342965126037598, -0.20974241197109222, -0.5816003680229187, -1.030411720275879, -0.020751953125, 0.13720703125, -0.787353515625
365, 1858027342, -4.567809104919434, -1.6848862171173096, 8.374510765075684, -0.2499030977487564, -0.5868509411811829, -0.9878305196762085, -0.0224609375, 0.13720703125, -0.7861328125
366, 1858044009, -4.575239181518555, -1.6812905073165894, 8.370698928833008, -0.1632523089647293, -0.5174331665039062, -0.9242895841598511, -0.0224609375, 0.13671875, -0.78857421875
367, 1858060676, -4.586964130401611, -1.660153865814209, 8.358765602111816, -0.2008291631937027, -0.6649056077003479, -1.0150184631347656, -0.02197265625, 0.13818359375, -0.785400390625
368, 1858077343, -4.573411464691162, -1.687727928161621, 8.353958129882812, -0.27668118476867676, -0.5546045899391174, -1.025762915611267, -0.020751953125, 0.13671875, -0.78759765625
369, 1858094010, -4.578197002410889, -1.6869428157806396, 8.369906425476074, -0.3047783374786377, -0.5553089380264282, -0.9980243444442749, -0.019775390625, 0.1376953125, -0.784423828125
370, 1858110677, -4.572741985321045, -1.6860449314117432, 8.369850158691406, -0.25647276639938354, -0.5266482830047607, -0.9533174633979797, -0.021728515625, 0.13623046875, -0.787109375
371, 1858127344, -4.57171106338501, -1.6788678169250488, 8.368561744689941, -0.3290078938007355, -0.6002334952354431, -0.9533174633979797, -0.021484375, 0.138671875, -0.7900390625
372, 1858144011, -4.584872245788574, -1.6759016513824463, 8.361019134521484, -0.3277144730091095, -0.5133169293403625, -1.0726087093353271, -0.020751953125, 0.13623046875, -0.78857421875
373, 1858160678, -4.586280822753906, -1.6873648166656494, 8.367257118225098, -0.24761076271533966, -0.5542203187942505, -0.9326736330986023, -0.020751953125, 0.13671875, -0.787353515625
374, 1858177345, -4.592534065246582, -1.6593021154403687, 8.367009162902832, -0.30216583609580994, -0.5600985884666443, -1.0482637882232666, -0.021240234375, 0.13525390625, -0.785400390625
375, 1858194012, -4.578459739685059, -1.6882821321487427, 8.377224922180176, -0.2122652530670166, -0.5766059160232544, -1.064335823059082, -0.023193359375, 0.1357421875, -0.785888671875
376, 1858210679, -4.590813159942627, -1.6777673959732056, 8.380626678466797, -0.270841509103775, -0.6729609370231628, -0.9852437973022461, -0.019287109375, 0.13671875, -0.787841796875
377, 1858227346, -4.564465522766113, -1.683354377746582, 8.385221481323242, -0.28923141956329346, -0.5786804556846619, -1.0185017585754395, -0.02294921875, 0.13720703125, -0.7880859375
378, 1858244013, -4.57539701461792, -1.6761815547943115, 8.35918140411377, -0.2966206669807434, -0.6048694849014282, -1.0622225999832153, -0.02197265625, 0.13818359375, -0.78759765625
379, 1858260680, -4.580134391784668, -1.6782455444335938, 8.385021209716797, -0.3653011620044708, -0.7249547243118286, -1.0258910655975342, -0.021728515625, 0.1357421875, -0.786865234375
380, 1858277347, -4.575991630554199, -1.6951831579208374, 8.357281684875488, -0.36266303062438965, -0.6033583283424377, -1.0205507278442383, -0.022705078125, 0.134765625, -0.7880859375
381, 1858294014, -4.571916103363037, -1.6902618408203125, 8.387502670288086, -0.4173717796802521, -0.5997341871261597, -1.0261472463607788, -0.021240234375, 0.138671875, -0.786376953125
382, 1858310681, -4.590480327606201, -1.6807276010513306, 8.385472297668457, -0.5079254508018494, -0.7537304759025574, -1.0940207242965698, -0.022705078125, 0.13623046875, -0.786376953125
383, 1858327348, -4.577694892883301, -1.6819908618927002, 8.362865447998047, -0.4687252640724182, -0.7151449918746948, -1.0533607006072998, -0.021240234375, 0.1376953125, -0.78857421875
384, 1858344015, -4.568594455718994, -1.6744158267974854, 8.371856689453125, -0.4263617694377899, -0.5712144374847412, -1.048724889755249, -0.021240234375, 0.1376953125, -0.79052734375
385, 1858360682, -4.581518173217773, -1.6707954406738281, 8.374582290649414, -0.3954600989818573, -0.6552241444587708, -1.0772188901901245, -0.020751953125, 0.13623046875, -0.7880859375
386, 1858377349, -4.573641777038574, -1.6868622303009033, 8.379464149475098, -0.5896555781364441, -0.6481806039810181, -1.0873360633850098, -0.021240234375, 0.1337890625, -0.786376953125
387, 1858394016, -4.574220657348633, -1.6805347204208374, 8.38027286529541, -0.8386494517326355, -0.4364659786224365, -1.3122410774230957, -0.019287109375, 0.13720703125, -0.786865234375
388, 1858410683, -4.568242073059082, -1.6913520097732544, 8.369141578674316, -0.2315131574869156, -0.07764489203691483, -1.1162140369415283, -0.021728515625, 0.1376953125, -0.78759765625
389, 1858427350, -4.587689399719238, -1.6728157997131348, 8.382052421569824, -0.20479914546012878, 0.3334709405899048, -0.995924174785614, -0.021240234375, 0.1376953125, -0.786376953125
390, 1858444017, -4.602356433868408, -1.682307481765747, 8.356252670288086, -0.5093213319778442, 0.09721940755844116, -1.1238212585449219, -0.02197265625, 0.138671875, -0.78759765625
391, 1858460684, -4.591480731964111, -1.7103642225265503, 8.353056907653809, -0.7194607853889465, -0.18459074199199677, -1.1752643585205078, -0.020751953125, 0.13671875, -0.786865234375
392, 1858477351, -4.579684734344482, -1.6947880983352661, 8.352275848388672, -0.9632552862167358, -0.3713969588279724, -1.1996092796325684, -0.021240234375, 0.13720703125, -0.786865234375
393, 1858494018, -4.572350978851318, -1.7012877464294434, 8.360713005065918, -0.9671226739883423, -0.5492770671844482, -1.2527940273284912, -0.020263671875, 0.13916015625, -0.783447265625
394, 1858510685, -4.621697425842285, -1.6923282146453857, 8.377579689025879, -1.383047103881836, -0.5781553983688354, -1.4036781787872314, -0.02099609375, 0.13916015625, -0.786376953125
395, 1858527352, -4.63220739364624, -1.667028784751892, 8.431600570678711, -3.1714673042297363, -0.5738397836685181, -2.124650478363037, -0.0205078125, 0.14013671875, -0.787109375
396, 1858544019, -4.569891929626465, -1.7185430526733398, 8.330211639404297, -3.5855987071990967, -0.5372904539108276, -2.293412446975708, -0.019775390625, 0.138671875, -0.786865234375
397, 1858560686, -4.558923244476318, -1.750282645225525, 8.338088035583496, -2.650773286819458, -0.6553393006324768, -2.1598291397094727, -0.018798828125, 0.14013671875, -0.785888671875
398, 1858577353, -4.559372901916504, -1.7518051862716675, 8.308484077453613, -1.8684847354888916, -0.49105945229530334, -1.7562114000320435, -0.0224609375, 0.140625, -0.785400390625
399, 1858594020, -4.566905975341797, -1.7328011989593506, 8.36945915222168, -1.329839825630188, -0.28027093410491943, -1.498394250869751, -0.0234375, 0.140625, -0.78564453125
400, 1858610687, -4.5869598388671875, -1.7448927164077759, 8.351505279541016, -1.236504316329956, -0.6877521276473999, -1.3927288055419922, -0.0234375, 0.14208984375, -0.78662109375
401, 1858627354, -4.6316022872924805, -1.7453876733779907, 8.37770938873291, -1.9318503141403198, -0.7119945883750916, -1.7266929149627686, -0.0205078125, 0.143310546875, -0.78857421875
402, 1858644021, -4.668877601623535, -1.6886240243911743, 8.398448944091797, -3.263698101043701, -0.6217098236083984, -2.4332830905914307, -0.02294921875, 0.143798828125, -0.7861328125
403, 1858660688, -4.590054988861084, -1.73442804813385, 8.393383026123047, -4.223060607910156, -0.3559909462928772, -3.056222915649414, -0.0205078125, 0.145263671875, -0.784912109375
404, 1858677355, -4.535074234008789, -1.8188079595565796, 8.323726654052734, -3.9228923320770264, -0.5337302684783936, -2.8768954277038574, -0.0205078125, 0.142333984375, -0.783447265625
405, 1858694022, -4.560835361480713, -1.7909728288650513, 8.3432035446167, -3.2497518062591553, -0.5827016830444336, -2.540792465209961, -0.01904296875, 0.142333984375, -0.786376953125
406, 1858710689, -4.565968990325928, -1.7597600221633911, 8.302370071411133, -2.8516411781311035, -0.572853684425354, -2.268017530441284, -0.0205078125, 0.145263671875, -0.78857421875
407, 1858727356, -4.574990272521973, -1.803004264831543, 8.330060005187988, -1.9137554168701172, -0.5497637987136841, -1.9555935859680176, -0.0205078125, 0.147216796875, -0.787109375
408, 1858744023, -4.564937591552734, -1.8217895030975342, 8.294145584106445, -0.916435182094574, -0.4804941415786743, -1.5666518211364746, -0.02197265625, 0.146240234375, -0.7900390625
409, 1858760690, -4.54907751083374, -1.812124490737915, 8.316539764404297, -0.6445051431655884, -0.5941889882087708, -1.2258237600326538, -0.02099609375, 0.147705078125, -0.78662109375
410, 1858777357, -4.554108142852783, -1.7883505821228027, 8.322630882263184, -0.23431777954101562, -0.04911234974861145, -0.9225565195083618, -0.0224609375, 0.146728515625, -0.78369140625
411, 1858794024, -4.561202526092529, -1.8270914554595947, 8.310784339904785, -0.164523184299469, 0.23418334126472473, -0.6203396320343018, -0.02197265625, 0.145263671875, -0.78515625
412, 1858810691, -4.598179340362549, -1.8016855716705322, 8.343109130859375, -0.2778593897819519, -0.2700091004371643, -0.6173685193061829, -0.021484375, 0.147705078125, -0.783935546875
413, 1858827358, -4.624014377593994, -1.8300096988677979, 8.375091552734375, -0.10935341566801071, -0.41344016790390015, -0.6781089901924133, -0.02197265625, 0.146728515625, -0.78515625
414, 1858844025, -4.57551383972168, -1.806760311126709, 8.292792320251465, -0.40181204676628113, -0.7431012988090515, -1.0422062873840332, -0.021484375, 0.147216796875, -0.78515625
415, 1858860692, -4.5792388916015625, -1.8271124362945557, 8.334362983703613, -0.5249707698822021, -0.642328143119812, -1.0007907152175903, -0.01953125, 0.147705078125, -0.784912109375
416, 1858877359, -4.561832427978516, -1.8206466436386108, 8.332569122314453, -0.2723526358604431, -0.6758934855461121, -0.9265778064727783, -0.01904296875, 0.145263671875, -0.78662109375
417, 1858894026, -4.604793071746826, -1.7727622985839844, 8.33406925201416, -0.5516847968101501, -0.6148713231086731, -0.9597975015640259, -0.021484375, 0.145751953125, -0.783935546875
418, 1858910693, -4.568314552307129, -1.8252853155136108, 8.364448547363281, -0.4986920654773712, -0.6577085256576538, -1.0147366523742676, -0.02294921875, 0.147705078125, -0.78564453125
419, 1858927360, -4.594550132751465, -1.7960020303726196, 8.278635025024414, -0.43925777077674866, -0.4193823039531708, -0.9776238799095154, -0.02099609375, 0.148193359375, -0.783935546875
420, 1858944027, -4.628164291381836, -1.8040980100631714, 8.34782886505127, -0.5387631058692932, 0.36065882444381714, -1.0021352767944336, -0.0205078125, 0.146728515625, -0.7861328125
421, 1858960694, -4.627411365509033, -1.7217735052108765, 8.354222297668457, -1.0350860357284546, 1.117398977279663, -1.6144198179244995, -0.02197265625, 0.146240234375, -0.78564453125
422, 1858977361, -4.747243404388428, -1.735546588897705, 8.43627643585205, -2.107887029647827, 2.1545276641845703, -2.3350586891174316, -0.02197265625, 0.147705078125, -0.7841796875
423, 1858994028, -4.4569807052612305, -1.7509409189224243, 8.36396312713623, -2.0552659034729004, 3.5531415939331055, -2.2309815883636475, -0.01953125, 0.147705078125, -0.78564453125
424, 1859010695, -4.338924407958984, -1.8021199703216553, 8.425431251525879, -2.271475076675415, 6.607404708862305, -1.530025839805603, -0.017578125, 0.148193359375, -0.783447265625
425, 1859027362, -4.72819709777832, -1.5386250019073486, 9.078911781311035, -5.453727722167969, 11.648924827575684, -1.0485204458236694, -0.0146484375, 0.14892578125, -0.784423828125
426, 1859044029, -4.706356048583984, -1.0251487493515015, 9.321452140808105, -16.714780807495117, 18.18653678894043, -4.587167739868164, -0.01220703125, 0.1513671875, -0.784912109375
427, 1859060696, -2.861640453338623, 0.4078291654586792, 10.171245574951172, -34.20528030395508, 36.78762435913086, 0.9584676623344421, -0.004150390625, 0.157958984375, -0.78271484375
428, 1859077363, -0.6328391432762146, -0.3713614344596863, 11.754561424255371, -73.76611328125, 64.85838317871094, 26.492570877075195, 0.008544921875, 0.172607421875, -0.777099609375
429, 1859094030, -2.472141742706299, -2.5049397945404053, 11.691393852233887, -77.20646667480469, 79.672119140625, 57.136173248291016, 0.029296875, 0.18701171875, -0.770751953125
430, 1859110697, -5.113860607147217, -6.384144306182861, 14.942505836486816, -19.900110244750977, 49.912662506103516, 79.17196655273438, 0.049072265625, 0.195068359375, -0.764892578125
431, 1859127364, -0.8716389536857605, -5.682603359222412, 12.710400581359863, 36.422874450683594, 17.04059600830078, 74.99639892578125, 0.06103515625, 0.189208984375, -0.76611328125
432, 1859144031, 2.09273099899292, -4.951088905334473, 10.688615798950195, 39.77817153930664, 20.57271957397461, 65.11128234863281, 0.07421875, 0.177734375, -0.76025390625
433, 1859160698, 3.198347330093384, -5.551046371459961, 10.171257972717285, 24.33447265625, 23.755659103393555, 45.11140060424805, 0.0908203125, 0.168701171875, -0.7578125
434, 1859177365, 3.9164249897003174, -5.698174476623535, 9.41701889038086, 28.08926010131836, 25.495437622070312, 27.68511199951172, 0.10302734375, 0.159912109375, -0.75146484375
435, 1859194032, 2.3469655513763428, -4.392765045166016, 11.702194213867188, 19.19733238220215, 19.80023193359375, 10.50175666809082, 0.1181640625, 0.150390625, -0.74609375
436, 1859210699, 0.4899734854698181, -4.292135715484619, 13.473428726196289, -14.89282512664795, -16.177934646606445, -17.660619735717773, 0.12744140625, 0.1484375, -0.739990234375
437, 1859227366, 0.6224249601364136, -4.740396022796631, 11.95022201538086, -23.03368377685547, -55.900516510009766, -38.04802703857422, 0.125, 0.154541015625, -0.739990234375
438, 1859244033, 0.3666978180408478, -3.5293214321136475, 10.881864547729492, -20.07325553894043, -78.27992248535156, -49.49272537231445, 0.121337890625, 0.158447265625, -0.739501953125
439, 1859260700, -0.6478759050369263, -3.139625072479248, 10.576483726501465, -24.201126098632812, -93.31359100341797, -55.700767517089844, 0.1162109375, 0.166015625, -0.73876953125
440, 1859277367, -1.3905277252197266, -3.1493022441864014, 10.280810356140137, -19.68390655517578, -104.1261215209961, -54.70694351196289, 0.105224609375, 0.1708984375, -0.741943359375
441, 1859294034, -3.1608669757843018, -2.9857935905456543, 11.466120719909668, -18.906702041625977, -115.71104431152344, -52.24857711791992, 0.09375, 0.182861328125, -0.748291015625
442, 1859310701, -5.001155853271484, -3.5538063049316406, 12.613483428955078, -26.91941261291504, -137.34219360351562, -56.07442855834961, 0.073486328125, 0.199951171875, -0.75830078125
443, 1859327368, -5.346069812774658, -3.840625524520874, 11.645672798156738, -25.38381576538086, -161.42124938964844, -60.88569259643555, 0.046875, 0.21630859375, -0.7705078125
444, 1859344035, -4.825957298278809, -2.7917754650115967, 9.829082489013672, -21.94599151611328, -166.04466247558594, -61.581687927246094, 0.007080078125, 0.2314453125, -0.783203125
445, 1859360702, -5.211140155792236, -2.436183452606201, 9.285859107971191, -24.121957778930664, -155.3101348876953, -58.432373046875, -0.032958984375, 0.247314453125, -0.78662109375
446, 1859377369, -6.121016979217529, -2.7898969650268555, 9.430659294128418, -23.12710952758789, -143.1358184814453, -54.150672912597656, -0.075927734375, 0.258056640625, -0.7919921875
447, 1859394036, -7.330021858215332, -2.8114547729492188, 9.84704875946045, -21.90853500366211, -138.48690795898438, -53.429115295410156, -0.115966796875, 0.26611328125, -0.79443359375
448, 1859410703, -7.205777645111084, -1.7220484018325806, 8.723916053771973, -25.49312400817871, -136.00869750976562, -52.527381896972656, -0.157958984375, 0.2734375, -0.790771484375
449, 1859427370, -6.527408599853516, -0.7073872685432434, 7.4679951667785645, -32.410884857177734, -123.45162963867188, -44.458770751953125, -0.197998046875, 0.279541015625, -0.78466796875
450, 1859444037, -6.725036144256592, -0.1626031994819641, 6.887699127197266, -37.43749237060547, -108.85252380371094, -30.058589935302734, -0.230712890625, 0.287841796875, -0.775634765625
451, 1859460704, -6.295855522155762, 0.11365725100040436, 5.527627468109131, -36.247718811035156, -93.54522705078125, -10.068442344665527, -0.257568359375, 0.296630859375, -0.765380859375
452, 1859477371, -5.59343147277832, -0.15064184367656708, 5.195528507232666, -28.99506187438965, -72.879638671875, 11.517267227172852, -0.278076171875, 0.30029296875, -0.756591796875
453, 1859494038, -5.894874572753906, -0.7463663816452026, 5.959543228149414, -24.619705200195312, -60.25926971435547, 25.087289810180664, -0.291748046875, 0.309814453125, -0.74951171875
454, 1859510705, -4.916407585144043, -1.379307508468628, 4.796642780303955, -24.751184463500977, -47.69083786010742, 29.561307907104492, -0.301025390625, 0.318359375, -0.7392578125
455, 1859527372, -4.999013900756836, -1.9260255098342896, 4.5059919357299805, -18.18719482421875, -26.961654663085938, 31.034852981567383, -0.307373046875, 0.32421875, -0.73681640625
456, 1859544039, -5.994197845458984, -2.0637753009796143, 5.026871204376221, -11.718643188476562, -11.061149597167969, 25.799724578857422, -0.3095703125, 0.330322265625, -0.73388671875
457, 1859560706, -6.218317985534668, -1.9979780912399292, 4.279934406280518, -6.408893585205078, 4.244471073150635, 16.18568992614746, -0.30712890625, 0.332763671875, -0.73291015625
458, 1859577373, -6.479252815246582, -2.0530500411987305, 3.62214732170105, 6.579289436340332, 27.2733154296875, 10.429377555847168, -0.3037109375, 0.331787109375, -0.7353515625
459, 1859594040, -7.294381141662598, -1.7070527076721191, 4.206510543823242, 17.81353187561035, 49.54534912109375, 4.92542839050293, -0.296630859375, 0.331787109375, -0.73974609375
460, 1859610707, -2.70442795753479, -3.4553067684173584, 4.090176105499268, 61.01028823852539, 70.6678237915039, 23.03474235534668, -0.280029296875, 0.321533203125, -0.75
461, 1859627374, 1.8241254091262817, -3.2853899002075195, 12.309310913085938, 70.1666488647461, 74.41168975830078, 48.36972427368164, -0.25830078125, 0.30810546875, -0.762451171875
462, 1859644041, 2.1728503704071045, -8.758241653442383, 10.672752380371094, 16.851152420043945, 113.49143981933594, 21.76267433166504, -0.232421875, 0.304443359375, -0.77392578125
463, 1859660708, -2.563105583190918, -3.7289302349090576, 6.693903923034668, 25.726882934570312, 134.36627197265625, 3.224128007888794, -0.204345703125, 0.300048828125, -0.7822265625
464, 1859677375, -3.8441271781921387, 4.364029884338379, 12.408012390136719, 6.615959167480469, 143.41195678710938, 15.424877166748047, -0.169921875, 0.2958984375, -0.792724609375
465, 1859694042, -5.361455917358398, 2.68703293800354, 12.808401107788086, -18.693883895874023, 127.33819580078125, 35.01264953613281, -0.138671875, 0.30126953125, -0.797119140625
466, 1859710709, -6.520691394805908, -3.973175287246704, 11.21576976776123, -34.37449645996094, 120.3766098022461, 24.73604393005371, -0.107666015625, 0.31005859375, -0.800048828125
467, 1859727376, -5.380390167236328, -5.430771350860596, 9.13768482208252, -33.595375061035156, 117.21573638916016, 9.249227523803711, -0.07861328125, 0.32080078125, -0.800537109375
468, 1859744043, -3.92153263092041, -3.9397692680358887, 8.426637649536133, -38.0258903503418, 120.72306060791016, 3.424861192703247, -0.0517578125, 0.328125, -0.800048828125
469, 1859760710, -5.071835994720459, -2.352750301361084, 9.405458450317383, -45.58959197998047, 121.6389389038086, 2.0668692588806152, -0.0205078125, 0.3369140625, -0.79443359375
470, 1859777377, -6.383683204650879, -3.5234858989715576, 9.967963218688965, -30.688600540161133, 97.98574829101562, 12.12072467803955, 0.00341796875, 0.34228515625, -0.79443359375
471, 1859794044, -8.428133010864258, -8.010168075561523, 8.911055564880371, 18.881092071533203, 64.12371826171875, 28.235252380371094, 0.0205078125, 0.34375, -0.794677734375
472, 1859810711, -5.245631694793701, -1.665921926498413, 9.413106918334961, 40.44439697265625, 42.29334259033203, 30.618959426879883, 0.036376953125, 0.33349609375, -0.79736328125
473, 1859827378, -4.729787349700928, -3.063291072845459, 8.731496810913086, 34.42302703857422, 34.253944396972656, 27.384815216064453, 0.048583984375, 0.323486328125, -0.801025390625
474, 1859844045, -4.372898101806641, -2.5358855724334717, 8.414109230041504, 37.21719741821289, 26.26030731201172, 27.992177963256836, 0.058349609375, 0.31494140625, -0.80517578125
475, 1859860712, -4.678318023681641, -2.76043701171875, 8.513662338256836, 37.416744232177734, 22.257770538330078, 25.695537567138672, 0.06689453125, 0.304931640625, -0.80859375
476, 1859877379, -4.9135212898254395, -2.0970606803894043, 8.747352600097656, 34.392189025878906, 14.55245590209961, 22.413982391357422, 0.072998046875, 0.298095703125, -0.810791015625
477, 1859894046, -5.358340263366699, -3.3079028129577637, 8.57204818725586, 27.201608657836914, 15.235180854797363, 13.141140937805176, 0.07666015625, 0.28759765625, -0.813232421875
478, 1859910713, -4.85028600692749, -1.1323223114013672, 9.109007835388184, 20.506563186645508, 10.586512565612793, 6.205297946929932, 0.08251953125, 0.28466796875, -0.814453125
479, 1859927380, -4.591972827911377, -2.2470409870147705, 8.412060737609863, 15.800859451293945, 9.759289741516113, 3.8972654342651367, 0.083251953125, 0.281982421875, -0.816650390625
480, 1859944047, -4.179562568664551, -2.0596842765808105, 8.307796478271484, 13.394475936889648, 9.551324844360352, 3.6579513549804688, 0.086181640625, 0.279052734375, -0.819091796875
481, 1859960714, -3.793431282043457, -3.0151939392089844, 8.115721702575684, 9.583122253417969, 14.171897888183594, 3.2145185470581055, 0.08984375, 0.273681640625, -0.81884765625
482, 1859977381, -5.114047527313232, -2.8496291637420654, 8.236352920532227, 9.36633586883545, 11.20315170288086, 3.604241371154785, 0.09423828125, 0.27001953125, -0.8193359375
483, 1859994048, -5.279074668884277, -2.3246490955352783, 8.366458892822266, 6.798425674438477, 6.626923084259033, 2.4936211109161377, 0.096923828125, 0.2705078125, -0.819580078125
484, 1860010715, -5.152069091796875, -2.2164082527160645, 8.47842025756836, -0.10864908248186111, 5.67996883392334, 0.25058823823928833, 0.099365234375, 0.269775390625, -0.820068359375
485, 1860027382, -5.083431243896484, -2.1591827869415283, 8.2378511428833, -3.505995035171509, 5.6855788230896, -1.6646080017089844, 0.098876953125, 0.270263671875, -0.821044921875
486, 1860044049, -4.572906970977783, -2.398937225341797, 8.115399360656738, -3.987116575241089, 5.273521423339844, -1.893112063407898, 0.100341796875, 0.273681640625, -0.819091796875
487, 1860060716, -4.640500068664551, -2.502007246017456, 8.050192832946777, -1.4463746547698975, 3.9152276515960693, 0.1914869248867035, 0.102294921875, 0.270751953125, -0.820556640625
488, 1860077383, -4.868765830993652, -2.333832263946533, 8.020837783813477, 1.0120282173156738, 1.8669030666351318, 2.34765362739563, 0.104248046875, 0.269287109375, -0.817626953125
489, 1860094050, -4.932090759277344, -2.3293344974517822, 7.981182098388672, 3.722531318664551, 0.5043717622756958, 3.852938413619995, 0.103271484375, 0.270751953125, -0.818115234375
490, 1860110717, -4.834526062011719, -2.2579030990600586, 7.993847370147705, 6.126923084259033, -0.5687300562858582, 4.7534942626953125, 0.102783203125, 0.269287109375, -0.819091796875
491, 1860127384, -4.638214588165283, -2.3782732486724854, 8.045299530029297, 9.089176177978516, -1.9024224281311035, 6.750799655914307, 0.1044921875, 0.26611328125, -0.822998046875
492, 1860144051, -4.725045680999756, -2.367738723754883, 8.109060287475586, 12.45893669128418, -2.2974865436553955, 8.593681335449219, 0.10546875, 0.26416015625, -0.821044921875
493, 1860160718, -4.664546489715576, -2.205817461013794, 8.218220710754395, 12.733908653259277, -0.04894591122865677, 8.596454620361328, 0.10546875, 0.258056640625, -0.824462890625
494, 1860177385, -4.732598781585693, -2.1337127685546875, 8.135025978088379, 13.569368362426758, 1.2819103002548218, 8.861712455749512, 0.10791015625, 0.256103515625, -0.822998046875
495, 1860194052, -4.764146327972412, -2.150252342224121, 8.229443550109863, 14.532475471496582, 2.8507537841796875, 10.197969436645508, 0.106689453125, 0.252685546875, -0.825439453125
496, 1860210719, -4.48452091217041, -2.1294779777526855, 8.160456657409668, 12.530391693115234, 6.894837379455566, 10.820103645324707, 0.112548828125, 0.250732421875, -0.8251953125
497, 1860227386, -4.578422546386719, -2.2903549671173096, 8.168070793151855, 14.304871559143066, 13.685580253601074, 15.376060485839844, 0.11572265625, 0.2470703125, -0.8271484375
498, 1860244053, -4.924880504608154, -2.0149405002593994, 8.207900047302246, 10.642152786254883, 21.50628662109375, 16.62356948852539, 0.12060546875, 0.2421875, -0.825439453125
499, 1860260720, -4.222019195556641, -1.8748618364334106, 8.39168643951416, 7.587913513183594, 35.30799865722656, 15.931218147277832, 0.129638671875, 0.23876953125, -0.826904296875
500, 1860277387, -4.527894020080566, -1.4459048509597778, 8.419781684875488, -4.774811744689941, 64.15023803710938, 17.368610382080078, 0.143798828125, 0.23828125, -0.822021484375
501, 1860294054, -4.701737880706787, -1.410292148590088, 8.386143684387207, -12.686872482299805, 92.9923095703125, 14.93520736694336, 0.16552734375, 0.238037109375, -0.820556640625
502, 1860310721, -5.167314052581787, -1.3375965356826782, 8.13129997253418, -15.993059158325195, 123.05767822265625, 10.159992218017578, 0.189453125, 0.244384765625, -0.8115234375
503, 1860327388, -5.385149002075195, -1.488011360168457, 8.065752983093262, -18.232643127441406, 150.8700714111328, 4.96380615234375, 0.227294921875, 0.248046875, -0.80322265625
504, 1860344055, -5.467947006225586, -1.8505921363830566, 8.001704216003418, -18.233308792114258, 180.4298553466797, 2.0417673587799072, 0.26611328125, 0.2509765625, -0.78662109375
505, 1860360722, -4.940540790557861, -2.2069473266601562, 8.022417068481445, -14.87609577178955, 219.1007843017578, 8.718350410461426, 0.3115234375, 0.251708984375, -0.7685546875
506, 1860377389, -5.279207706451416, -2.4487810134887695, 8.034692764282227, -9.562936782836914, 263.2551574707031, 23.18160057067871, 0.368896484375, 0.251708984375, -0.7421875
507, 1860394056, -5.740650653839111, -2.4554460048675537, 7.6168131828308105, -2.518160343170166, 321.63665771484375, 38.691104888916016, 0.436279296875, 0.246826171875, -0.707275390625
508, 1860410723, -6.477439880371094, -2.550450325012207, 7.6411213874816895, 7.047096252441406, 395.5352478027344, 57.45665740966797, 0.512939453125, 0.24072265625, -0.64990234375
509, 1860427390, -10.288178443908691, -2.684009313583374, 9.860560417175293, 4.451894760131836, 451.95758056640625, 80.78911590576172, 0.595947265625, 0.22509765625, -0.579345703125
510, 1860444057, -17.209402084350586, -1.9281020164489746, 10.774328231811523, -17.65762710571289, 452.936767578125, 91.43112182617188, 0.672119140625, 0.20849609375, -0.494873046875
511, 1860460724, -17.238967895507812, -4.962152004241943, 9.683866500854492, -22.02829933166504, 422.4159240722656, 94.22891235351562, 0.732177734375, 0.18994140625, -0.40380859375
512, 1860477391, -13.96049690246582, -5.674272060394287, 9.893440246582031, -1.9074054956436157, 395.7613220214844, 114.92606353759766, 0.77587890625, 0.163818359375, -0.31396484375
513, 1860494058, -10.270552635192871, -5.07941198348999, 11.95284366607666, 21.662273406982422, 363.5285339355469, 128.65997314453125, 0.8076171875, 0.13232421875, -0.22265625
514, 1860510725, -4.924780368804932, -4.029504299163818, 14.953585624694824, -5.406993389129639, 279.9269714355469, 101.18478393554688, 0.822509765625, 0.1044921875, -0.1494140625
515, 1860527392, -26.42704963684082, -4.468110084533691, 23.272680282592773, -55.26329040527344, 126.43323516845703, 83.52313995361328, 0.827880859375, 0.080322265625, -0.1025390625
516, 1860544059, -13.479924201965332, -9.022273063659668, 21.883358001708984, -78.05070495605469, -107.32405090332031, -29.9553279876709, 0.81689453125, 0.082275390625, -0.106201171875
517, 1860560726, -1.3426131010055542, -7.766303062438965, 9.671929359436035, 1.1907345056533813, -208.1034393310547, -31.29857063293457, 0.8037109375, 0.086669921875, -0.13671875
518, 1860577393, -0.3411804139614105, -4.042880058288574, 5.659791469573975, 66.86307525634766, -200.96453857421875, 0.7867608070373535, 0.79736328125, 0.080078125, -0.164794921875
519, 1860594060, -2.4318950176239014, -2.5958259105682373, 7.717239856719971, 87.96997833251953, -202.7198486328125, 4.47142219543457, 0.801513671875, 0.069091796875, -0.186767578125
520, 1860610727, -5.315091133117676, -2.4076502323150635, 9.064605712890625, 69.6832046508789, -250.6097869873047, -11.459336280822754, 0.822998046875, 0.0654296875, -0.22900390625
521, 1860627394, -5.370697021484375, -1.7749216556549072, 7.314210414886475, 46.1353874206543, -298.60528564453125, -23.63052749633789, 0.8447265625, 0.06591796875, -0.30224609375
522, 1860644061, -5.590466022491455, -1.4969826936721802, 5.991142272949219, 24.82056999206543, -320.5121765136719, -15.849639892578125, 0.852783203125, 0.065673828125, -0.41552734375
523, 1860660728, -7.116572380065918, -2.3306591510772705, 6.379840850830078, 5.716130256652832, -332.1705017089844, -9.65204906463623, 0.8134765625, 0.067626953125, -0.553955078125
524, 1860677395, -8.0383882522583, -2.993514060974121, 6.682422637939453, -8.482924461364746, -343.48968505859375, -22.41562843322754, 0.71923828125, 0.06396484375, -0.666015625
525, 1860694062, -8.79520320892334, -3.2062902450561523, 6.767594337463379, -19.664432525634766, -348.6369323730469, -41.173988342285156, 0.609619140625, 0.067138671875, -0.74365234375
526, 1860710729, -10.447537422180176, -2.915651798248291, 7.68796443939209, -41.748722076416016, -346.9665222167969, -59.992618560791016, 0.509033203125, 0.08544921875, -0.77783203125
527, 1860727396, -11.295019149780273, -2.9557173252105713, 7.3784942626953125, -62.134586334228516, -342.0110168457031, -79.40895080566406, 0.434814453125, 0.12109375, -0.79931640625
528, 1860744063, -10.962727546691895, -2.039731025695801, 6.9340105056762695, -65.3941879272461, -315.9328308105469, -85.47647094726562, 0.38232421875, 0.157958984375, -0.834228515625
529, 1860760730, -12.179899215698242, 0.29071223735809326, 9.311144828796387, -73.94271850585938, -279.17144775390625, -75.46284484863281, 0.31103515625, 0.1962890625, -0.883056640625
530, 1860777397, -15.830302238464355, 0.8690940141677856, 14.428939819335938, -103.90614318847656, -279.33599853515625, -63.9613151550293, 0.212646484375, 0.23779296875, -0.91943359375
531, 1860794064, -16.76091766357422, 0.02520313858985901, 14.682780265808105, -111.01021575927734, -313.74932861328125, -52.8823356628418, 0.09130859375, 0.27685546875, -0.918212890625
532, 1860810731, -17.07720184326172, 0.36943960189819336, 11.579202651977539, -88.90365600585938, -325.41485595703125, -41.59524917602539, -0.02783203125, 0.29833984375, -0.88818359375
533, 1860827398, -18.699542999267578, 0.5239519476890564, 9.985940933227539, -79.40477752685547, -308.9655456542969, -45.81386947631836, -0.1181640625, 0.3095703125, -0.851318359375
534, 1860844065, -19.83586883544922, -0.7638188004493713, 6.808902740478516, -67.83058166503906, -285.9362487792969, -53.15909194946289, -0.191650390625, 0.3203125, -0.8154296875
535, 1860860732, -19.61516571044922, -0.43246352672576904, 2.4623866081237793, -51.8232421875, -249.81739807128906, -55.94431686401367, -0.254150390625, 0.322265625, -0.782470703125
536, 1860877399, -18.623153686523438, 2.0175070762634277, -1.5735251903533936, -55.34058380126953, -191.6703643798828, -68.77742004394531, -0.301513671875, 0.32373046875, -0.75390625
537, 1860894066, -19.75482940673828, 4.461982727050781, -4.428091049194336, -60.32954025268555, -122.10834503173828, -81.24308013916016, -0.33349609375, 0.325927734375, -0.732421875
538, 1860910733, -20.794836044311523, 4.194255352020264, -7.384476184844971, -26.31753921508789, -61.6531867980957, -73.92697143554688, -0.35498046875, 0.32373046875, -0.716796875
539, 1860927400, -20.431396484375, 5.333864212036133, -7.075173377990723, 12.50893783569336, 3.777489423751831, -56.848670959472656, -0.36474609375, 0.314208984375, -0.71142578125
540, 1860944067, -14.239920616149902, 2.6821482181549072, -6.019097805023193, 53.462669372558594, 80.08595275878906, -13.211675643920898, -0.3544921875, 0.302734375, -0.718505859375
541, 1860960734, 4.203036785125732, -3.4245219230651855, 16.90504264831543, 52.284156799316406, 124.90062713623047, 33.21996307373047, -0.328857421875, 0.288818359375, -0.732666015625
542, 1860977401, 2.8742220401763916, -11.975326538085938, 8.504923820495605, 15.379693984985352, 186.28306579589844, 10.480774879455566, -0.29248046875, 0.281494140625, -0.743896484375
543, 1860994068, -8.899465560913086, 6.36792516708374, 10.517711639404297, 13.190496444702148, 217.06707763671875, 18.954320907592773, -0.242919921875, 0.280517578125, -0.7578125
544, 1861010735, -7.910216331481934, 8.812152862548828, 17.159177780151367, -0.7127547264099121, 185.8334197998047, 54.281158447265625, -0.196533203125, 0.282470703125, -0.76904296875
545, 1861027402, -6.784000396728516, -4.889402866363525, 9.450199127197266, -9.154696464538574, 151.74871826171875, 55.91205978393555, -0.16015625, 0.284423828125, -0.773193359375
546, 1861044069, -7.295324802398682, -9.542680740356445, 8.096985816955566, -5.836732387542725, 155.025146484375, 34.53470230102539, -0.121826171875, 0.289306640625, -0.7734375
547, 1861060736, -5.505198001861572, -2.1154110431671143, 7.941335201263428, -4.698503494262695, 158.27906799316406, 29.55388832092285, -0.0849609375, 0.28759765625, -0.77880859375
548, 1861077403, -11.376531600952148, -2.812059164047241, 13.467787742614746, -7.4258832931518555, 143.01141357421875, 16.45114517211914, -0.051025390625, 0.289306640625, -0.776611328125
549, 1861094070, -8.266806602478027, -3.766441583633423, 10.336530685424805, 31.12738609313965, 77.15876007080078, 19.316423416137695, -0.027587890625, 0.282470703125, -0.778076171875
550, 1861110737, -6.299759864807129, -1.454110860824585, 10.53909683227539, 23.0618839263916, 45.7498893737793, 6.6945624351501465, -0.015869140625, 0.275634765625, -0.78173828125
551, 1861127404, -6.7159576416015625, -2.8540284633636475, 9.630026817321777, 14.732219696044922, 21.003618240356445, 2.1618380546569824, -0.009521484375, 0.273193359375, -0.78271484375
552, 1861144071, -4.652130126953125, -2.0815632343292236, 8.913408279418945, 12.294062614440918, 10.861709594726562, 2.133226156234741, -0.00634765625, 0.270263671875, -0.783203125
553, 1861160738, -5.169996738433838, -2.4464590549468994, 8.59587287902832, 2.929408550262451, 9.530508041381836, -1.4750359058380127, -0.00537109375, 0.267578125, -0.78369140625
554, 1861177405, -4.990799427032471, -2.3611385822296143, 8.54444408416748, -5.436349391937256, 9.712410926818848, -4.918179035186768, -9.765625E-4, 0.267578125, -0.782470703125
555, 1861194072, -4.658571720123291, -2.4874892234802246, 8.309184074401855, -8.691280364990234, 10.377166748046875, -6.814737796783447, -9.765625E-4, 0.270263671875, -0.781005859375
556, 1861210739, -4.875974178314209, -2.5648155212402344, 8.220086097717285, -11.417487144470215, 11.912115097045898, -8.445720672607422, 4.8828125E-4, 0.272705078125, -0.781982421875
557, 1861227406, -4.945480823516846, -2.6243016719818115, 8.12828540802002, -12.604430198669434, 9.548736572265625, -7.723849296569824, 0.00244140625, 0.2763671875, -0.781982421875
558, 1861244073, -4.981147289276123, -2.779414176940918, 7.9691033363342285, -10.694719314575195, 7.4791765213012695, -6.950486183166504, 0.00732421875, 0.279296875, -0.77880859375
559, 1861260740, -4.92875337600708, -2.7755558490753174, 7.936813831329346, -7.977501392364502, 4.6080403327941895, -5.432430744171143, 0.00634765625, 0.2802734375, -0.779052734375
560, 1861277407, -4.800227642059326, -2.8519768714904785, 7.75509786605835, -5.439486026763916, 2.5092833042144775, -3.681314468383789, 0.00537109375, 0.2802734375, -0.77734375
561, 1861294074, -4.600404262542725, -3.0297305583953857, 7.622782230377197, 0.041345298290252686, -0.04441242292523384, 0.8220587968826294, 0.00732421875, 0.27978515625, -0.7783203125
562, 1861310741, -4.536844730377197, -3.0775346755981445, 7.4690260887146, 8.342540740966797, -4.24711275100708, 8.157450675964355, 0.0068359375, 0.28125, -0.77783203125
563, 1861327408, -4.464796543121338, -2.9939584732055664, 7.284084796905518, 19.881465911865234, -8.35049057006836, 15.63061809539795, 0.0078125, 0.27783203125, -0.779296875
564, 1861344075, -4.711416244506836, -2.7880430221557617, 7.6158342361450195, 31.461036682128906, -5.978572368621826, 20.266094207763672, 0.003662109375, 0.270263671875, -0.781005859375
565, 1861360742, -4.655709266662598, -2.461348056793213, 8.16325855255127, 31.3332576751709, -3.3347504138946533, 18.65188980102539, 0.008544921875, 0.26513671875, -0.783203125
566, 1861377409, -4.825376033782959, -2.163712739944458, 8.351886749267578, 24.831092834472656, -0.27733510732650757, 15.683080673217773, 0.0078125, 0.254150390625, -0.78466796875
567, 1861394076, -4.795149803161621, -2.380220890045166, 8.273923873901367, 14.946470260620117, 1.4024261236190796, 12.497617721557617, 0.0087890625, 0.249755859375, -0.7861328125
568, 1861410743, -4.5985493659973145, -2.487119197845459, 8.02247428894043, 15.413201332092285, -3.4393556118011475, 14.34361457824707, 0.0078125, 0.2490234375, -0.789306640625
569, 1861427410, -4.530906677246094, -2.5090978145599365, 7.944103240966797, 23.964847564697266, -9.850872993469238, 20.690662384033203, 0.0068359375, 0.24462890625, -0.788818359375
570, 1861444077, -4.800905227661133, -2.621763229370117, 8.207052230834961, 34.60183334350586, -20.63153839111328, 29.533775329589844, 0.008056640625, 0.235107421875, -0.7890625
571, 1861460744, -5.100453853607178, -1.7139005661010742, 8.463164329528809, 30.431621551513672, -15.197888374328613, 28.37439727783203, 0.006591796875, 0.2275390625, -0.79248046875
572, 1861477411, -4.615065097808838, -1.3722748756408691, 8.564730644226074, 14.87264347076416, 2.933422803878784, 20.39948081970215, 0.00634765625, 0.222900390625, -0.79345703125
573, 1861494078, -4.741609573364258, -1.3448630571365356, 8.470584869384766, 6.719974040985107, 20.083786010742188, 12.527127265930176, 0.00927734375, 0.219482421875, -0.794921875
574, 1861510745, -4.488195419311523, -1.5915186405181885, 8.446348190307617, 2.479775905609131, 35.634307861328125, 9.756277084350586, 0.019287109375, 0.2216796875, -0.794921875
575, 1861527412, -4.38276481628418, -1.582221269607544, 8.485675811767578, -7.307693004608154, 59.534114837646484, 10.896687507629395, 0.0283203125, 0.21875, -0.793701171875
576, 1861544079, -4.582348823547363, -1.5054090023040771, 8.444774627685547, -10.355709075927734, 83.88202667236328, 11.561541557312012, 0.047119140625, 0.220703125, -0.791259765625
577, 1861560746, -4.787065505981445, -1.5369064807891846, 8.267770767211914, -14.911506652832031, 114.30178833007812, 10.133674621582031, 0.073974609375, 0.224609375, -0.78662109375
578, 1861577413, -5.186127185821533, -1.4712109565734863, 8.176899909973145, -17.88408851623535, 143.8116455078125, 8.159318923950195, 0.10546875, 0.227783203125, -0.781005859375
579, 1861594080, -5.463049411773682, -1.5228791236877441, 8.096076965332031, -16.612653732299805, 171.63365173339844, 5.075771808624268, 0.142333984375, 0.231201171875, -0.77587890625
580, 1861610747, -5.137514591217041, -1.753832459449768, 8.157230377197266, -13.028605461120605, 204.84237670898438, 5.143928527832031, 0.18603515625, 0.232666015625, -0.765869140625
581, 1861627414, -5.36650276184082, -1.8300601243972778, 8.036582946777344, -7.111785888671875, 242.7735595703125, 12.33180046081543, 0.2353515625, 0.23388671875, -0.746826171875
582, 1861644081, -5.6755290031433105, -1.89531672000885, 7.410658359527588, -3.8475916385650635, 290.8260803222656, 20.264368057250977, 0.2978515625, 0.2353515625, -0.722412109375
583, 1861660748, -6.49365758895874, -2.550088405609131, 6.736205577850342, 1.657311201095581, 357.14959716796875, 34.72257614135742, 0.36767578125, 0.22900390625, -0.6865234375
584, 1861677415, -7.504746437072754, -3.3650224208831787, 9.049097061157227, 10.691298484802246, 418.04302978515625, 62.45951843261719, 0.448974609375, 0.220458984375, -0.63720703125
585, 1861694082, -13.351821899414062, -3.1936864852905273, 9.491104125976562, 7.168508052825928, 437.7635192871094, 93.7681655883789, 0.530517578125, 0.2041015625, -0.571044921875
586, 1861710749, -17.644916534423828, -2.8563590049743652, 10.233657836914062, -10.653827667236328, 420.8580017089844, 97.58776092529297, 0.60498046875, 0.1875, -0.49609375
587, 1861727416, -16.46289825439453, -5.215184688568115, 9.922839164733887, -1.203134536743164, 396.9659729003906, 111.12847900390625, 0.6650390625, 0.169189453125, -0.41796875
588, 1861744083, -13.998183250427246, -5.3628740310668945, 10.735067367553711, 19.325767517089844, 370.597900390625, 127.83448028564453, 0.71533203125, 0.13818359375, -0.339111328125
589, 1861760750, -8.25373649597168, -4.244775772094727, 13.103324890136719, 17.48215675354004, 320.1847229003906, 110.86046600341797, 0.747314453125, 0.106689453125, -0.26025390625
590, 1861777417, -14.328296661376953, -3.944708824157715, 16.962343215942383, -36.49164962768555, 195.9339141845703, 91.01435852050781, 0.76904296875, 0.086181640625, -0.203125
591, 1861794084, -23.441967010498047, -4.8704423904418945, 26.90155029296875, -73.31871795654297, 20.733827590942383, 43.01304626464844, 0.775634765625, 0.071044921875, -0.18017578125
592, 1861810751, -6.191288948059082, -9.185432434082031, 15.103596687316895, -48.10572052001953, -169.1121826171875, -18.442136764526367, 0.76708984375, 0.0703125, -0.200927734375
593, 1861827418, -0.48503440618515015, -5.526852607727051, 7.397701263427734, 23.401792526245117, -200.50204467773438, 9.46750259399414, 0.7568359375, 0.0625, -0.23681640625
594, 1861844085, -1.3226616382598877, -3.019617795944214, 6.41624116897583, 67.38522338867188, -185.74285888671875, 23.467138290405273, 0.74560546875, 0.045166015625, -0.26904296875
595, 1861860752, -3.127599000930786, -2.952277898788452, 8.6093111038208, 71.77095031738281, -206.8549346923828, 9.031805038452148, 0.737060546875, 0.029541015625, -0.30224609375
596, 1861877419, -4.988353252410889, -2.731208086013794, 9.347639083862305, 54.05663299560547, -254.07322692871094, -18.1114444732666, 0.733642578125, 0.019775390625, -0.347412109375
597, 1861894086, -5.337846755981445, -2.706167697906494, 8.10958480834961, 30.570537567138672, -298.3340148925781, -46.84735870361328, 0.72314453125, 0.025146484375, -0.415771484375
598, 1861910753, -5.671255111694336, -2.3543543815612793, 6.3399529457092285, 21.902050018310547, -328.00634765625, -60.89923858642578, 0.694580078125, 0.040283203125, -0.498779296875
599, 1861927420, -6.540318012237549, -2.4645049571990967, 6.449469089508057, 22.523406982421875, -340.0382080078125, -58.3267707824707, 0.633544921875, 0.055908203125, -0.592529296875
600, 1861944087, -7.305706024169922, -1.4943509101867676, 7.481799125671387, 17.43273162841797, -348.539794921875, -56.43781661987305, 0.53857421875, 0.072509765625, -0.664794921875
601, 1861960754, -8.275101661682129, -0.6068880558013916, 8.726425170898438, -10.80344009399414, -362.55609130859375, -56.82023620605469, 0.420654296875, 0.08251953125, -0.702392578125
602, 1861977421, -9.1860990524292, -0.2229902744293213, 8.412952423095703, -54.51815414428711, -372.3885192871094, -56.81360626220703, 0.305419921875, 0.087158203125, -0.703369140625
603, 1861994088, -10.161282539367676, 0.42374831438064575, 6.438530445098877, -98.18235778808594, -342.8690185546875, -56.087032318115234, 0.2265625, 0.087890625, -0.681640625
604, 1862010755, -11.899534225463867, -0.6472890973091125, 6.642991542816162, -113.65393829345703, -291.3065185546875, -57.74288558959961, 0.176025390625, 0.080810546875, -0.653564453125
605, 1862027422, -14.583471298217773, -2.6817128658294678, 11.25474739074707, -99.86772155761719, -264.2512512207031, -53.65996170043945, 0.168701171875, 0.06201171875, -0.619384765625
606, 1862044089, -16.52754020690918, -1.8738747835159302, 13.430777549743652, -93.09369659423828, -279.0491638183594, -53.0657844543457, 0.2158203125, 0.0498046875, -0.61181640625
607, 1862060756, -15.963360786437988, -0.9021466970443726, 11.965063095092773, -97.59567260742188, -289.80120849609375, -49.28341293334961, 0.284912109375, 0.066162109375, -0.676025390625
608, 1862077423, -18.77562141418457, -1.1498703956604004, 12.396943092346191, -107.41044616699219, -290.3083801269531, -48.231666564941406, 0.297607421875, 0.1240234375, -0.79638671875
609, 1862094090, -20.530153274536133, -1.6243716478347778, 10.032495498657227, -107.55326843261719, -298.7190856933594, -54.795684814453125, 0.22705078125, 0.208984375, -0.906005859375
610, 1862110757, -19.091590881347656, -0.7666831612586975, 4.492584228515625, -84.90251922607422, -276.8258361816406, -50.188785552978516, 0.10009765625, 0.283447265625, -0.955322265625
611, 1862127424, -20.214128494262695, 0.07494044303894043, 1.120398759841919, -71.92361450195312, -225.86375427246094, -52.95167922973633, -0.015380859375, 0.3388671875, -0.95849609375
612, 1862144091, -20.51936912536621, 1.185029149055481, -1.8773670196533203, -59.554447174072266, -173.7362060546875, -73.4651107788086, -0.107177734375, 0.377197265625, -0.9384765625
613, 1862160758, -19.270572662353516, 4.863770484924316, -6.15739107131958, -31.539419174194336, -112.13489532470703, -74.14563751220703, -0.169921875, 0.395263671875, -0.917724609375
614, 1862177425, -20.8206729888916, 5.252277374267578, -8.151328086853027, -19.857507705688477, -39.596824645996094, -50.39345169067383, -0.20751953125, 0.408935546875, -0.90771484375
615, 1862194092, -20.39203453063965, 3.511489152908325, -6.361221790313721, -5.974248886108398, 31.66099739074707, -43.05596160888672, -0.217041015625, 0.421875, -0.907470703125
616, 1862210759, -10.002206802368164, -4.374749183654785, -2.331467390060425, 97.270751953125, 84.8512191772461, -21.786067962646484, -0.2138671875, 0.41455078125, -0.92578125
617, 1862227426, 6.320285320281982, -5.140866279602051, 19.604663848876953, 107.44705963134766, 108.50019073486328, -1.8607491254806519, -0.189208984375, 0.390625, -0.947265625
618, 1862244093, 4.678932189941406, -3.1807689666748047, 7.692950248718262, 40.02345275878906, 187.3704071044922, -16.359437942504883, -0.15576171875, 0.387451171875, -0.958740234375
619, 1862260760, -9.10996150970459, 16.06749725341797, 13.48427963256836, -0.8807910084724426, 199.3189239501953, 14.555959701538086, -0.10205078125, 0.39501953125, -0.96826171875
620, 1862277427, -7.991034507751465, 8.62529182434082, 16.943904876708984, -32.24068832397461, 171.95701599121094, 64.1674575805664, -0.05126953125, 0.41357421875, -0.970703125
621, 1862294094, -8.286280632019043, -12.952548027038574, 8.217866897583008, -49.0478515625, 157.08193969726562, 30.064184188842773, -0.001708984375, 0.431640625, -0.971435546875
622, 1862310761, -7.31649923324585, -7.217106819152832, 9.357184410095215, -24.708457946777344, 152.35592651367188, 17.90782928466797, 0.039794921875, 0.448486328125, -0.96728515625
623, 1862327428, -4.1240715980529785, -0.26862895488739014, 9.09263801574707, -14.550886154174805, 128.65809631347656, 28.5432071685791, 0.07861328125, 0.455322265625, -0.96484375
624, 1862344095, -6.982693672180176, -8.318182945251465, 8.352890014648438, -7.384885787963867, 132.53256225585938, 26.316511154174805, 0.115478515625, 0.4658203125, -0.96337890625
625, 1862360762, -9.624537467956543, -2.206777811050415, 11.337806701660156, 56.72044372558594, 88.16460418701172, 32.523319244384766, 0.14794921875, 0.45458984375, -0.963623046875
626, 1862377429, -5.913238048553467, -1.5842382907867432, 10.397079467773438, 34.113304138183594, 52.831321716308594, 14.917241096496582, 0.167724609375, 0.443115234375, -0.965087890625
627, 1862394096, -5.953629970550537, -2.3587145805358887, 9.939502716064453, 30.990877151489258, 37.82966232299805, 10.746807098388672, 0.17724609375, 0.437744140625, -0.969970703125
628, 1862410763, -6.066648006439209, -1.5010377168655396, 9.7802734375, 18.725460052490234, 16.90558433532715, 5.287203311920166, 0.183837890625, 0.43212890625, -0.97216796875
629, 1862427430, -5.37198543548584, -2.339052200317383, 8.855744361877441, 9.558046340942383, 11.422959327697754, 0.37569379806518555, 0.190185546875, 0.4296875, -0.971435546875
630, 1862444097, -4.734155178070068, -2.775865077972412, 8.371797561645508, 3.1920666694641113, 9.182942390441895, -2.1907060146331787, 0.192626953125, 0.4296875, -0.972412109375
631, 1862460764, -4.481537342071533, -2.4382164478302, 8.513521194458008, -4.2634406089782715, 10.058860778808594, -3.9288747310638428, 0.19482421875, 0.429931640625, -0.971435546875
632, 1862477431, -4.6982102394104, -3.0207464694976807, 7.9848833084106445, -4.711253643035889, 10.7508544921875, -3.2261393070220947, 0.1982421875, 0.430419921875, -0.968994140625
633, 1862494098, -4.988943099975586, -2.7140727043151855, 8.131061553955078, -4.283609390258789, 7.803519248962402, -1.8168885707855225, 0.19970703125, 0.433837890625, -0.969970703125
634, 1862510765, -4.889276504516602, -2.60249400138855, 8.070815086364746, -3.0133869647979736, 5.724161148071289, -1.419336199760437, 0.20166015625, 0.433349609375, -0.96728515625
635, 1862527432, -4.744847774505615, -2.6487228870391846, 7.965658664703369, -0.843759298324585, 4.541651248931885, -0.9094175100326538, 0.20166015625, 0.434326171875, -0.9697265625
636, 1862544099, -4.6310014724731445, -2.7801737785339355, 7.846846103668213, 3.6164426803588867, 1.2116791009902954, 2.2350215911865234, 0.205078125, 0.432373046875, -0.966796875
637, 1862560766, -4.651383876800537, -2.9386518001556396, 7.705636024475098, 11.154650688171387, -4.0556321144104, 7.517248153686523, 0.205078125, 0.430419921875, -0.9697265625
638, 1862577433, -4.640730381011963, -2.653616189956665, 7.848431587219238, 17.89866828918457, -6.27799129486084, 11.575647354125977, 0.203857421875, 0.42529296875, -0.97216796875
639, 1862594100, -4.490424156188965, -2.5646893978118896, 7.736269474029541, 25.8502197265625, -6.165470600128174, 14.357227325439453, 0.204345703125, 0.416748046875, -0.974609375
640, 1862610767, -4.6483001708984375, -2.3137881755828857, 8.141804695129395, 29.02379608154297, -3.2239208221435547, 14.84017562866211, 0.20458984375, 0.4091796875, -0.979248046875
641, 1862627434, -4.620981216430664, -2.2681586742401123, 8.286103248596191, 25.959888458251953, -1.8362951278686523, 13.920475006103516, 0.2041015625, 0.40234375, -0.984619140625
642, 1862644101, -4.585589408874512, -2.328559160232544, 8.09619140625, 23.43860626220703, -2.557114839553833, 14.189083099365234, 0.206298828125, 0.392822265625, -0.985595703125
643, 1862660768, -4.291053295135498, -2.7309584617614746, 7.890532970428467, 20.53359603881836, -5.84825325012207, 17.18082046508789, 0.207763671875, 0.38623046875, -0.988525390625
644, 1862677435, -4.516104221343994, -2.7054712772369385, 8.075078010559082, 29.609119415283203, -16.763715744018555, 23.764379501342773, 0.20654296875, 0.376708984375, -0.991943359375
645, 1862694102, -4.914294242858887, -2.224548578262329, 8.615626335144043, 37.6336784362793, -27.838775634765625, 28.080848693847656, 0.20166015625, 0.365478515625, -0.9990234375
646, 1862710769, -4.96917724609375, -1.1354480981826782, 8.58909797668457, 28.43744659423828, -19.006582260131836, 23.66865348815918, 0.197265625, 0.35693359375, -1.001953125
647, 1862727436, -4.535274982452393, -1.345350980758667, 8.550314903259277, 17.66689109802246, -2.933941125869751, 17.274694442749023, 0.198486328125, 0.349365234375, -1.00634765625
648, 1862744103, -4.38031005859375, -1.630120873451233, 8.444474220275879, 10.253268241882324, 8.910187721252441, 13.58372974395752, 0.198974609375, 0.346435546875, -1.005859375
649, 1862760770, -4.2261128425598145, -1.8404853343963623, 8.508267402648926, 7.427143573760986, 21.482301712036133, 13.395467758178711, 0.20703125, 0.342529296875, -1.003662109375
