sep=,
DeviceTag:,B,,,,,,,,,,,,,,,,,
FirmwareVersion:,2.2.1,,,,,,,,,,,,,,,,,
AppVersion:,2022.0.1,,,,,,,,,,,,,,,,,
SyncStatus:,Synced,,,,,,,,,,,,,,,,,
OutputRate:,60Hz,,,,,,,,,,,,,,,,,
FilterProfile:,General,,,,,,,,,,,,,,,,,
Measurement Mode:,Inertial Mode - Rate quantities (with mag),,,,,,,,,,,,,,,,,
StartTime:,2022-08-05 15:06:53.670 +0300,,,,,,,,,,,,,,,,,
© Xsens Technologies B. V. 2005-2022,,,,,,,,,,,,,,,,,,,

PacketCounter,SampleTimeFine,Acc_X,Acc_Y,Acc_Z,Gyr_X,Gyr_Y,Gyr_Z,Mag_X,Mag_Y,Mag_Z
1, 1755708629, -4.621941566467285, -1.6705611944198608, 8.335803031921387, -0.36521151661872864, -0.5334357619285583, -1.0691895484924316, -0.01806640625, 0.15380859375, -0.817626953125
2, 1755725296, -4.606879234313965, -1.6705433130264282, 8.352619171142578, -0.4075620770454407, -0.6237460970878601, -1.1687843799591064, -0.0166015625, 0.15234375, -0.816162109375
3, 1755741963, -4.600613117218018, -1.6790051460266113, 8.339762687683105, -0.2635546922683716, -0.7590580582618713, -1.0911650657653809, -0.0146484375, 0.15283203125, -0.816162109375
4, 1755758630, -4.628063201904297, -1.6617560386657715, 8.337606430053711, -0.309977650642395, -0.7336117625236511, -1.0753875970840454, -0.01806640625, 0.150390625, -0.816650390625
5, 1755775297, -4.614843845367432, -1.6797196865081787, 8.371445655822754, -0.31002894043922424, -0.7600440979003906, -1.1481661796569824, -0.017578125, 0.1513671875, -0.818115234375
6, 1755791964, -4.607280254364014, -1.6753958463668823, 8.353437423706055, -0.26807528734207153, -0.7631431221961975, -1.1214264631271362, -0.01806640625, 0.14990234375, -0.816162109375
7, 1755808631, -4.619317054748535, -1.682318925857544, 8.357231140136719, -0.21544121205806732, -0.8162767887115479, -1.0404133796691895, -0.017578125, 0.15185546875, -0.816162109375
8, 1755825298, -4.611748218536377, -1.6774702072143555, 8.34529972076416, -0.2674349844455719, -0.7827881574630737, -1.0653603076934814, -0.0166015625, 0.1513671875, -0.813720703125
9, 1755841965, -4.614395618438721, -1.6848478317260742, 8.36269474029541, -0.18946993350982666, -0.7017110586166382, -1.041425108909607, -0.01708984375, 0.1513671875, -0.816650390625
10, 1755858632, -4.607419967651367, -1.6788465976715088, 8.346455574035645, -0.34942126274108887, -0.6381146907806396, -1.0679854154586792, -0.0185546875, 0.15283203125, -0.816650390625
11, 1755875299, -4.624968528747559, -1.6895627975463867, 8.341423988342285, -0.26340100169181824, -0.634657084941864, -1.0569336414337158, -0.0166015625, 0.15185546875, -0.822021484375
12, 1755891966, -4.6077494621276855, -1.6823365688323975, 8.353941917419434, -0.2798059582710266, -0.6942578554153442, -1.0407592058181763, -0.01806640625, 0.15087890625, -0.819091796875
13, 1755908633, -4.603592872619629, -1.6723523139953613, 8.377039909362793, -0.3203892707824707, -0.6622035503387451, -1.1215161085128784, -0.01953125, 0.15185546875, -0.817626953125
14, 1755925300, -4.612909317016602, -1.6753840446472168, 8.34415054321289, -0.4105715751647949, -0.6632921099662781, -1.1933726072311401, -0.017578125, 0.1513671875, -0.814697265625
15, 1755941967, -4.606252670288086, -1.6846266984939575, 8.356545448303223, -0.3698217570781708, -0.6707709431648254, -1.0548079013824463, -0.0185546875, 0.14990234375, -0.815185546875
16, 1755958634, -4.6083502769470215, -1.6884846687316895, 8.33045482635498, -0.35887235403060913, -0.6695671677589417, -1.1751747131347656, -0.017578125, 0.1513671875, -0.817138671875
17, 1755975301, -4.605443000793457, -1.6577359437942505, 8.352815628051758, -0.4089451730251312, -0.7165921330451965, -1.1392145156860352, -0.0185546875, 0.15380859375, -0.817138671875
18, 1755991968, -4.639017581939697, -1.6850684881210327, 8.354368209838867, -0.5139316916465759, -0.6247449517250061, -1.2821972370147705, -0.01708984375, 0.15087890625, -0.817626953125
19, 1756008635, -4.59812068939209, -1.6966122388839722, 8.353887557983398, -0.5038657784461975, -0.7414876818656921, -1.3129966259002686, -0.0166015625, 0.1513671875, -0.819580078125
20, 1756025302, -4.577578544616699, -1.7148737907409668, 8.361430168151855, -0.5539515018463135, -0.6400997638702393, -1.2815572023391724, -0.017578125, 0.15087890625, -0.818115234375
21, 1756041969, -4.590830326080322, -1.687526822090149, 8.373950958251953, -1.2810574769973755, -0.24321818351745605, -1.4544554948806763, -0.0185546875, 0.1513671875, -0.817626953125
22, 1756058636, -4.61616325378418, -1.6621640920639038, 8.362346649169922, -1.6440664529800415, 0.043343089520931244, -1.5833258628845215, -0.017578125, 0.15283203125, -0.817626953125
23, 1756075303, -4.605452060699463, -1.703559398651123, 8.320011138916016, -1.4019238948822021, 0.02824440412223339, -1.5375688076019287, -0.0185546875, 0.1513671875, -0.818115234375
24, 1756091970, -4.615439414978027, -1.7153555154800415, 8.314251899719238, -1.2384380102157593, -0.09366563707590103, -1.4750224351882935, -0.017578125, 0.1533203125, -0.815673828125
25, 1756108637, -4.6002373695373535, -1.7106423377990723, 8.33395004272461, -0.7487232685089111, -0.37774887681007385, -1.2197023630142212, -0.0166015625, 0.15380859375, -0.815185546875
26, 1756125304, -4.602999210357666, -1.7197331190109253, 8.343465805053711, -0.37334349751472473, -0.6937967538833618, -1.0703290700912476, -0.01806640625, 0.15380859375, -0.817138671875
27, 1756141971, -4.593989372253418, -1.706151008605957, 8.361424446105957, -0.2672173082828522, -0.7712880969047546, -0.9987928867340088, -0.01806640625, 0.15185546875, -0.817626953125
28, 1756158638, -4.592912673950195, -1.7022827863693237, 8.346467971801758, -0.3472954332828522, -0.6190589666366577, -1.0507097244262695, -0.01806640625, 0.15234375, -0.814208984375
29, 1756175305, -4.600226402282715, -1.7189213037490845, 8.335003852844238, -0.33693504333496094, -0.3703724145889282, -0.9900204539299011, -0.01708984375, 0.15380859375, -0.818603515625
30, 1756191972, -4.595519065856934, -1.7078595161437988, 8.351452827453613, -0.35488957166671753, -0.2653091549873352, -0.9657268524169922, -0.0185546875, 0.15234375, -0.817626953125
31, 1756208639, -4.613184928894043, -1.7032320499420166, 8.355485916137695, -0.2502872943878174, -0.4391937255859375, -0.9452750086784363, -0.01708984375, 0.15283203125, -0.817626953125
32, 1756225306, -4.616627216339111, -1.7215187549591064, 8.350852966308594, -0.2584449052810669, -0.48177486658096313, -0.8769019842147827, -0.0146484375, 0.150390625, -0.81494140625
33, 1756241973, -4.618427276611328, -1.7122383117675781, 8.327394485473633, -0.21697796881198883, -0.5377001762390137, -0.8708573579788208, -0.01708984375, 0.1513671875, -0.8134765625
34, 1756258640, -4.620612621307373, -1.7103703022003174, 8.350770950317383, -0.22671161592006683, -0.5099794268608093, -0.9196920394897461, -0.01806640625, 0.1533203125, -0.814208984375
35, 1756275307, -4.613207817077637, -1.6980758905410767, 8.350748062133789, -0.15230591595172882, -0.6389088034629822, -0.8952662944793701, -0.017578125, 0.15478515625, -0.819091796875
36, 1756291974, -4.611214637756348, -1.704640507698059, 8.325823783874512, -0.1256559044122696, -0.5763881802558899, -0.9083927869796753, -0.01953125, 0.15283203125, -0.816162109375
37, 1756308641, -4.614107131958008, -1.6926651000976562, 8.344801902770996, -0.18328450620174408, -0.5394931435585022, -0.8822038769721985, -0.01708984375, 0.15234375, -0.815185546875
38, 1756325308, -4.621329307556152, -1.6867796182632446, 8.351746559143066, -0.2035057097673416, -0.518695592880249, -1.0193214416503906, -0.0185546875, 0.15234375, -0.816650390625
39, 1756341975, -4.606465816497803, -1.708696961402893, 8.352474212646484, -0.19659027457237244, -0.48341405391693115, -0.9608731865882874, -0.01806640625, 0.155029296875, -0.817138671875
40, 1756358642, -4.602898597717285, -1.7131068706512451, 8.3427095413208, -0.24453726410865784, -0.5961228609085083, -0.9108517169952393, -0.01953125, 0.15283203125, -0.816650390625
41, 1756375309, -4.612314224243164, -1.7050191164016724, 8.359949111938477, -0.22477707266807556, -0.611528754234314, -0.9128238558769226, -0.017578125, 0.15380859375, -0.817138671875
42, 1756391976, -4.611493110656738, -1.7046266794204712, 8.356225967407227, -0.17223258316516876, -0.7022873759269714, -0.9284218549728394, -0.0166015625, 0.15478515625, -0.816162109375
43, 1756408643, -4.618836879730225, -1.7006877660751343, 8.347862243652344, -0.16435669362545013, -0.5984919667243958, -0.9912242889404297, -0.01806640625, 0.154296875, -0.818115234375
44, 1756425310, -4.610649108886719, -1.7122924327850342, 8.348252296447754, -0.2169651836156845, -0.5497509837150574, -0.9366180896759033, -0.017578125, 0.15380859375, -0.813720703125
45, 1756441977, -4.6149492263793945, -1.6967889070510864, 8.346746444702148, -0.3424033522605896, -0.40986716747283936, -1.026492953300476, -0.0166015625, 0.15234375, -0.814697265625
46, 1756458644, -4.614284515380859, -1.705045461654663, 8.347970962524414, -0.29348307847976685, -0.446006715297699, -1.018079161643982, -0.01806640625, 0.154296875, -0.816650390625
47, 1756475311, -4.617236137390137, -1.6923887729644775, 8.362649917602539, -0.20926855504512787, -0.5066319704055786, -0.9956296682357788, -0.01806640625, 0.15478515625, -0.817138671875
48, 1756491978, -4.614834308624268, -1.7136410474777222, 8.335144996643066, -0.24456287920475006, -0.5080150961875916, -0.9390384554862976, -0.01611328125, 0.1533203125, -0.816162109375
49, 1756508645, -4.614899635314941, -1.702919363975525, 8.361227035522461, -0.28740009665489197, -0.505671501159668, -0.9356958866119385, -0.017578125, 0.15234375, -0.818115234375
50, 1756525312, -4.607778549194336, -1.7059353590011597, 8.359369277954102, -0.3305702805519104, -0.42007386684417725, -1.0162222385406494, -0.01708984375, 0.15234375, -0.816162109375
51, 1756541979, -4.602016448974609, -1.7101397514343262, 8.346715927124023, -0.37683966755867004, -0.48383674025535583, -1.04571533203125, -0.017578125, 0.1513671875, -0.817626953125
52, 1756558646, -4.607511520385742, -1.7164424657821655, 8.356063842773438, -0.3972785770893097, -0.33365657925605774, -1.0234578847885132, -0.01611328125, 0.154296875, -0.816162109375
53, 1756575313, -4.607002258300781, -1.7121630907058716, 8.335453033447266, -0.3961772322654724, -0.42558062076568604, -1.0389920473098755, -0.017578125, 0.15478515625, -0.819580078125
54, 1756591980, -4.612091064453125, -1.7141724824905396, 8.33754825592041, -0.35992249846458435, -0.3873280882835388, -0.9582352042198181, -0.0166015625, 0.154541015625, -0.817138671875
55, 1756608647, -4.616622447967529, -1.7130242586135864, 8.354047775268555, -0.2683698534965515, -0.5159165859222412, -0.9162687063217163, -0.017578125, 0.15234375, -0.814208984375
56, 1756625314, -4.608249664306641, -1.7088217735290527, 8.336451530456543, -0.22710779309272766, -0.49495258927345276, -0.965560257434845, -0.015625, 0.15380859375, -0.815185546875
57, 1756641981, -4.621827125549316, -1.7034122943878174, 8.328636169433594, -0.2006370574235916, -0.5074003338813782, -0.8980836272239685, -0.017578125, 0.15283203125, -0.817138671875
58, 1756658648, -4.618136405944824, -1.6988074779510498, 8.330580711364746, -0.13243046402931213, -0.5451406836509705, -0.836702823638916, -0.01953125, 0.154296875, -0.814208984375
59, 1756675315, -4.614531993865967, -1.7157676219940186, 8.300406455993652, -0.1243368461728096, -0.5668346285820007, -0.8893240690231323, -0.017578125, 0.1533203125, -0.816162109375
60, 1756691982, -4.612663269042969, -1.7034908533096313, 8.339717864990234, -0.14125405251979828, -0.508540153503418, -0.7736700177192688, -0.01513671875, 0.1533203125, -0.817626953125
61, 1756708649, -4.597863674163818, -1.7051111459732056, 8.345173835754395, -0.04842080920934677, -0.6120026707649231, -0.8368053436279297, -0.017578125, 0.1533203125, -0.814697265625
62, 1756725316, -4.632532596588135, -1.6999455690383911, 8.341957092285156, -0.05605339631438255, -0.6037681698799133, -0.9658421277999878, -0.0166015625, 0.1513671875, -0.8134765625
63, 1756741983, -4.619285583496094, -1.7039967775344849, 8.34068775177002, -0.16171859204769135, -0.671116828918457, -0.9342488646507263, -0.01611328125, 0.15185546875, -0.815185546875
64, 1756758650, -4.6083984375, -1.7181942462921143, 8.33054256439209, -0.14163821935653687, -0.5671675801277161, -0.9691333174705505, -0.01708984375, 0.155029296875, -0.813720703125
65, 1756775317, -4.599824905395508, -1.721377968788147, 8.341617584228516, -0.24866090714931488, -0.5759655833244324, -1.0036592483520508, -0.0185546875, 0.154296875, -0.816650390625
66, 1756791984, -4.616014003753662, -1.704141616821289, 8.363243103027344, -0.36411014199256897, -0.47373247146606445, -0.9800700545310974, -0.01708984375, 0.15478515625, -0.816650390625
67, 1756808651, -4.613492012023926, -1.7105555534362793, 8.354419708251953, -0.3941262364387512, -0.4863118827342987, -1.0657954216003418, -0.0166015625, 0.15380859375, -0.816650390625
68, 1756825318, -4.612626552581787, -1.706532597541809, 8.336891174316406, -0.29677432775497437, -0.5029181241989136, -0.9770091772079468, -0.01611328125, 0.15283203125, -0.815673828125
69, 1756841985, -4.619838237762451, -1.71074640750885, 8.351872444152832, -0.2633497714996338, -0.548137366771698, -0.9663158655166626, -0.01708984375, 0.154296875, -0.816162109375
70, 1756858652, -4.623632907867432, -1.6878371238708496, 8.340705871582031, -0.23946592211723328, -0.5260720252990723, -0.984821081161499, -0.01953125, 0.15283203125, -0.815673828125
71, 1756875319, -4.60245943069458, -1.7064192295074463, 8.334118843078613, -0.32991716265678406, -0.4608364999294281, -1.035815954208374, -0.01953125, 0.1533203125, -0.815673828125
72, 1756891986, -4.621201515197754, -1.711451768875122, 8.297683715820312, -0.2983623445034027, -0.5013813376426697, -1.0288364887237549, -0.0166015625, 0.154296875, -0.817138671875
73, 1756908653, -4.629945755004883, -1.70292067527771, 8.33344841003418, -0.20304469764232635, -0.41675710678100586, -0.9769195914268494, -0.0166015625, 0.1533203125, -0.818115234375
74, 1756925320, -4.617864608764648, -1.704725742340088, 8.337417602539062, -0.11361794173717499, -0.5363940000534058, -0.867860734462738, -0.01416015625, 0.15234375, -0.8154296875
75, 1756941987, -4.630382061004639, -1.7047343254089355, 8.33768367767334, -0.2940978407859802, -0.5074387788772583, -1.0716737508773804, -0.01611328125, 0.15234375, -0.817138671875
76, 1756958654, -4.609988689422607, -1.721983551979065, 8.343496322631836, -0.22792741656303406, -0.5354591608047485, -1.0448060035705566, -0.01611328125, 0.15185546875, -0.817138671875
77, 1756975321, -4.607756614685059, -1.721360683441162, 8.349586486816406, -0.3199794590473175, -0.47392457723617554, -0.9833226799964905, -0.01513671875, 0.156005859375, -0.819091796875
78, 1756991988, -4.617012023925781, -1.7139146327972412, 8.34352970123291, -0.21669623255729675, -0.4485935866832733, -0.8901565074920654, -0.013671875, 0.15283203125, -0.817138671875
79, 1757008655, -4.614926815032959, -1.713720679283142, 8.357246398925781, -0.10072194039821625, -0.5274551510810852, -0.8890295624732971, -0.01708984375, 0.15380859375, -0.816650390625
80, 1757025322, -4.603211879730225, -1.7027082443237305, 8.373991966247559, -0.1779826432466507, -0.5395058989524841, -0.7692261338233948, -0.01611328125, 0.15380859375, -0.814697265625
81, 1757041989, -4.625180244445801, -1.7062021493911743, 8.375182151794434, -0.26188987493515015, -0.39368003606796265, -0.8758262991905212, -0.017578125, 0.15380859375, -0.817626953125
82, 1757058656, -4.627963066101074, -1.7098162174224854, 8.348918914794922, -0.17097754776477814, -0.349344402551651, -0.8338214159011841, -0.017578125, 0.1533203125, -0.816650390625
83, 1757075323, -4.613183498382568, -1.703879714012146, 8.354573249816895, -0.22079427540302277, -0.35764288902282715, -0.9180487394332886, -0.0166015625, 0.154541015625, -0.819091796875
84, 1757091990, -4.620893478393555, -1.6988403797149658, 8.327667236328125, -0.22937451303005219, -0.3185579180717468, -0.9392560124397278, -0.01611328125, 0.157470703125, -0.816162109375
85, 1757108657, -4.619262218475342, -1.7098146677017212, 8.354619026184082, -0.37518760561943054, -0.2632601261138916, -0.9917108416557312, -0.01513671875, 0.1513671875, -0.817626953125
86, 1757125324, -4.616799831390381, -1.7049355506896973, 8.356011390686035, -0.4588770270347595, -0.3061870038509369, -0.9160894155502319, -0.013671875, 0.15185546875, -0.816650390625
87, 1757141991, -4.611407279968262, -1.7133163213729858, 8.338960647583008, -0.4249018430709839, -0.17373093962669373, -0.9127084612846375, -0.0166015625, 0.15234375, -0.814697265625
88, 1757158658, -4.632869243621826, -1.7261818647384644, 8.337818145751953, -0.4895099401473999, -0.14884819090366364, -0.9777776598930359, -0.01611328125, 0.156494140625, -0.818603515625
89, 1757175325, -4.632946491241455, -1.7178744077682495, 8.342974662780762, -0.43957793712615967, -0.18409126996994019, -0.9160510301589966, -0.01513671875, 0.15185546875, -0.816162109375
90, 1757191992, -4.631185531616211, -1.704382061958313, 8.336030960083008, -0.4028621315956116, -0.18535910546779633, -0.9658676385879517, -0.01611328125, 0.15380859375, -0.815185546875
91, 1757208659, -4.647525787353516, -1.6938952207565308, 8.34934139251709, -0.4613487124443054, -0.2703932523727417, -1.0485326051712036, -0.0146484375, 0.15234375, -0.815673828125
92, 1757225326, -4.628785133361816, -1.714411973953247, 8.331493377685547, -0.3217979371547699, -0.36884844303131104, -0.9395249485969543, -0.01416015625, 0.15283203125, -0.817138671875
93, 1757241993, -4.632415294647217, -1.7147597074508667, 8.334817886352539, -0.2583809196949005, -0.47129929065704346, -0.8311448693275452, -0.0126953125, 0.155029296875, -0.818115234375
94, 1757258660, -4.623336315155029, -1.7163053750991821, 8.340609550476074, -0.22037164866924286, -0.3647376298904419, -0.8305813670158386, -0.01513671875, 0.15380859375, -0.817138671875
95, 1757275327, -4.6358795166015625, -1.703952431678772, 8.349815368652344, -0.22362446784973145, -0.4142341613769531, -0.7608764171600342, -0.01708984375, 0.15478515625, -0.817626953125
96, 1757291994, -4.63400411605835, -1.7079721689224243, 8.330778121948242, -0.1798267364501953, -0.48596251010894775, -0.8692950010299683, -0.01708984375, 0.156005859375, -0.817138671875
97, 1757308661, -4.636759281158447, -1.7038586139678955, 8.340527534484863, -0.1628967672586441, -0.5348699688911438, -0.8700121641159058, -0.0166015625, 0.15234375, -0.815185546875
98, 1757325328, -4.631462097167969, -1.7102113962173462, 8.332619667053223, -0.1435975879430771, -0.6533927917480469, -0.8937551379203796, -0.0146484375, 0.15185546875, -0.815185546875
99, 1757341995, -4.635855674743652, -1.707529902458191, 8.316621780395508, -0.11611517518758774, -0.7852213382720947, -0.9148985147476196, -0.01611328125, 0.15283203125, -0.816162109375
100, 1757358662, -4.639040470123291, -1.6985112428665161, 8.340898513793945, -0.029531437903642654, -0.6724997162818909, -0.8292110562324524, -0.01611328125, 0.1533203125, -0.818603515625
101, 1757375329, -4.617448329925537, -1.6856926679611206, 8.334932327270508, -0.08589733392000198, -0.6764719486236572, -0.8792470097541809, -0.01806640625, 0.14990234375, -0.817626953125
102, 1757391996, -4.63991117477417, -1.7141963243484497, 8.339142799377441, -0.2052217274904251, -0.5781425833702087, -0.8986599445343018, -0.0146484375, 0.155029296875, -0.819091796875
103, 1757408663, -4.645558834075928, -1.7042230367660522, 8.352762222290039, -0.13049671053886414, -0.7819941639900208, -0.9639212489128113, -0.01611328125, 0.154541015625, -0.817626953125
104, 1757425330, -4.630582332611084, -1.7244395017623901, 8.344006538391113, -0.16889014840126038, -0.5822150707244873, -0.9239397644996643, -0.015625, 0.15234375, -0.814697265625
105, 1757441997, -4.613518714904785, -1.7084033489227295, 8.307482719421387, -0.17253994941711426, -0.5899628400802612, -0.9933244585990906, -0.01513671875, 0.15234375, -0.814697265625
106, 1757458664, -4.647637367248535, -1.6882516145706177, 8.327668190002441, -0.13082966208457947, -0.6691189408302307, -1.0048117637634277, -0.017578125, 0.15478515625, -0.816650390625
107, 1757475331, -4.636669158935547, -1.719533085823059, 8.336590766906738, -0.1460564136505127, -0.6900189518928528, -0.9855126142501831, -0.01416015625, 0.15283203125, -0.81494140625
108, 1757491998, -4.629422664642334, -1.71262526512146, 8.325830459594727, -0.14509594440460205, -0.7688291668891907, -0.9691205024719238, -0.013671875, 0.15087890625, -0.817626953125
109, 1757508665, -4.634136199951172, -1.6975072622299194, 8.340757369995117, -0.1453392654657364, -0.821232795715332, -1.0217162370681763, -0.01416015625, 0.15234375, -0.817138671875
110, 1757525332, -4.640100479125977, -1.7088820934295654, 8.350348472595215, -0.13838542997837067, -0.8691540956497192, -0.9406007528305054, -0.015625, 0.1513671875, -0.815673828125
111, 1757541999, -4.612725257873535, -1.713881492614746, 8.330405235290527, -0.11502664536237717, -0.9240678548812866, -0.9845778346061707, -0.015625, 0.15234375, -0.814697265625
112, 1757558666, -4.619275093078613, -1.7014732360839844, 8.34913444519043, -0.037765927612781525, -0.8480749726295471, -1.0363025665283203, -0.0146484375, 0.15380859375, -0.816650390625
113, 1757575333, -4.62586784362793, -1.7110670804977417, 8.331153869628906, -0.19694884121418, -0.7276568412780762, -0.9708877205848694, -0.0166015625, 0.15380859375, -0.816650390625
114, 1757592000, -4.623910427093506, -1.7050480842590332, 8.342333793640137, -0.13135471940040588, -0.6551728248596191, -0.9104161858558655, -0.015625, 0.15185546875, -0.815673828125
115, 1757608667, -4.629739284515381, -1.6950006484985352, 8.347936630249023, -0.14767001569271088, -0.7222268581390381, -0.8681424260139465, -0.0146484375, 0.154541015625, -0.814697265625
116, 1757625334, -4.629517078399658, -1.6931800842285156, 8.35836410522461, -0.09726421535015106, -0.7574315667152405, -0.8708701729774475, -0.01611328125, 0.154541015625, -0.816650390625
117, 1757642001, -4.6137166023254395, -1.6894972324371338, 8.344308853149414, -0.12059739977121353, -0.6915813684463501, -1.0411306619644165, -0.01708984375, 0.15087890625, -0.816650390625
118, 1757658668, -4.632236003875732, -1.6912753582000732, 8.33236312866211, -0.12442649155855179, -0.6982021927833557, -0.9815682172775269, -0.017578125, 0.1533203125, -0.817626953125
119, 1757675335, -4.621815204620361, -1.6979002952575684, 8.344511985778809, -0.15357373654842377, -0.7748225927352905, -1.0351115465164185, -0.01708984375, 0.15283203125, -0.820068359375
120, 1757692002, -4.611510276794434, -1.6996389627456665, 8.325474739074707, -0.15244679152965546, -0.6315706968307495, -0.913566529750824, -0.015625, 0.1533203125, -0.816650390625
121, 1757708669, -4.616892337799072, -1.7111669778823853, 8.313821792602539, -0.12399106472730637, -0.6861642003059387, -0.8803084492683411, -0.01513671875, 0.15380859375, -0.81396484375
122, 1757725336, -4.625850677490234, -1.7043499946594238, 8.333372116088867, -0.06318652629852295, -0.7995131611824036, -0.815495491027832, -0.01513671875, 0.15380859375, -0.814697265625
123, 1757742003, -4.631917953491211, -1.693180799484253, 8.332375526428223, 0.057596564292907715, -0.8952919244766235, -0.8655427098274231, -0.0166015625, 0.15234375, -0.816162109375
124, 1757758670, -4.630373001098633, -1.7003190517425537, 8.323010444641113, 0.029204878956079483, -0.8514173030853271, -0.8675532937049866, -0.0166015625, 0.1533203125, -0.818115234375
125, 1757775337, -4.618951797485352, -1.6726442575454712, 8.342621803283691, -0.02330755814909935, -0.8145478963851929, -0.8244729042053223, -0.01318359375, 0.154541015625, -0.817626953125
126, 1757792004, -4.621110916137695, -1.6898781061172485, 8.343755722045898, 0.056533634662628174, -0.8255997896194458, -0.9226078987121582, -0.01806640625, 0.154296875, -0.816650390625
127, 1757808671, -4.612629413604736, -1.7070680856704712, 8.35196304321289, 0.05644398182630539, -0.8784770965576172, -0.9240292906761169, -0.015625, 0.155029296875, -0.817138671875
128, 1757825338, -4.613495826721191, -1.6973799467086792, 8.341893196105957, 0.070326067507267, -0.743178129196167, -0.8495091795921326, -0.01611328125, 0.15283203125, -0.817626953125
129, 1757842005, -4.631289005279541, -1.7002636194229126, 8.318327903747559, 0.08223596215248108, -0.7712879180908203, -0.8073890805244446, -0.015625, 0.155517578125, -0.81298828125
130, 1757858672, -4.613951683044434, -1.6997430324554443, 8.353738784790039, 0.2126174122095108, -0.7992058992385864, -0.8230769038200378, -0.01708984375, 0.154296875, -0.815673828125
131, 1757875339, -4.615660190582275, -1.6960673332214355, 8.361082077026367, 0.41669943928718567, -0.8691413998603821, -0.8102578520774841, -0.017578125, 0.15185546875, -0.815673828125
132, 1757892006, -4.613922119140625, -1.7033886909484863, 8.34853458404541, 0.17268721759319305, -0.8739821314811707, -0.7321518063545227, -0.01806640625, 0.1533203125, -0.814697265625
133, 1757908673, -4.620776176452637, -1.6865988969802856, 8.329180717468262, 0.25980880856513977, -0.8788613080978394, -0.8313369750976562, -0.01708984375, 0.15185546875, -0.814697265625
134, 1757925340, -4.613630771636963, -1.7059879302978516, 8.357418060302734, 0.21298882365226746, -0.8904895782470703, -0.8603050112724304, -0.0185546875, 0.15185546875, -0.818603515625
135, 1757942007, -4.613185882568359, -1.6841505765914917, 8.346343040466309, 0.15536954998970032, -0.8627386689186096, -0.7802608013153076, -0.01708984375, 0.15234375, -0.816162109375
136, 1757958674, -4.620376110076904, -1.6796989440917969, 8.331233024597168, 0.11070450395345688, -0.8318621516227722, -0.8625333309173584, -0.01611328125, 0.1494140625, -0.815185546875
137, 1757975341, -4.623478412628174, -1.6776491403579712, 8.356851577758789, 0.14766362309455872, -0.8736748695373535, -0.7739645838737488, -0.0166015625, 0.15380859375, -0.815673828125
138, 1757992008, -4.61912727355957, -1.6848678588867188, 8.345110893249512, 0.16000893712043762, -0.7991291284561157, -0.7739773988723755, -0.0166015625, 0.15087890625, -0.818115234375
139, 1758008675, -4.606210708618164, -1.675797700881958, 8.351785659790039, 0.04621170833706856, -0.7852084636688232, -0.8103217482566833, -0.0185546875, 0.15087890625, -0.818115234375
140, 1758025342, -4.6291823387146, -1.6751097440719604, 8.351984024047852, 0.027821794152259827, -0.6785187721252441, -0.8578460812568665, -0.017578125, 0.15087890625, -0.813232421875
141, 1758042009, -4.613999366760254, -1.6704555749893188, 8.339642524719238, -0.005160958971828222, -0.7752965688705444, -0.9290366768836975, -0.0146484375, 0.150390625, -0.817138671875
142, 1758058676, -4.627781867980957, -1.6849899291992188, 8.350968360900879, -0.058230478316545486, -0.7156316637992859, -0.957249104976654, -0.02001953125, 0.15234375, -0.814208984375
143, 1758075343, -4.606497287750244, -1.688066005706787, 8.351202011108398, -0.07503240555524826, -0.7044004201889038, -0.9280760884284973, -0.017578125, 0.154296875, -0.817138671875
144, 1758092010, -4.615323543548584, -1.6661834716796875, 8.348967552185059, -0.15448299050331116, -0.7155163288116455, -0.9318156242370605, -0.01708984375, 0.15185546875, -0.817626953125
145, 1758108677, -4.619484901428223, -1.6826452016830444, 8.346036911010742, -0.22568628191947937, -0.5467158555984497, -0.9898667931556702, -0.01806640625, 0.1513671875, -0.815673828125
146, 1758125344, -4.614072799682617, -1.6781268119812012, 8.356431007385254, -0.18652446568012238, -0.6300211548805237, -0.9462994337081909, -0.0166015625, 0.1513671875, -0.814208984375
147, 1758142011, -4.615963935852051, -1.683849573135376, 8.340964317321777, -0.16214118897914886, -0.6193535327911377, -0.979109525680542, -0.0166015625, 0.150390625, -0.814697265625
148, 1758158678, -4.6065778732299805, -1.6681857109069824, 8.351537704467773, -0.24038797616958618, -0.6057659387588501, -1.0388126373291016, -0.01513671875, 0.15234375, -0.816162109375
149, 1758175345, -4.606452941894531, -1.6703671216964722, 8.332094192504883, -0.14745230972766876, -0.5782835483551025, -0.9632551670074463, -0.01904296875, 0.15185546875, -0.817626953125
150, 1758192012, -4.616920471191406, -1.6800379753112793, 8.326236724853516, -0.13135471940040588, -0.535599946975708, -0.8988264203071594, -0.02001953125, 0.15283203125, -0.817138671875
151, 1758208679, -4.604228496551514, -1.6921294927597046, 8.345118522644043, -0.1279098242521286, -0.6015014052391052, -0.9464660286903381, -0.015625, 0.15087890625, -0.817626953125
152, 1758225346, -4.612421989440918, -1.6965806484222412, 8.322565078735352, -0.06485135108232498, -0.5256237983703613, -0.9155899882316589, -0.01611328125, 0.15087890625, -0.815673828125
153, 1758242013, -4.614874839782715, -1.66380774974823, 8.351170539855957, -0.11818979680538177, -0.43444257974624634, -0.8891704082489014, -0.01806640625, 0.15185546875, -0.813232421875
154, 1758258680, -4.6142754554748535, -1.6892012357711792, 8.355868339538574, -0.1731034219264984, -0.46221956610679626, -0.889144778251648, -0.01708984375, 0.1494140625, -0.818115234375
155, 1758275347, -4.618144989013672, -1.6780619621276855, 8.357972145080566, -0.20403076708316803, -0.5030077695846558, -0.9422527551651001, -0.01953125, 0.1513671875, -0.816650390625
156, 1758292014, -4.598544120788574, -1.6674209833145142, 8.332842826843262, -0.21964168548583984, -0.5694855451583862, -0.9061003923416138, -0.0166015625, 0.1533203125, -0.818603515625
157, 1758308681, -4.611738204956055, -1.6741760969161987, 8.35088062286377, -0.34469568729400635, -0.446672648191452, -0.9182664155960083, -0.01904296875, 0.1513671875, -0.815185546875
158, 1758325348, -4.617734432220459, -1.6752748489379883, 8.340840339660645, -0.28106099367141724, -0.41396528482437134, -0.9863194823265076, -0.017578125, 0.15234375, -0.816650390625
159, 1758342015, -4.62570333480835, -1.6847851276397705, 8.34594440460205, -0.3401494324207306, -0.39082416892051697, -0.9777647256851196, -0.0166015625, 0.15087890625, -0.816650390625
160, 1758358682, -4.620585918426514, -1.6933879852294922, 8.348599433898926, -0.11880449950695038, -0.40652474761009216, -0.8723685145378113, -0.01806640625, 0.1513671875, -0.817626953125
161, 1758375349, -4.620913028717041, -1.6759542226791382, 8.330615043640137, -0.15404757857322693, -0.35479995608329773, -0.8761208653450012, -0.01806640625, 0.15234375, -0.815673828125
162, 1758392016, -4.613486289978027, -1.6759690046310425, 8.346687316894531, -0.09116839617490768, -0.5694087743759155, -0.8314010500907898, -0.0185546875, 0.15234375, -0.816162109375
163, 1758408683, -4.620509147644043, -1.6750367879867554, 8.330830574035645, -0.0771070271730423, -0.5475866794586182, -0.8379449844360352, -0.01513671875, 0.1513671875, -0.815185546875
164, 1758425350, -4.620380401611328, -1.6803083419799805, 8.380841255187988, -0.055656395852565765, -0.5420543551445007, -0.9051399827003479, -0.01611328125, 0.1494140625, -0.818115234375
165, 1758442017, -4.6190338134765625, -1.6767898797988892, 8.362648963928223, -0.0055963750928640366, -0.6459265947341919, -0.8486127257347107, -0.0166015625, 0.150390625, -0.815673828125
166, 1758458684, -4.612949371337891, -1.675429105758667, 8.356669425964355, -0.09051528573036194, -0.7566375732421875, -0.9398836493492126, -0.02001953125, 0.15087890625, -0.815673828125
167, 1758475351, -4.632085800170898, -1.671589970588684, 8.344181060791016, -0.08470118790864944, -0.6316732168197632, -0.9077010750770569, -0.01708984375, 0.15087890625, -0.820556640625
168, 1758492018, -4.625679016113281, -1.677927017211914, 8.34567928314209, -0.20096927881240845, -0.5024488568305969, -0.9941909313201904, -0.01708984375, 0.15185546875, -0.816650390625
169, 1758508685, -4.617183208465576, -1.679398775100708, 8.35110855102539, -0.23422816395759583, -0.6109780669212341, -1.0186939239501953, -0.0166015625, 0.150390625, -0.817138671875
170, 1758525352, -4.610345363616943, -1.6802504062652588, 8.357787132263184, -0.13235361874103546, -0.6929132342338562, -1.002301812171936, -0.0166015625, 0.14892578125, -0.816650390625
171, 1758542019, -4.609933376312256, -1.68182373046875, 8.346571922302246, -0.14959096908569336, -0.5217562913894653, -0.8269315958023071, -0.01513671875, 0.1484375, -0.817138671875
172, 1758558686, -4.621780872344971, -1.6499638557434082, 8.355813980102539, -0.254795104265213, -0.643390953540802, -0.8571673631668091, -0.01806640625, 0.150390625, -0.819091796875
173, 1758575353, -4.626080513000488, -1.6729722023010254, 8.332597732543945, -0.15192173421382904, -0.6373208165168762, -0.9575179219245911, -0.0166015625, 0.1513671875, -0.820068359375
174, 1758592020, -4.6075029373168945, -1.6761759519577026, 8.33475399017334, -0.16407494246959686, -0.6568760275840759, -0.8926409482955933, -0.01806640625, 0.15234375, -0.819091796875
175, 1758608687, -4.606134414672852, -1.675724744796753, 8.366007804870605, -0.1487969607114792, -0.6655972599983215, -1.0142756700515747, -0.01953125, 0.1513671875, -0.818115234375
176, 1758625354, -4.625265121459961, -1.6675341129302979, 8.361272811889648, -0.19871611893177032, -0.6446587443351746, -0.9620256423950195, -0.01611328125, 0.14990234375, -0.816650390625
177, 1758642021, -4.627427577972412, -1.6783555746078491, 8.332846641540527, -0.19274836778640747, -0.5680640935897827, -1.0267107486724854, -0.0185546875, 0.1494140625, -0.817138671875
178, 1758658688, -4.607072353363037, -1.670213222503662, 8.35208797454834, -0.1720789223909378, -0.5680896043777466, -1.0071426630020142, -0.01708984375, 0.1513671875, -0.820068359375
179, 1758675355, -4.611015319824219, -1.6679052114486694, 8.359633445739746, -0.2063487023115158, -0.5940353274345398, -0.9925304651260376, -0.017578125, 0.1494140625, -0.817626953125
180, 1758692022, -4.622686862945557, -1.675652265548706, 8.347305297851562, -0.23274262249469757, -0.6689525842666626, -0.9989465475082397, -0.0166015625, 0.15185546875, -0.817138671875
181, 1758708689, -4.6143083572387695, -1.6878355741500854, 8.36712646484375, -0.18589696288108826, -0.6127197742462158, -0.9489247798919678, -0.01611328125, 0.1513671875, -0.815673828125
182, 1758725356, -4.610184192657471, -1.677753210067749, 8.347826957702637, -0.14332866668701172, -0.6346058249473572, -0.9486559629440308, -0.0166015625, 0.15185546875, -0.814208984375
183, 1758742023, -4.611777305603027, -1.6643240451812744, 8.35412311553955, -0.14480139315128326, -0.6782498955726624, -0.9865371584892273, -0.01708984375, 0.14990234375, -0.816650390625
184, 1758758690, -4.62556266784668, -1.6629765033721924, 8.367786407470703, -0.23503492772579193, -0.5375465154647827, -0.9507049322128296, -0.0166015625, 0.1533203125, -0.817138671875
185, 1758775357, -4.630859851837158, -1.6706231832504272, 8.351357460021973, -0.24223209917545319, -0.6106451749801636, -0.941714882850647, -0.01708984375, 0.15185546875, -0.818115234375
186, 1758792024, -4.616213798522949, -1.6809077262878418, 8.355191230773926, -0.3223998546600342, -0.6417389512062073, -0.9589266777038574, -0.01904296875, 0.15087890625, -0.819580078125
187, 1758808691, -4.618611812591553, -1.6810450553894043, 8.345183372497559, -0.14701688289642334, -0.6202754974365234, -0.9837197065353394, -0.01513671875, 0.150390625, -0.818115234375
188, 1758825358, -4.607694625854492, -1.670544981956482, 8.339938163757324, -0.26628243923187256, -0.5729561448097229, -1.0050551891326904, -0.015625, 0.150390625, -0.815185546875
189, 1758842025, -4.611483573913574, -1.6758849620819092, 8.36169147491455, -0.19774284958839417, -0.5811137557029724, -0.8631095886230469, -0.01708984375, 0.150390625, -0.819091796875
190, 1758858692, -4.615099906921387, -1.6751772165298462, 8.348814010620117, -0.21591506898403168, -0.5360866189002991, -0.8848035931587219, -0.01806640625, 0.15087890625, -0.818115234375
191, 1758875359, -4.629303932189941, -1.665664553642273, 8.323236465454102, -0.19201841950416565, -0.6120923161506653, -0.9419071078300476, -0.017578125, 0.1513671875, -0.819091796875
192, 1758892026, -4.61842155456543, -1.6913765668869019, 8.332399368286133, -0.1427011638879776, -0.6588994860649109, -0.9045125842094421, -0.01513671875, 0.1513671875, -0.816650390625
193, 1758908693, -4.614894390106201, -1.665414810180664, 8.329201698303223, -0.24362799525260925, -0.6014245748519897, -0.9682496786117554, -0.01806640625, 0.15283203125, -0.817138671875
194, 1758925360, -4.610558032989502, -1.6699012517929077, 8.374621391296387, -0.2599048614501953, -0.6111573576927185, -0.9503335356712341, -0.01904296875, 0.15087890625, -0.817626953125
195, 1758942027, -4.616628646850586, -1.6826659440994263, 8.324697494506836, -0.23628994822502136, -0.5353694558143616, -0.9478363394737244, -0.0166015625, 0.150390625, -0.817138671875
196, 1758958694, -4.605792999267578, -1.6771211624145508, 8.359264373779297, -0.21571014821529388, -0.5471896529197693, -0.9551999568939209, -0.0185546875, 0.15087890625, -0.817138671875
197, 1758975361, -4.621349811553955, -1.6780369281768799, 8.350168228149414, -0.3096447288990021, -0.5096670985221863, -0.9323023557662964, -0.01708984375, 0.15185546875, -0.818603515625
198, 1758992028, -4.626457214355469, -1.6803539991378784, 8.326255798339844, -0.261031836271286, -0.4968223571777344, -0.9377322793006897, -0.015625, 0.150390625, -0.817626953125
199, 1759008695, -4.623390197753906, -1.693010926246643, 8.359352111816406, -0.1914421170949936, -0.6008098721504211, -0.946376383304596, -0.01806640625, 0.1513671875, -0.816162109375
200, 1759025362, -4.611269474029541, -1.6731038093566895, 8.3519926071167, -0.16950485110282898, -0.6637402772903442, -0.9503592848777771, -0.01611328125, 0.1513671875, -0.817626953125
201, 1759042029, -4.607598304748535, -1.6594213247299194, 8.345549583435059, -0.16425423324108124, -0.5048134922981262, -0.9196239113807678, -0.017578125, 0.14990234375, -0.817626953125
202, 1759058696, -4.612499237060547, -1.6700143814086914, 8.339278221130371, -0.33285701274871826, -0.4542044401168823, -0.9700495004653931, -0.0166015625, 0.15087890625, -0.816650390625
203, 1759075363, -4.616306781768799, -1.673988938331604, 8.354182243347168, -0.391963928937912, -0.3639308512210846, -0.9494242668151855, -0.015625, 0.15185546875, -0.818115234375
204, 1759092030, -4.6272873878479, -1.6669501066207886, 8.361332893371582, -0.44668546319007874, -0.26924070715904236, -1.0191932916641235, -0.015625, 0.14990234375, -0.818603515625
205, 1759108697, -4.620372295379639, -1.6824556589126587, 8.35888385772705, -0.5383533835411072, -0.35778379440307617, -1.0107412338256836, -0.0166015625, 0.1494140625, -0.816162109375
206, 1759125364, -4.63590669631958, -1.6845464706420898, 8.340592384338379, -0.307518869638443, -0.2971329092979431, -0.9658932685852051, -0.01513671875, 0.14892578125, -0.817138671875
207, 1759142031, -4.598751068115234, -1.6779776811599731, 8.340978622436523, -0.349139541387558, -0.3785429000854492, -0.9426113367080688, -0.01611328125, 0.15185546875, -0.818603515625
208, 1759158698, -4.629141330718994, -1.6746717691421509, 8.326790809631348, -0.33902251720428467, -0.2828410863876343, -0.9157437682151794, -0.0146484375, 0.1513671875, -0.819091796875
209, 1759175365, -4.615334987640381, -1.6740671396255493, 8.34956169128418, -0.3188781440258026, -0.31725171208381653, -0.8823063373565674, -0.01611328125, 0.15087890625, -0.816650390625
210, 1759192032, -4.641051292419434, -1.6682049036026, 8.35310173034668, -0.29248419404029846, -0.30607175827026367, -0.8267267346382141, -0.01806640625, 0.15380859375, -0.818603515625
211, 1759208699, -4.637338638305664, -1.6794594526290894, 8.344834327697754, -0.23805725574493408, -0.4242231547832489, -0.9308295845985413, -0.01611328125, 0.14990234375, -0.816650390625
212, 1759225366, -4.626019477844238, -1.6772254705429077, 8.352166175842285, -0.2515038847923279, -0.3920663893222809, -0.8802828192710876, -0.01806640625, 0.15087890625, -0.816650390625
213, 1759242033, -4.621728897094727, -1.6820038557052612, 8.344472885131836, -0.16636726260185242, -0.5062862038612366, -0.869948148727417, -0.01416015625, 0.1513671875, -0.814453125
214, 1759258700, -4.620884895324707, -1.6715530157089233, 8.355242729187012, -0.24800771474838257, -0.45005354285240173, -0.8263297080993652, -0.017578125, 0.15283203125, -0.821533203125
215, 1759275367, -4.625791549682617, -1.6809978485107422, 8.334099769592285, -0.1824776828289032, -0.512458860874176, -0.8674509525299072, -0.0166015625, 0.15185546875, -0.816650390625
216, 1759292034, -4.629745006561279, -1.659941554069519, 8.351081848144531, -0.12552782893180847, -0.5614944100379944, -0.8685906529426575, -0.0146484375, 0.15283203125, -0.819091796875
217, 1759308701, -4.615951061248779, -1.672867774963379, 8.343486785888672, -0.16754548251628876, -0.564888060092926, -0.9035903811454773, -0.0166015625, 0.1533203125, -0.819091796875
218, 1759325368, -4.6164350509643555, -1.6783360242843628, 8.309859275817871, -0.12992043793201447, -0.6217098832130432, -0.8197473287582397, -0.01513671875, 0.1513671875, -0.819091796875
219, 1759342035, -4.624366760253906, -1.6818299293518066, 8.3357572555542, -0.06928235292434692, -0.5149176716804504, -0.8848291039466858, -0.01708984375, 0.15185546875, -0.815673828125
220, 1759358702, -4.628972053527832, -1.672762393951416, 8.345163345336914, -0.01974739320576191, -0.6082504391670227, -0.8750067353248596, -0.01708984375, 0.15283203125, -0.819091796875
221, 1759375369, -4.625067710876465, -1.6713699102401733, 8.353256225585938, -0.08668617904186249, -0.5270581245422363, -0.8688596487045288, -0.01513671875, 0.1513671875, -0.820068359375
222, 1759392036, -4.6298508644104, -1.6704990863800049, 8.331119537353516, -0.1335061937570572, -0.5455632209777832, -0.9099039435386658, -0.0166015625, 0.15234375, -0.819580078125
223, 1759408703, -4.617635726928711, -1.667780876159668, 8.348454475402832, -0.15470069646835327, -0.5483422875404358, -0.9474009275436401, -0.01513671875, 0.1494140625, -0.815673828125
224, 1759425370, -4.620081901550293, -1.671845555305481, 8.340180397033691, -0.16214118897914886, -0.5190925598144531, -0.8749938011169434, -0.01611328125, 0.1494140625, -0.818115234375
225, 1759442037, -4.622281551361084, -1.657997488975525, 8.354318618774414, -0.2895515561103821, -0.4257342517375946, -0.9540346264839172, -0.01708984375, 0.14794921875, -0.819580078125
226, 1759458704, -4.627068042755127, -1.6734683513641357, 8.32309341430664, -0.3026396632194519, -0.38958194851875305, -0.9673019647598267, -0.0185546875, 0.150390625, -0.818603515625
227, 1759475371, -4.631093978881836, -1.6678048372268677, 8.34384822845459, -0.35926929116249084, -0.5044549107551575, -1.0025962591171265, -0.01904296875, 0.1513671875, -0.816650390625
228, 1759492038, -4.624932765960693, -1.6802525520324707, 8.359410285949707, -0.17981396615505219, -0.5150713324546814, -0.9707212448120117, -0.01708984375, 0.15185546875, -0.817626953125
229, 1759508705, -4.638305187225342, -1.6672860383987427, 8.35892105102539, -0.3054954409599304, -0.47167065739631653, -1.0144293308258057, -0.017578125, 0.14990234375, -0.817138671875
230, 1759525372, -4.61140251159668, -1.6789324283599854, 8.360820770263672, -0.32257914543151855, -0.5282874703407288, -1.045113444328308, -0.017578125, 0.1513671875, -0.816162109375
231, 1759542039, -4.618037223815918, -1.662731647491455, 8.333901405334473, -0.4553297758102417, -0.49300605058670044, -0.9985751509666443, -0.0146484375, 0.150390625, -0.820068359375
232, 1759558706, -4.6202826499938965, -1.6617857217788696, 8.312070846557617, -0.3761609196662903, -0.39344948530197144, -0.9644206166267395, -0.01611328125, 0.1513671875, -0.815673828125
233, 1759575373, -4.626267910003662, -1.6748607158660889, 8.354196548461914, -0.3405464291572571, -0.43702948093414307, -1.0241492986679077, -0.01611328125, 0.15283203125, -0.820068359375
234, 1759592040, -4.638583183288574, -1.6978718042373657, 8.33696174621582, -0.3235523998737335, -0.5133681297302246, -0.963421642780304, -0.0146484375, 0.15283203125, -0.816650390625
235, 1759608707, -4.630238056182861, -1.6783620119094849, 8.335559844970703, -0.34180912375450134, -0.3972127139568329, -0.9317305684089661, -0.01513671875, 0.15283203125, -0.816650390625
236, 1759625374, -4.630599498748779, -1.670397400856018, 8.353303909301758, -0.302511602640152, -0.419792115688324, -0.9841935634613037, -0.0166015625, 0.1484375, -0.814453125
237, 1759642041, -4.6395955085754395, -1.6691349744796753, 8.3308687210083, -0.19396498799324036, -0.6623700261116028, -0.9708493947982788, -0.01708984375, 0.15283203125, -0.818115234375
238, 1759658708, -4.617321014404297, -1.6654548645019531, 8.33933162689209, -0.28135547041893005, -0.4161679446697235, -0.971643328666687, -0.0146484375, 0.15234375, -0.818115234375
239, 1759675375, -4.639073848724365, -1.660758376121521, 8.33523178100586, -0.5283259153366089, -0.3968943655490875, -0.9864858388900757, -0.01806640625, 0.15087890625, -0.814697265625
240, 1759692042, -4.626336574554443, -1.676318883895874, 8.339563369750977, -0.6459523439407349, -0.293688029050827, -1.0675373077392578, -0.01611328125, 0.15185546875, -0.816650390625
241, 1759708709, -4.604506969451904, -1.7023955583572388, 8.336676597595215, -0.4800075590610504, -0.2935343086719513, -1.0557810068130493, -0.017578125, 0.14990234375, -0.818603515625
242, 1759725376, -4.644333362579346, -1.6959238052368164, 8.324597358703613, -0.43037018179893494, -0.3174309730529785, -1.0125083923339844, -0.01416015625, 0.1513671875, -0.819091796875
243, 1759742043, -4.622786045074463, -1.6816307306289673, 8.322456359863281, -0.5231905579566956, -0.21229085326194763, -0.9521392583847046, -0.015625, 0.1513671875, -0.818603515625
244, 1759758710, -4.640316009521484, -1.6949177980422974, 8.343297004699707, -0.6455808281898499, -0.14225292205810547, -0.9580429792404175, -0.0166015625, 0.1533203125, -0.816650390625
245, 1759775377, -4.640837669372559, -1.693860411643982, 8.335451126098633, -0.43489083647727966, -0.24403780698776245, -1.018207311630249, -0.015625, 0.15234375, -0.819580078125
246, 1759792044, -4.6271562576293945, -1.6866742372512817, 8.33696460723877, -0.43658125400543213, -0.41936951875686646, -0.9095709919929504, -0.01416015625, 0.1513671875, -0.818115234375
247, 1759808711, -4.649050712585449, -1.6663521528244019, 8.329046249389648, -0.4719139337539673, -0.3628038763999939, -0.9565958380699158, -0.015625, 0.15185546875, -0.815673828125
248, 1759825378, -4.644046783447266, -1.6774672269821167, 8.349380493164062, -0.5456145405769348, -0.23698152601718903, -1.1118345260620117, -0.0146484375, 0.15185546875, -0.815185546875
249, 1759842045, -4.638840198516846, -1.6914730072021484, 8.340123176574707, -0.5096543431282043, -0.42007386684417725, -1.092138409614563, -0.01611328125, 0.15087890625, -0.815673828125
250, 1759858712, -4.632126808166504, -1.6909681558609009, 8.35766315460205, -0.4546254575252533, -0.4455201327800751, -0.9619489908218384, -0.01318359375, 0.1533203125, -0.818115234375
251, 1759875379, -4.631539344787598, -1.6789315938949585, 8.328512191772461, -0.4293329119682312, -0.42190515995025635, -0.9194190502166748, -0.0146484375, 0.15283203125, -0.815673828125
252, 1759892046, -4.650584697723389, -1.6916882991790771, 8.350096702575684, -0.38018208742141724, -0.48514294624328613, -0.9721428751945496, -0.01416015625, 0.15380859375, -0.816650390625
253, 1759908713, -4.640140533447266, -1.6787134408950806, 8.333775520324707, -0.23055268824100494, -0.5772205591201782, -0.9637802839279175, -0.01611328125, 0.15087890625, -0.817138671875
254, 1759925380, -4.636768817901611, -1.6831835508346558, 8.336827278137207, -0.23634114861488342, -0.5328593850135803, -1.0502614974975586, -0.01513671875, 0.150390625, -0.814453125
255, 1759942047, -4.631591320037842, -1.6921284198760986, 8.345318794250488, -0.300782710313797, -0.5554753541946411, -0.9989848732948303, -0.0166015625, 0.15185546875, -0.814697265625
256, 1759958714, -4.641145706176758, -1.683977484703064, 8.343268394470215, -0.271494597196579, -0.6535207629203796, -1.0059900283813477, -0.015625, 0.15283203125, -0.815185546875
257, 1759975381, -4.65102481842041, -1.6759461164474487, 8.340807914733887, -0.3003729283809662, -0.6223757863044739, -0.9931068420410156, -0.01611328125, 0.154296875, -0.817626953125
258, 1759992048, -4.642419815063477, -1.6881767511367798, 8.334737777709961, -0.3246665894985199, -0.7151833772659302, -1.128213882446289, -0.01416015625, 0.154052734375, -0.816162109375
259, 1760008715, -4.646090984344482, -1.6918588876724243, 8.337520599365234, -0.33767780661582947, -0.748889684677124, -1.1106690168380737, -0.017578125, 0.15185546875, -0.816162109375
260, 1760025382, -4.633172035217285, -1.68732488155365, 8.324822425842285, -0.26699960231781006, -0.6673644781112671, -1.1675422191619873, -0.01513671875, 0.15234375, -0.819091796875
261, 1760042049, -4.641326904296875, -1.6800893545150757, 8.330094337463379, -0.38946670293807983, -0.6679535508155823, -1.1301603317260742, -0.01513671875, 0.15283203125, -0.815673828125
262, 1760058716, -4.635099411010742, -1.6951438188552856, 8.342613220214844, -0.2807151675224304, -0.7931740880012512, -1.0594438314437866, -0.01513671875, 0.150390625, -0.815673828125
263, 1760075383, -4.614805698394775, -1.7125357389450073, 8.315986633300781, -0.2866317331790924, -0.8001791834831238, -1.004747748374939, -0.01416015625, 0.15380859375, -0.817138671875
264, 1760092050, -4.6472368240356445, -1.7023996114730835, 8.350051879882812, -0.21947519481182098, -0.5925624966621399, -0.9401012659072876, -0.0146484375, 0.15380859375, -0.818603515625
265, 1760108717, -4.625598907470703, -1.689642310142517, 8.341557502746582, -0.19993914663791656, -0.6077316999435425, -0.9016886353492737, -0.01513671875, 0.150390625, -0.81494140625
266, 1760125384, -4.645628929138184, -1.6837530136108398, 8.340697288513184, -0.21560771763324738, -0.6106708645820618, -1.0240085124969482, -0.012451171875, 0.1513671875, -0.8154296875
267, 1760142051, -4.625064373016357, -1.7011773586273193, 8.336273193359375, -0.08313881605863571, -0.6371542811393738, -0.9534583687782288, -0.01416015625, 0.15234375, -0.8125
268, 1760158718, -4.638184070587158, -1.6743837594985962, 8.350677490234375, -0.12580958008766174, -0.6533671021461487, -0.9369893670082092, -0.015625, 0.1513671875, -0.816650390625
269, 1760175385, -4.6380295753479, -1.6831008195877075, 8.34604263305664, -0.08123554289340973, -0.689804196357727, -0.8966646790504456, -0.0146484375, 0.15380859375, -0.817626953125
270, 1760192052, -4.637240409851074, -1.695561170578003, 8.339574813842773, -0.08153802901506424, -0.6109524965286255, -0.9547773003578186, -0.01708984375, 0.15478515625, -0.817138671875
271, 1760208719, -4.623143672943115, -1.6784840822219849, 8.350820541381836, -0.11416859924793243, -0.6820277571678162, -0.8815122246742249, -0.01611328125, 0.15087890625, -0.816162109375
272, 1760225386, -4.628259181976318, -1.6790871620178223, 8.322637557983398, -0.06683633476495743, -0.7701482176780701, -0.9005041122436523, -0.01513671875, 0.15087890625, -0.815673828125
273, 1760242053, -4.631622314453125, -1.6766412258148193, 8.347552299499512, -0.06015142798423767, -0.6848836541175842, -0.8818452954292297, -0.015625, 0.15087890625, -0.81298828125
274, 1760258720, -4.630240440368652, -1.6847763061523438, 8.34286117553711, -0.09375528991222382, -0.6715266704559326, -0.8371127247810364, -0.01513671875, 0.15185546875, -0.818603515625
275, 1760275387, -4.640082836151123, -1.6711442470550537, 8.311917304992676, -0.021322572603821754, -0.6751635074615479, -0.8974689245223999, -0.0146484375, 0.1533203125, -0.818603515625
276, 1760292054, -4.645705699920654, -1.6821924448013306, 8.30419635772705, -0.003624196629971266, -0.7042339444160461, -0.8125756978988647, -0.015625, 0.1533203125, -0.815185546875
277, 1760308721, -4.63604211807251, -1.6935932636260986, 8.345602035522461, 0.01442635152488947, -0.7232129573822021, -0.8149448037147522, -0.0146484375, 0.15234375, -0.817138671875
278, 1760325388, -4.635967254638672, -1.6655653715133667, 8.347490310668945, -0.016212837770581245, -0.6483854651451111, -0.9446346759796143, -0.01611328125, 0.15185546875, -0.815185546875
279, 1760342055, -4.6396565437316895, -1.6806612014770508, 8.332798957824707, -0.20281416177749634, -0.6447485685348511, -1.0231634378433228, -0.0146484375, 0.1513671875, -0.817626953125
280, 1760358722, -4.6289591789245605, -1.6896942853927612, 8.345010757446289, -0.14768283069133759, -0.7213305234909058, -0.9869725704193115, -0.017578125, 0.14990234375, -0.818603515625
281, 1760375389, -4.621408939361572, -1.6833207607269287, 8.343123435974121, -0.0326433889567852, -0.8002560138702393, -0.9458514451980591, -0.01806640625, 0.1533203125, -0.815673828125
282, 1760392056, -4.6471710205078125, -1.6864250898361206, 8.341018676757812, -0.08709598332643509, -0.7298210859298706, -0.8911170959472656, -0.0146484375, 0.15234375, -0.816162109375
283, 1760408723, -4.639520168304443, -1.6686900854110718, 8.345926284790039, -0.03863675519824028, -0.8015494346618652, -0.9134384393692017, -0.013671875, 0.15185546875, -0.8154296875
284, 1760425390, -4.642085075378418, -1.6655348539352417, 8.333619117736816, -0.18414250016212463, -0.7572522759437561, -1.0144422054290771, -0.01708984375, 0.15087890625, -0.813720703125
285, 1760442057, -4.631315231323242, -1.6684138774871826, 8.358267784118652, -0.13805244863033295, -0.7087931036949158, -1.0648608207702637, -0.01513671875, 0.15234375, -0.815185546875
286, 1760458724, -4.644513130187988, -1.6908029317855835, 8.328639030456543, -0.26730695366859436, -0.6814771294593811, -1.0196672677993774, -0.0146484375, 0.15234375, -0.817626953125
287, 1760475391, -4.627430438995361, -1.6814907789230347, 8.338001251220703, -0.3445804715156555, -0.6830010414123535, -1.087233543395996, -0.01806640625, 0.15234375, -0.819580078125
288, 1760492058, -4.628729820251465, -1.678168535232544, 8.322774887084961, -0.31453680992126465, -0.6606540679931641, -0.95655757188797, -0.0146484375, 0.15185546875, -0.814453125
289, 1760508725, -4.626089096069336, -1.6763842105865479, 8.321561813354492, -0.306225448846817, -0.5661047101020813, -1.1051239967346191, -0.01513671875, 0.15185546875, -0.816650390625
290, 1760525392, -4.638833999633789, -1.6900781393051147, 8.318277359008789, -0.42969146370887756, -0.5330643653869629, -1.2041810750961304, -0.01416015625, 0.1533203125, -0.816162109375
291, 1760542059, -4.622767925262451, -1.700623631477356, 8.320683479309082, -0.3563879430294037, -0.5560774207115173, -1.0813682079315186, -0.015625, 0.15283203125, -0.817138671875
292, 1760558726, -4.636724948883057, -1.6835606098175049, 8.332775115966797, -0.38796839118003845, -0.628996729850769, -1.061774492263794, -0.01416015625, 0.15234375, -0.818115234375
293, 1760575393, -4.608563423156738, -1.673794150352478, 8.353840827941895, -0.343222975730896, -0.5923193097114563, -1.0025707483291626, -0.01708984375, 0.15283203125, -0.818603515625
294, 1760592060, -4.639306545257568, -1.6624680757522583, 8.348066329956055, -0.4205605089664459, -0.5011892318725586, -1.0971070528030396, -0.015625, 0.15185546875, -0.817138671875
295, 1760608727, -4.636744499206543, -1.6978987455368042, 8.334859848022461, -0.4984871745109558, -0.5086170434951782, -1.1532630920410156, -0.013671875, 0.15283203125, -0.815673828125
296, 1760625394, -4.623365879058838, -1.7077144384384155, 8.325753211975098, -0.35111168026924133, -0.5463829636573792, -1.1184042692184448, -0.015625, 0.15283203125, -0.815673828125
297, 1760642061, -4.642387866973877, -1.6859885454177856, 8.32273006439209, -0.2952632009983063, -0.7522705793380737, -0.9789814949035645, -0.015625, 0.15283203125, -0.817626953125
298, 1760658728, -4.6283063888549805, -1.6825602054595947, 8.334423065185547, -0.22993800044059753, -0.6863946914672852, -0.9781233072280884, -0.01708984375, 0.15283203125, -0.817626953125
299, 1760675395, -4.632509231567383, -1.672717571258545, 8.343066215515137, -0.2364308387041092, -0.6191869974136353, -1.0048118829727173, -0.01513671875, 0.15283203125, -0.816650390625
300, 1760692062, -4.6233110427856445, -1.6951651573181152, 8.325719833374023, -0.1789943277835846, -0.6455039978027344, -0.9398451447486877, -0.01513671875, 0.15087890625, -0.815185546875
301, 1760708729, -4.633297920227051, -1.7026716470718384, 8.329825401306152, 0.0012742317048832774, -0.667966365814209, -0.9092764258384705, -0.01416015625, 0.15087890625, -0.81494140625
302, 1760725396, -4.6301045417785645, -1.6816024780273438, 8.331844329833984, 0.05637052655220032, -0.7866643667221069, -0.824253261089325, -0.01806640625, 0.15185546875, -0.819091796875
303, 1760742063, -4.6247944831848145, -1.673255443572998, 8.324814796447754, 0.02251996472477913, -0.7538585066795349, -0.807568371295929, -0.0166015625, 0.15185546875, -0.818115234375
304, 1760758730, -4.642137050628662, -1.6773039102554321, 8.329621315002441, -0.011269587092101574, -0.6880338788032532, -0.8858792185783386, -0.01416015625, 0.154052734375, -0.818603515625
305, 1760775397, -4.637655735015869, -1.6888620853424072, 8.34706974029541, -0.08714720606803894, -0.5707149505615234, -0.8430292010307312, -0.0166015625, 0.15234375, -0.817626953125
306, 1760792064, -4.620549201965332, -1.689910888671875, 8.334402084350586, -0.06266146153211594, -0.5566920042037964, -0.8787844777107239, -0.01708984375, 0.15283203125, -0.818115234375
307, 1760808731, -4.6375813484191895, -1.6828631162643433, 8.329262733459473, -0.07697896659374237, -0.43508288264274597, -0.817877471446991, -0.0166015625, 0.15185546875, -0.815185546875
308, 1760825398, -4.638308048248291, -1.6760348081588745, 8.338558197021484, -0.03820134326815605, -0.5350749492645264, -0.9129518270492554, -0.01611328125, 0.15234375, -0.817626953125
309, 1760842065, -4.621584415435791, -1.6761642694473267, 8.362540245056152, -0.16590625047683716, -0.5343449711799622, -0.8959961533546448, -0.01611328125, 0.14990234375, -0.816162109375
310, 1760858732, -4.62571382522583, -1.6927196979522705, 8.322534561157227, -0.21628645062446594, -0.3723958432674408, -0.9471577405929565, -0.015625, 0.15234375, -0.818115234375
311, 1760875399, -4.63632869720459, -1.6820378303527832, 8.346320152282715, -0.18475720286369324, -0.49540087580680847, -0.9536377191543579, -0.01513671875, 0.1533203125, -0.818115234375
312, 1760892066, -4.6361541748046875, -1.6872615814208984, 8.34467887878418, -0.17548541724681854, -0.6393187046051025, -0.8913347721099854, -0.015625, 0.15185546875, -0.815185546875
313, 1760908733, -4.639943599700928, -1.7028768062591553, 8.326192855834961, -0.034000854939222336, -0.6694775223731995, -0.8808462619781494, -0.0146484375, 0.15234375, -0.815673828125
314, 1760925400, -4.626760482788086, -1.6805434226989746, 8.324203491210938, -0.1483103334903717, -0.6230416893959045, -0.8952149152755737, -0.0126953125, 0.15185546875, -0.81591796875
315, 1760942067, -4.616019248962402, -1.6776961088180542, 8.327054023742676, -0.17670200765132904, -0.5837391018867493, -0.8871214985847473, -0.015625, 0.15185546875, -0.817626953125
316, 1760958734, -4.624985694885254, -1.6827086210250854, 8.344619750976562, -0.22842684388160706, -0.4965405762195587, -0.8845217227935791, -0.0146484375, 0.15283203125, -0.819091796875
317, 1760975401, -4.625060081481934, -1.6795176267623901, 8.344438552856445, -0.1963597536087036, -0.6248730421066284, -0.8422351479530334, -0.0166015625, 0.15234375, -0.818603515625
318, 1760992068, -4.635587692260742, -1.6681121587753296, 8.337661743164062, -0.08398405462503433, -0.6885078549385071, -0.857205867767334, -0.0146484375, 0.15185546875, -0.818603515625
319, 1761008735, -4.63065767288208, -1.6764001846313477, 8.332817077636719, -0.24635577201843262, -0.6692726612091064, -0.8670538663864136, -0.0146484375, 0.1513671875, -0.815673828125
320, 1761025402, -4.632205486297607, -1.6664760112762451, 8.345191955566406, -0.4078054428100586, -0.5280057787895203, -1.0389024019241333, -0.0146484375, 0.15234375, -0.818115234375
321, 1761042069, -4.628570556640625, -1.6782156229019165, 8.34887409210205, -0.4625782072544098, -0.4528581500053406, -1.075387716293335, -0.015625, 0.15185546875, -0.815673828125
322, 1761058736, -4.615800857543945, -1.6844981908798218, 8.316662788391113, -0.45905643701553345, -0.46721407771110535, -1.0799850225448608, -0.0166015625, 0.15087890625, -0.819091796875
323, 1761075403, -4.626710891723633, -1.6777104139328003, 8.327174186706543, -0.4050392508506775, -0.4957081973552704, -1.1557987928390503, -0.0166015625, 0.150390625, -0.819091796875
324, 1761092070, -4.645458698272705, -1.6877025365829468, 8.317824363708496, -0.39408981800079346, -0.6178423762321472, -1.0737868547439575, -0.015625, 0.15283203125, -0.820068359375
325, 1761108737, -4.634159564971924, -1.6870472431182861, 8.31911849975586, -0.25791990756988525, -0.6582720279693604, -0.9881379008293152, -0.015625, 0.1513671875, -0.816162109375
326, 1761125404, -4.606697082519531, -1.7021939754486084, 8.328873634338379, -0.07642828673124313, -0.7063342332839966, -1.004158616065979, -0.015625, 0.1494140625, -0.816650390625
327, 1761142071, -4.605867862701416, -1.6898900270462036, 8.330615043640137, -0.17223261296749115, -0.590744137763977, -0.9110694527626038, -0.015625, 0.15185546875, -0.817138671875
328, 1761158738, -4.628584384918213, -1.685213565826416, 8.341302871704102, -0.21320010721683502, -0.5061197280883789, -0.888837456703186, -0.01513671875, 0.15087890625, -0.817138671875
329, 1761175405, -4.627265930175781, -1.6892108917236328, 8.331698417663574, -0.2228817194700241, -0.48525822162628174, -0.8680528402328491, -0.01708984375, 0.15283203125, -0.817626953125
330, 1761192072, -4.641062259674072, -1.6802810430526733, 8.356614112854004, -0.22161386907100677, -0.4666121304035187, -0.9597718119621277, -0.015625, 0.15087890625, -0.817626953125
331, 1761208739, -4.62821102142334, -1.6676981449127197, 8.329302787780762, -0.20648957788944244, -0.5524018406867981, -0.9637033939361572, -0.01513671875, 0.1513671875, -0.817626953125
332, 1761225406, -4.641923427581787, -1.6705466508865356, 8.340502738952637, -0.23264014720916748, -0.5996317267417908, -0.9571465253829956, -0.01513671875, 0.150390625, -0.816650390625
333, 1761242073, -4.62807559967041, -1.673499345779419, 8.338186264038086, -0.2046198546886444, -0.6343882083892822, -0.9683136940002441, -0.01513671875, 0.15185546875, -0.817626953125
334, 1761258740, -4.623586177825928, -1.6821993589401245, 8.328875541687012, -0.024191193282604218, -0.7401942014694214, -0.9140531420707703, -0.0166015625, 0.150390625, -0.819091796875
335, 1761275407, -4.641432285308838, -1.6737518310546875, 8.356358528137207, -0.07831082493066788, -0.7493379712104797, -0.9073554277420044, -0.01611328125, 0.15234375, -0.818115234375
336, 1761292074, -4.619324207305908, -1.6833078861236572, 8.348971366882324, 0.0027855478692799807, -0.7575922012329102, -0.8986882567405701, -0.01611328125, 0.15185546875, -0.816162109375
337, 1761308741, -4.634859085083008, -1.6945315599441528, 8.325185775756836, -0.013715600594878197, -0.6839102506637573, -0.7970800399780273, -0.0166015625, 0.15087890625, -0.816162109375
338, 1761325408, -4.636514186859131, -1.6681803464889526, 8.331693649291992, -0.055861297994852066, -0.785720705986023, -0.9316875338554382, -0.015625, 0.1513671875, -0.817626953125
339, 1761342075, -4.635512351989746, -1.666826605796814, 8.359161376953125, -0.06669546663761139, -0.7641164064407349, -0.9636393785476685, -0.0146484375, 0.15234375, -0.815673828125
340, 1761358742, -4.639278411865234, -1.6620045900344849, 8.350238800048828, -0.1992155760526657, -0.654634952545166, -0.933838963508606, -0.0146484375, 0.15234375, -0.817138671875
341, 1761375409, -4.632230281829834, -1.6810165643692017, 8.358914375305176, -0.1788150817155838, -0.7743359804153442, -0.9851797819137573, -0.01611328125, 0.1533203125, -0.818115234375
342, 1761392076, -4.629702091217041, -1.6840400695800781, 8.3230619430542, -0.18295152485370636, -0.826534628868103, -0.9177030324935913, -0.015625, 0.15283203125, -0.816650390625
343, 1761408743, -4.623353004455566, -1.6740517616271973, 8.337761878967285, -0.09549695253372192, -0.7931228280067444, -1.0200258493423462, -0.01318359375, 0.1513671875, -0.81591796875
344, 1761425410, -4.63155460357666, -1.671651840209961, 8.344671249389648, -0.2873617112636566, -0.7699049115180969, -1.0969151258468628, -0.0166015625, 0.15185546875, -0.815673828125
345, 1761442077, -4.625471115112305, -1.6907894611358643, 8.335881233215332, -0.2565368115901947, -0.7871807813644409, -1.0913316011428833, -0.013671875, 0.15185546875, -0.817138671875
346, 1761458744, -4.628515243530273, -1.6796820163726807, 8.330248832702637, -0.23891526460647583, -0.7966958284378052, -1.033715844154358, -0.01513671875, 0.15185546875, -0.817138671875
347, 1761475411, -4.619050979614258, -1.6994335651397705, 8.333146095275879, -0.2219468355178833, -0.7869886755943298, -1.1079413890838623, -0.0146484375, 0.15234375, -0.817626953125
348, 1761492078, -4.620358943939209, -1.6917781829833984, 8.324193954467773, -0.1732827126979828, -0.8647615909576416, -1.0205637216567993, -0.0146484375, 0.15380859375, -0.818115234375
349, 1761508745, -4.6280598640441895, -1.6864230632781982, 8.355151176452637, -0.19418267905712128, -0.8440793752670288, -1.0496726036071777, -0.01708984375, 0.1513671875, -0.817626953125
350, 1761525412, -4.610085964202881, -1.6737335920333862, 8.339787483215332, -0.180454283952713, -0.7872703075408936, -1.0606218576431274, -0.015625, 0.15283203125, -0.816650390625
351, 1761542079, -4.620949745178223, -1.686090111732483, 8.344874382019043, -0.19427230954170227, -0.7926490306854248, -1.023253083229065, -0.01513671875, 0.1533203125, -0.818603515625
352, 1761558746, -4.6237359046936035, -1.6823203563690186, 8.313909530639648, -0.2950966954231262, -0.8435157537460327, -0.9922488331794739, -0.017578125, 0.15087890625, -0.816650390625
353, 1761575413, -4.622341632843018, -1.6690901517868042, 8.356682777404785, -0.18681903183460236, -0.8244855999946594, -1.0446653366088867, -0.01806640625, 0.1513671875, -0.818115234375
354, 1761592080, -4.625375270843506, -1.6812032461166382, 8.340968132019043, -0.24740588665008545, -0.8058011531829834, -1.1046628952026367, -0.015625, 0.1513671875, -0.818603515625
355, 1761608747, -4.618467807769775, -1.6828069686889648, 8.330615997314453, -0.19753797352313995, -0.9208663105964661, -1.0612493753433228, -0.01708984375, 0.15234375, -0.815185546875
356, 1761625414, -4.633145332336426, -1.6797517538070679, 8.335458755493164, -0.11660181730985641, -0.9446092247962952, -1.0132640600204468, -0.0166015625, 0.15087890625, -0.816162109375
357, 1761642081, -4.623601913452148, -1.670253038406372, 8.350587844848633, -0.153189554810524, -1.0590081214904785, -1.0980932712554932, -0.0166015625, 0.150390625, -0.816650390625
358, 1761658748, -4.639834403991699, -1.677269458770752, 8.360838890075684, 0.016949204728007317, -1.2297426462173462, -1.068075180053711, -0.01708984375, 0.15283203125, -0.818115234375
359, 1761675415, -4.62484884262085, -1.6697959899902344, 8.358743667602539, -0.08781313896179199, -1.3199377059936523, -1.0265698432922363, -0.0166015625, 0.15380859375, -0.819091796875
360, 1761692082, -4.61882209777832, -1.659905195236206, 8.34829330444336, -0.16955606639385223, -1.4166127443313599, -1.2530373334884644, -0.01708984375, 0.15283203125, -0.816650390625
361, 1761708749, -4.608017921447754, -1.6961859464645386, 8.350635528564453, -0.15324078500270844, -1.3062477111816406, -1.304851770401001, -0.01611328125, 0.1513671875, -0.814697265625
362, 1761725416, -4.603384971618652, -1.6742991209030151, 8.349717140197754, -0.17022201418876648, -1.3637868165969849, -1.183524489402771, -0.017578125, 0.15283203125, -0.817138671875
363, 1761742083, -4.6164774894714355, -1.7056314945220947, 8.361966133117676, -0.17569032311439514, -1.2338790893554688, -1.2413069009780884, -0.01708984375, 0.1513671875, -0.817626953125
364, 1761758750, -4.615172386169434, -1.6947933435440063, 8.374778747558594, -0.7363522052764893, -1.2060121297836304, -1.3716495037078857, -0.01708984375, 0.15087890625, -0.819091796875
365, 1761775417, -4.621461391448975, -1.6776913404464722, 8.35470962524414, -1.0951862335205078, -1.3035839796066284, -1.5428322553634644, -0.01806640625, 0.15380859375, -0.818115234375
366, 1761792084, -4.583224296569824, -1.6951402425765991, 8.358735084533691, -1.0485327243804932, -1.2062045335769653, -1.3735707998275757, -0.017578125, 0.1513671875, -0.818115234375
367, 1761808751, -4.586771011352539, -1.699758768081665, 8.352071762084961, -0.9981780648231506, -1.131658673286438, -1.4058040380477905, -0.01708984375, 0.15087890625, -0.816650390625
368, 1761825418, -4.601728916168213, -1.705846905708313, 8.353586196899414, -0.8114743828773499, -0.9199697971343994, -1.3429508209228516, -0.02001953125, 0.15185546875, -0.816162109375
369, 1761842085, -4.6080002784729, -1.6997706890106201, 8.33525276184082, -0.5281399488449097, -1.0227251052856445, -1.1956981420516968, -0.01806640625, 0.1533203125, -0.816162109375
370, 1761858752, -4.585676670074463, -1.6885682344436646, 8.33385181427002, -0.29160061478614807, -0.9421504139900208, -1.100859522819519, -0.02001953125, 0.15283203125, -0.818115234375
371, 1761875419, -4.582353115081787, -1.709999442100525, 8.3601713180542, -0.22587838768959045, -0.9316107034683228, -1.0330880880355835, -0.01953125, 0.154296875, -0.817626953125
372, 1761892086, -4.600868225097656, -1.7074600458145142, 8.34177017211914, -0.011999549344182014, -0.8769659996032715, -0.8831642866134644, -0.0185546875, 0.15380859375, -0.815185546875
373, 1761908753, -4.599415302276611, -1.70522141456604, 8.325251579284668, 0.23693670332431793, -0.8948437571525574, -0.8579742908477783, -0.01904296875, 0.15087890625, -0.815673828125
374, 1761925420, -4.596378803253174, -1.6990270614624023, 8.36624526977539, 0.4406857192516327, -0.9757798314094543, -0.6858184933662415, -0.02001953125, 0.150390625, -0.816162109375
375, 1761942087, -4.601332664489746, -1.6972098350524902, 8.348738670349121, 0.43193894624710083, -1.0396579504013062, -0.7404887676239014, -0.01953125, 0.15185546875, -0.817138671875
376, 1761958754, -4.609420299530029, -1.6981587409973145, 8.377928733825684, -0.038214150816202164, -1.2537161111831665, -0.8866604566574097, -0.02099609375, 0.15234375, -0.816650390625
377, 1761975421, -4.638497829437256, -1.661149501800537, 8.381091117858887, -1.0254813432693481, -1.2636666297912598, -1.3975186347961426, -0.01806640625, 0.15234375, -0.821044921875
378, 1761992088, -4.592145919799805, -1.7001335620880127, 8.37887954711914, -1.422887921333313, -1.0605963468551636, -1.4646366834640503, -0.02001953125, 0.15478515625, -0.815673828125
379, 1762008755, -4.565032958984375, -1.7463257312774658, 8.340001106262207, -0.9065742492675781, -1.198405385017395, -1.2887284755706787, -0.0185546875, 0.15380859375, -0.817626953125
380, 1762025422, -4.569178581237793, -1.7166842222213745, 8.345242500305176, -0.31707245111465454, -1.378936529159546, -1.0155051946640015, -0.02001953125, 0.150390625, -0.817138671875
381, 1762042089, -4.5668463706970215, -1.693606972694397, 8.370412826538086, 0.24418506026268005, -1.338634967803955, -0.8191709518432617, -0.01904296875, 0.150390625, -0.817626953125
382, 1762058756, -4.5963521003723145, -1.7030783891677856, 8.354241371154785, 0.30509212613105774, -1.461153507232666, -0.7030686736106873, -0.02001953125, 0.15283203125, -0.817138671875
383, 1762075423, -4.5911078453063965, -1.6862218379974365, 8.3788480758667, 0.17285367846488953, -1.4617806673049927, -0.7730680704116821, -0.0205078125, 0.154296875, -0.818603515625
384, 1762092090, -4.596325397491455, -1.684027910232544, 8.364232063293457, -0.06494099646806717, -1.459718942642212, -0.9092251658439636, -0.01904296875, 0.15234375, -0.817626953125
385, 1762108757, -4.594451427459717, -1.685364842414856, 8.361005783081055, -0.259597510099411, -1.5187305212020874, -1.050428032875061, -0.02001953125, 0.15234375, -0.815673828125
386, 1762125424, -4.581721782684326, -1.7037969827651978, 8.380879402160645, -0.1972689926624298, -1.4640858173370361, -1.0072194337844849, -0.01953125, 0.15087890625, -0.816162109375
387, 1762142091, -4.590281963348389, -1.6612119674682617, 8.37195873260498, -0.7333940863609314, -1.015620470046997, -1.1539417505264282, -0.01953125, 0.15185546875, -0.816650390625
388, 1762158758, -4.676861763000488, -1.6845799684524536, 8.41700267791748, -1.7816576957702637, -0.6082888245582581, -1.6296592950820923, -0.025634765625, 0.15283203125, -0.81689453125
389, 1762175425, -4.738994121551514, -1.5542149543762207, 8.325629234313965, -4.2284650802612305, 0.8808913230895996, -2.702216863632202, -0.0205078125, 0.15283203125, -0.817626953125
390, 1762192092, -4.700065612792969, -1.6549437046051025, 8.454556465148926, -6.648455619812012, 3.7915444374084473, -4.464793682098389, -0.02099609375, 0.156494140625, -0.816650390625
391, 1762208759, -4.464286804199219, -1.6304607391357422, 8.509038925170898, -7.275981426239014, 6.0067620277404785, -5.337713718414307, -0.0185546875, 0.156494140625, -0.815185546875
392, 1762225426, -4.2769904136657715, -1.7665013074874878, 8.437749862670898, -7.445911407470703, 10.177345275878906, -4.4643731117248535, -0.01708984375, 0.159423828125, -0.816162109375
393, 1762242093, -3.890353202819824, -1.6725034713745117, 8.421944618225098, -7.716899871826172, 18.144695281982422, -1.675469994544983, -0.01318359375, 0.160400390625, -0.814697265625
394, 1762258760, -3.6833012104034424, -1.3493010997772217, 8.710151672363281, -7.107325553894043, 34.65081024169922, 0.4466169774532318, -0.00732421875, 0.1630859375, -0.8173828125
395, 1762275427, -1.3957098722457886, -1.8480333089828491, 9.690459251403809, -9.76880931854248, 80.6314697265625, -2.412977695465088, 0.006591796875, 0.164794921875, -0.813720703125
396, 1762292094, -4.688784599304199, -1.8649635314941406, 11.147933959960938, -20.771053314208984, 130.385009765625, 8.604514122009277, 0.03564453125, 0.16552734375, -0.8076171875
397, 1762308761, -4.993442058563232, -4.071979999542236, 11.262621879577637, -25.184606552124023, 135.95468139648438, 18.768781661987305, 0.06982421875, 0.17236328125, -0.807373046875
398, 1762325428, -3.6959526538848877, -6.749323844909668, 13.13575267791748, 17.911455154418945, 118.79393005371094, 29.258813858032227, 0.102783203125, 0.16796875, -0.79833984375
399, 1762342095, -2.5121350288391113, -6.492110729217529, 16.168743133544922, 54.374427795410156, 78.24750518798828, 15.556888580322266, 0.1279296875, 0.155517578125, -0.794189453125
400, 1762358762, 2.6565372943878174, -3.927685260772705, 13.255393028259277, 52.708648681640625, 46.76036834716797, 3.541625738143921, 0.146240234375, 0.143798828125, -0.78857421875
401, 1762375429, 4.654691219329834, -2.5895884037017822, 12.271217346191406, 27.306623458862305, 30.17554473876953, 2.89735746383667, 0.1611328125, 0.134765625, -0.78466796875
402, 1762392096, 4.7725114822387695, -3.2829344272613525, 12.153766632080078, 10.899882316589355, 7.0395331382751465, 3.8198485374450684, 0.170654296875, 0.128173828125, -0.7734375
403, 1762408763, 4.144759654998779, -3.501357316970825, 12.206245422363281, 4.296364784240723, -20.179553985595703, 0.2979516088962555, 0.17724609375, 0.123779296875, -0.764404296875
404, 1762425430, 2.214270830154419, -3.806985378265381, 12.957162857055664, -9.112774848937988, -49.233646392822266, -11.183504104614258, 0.17626953125, 0.124755859375, -0.75830078125
405, 1762442097, -0.16578032076358795, -4.271177768707275, 13.453178405761719, -22.728422164916992, -87.60121154785156, -29.41207504272461, 0.17333984375, 0.1298828125, -0.7548828125
406, 1762458764, -0.838341236114502, -3.976797342300415, 12.026484489440918, -25.200084686279297, -124.60590362548828, -42.21432113647461, 0.16015625, 0.1357421875, -0.756591796875
407, 1762475431, -1.6018190383911133, -3.140526533126831, 10.812808990478516, -26.601924896240234, -142.20997619628906, -45.82198715209961, 0.1435546875, 0.14306640625, -0.759521484375
408, 1762492098, -2.969935894012451, -2.8458049297332764, 10.835772514343262, -30.905759811401367, -150.73861694335938, -44.58121871948242, 0.12060546875, 0.153564453125, -0.76611328125
409, 1762508765, -4.786702632904053, -2.7481160163879395, 11.657958984375, -37.047088623046875, -158.93858337402344, -43.37752151489258, 0.096923828125, 0.16845703125, -0.773193359375
410, 1762525432, -6.162046909332275, -2.489143133163452, 11.9381742477417, -41.937015533447266, -170.77920532226562, -43.32863235473633, 0.063232421875, 0.185302734375, -0.781494140625
411, 1762542099, -7.226679801940918, -1.90168035030365, 12.124141693115234, -44.91130065917969, -181.07464599609375, -43.488651275634766, 0.0244140625, 0.20458984375, -0.78759765625
412, 1762558766, -7.658413887023926, -1.8723145723342896, 11.519269943237305, -39.44212341308594, -194.50062561035156, -42.67878341674805, -0.0205078125, 0.21923828125, -0.79296875
413, 1762575433, -6.551480293273926, -1.248849868774414, 9.773781776428223, -27.137174606323242, -194.4494171142578, -34.57511901855469, -0.067138671875, 0.232421875, -0.798583984375
414, 1762592100, -6.547579288482666, -0.400084912776947, 8.99116325378418, -31.617774963378906, -179.13685607910156, -25.638980865478516, -0.11767578125, 0.243408203125, -0.794189453125
415, 1762608767, -6.463052272796631, -0.28066325187683105, 7.834964752197266, -43.85255432128906, -160.7282257080078, -16.920652389526367, -0.160888671875, 0.255615234375, -0.792236328125
416, 1762625434, -7.642501354217529, -0.6528226733207703, 8.059548377990723, -48.90266036987305, -145.5806884765625, -10.435664176940918, -0.200927734375, 0.268798828125, -0.782958984375
417, 1762642101, -7.512661933898926, -0.5082830190658569, 6.740647792816162, -45.24821090698242, -136.09799194335938, -6.838728904724121, -0.236572265625, 0.2802734375, -0.770751953125
418, 1762658768, -6.494104862213135, 0.19275033473968506, 4.612548828125, -36.37568283081055, -110.84832763671875, 2.577343702316284, -0.2666015625, 0.2919921875, -0.760986328125
419, 1762675435, -7.102685928344727, 0.2860182523727417, 4.784992218017578, -33.20880126953125, -85.56100463867188, 10.508394241333008, -0.28759765625, 0.2998046875, -0.75048828125
420, 1762692102, -6.960050106048584, 0.039380013942718506, 4.247249126434326, -25.083309173583984, -71.13890838623047, 16.190914154052734, -0.3056640625, 0.306640625, -0.74365234375
421, 1762708769, -6.022487163543701, 0.4246446192264557, 3.1447112560272217, -5.838987827301025, -48.83555221557617, 24.01848793029785, -0.31787109375, 0.3115234375, -0.734130859375
422, 1762725436, -6.324800491333008, 0.4222514033317566, 3.8015737533569336, 3.4548680782318115, -24.150440216064453, 26.73501205444336, -0.32275390625, 0.3154296875, -0.732177734375
423, 1762742103, -6.645168781280518, -0.12949541211128235, 4.426763534545898, 14.310470581054688, -7.349767684936523, 26.079326629638672, -0.326416015625, 0.31494140625, -0.732666015625
424, 1762758770, -6.936678409576416, -0.15937663614749908, 4.704471111297607, 35.55707550048828, 10.209882736206055, 33.894554138183594, -0.32373046875, 0.31298828125, -0.734619140625
425, 1762775437, -7.745901584625244, -1.5549087524414062, 5.082404136657715, 43.58878707885742, 27.06670379638672, 44.18458557128906, -0.313232421875, 0.306640625, -0.741455078125
426, 1762792104, -2.4328224658966064, -4.377106666564941, 5.501247406005859, 49.848209381103516, 40.8696174621582, 59.08194351196289, -0.2998046875, 0.302734375, -0.749755859375
427, 1762808771, 1.8722010850906372, -5.799198627471924, 8.448076248168945, 42.32035827636719, 67.71033477783203, 71.1702651977539, -0.2822265625, 0.2978515625, -0.759765625
428, 1762825438, 4.234890937805176, -12.713597297668457, 7.654865741729736, 11.293377876281738, 128.95460510253906, 40.39523696899414, -0.255615234375, 0.298095703125, -0.770263671875
429, 1762842105, 0.2694997787475586, -6.486960411071777, 2.1983561515808105, 23.179479598999023, 182.33367919921875, -1.243247628211975, -0.21875, 0.29296875, -0.78369140625
430, 1762858772, -5.051562786102295, 3.2318789958953857, 12.810874938964844, -9.937454223632812, 211.53472900390625, 2.5503971576690674, -0.16796875, 0.294921875, -0.795654296875
431, 1762875439, -5.358946323394775, 5.48777961730957, 12.33320426940918, -12.550925254821777, 185.65248107910156, 30.481590270996094, -0.123046875, 0.29931640625, -0.80224609375
432, 1762892106, -8.719088554382324, -1.2101657390594482, 14.056153297424316, -19.05274772644043, 158.35552978515625, 46.63276290893555, -0.079833984375, 0.30322265625, -0.804443359375
433, 1762908773, -8.46640682220459, -5.913259029388428, 11.031299591064453, -25.157390594482422, 125.5880126953125, 29.58141326904297, -0.04541015625, 0.313720703125, -0.8046875
434, 1762925440, -6.765676021575928, -4.509953498840332, 9.630328178405762, -29.790977478027344, 119.80081939697266, 16.6281681060791, -0.0146484375, 0.31982421875, -0.80517578125
435, 1762942107, -6.31634521484375, -2.1802642345428467, 10.104990005493164, -42.124019622802734, 107.67798614501953, 4.196103096008301, 0.01123046875, 0.3291015625, -0.80224609375
436, 1762958774, -8.131306648254395, -6.47164249420166, 10.510905265808105, -23.347211837768555, 88.55882263183594, 9.6813325881958, 0.036376953125, 0.3359375, -0.79833984375
437, 1762975441, -6.486114025115967, -3.476454496383667, 8.731427192687988, 28.975284576416016, 44.62245559692383, 19.509464263916016, 0.050048828125, 0.33154296875, -0.801513671875
438, 1762992108, -4.996292591094971, -2.5584700107574463, 9.104317665100098, 22.919225692749023, 30.37017059326172, 12.912747383117676, 0.05908203125, 0.324462890625, -0.79833984375
439, 1763008775, -5.003832817077637, -3.3043887615203857, 8.366369247436523, 24.405561447143555, 23.326223373413086, 12.869434356689453, 0.068115234375, 0.318603515625, -0.802001953125
440, 1763025442, -4.779505729675293, -2.535409927368164, 8.457881927490234, 24.151796340942383, 18.016223907470703, 12.250707626342773, 0.07421875, 0.312744140625, -0.805908203125
441, 1763042109, -5.103620529174805, -2.540973663330078, 8.982081413269043, 21.807830810546875, 16.610397338867188, 9.697689056396484, 0.077392578125, 0.3076171875, -0.807373046875
442, 1763058776, -4.937171459197998, -2.2235987186431885, 8.813488960266113, 13.471136093139648, 12.095451354980469, 4.819681644439697, 0.081787109375, 0.3017578125, -0.80908203125
443, 1763075443, -4.707339286804199, -2.404571533203125, 8.747889518737793, 6.717020034790039, 14.327288627624512, 0.9356391429901123, 0.0859375, 0.30126953125, -0.80810546875
444, 1763092110, -4.60335111618042, -2.590977668762207, 8.380331039428711, 0.6442428231239319, 11.854182243347168, -1.6483441591262817, 0.08984375, 0.302734375, -0.8076171875
445, 1763108777, -4.813658714294434, -2.559666395187378, 8.247268676757812, -0.9262579679489136, 10.770419120788574, -1.3164162635803223, 0.09130859375, 0.30078125, -0.807373046875
446, 1763125444, -4.711063861846924, -2.466681718826294, 8.264437675476074, -2.3731329441070557, 9.018793106079102, -1.5937252044677734, 0.09375, 0.3037109375, -0.807861328125
447, 1763142111, -4.929085731506348, -2.426791191101074, 8.508338928222656, -6.5939154624938965, 8.20126724243164, -4.236086368560791, 0.095947265625, 0.30224609375, -0.808837890625
448, 1763158778, -4.674363613128662, -2.547247886657715, 8.24917984008789, -9.934647560119629, 7.50054931640625, -6.7350172996521, 0.09765625, 0.305419921875, -0.806396484375
449, 1763175445, -4.625590801239014, -2.7767810821533203, 7.884695529937744, -8.001117706298828, 9.346176147460938, -5.388889312744141, 0.099365234375, 0.307373046875, -0.805419921875
450, 1763192112, -4.828794479370117, -2.734071731567383, 7.907473564147949, -5.337183475494385, 8.724919319152832, -3.181335926055908, 0.099609375, 0.309814453125, -0.803466796875
451, 1763208779, -4.958993434906006, -2.777693748474121, 7.8086838722229, -2.266186475753784, 7.646576881408691, -0.9746018648147583, 0.103271484375, 0.310302734375, -0.8017578125
452, 1763225446, -4.768211841583252, -2.779102087020874, 7.7107110023498535, 1.339294672012329, 5.074523448944092, 0.4386751353740692, 0.103271484375, 0.308837890625, -0.8037109375
453, 1763242113, -4.393709659576416, -2.9175891876220703, 7.709128379821777, 2.812127113342285, 6.40704870223999, 2.062392234802246, 0.105712890625, 0.307861328125, -0.80419921875
454, 1763258780, -4.426872253417969, -2.874016761779785, 7.806791305541992, 4.950815200805664, 8.380254745483398, 6.370143413543701, 0.108642578125, 0.305908203125, -0.8037109375
455, 1763275447, -4.543436050415039, -2.9279541969299316, 7.511105537414551, 8.698931694030762, 7.653471946716309, 10.918990135192871, 0.111328125, 0.304931640625, -0.8046875
456, 1763292114, -4.4210638999938965, -3.1130738258361816, 7.28148889541626, 16.498065948486328, 9.142030715942383, 16.37578773498535, 0.11669921875, 0.301513671875, -0.804443359375
457, 1763308781, -4.702905178070068, -2.7772867679595947, 7.594661712646484, 23.664493560791016, 10.786773681640625, 21.680744171142578, 0.121826171875, 0.296875, -0.807373046875
458, 1763325448, -4.845053672790527, -2.7084310054779053, 7.9486236572265625, 24.781856536865234, 8.493806838989258, 24.557296752929688, 0.125, 0.28857421875, -0.80712890625
459, 1763342115, -4.713509559631348, -2.6846885681152344, 8.08018684387207, 14.594938278198242, 12.048579216003418, 22.960224151611328, 0.1298828125, 0.284912109375, -0.810546875
460, 1763358782, -4.724285125732422, -2.5248491764068604, 8.22895336151123, 15.461041450500488, 15.023332595825195, 23.950531005859375, 0.132080078125, 0.280517578125, -0.810546875
461, 1763375449, -4.927915573120117, -1.871748924255371, 8.684739112854004, 15.877466201782227, 23.27396583557129, 26.3891658782959, 0.1416015625, 0.27099609375, -0.809814453125
462, 1763392116, -5.017824649810791, -1.4616161584854126, 8.497875213623047, 7.70366096496582, 45.44058609008789, 22.90056037902832, 0.153076171875, 0.271728515625, -0.80859375
463, 1763408783, -5.125915050506592, -1.0479402542114258, 8.353299140930176, -7.54842472076416, 72.10662841796875, 14.227709770202637, 0.169189453125, 0.267333984375, -0.80517578125
464, 1763425450, -5.216710567474365, -1.58822762966156, 8.161267280578613, -15.046785354614258, 99.97119140625, 3.9781224727630615, 0.19189453125, 0.27294921875, -0.798828125
465, 1763442117, -5.488154411315918, -1.837415337562561, 7.964808464050293, -15.3324613571167, 122.7113037109375, -2.0695793628692627, 0.218505859375, 0.277099609375, -0.790771484375
466, 1763458784, -5.762115001678467, -2.1365909576416016, 7.712620735168457, -14.465922355651855, 142.52996826171875, -3.2757556438446045, 0.250732421875, 0.283447265625, -0.781982421875
467, 1763475451, -5.664554119110107, -1.957892656326294, 7.818537712097168, -15.442069053649902, 166.86436462402344, -3.5811126232147217, 0.287109375, 0.286376953125, -0.767822265625
468, 1763492118, -5.596635818481445, -2.000171184539795, 8.015028953552246, -15.805959701538086, 203.4530792236328, -6.745288372039795, 0.327392578125, 0.291015625, -0.748046875
469, 1763508785, -5.297309398651123, -2.4882962703704834, 8.131843566894531, -17.038942337036133, 255.29725646972656, -7.950455665588379, 0.377197265625, 0.2890625, -0.722900390625
470, 1763525452, -5.420193195343018, -3.05147647857666, 7.981434345245361, -19.658058166503906, 324.3743591308594, 3.1038525104522705, 0.43994140625, 0.29443359375, -0.682373046875
471, 1763542119, -5.811546802520752, -3.2139132022857666, 8.756168365478516, -23.64068603515625, 407.6474609375, 29.848678588867188, 0.51611328125, 0.296142578125, -0.626220703125
472, 1763558786, -10.187923431396484, -2.654919147491455, 9.737364768981934, -43.724117279052734, 468.62158203125, 62.13636779785156, 0.599365234375, 0.293212890625, -0.54736328125
473, 1763575453, -15.807454109191895, -2.851597309112549, 10.433722496032715, -65.58865356445312, 482.9881591796875, 68.03697204589844, 0.6748046875, 0.287109375, -0.452392578125
474, 1763592120, -16.490785598754883, -5.758303165435791, 10.71435546875, -68.63957977294922, 472.5743408203125, 90.70879364013672, 0.736328125, 0.2763671875, -0.3466796875
475, 1763608787, -16.664878845214844, -7.351830005645752, 10.030448913574219, -56.982643127441406, 434.6212463378906, 121.95478820800781, 0.783935546875, 0.2548828125, -0.24169921875
476, 1763625454, -12.298667907714844, -7.191624641418457, 12.925924301147461, -20.04696273803711, 373.44085693359375, 145.44190979003906, 0.812744140625, 0.21875, -0.15087890625
477, 1763642121, -4.700072765350342, -4.559049129486084, 14.18200397491455, -40.76953125, 270.43389892578125, 117.29899597167969, 0.826171875, 0.18896484375, -0.076171875
478, 1763658788, -33.183860778808594, -9.188440322875977, 27.300249099731445, -53.52094650268555, 114.71332550048828, 102.88794708251953, 0.82861328125, 0.16015625, -0.035400390625
479, 1763675455, -10.63932991027832, -10.262656211853027, 21.331707000732422, -15.056699752807617, -131.01119995117188, 18.10889434814453, 0.82275390625, 0.1474609375, -0.048828125
480, 1763692122, -1.1409212350845337, -5.580116271972656, 10.06306266784668, 75.84986114501953, -216.99913024902344, 56.44906997680664, 0.810546875, 0.12939453125, -0.084716796875
481, 1763708789, -0.23654821515083313, -2.384995222091675, 6.684770584106445, 110.40511322021484, -214.6343994140625, 99.06318664550781, 0.8076171875, 0.100341796875, -0.1201171875
482, 1763725456, -3.4493138790130615, -2.444284439086914, 8.977644920349121, 80.2657699584961, -225.79278564453125, 93.90342712402344, 0.81396484375, 0.067626953125, -0.15087890625
483, 1763742123, -6.560512542724609, -3.8490898609161377, 10.487747192382812, 17.515104293823242, -290.59490966796875, 42.91726303100586, 0.831787109375, 0.04638671875, -0.195556640625
484, 1763758790, -6.690978050231934, -6.093445301055908, 8.013898849487305, -10.321178436279297, -360.39306640625, -18.105714797973633, 0.85595703125, 0.0478515625, -0.285400390625
485, 1763775457, -6.397553443908691, -6.334066867828369, 4.547982215881348, 19.2580623626709, -393.9651184082031, -49.16719055175781, 0.855712890625, 0.056640625, -0.42236328125
486, 1763792124, -7.478240966796875, -5.109346389770508, 3.863307237625122, 49.480072021484375, -393.79132080078125, -47.64934158325195, 0.79296875, 0.060546875, -0.57470703125
487, 1763808791, -8.068316459655762, -2.960495948791504, 5.45906925201416, 34.50761413574219, -382.0825500488281, -55.2883415222168, 0.68359375, 0.05517578125, -0.68896484375
488, 1763825458, -7.612077236175537, -1.8600122928619385, 5.5024542808532715, -12.651813507080078, -373.757568359375, -81.155029296875, 0.570556640625, 0.06640625, -0.75146484375
489, 1763842125, -8.81246566772461, -1.5061529874801636, 6.244462013244629, -51.23045349121094, -355.8545227050781, -93.10478973388672, 0.4775390625, 0.097412109375, -0.78271484375
490, 1763858792, -10.51121711730957, 0.7352399230003357, 7.296040058135986, -89.27117919921875, -333.57049560546875, -86.74102020263672, 0.41796875, 0.13916015625, -0.810302734375
491, 1763875459, -12.550785064697266, 0.3421255648136139, 7.0451979637146, -116.71110534667969, -304.05950927734375, -71.99737548828125, 0.35400390625, 0.18701171875, -0.859130859375
492, 1763892126, -16.71311378479004, -3.87029767036438, 10.034590721130371, -105.16189575195312, -281.442138671875, -67.92447662353516, 0.2666015625, 0.232666015625, -0.90380859375
493, 1763908793, -19.907960891723633, -5.598292827606201, 12.75947093963623, -66.91763305664062, -294.8753662109375, -98.69068908691406, 0.144775390625, 0.267822265625, -0.91455078125
494, 1763925460, -19.383432388305664, -1.8379473686218262, 11.67292594909668, -35.23215866088867, -310.2549133300781, -124.51119232177734, 0.02001953125, 0.2802734375, -0.897705078125
495, 1763942127, -20.026859283447266, 2.0351316928863525, 10.16211223602295, -25.657167434692383, -306.75177001953125, -113.5898208618164, -0.07666015625, 0.27685546875, -0.866455078125
496, 1763958794, -22.0561580657959, 2.4460766315460205, 7.794042110443115, -26.465587615966797, -302.2295227050781, -77.01318359375, -0.16015625, 0.27490234375, -0.83642578125
497, 1763975461, -21.534915924072266, 1.264688491821289, 3.17220401763916, -24.721996307373047, -281.76068115234375, -48.44474411010742, -0.23095703125, 0.273681640625, -0.8037109375
498, 1763992128, -20.9907169342041, 1.7301169633865356, 0.299879789352417, -42.517364501953125, -230.3594207763672, -45.53306198120117, -0.286376953125, 0.274658203125, -0.77978515625
499, 1764008795, -20.353740692138672, 4.096659183502197, -3.251901388168335, -62.868690490722656, -163.99639892578125, -49.05651092529297, -0.32666015625, 0.27783203125, -0.7529296875
500, 1764025462, -21.775657653808594, 3.702425241470337, -7.239967346191406, -55.6685676574707, -89.3782730102539, -40.285186767578125, -0.351806640625, 0.2861328125, -0.73193359375
501, 1764042129, -21.743175506591797, 2.3395769596099854, -9.26730728149414, -5.429985523223877, -13.421992301940918, -25.08133888244629, -0.358154296875, 0.285400390625, -0.724609375
502, 1764058796, -15.019761085510254, 1.820670247077942, -9.895956039428711, 36.37316131591797, 91.58023834228516, 10.149895668029785, -0.345703125, 0.277099609375, -0.730712890625
503, 1764075463, 2.8435378074645996, -5.053666591644287, 17.411420822143555, -13.991293907165527, 135.77142333984375, -4.597128391265869, -0.318359375, 0.27880859375, -0.73779296875
504, 1764092130, 0.7088415622711182, -7.175610542297363, 10.737099647521973, -4.265021800994873, 170.9918212890625, 16.313270568847656, -0.282958984375, 0.278076171875, -0.74853515625
505, 1764108797, -8.823115348815918, 8.2308988571167, 11.969574928283691, -23.5953311920166, 193.34512329101562, 21.723297119140625, -0.239990234375, 0.279052734375, -0.753662109375
506, 1764125464, -9.695699691772461, 2.2746331691741943, 16.079675674438477, -28.88873291015625, 162.8170623779297, 58.14335250854492, -0.19775390625, 0.2900390625, -0.761474609375
507, 1764142131, -5.652403354644775, -10.62662410736084, 6.727485179901123, -26.015884399414062, 151.10159301757812, 40.898067474365234, -0.1640625, 0.29736328125, -0.763916015625
508, 1764158798, -6.2211480140686035, -6.408285140991211, 8.929097175598145, -12.190552711486816, 151.80447387695312, 28.975767135620117, -0.128173828125, 0.298828125, -0.7646484375
509, 1764175465, -5.037978172302246, -1.6577637195587158, 8.912369728088379, -0.8041881322860718, 130.276611328125, 36.349849700927734, -0.0947265625, 0.301025390625, -0.7685546875
510, 1764192132, -8.719030380249023, -6.889151573181152, 9.967354774475098, 16.311687469482422, 116.74371337890625, 38.634376525878906, -0.066650390625, 0.30078125, -0.771484375
511, 1764208799, -7.703940391540527, -2.326751470565796, 9.986430168151855, 64.17312622070312, 73.83447265625, 42.066001892089844, -0.044677734375, 0.285888671875, -0.776611328125
512, 1764225466, -5.747251033782959, -1.575213074684143, 10.103157997131348, 56.61687469482422, 48.027156829833984, 28.562108993530273, -0.029296875, 0.27099609375, -0.781005859375
513, 1764242133, -5.315505027770996, -1.3787580728530884, 10.001185417175293, 49.479270935058594, 34.073577880859375, 25.21489715576172, -0.022216796875, 0.259521484375, -0.781494140625
514, 1764258800, -5.902645587921143, -2.4712233543395996, 9.626164436340332, 32.276519775390625, 21.540544509887695, 15.282631874084473, -0.01513671875, 0.25, -0.78466796875
515, 1764275467, -5.303315162658691, -1.9968178272247314, 9.158169746398926, 21.504505157470703, 11.058418273925781, 9.057037353515625, -0.011474609375, 0.24658203125, -0.78759765625
516, 1764292134, -5.585903644561768, -2.734642744064331, 8.616151809692383, 7.217334747314453, 6.713840961456299, 2.8598833084106445, -0.006103515625, 0.241943359375, -0.786376953125
517, 1764308801, -4.877477169036865, -2.2643649578094482, 8.217822074890137, 3.221251964569092, 3.6649537086486816, 2.038559913635254, -0.0048828125, 0.239501953125, -0.787841796875
518, 1764325468, -4.417607307434082, -2.124830961227417, 8.35677719116211, 6.539095878601074, 2.8411340713500977, 3.255265951156616, -0.00634765625, 0.239501953125, -0.787841796875
519, 1764342135, -4.636035919189453, -2.2910983562469482, 8.309379577636719, 4.964542865753174, 3.9797210693359375, 2.2282347679138184, -0.00634765625, 0.238037109375, -0.788330078125
520, 1764358802, -4.881625175476074, -2.214223623275757, 8.399195671081543, 2.119342088699341, 5.406104564666748, 1.9941215515136719, -0.0029296875, 0.239013671875, -0.788330078125
521, 1764375469, -4.901875972747803, -2.101531744003296, 8.341841697692871, -2.292759656906128, 6.4348273277282715, 0.4142022728919983, 0.0, 0.239501953125, -0.789794921875
522, 1764392136, -4.843173503875732, -2.227017641067505, 8.163942337036133, -3.9993226528167725, 10.686511993408203, -0.46941691637039185, 0.00146484375, 0.239013671875, -0.788330078125
523, 1764408803, -4.77962064743042, -2.262134075164795, 8.11142635345459, -3.3878066539764404, 12.722603797912598, 0.4776771366596222, 0.0029296875, 0.239013671875, -0.788330078125
524, 1764425470, -4.685388565063477, -2.333630084991455, 8.057785987854004, -1.620977759361267, 13.659333229064941, 2.3837180137634277, 0.00439453125, 0.241455078125, -0.787353515625
525, 1764442137, -4.724114894866943, -2.3615663051605225, 8.045345306396484, 0.638813316822052, 15.2441987991333, 5.855663776397705, 0.010498046875, 0.2421875, -0.78564453125
526, 1764458804, -4.80084228515625, -2.3473517894744873, 7.925694942474365, 1.6032353639602661, 16.7735538482666, 8.681775093078613, 0.015380859375, 0.24072265625, -0.7890625
527, 1764475471, -4.949573040008545, -2.297703266143799, 7.908756732940674, 3.4047203063964844, 17.335567474365234, 10.403388023376465, 0.0205078125, 0.2392578125, -0.786376953125
528, 1764492138, -4.580035209655762, -2.2253613471984863, 7.976759433746338, 4.539432525634766, 20.2777156829834, 13.963068962097168, 0.02685546875, 0.2392578125, -0.788330078125
529, 1764508805, -4.5596513748168945, -2.4471375942230225, 7.912895202636719, 11.2311429977417, 30.936567306518555, 19.70416259765625, 0.033447265625, 0.23486328125, -0.78662109375
530, 1764525472, -5.02211332321167, -2.1206603050231934, 7.999515533447266, 11.547158241271973, 39.668121337890625, 22.421600341796875, 0.0419921875, 0.232421875, -0.785400390625
531, 1764542139, -5.119797706604004, -2.148218870162964, 8.072195053100586, 9.550349235534668, 50.8365364074707, 23.700054168701172, 0.055908203125, 0.22998046875, -0.78515625
532, 1764558806, -5.001864433288574, -1.943260669708252, 8.13021469116211, 7.974526882171631, 67.34322357177734, 25.009370803833008, 0.070556640625, 0.22607421875, -0.786865234375
533, 1764575473, -5.060555458068848, -1.7828153371810913, 7.995499610900879, 2.1241209506988525, 90.36846923828125, 26.095304489135742, 0.092529296875, 0.22314453125, -0.7822265625
534, 1764592140, -5.16826057434082, -1.7610032558441162, 7.983510971069336, -1.2785753011703491, 118.10072326660156, 27.455257415771484, 0.119384765625, 0.222900390625, -0.77978515625
535, 1764608807, -5.457629203796387, -1.750121831893921, 7.863619804382324, -3.4468488693237305, 144.17117309570312, 29.29128646850586, 0.14990234375, 0.22216796875, -0.771728515625
536, 1764625474, -5.603717803955078, -1.6709948778152466, 7.781768798828125, 0.38304632902145386, 170.04676818847656, 32.4282341003418, 0.188232421875, 0.221435546875, -0.764892578125
537, 1764642141, -5.656076431274414, -1.2248573303222656, 7.822404384613037, -0.9090291261672974, 201.65550231933594, 32.317230224609375, 0.235595703125, 0.218505859375, -0.750244140625
538, 1764658808, -5.8925628662109375, -1.269436240196228, 7.760888576507568, 1.5535660982131958, 247.70828247070312, 31.710376739501953, 0.2841796875, 0.21533203125, -0.729736328125
539, 1764675475, -5.948917865753174, -1.9410009384155273, 7.160098552703857, 13.596209526062012, 315.4607238769531, 42.143489837646484, 0.346923828125, 0.207763671875, -0.701171875
540, 1764692142, -6.500603675842285, -2.4424588680267334, 8.25025749206543, 24.704540252685547, 409.4236755371094, 59.187347412109375, 0.424072265625, 0.19580078125, -0.658447265625
541, 1764708809, -9.719311714172363, -3.2847230434417725, 10.093162536621094, 26.230764389038086, 494.55743408203125, 92.0191879272461, 0.516845703125, 0.17919921875, -0.58984375
542, 1764725476, -17.880189895629883, -0.9323796629905701, 11.311391830444336, 13.612006187438965, 508.2554626464844, 115.31198120117188, 0.60498046875, 0.15673828125, -0.50146484375
543, 1764742143, -19.748598098754883, -5.050847053527832, 11.216630935668945, 7.51016092300415, 478.41387939453125, 117.8060531616211, 0.673583984375, 0.13134765625, -0.406005859375
544, 1764758810, -19.512676239013672, -6.78884220123291, 13.125876426696777, 18.874252319335938, 437.8467712402344, 132.87171936035156, 0.72998046875, 0.1015625, -0.31298828125
545, 1764775477, -11.414687156677246, -5.0469560623168945, 15.992926597595215, 12.485298156738281, 367.6658630371094, 122.72417449951172, 0.768310546875, 0.068603515625, -0.221923828125
546, 1764792144, -10.113630294799805, -4.695278167724609, 16.652408599853516, -29.969470977783203, 221.32029724121094, 79.7179946899414, 0.783447265625, 0.046875, -0.15673828125
547, 1764808811, -31.850852966308594, -5.912252426147461, 33.13880157470703, -70.66496276855469, 26.03919219970703, 26.82917022705078, 0.787841796875, 0.028076171875, -0.1279296875
548, 1764825478, -8.657037734985352, -10.188106536865234, 18.327695846557617, -53.5513916015625, -215.5614471435547, -68.09619903564453, 0.777587890625, 0.03759765625, -0.15625
549, 1764842145, 1.9154212474822998, -5.356295108795166, 6.3915934562683105, 30.654319763183594, -262.2337951660156, -42.97318649291992, 0.7666015625, 0.042236328125, -0.203857421875
550, 1764858812, 2.3157827854156494, -1.687818169593811, 4.110982418060303, 75.89683532714844, -205.72227478027344, -5.606187343597412, 0.75927734375, 0.0322265625, -0.242919921875
551, 1764875479, -2.9192843437194824, -1.2546825408935547, 8.962383270263672, 53.300899505615234, -204.76119995117188, -7.656781196594238, 0.759521484375, 0.022216796875, -0.274169921875
552, 1764892146, -6.3802690505981445, -2.1745495796203613, 10.389634132385254, 17.725784301757812, -279.0789489746094, -38.74862289428711, 0.756103515625, 0.0234375, -0.331787109375
553, 1764908813, -5.169116973876953, -2.774167537689209, 7.072491645812988, 13.930144309997559, -338.1958312988281, -48.975162506103516, 0.739501953125, 0.0390625, -0.420166015625
554, 1764925480, -5.2382402420043945, -1.4632608890533447, 5.536840915679932, 25.503801345825195, -354.5696716308594, -32.897212982177734, 0.68701171875, 0.05126953125, -0.521728515625
555, 1764942147, -7.436661243438721, -0.33347415924072266, 6.934147834777832, 4.133241176605225, -363.5681457519531, -19.97692108154297, 0.6005859375, 0.062744140625, -0.607666015625
556, 1764958814, -8.176828384399414, -0.45058926939964294, 7.347241401672363, -37.63784408569336, -372.4266662597656, -25.65448760986328, 0.483154296875, 0.075439453125, -0.658935546875
557, 1764975481, -9.20544719696045, -2.020444869995117, 7.802041053771973, -57.467769622802734, -382.16546630859375, -26.440656661987305, 0.370361328125, 0.076416015625, -0.670654296875
558, 1764992148, -11.626367568969727, -3.1273138523101807, 7.424684047698975, -67.62860107421875, -386.70269775390625, -42.791053771972656, 0.2822265625, 0.0712890625, -0.656982421875
559, 1765008815, -10.029936790466309, -0.703003466129303, 6.708383560180664, -89.96922302246094, -359.916259765625, -67.24610900878906, 0.22509765625, 0.052978515625, -0.630859375
560, 1765025482, -11.974980354309082, 0.2780895233154297, 7.28939151763916, -118.28816986083984, -299.0296630859375, -76.81055450439453, 0.22900390625, 0.033935546875, -0.592529296875
561, 1765042149, -17.377212524414062, -0.11003336310386658, 14.092300415039062, -132.45870971679688, -275.2314453125, -67.48123168945312, 0.29931640625, 0.0283203125, -0.603515625
562, 1765058816, -21.722549438476562, -0.5124724507331848, 16.257455825805664, -138.76048278808594, -311.525146484375, -67.39013671875, 0.377685546875, 0.069091796875, -0.710693359375
563, 1765075483, -22.14980697631836, -1.117971658706665, 11.576850891113281, -98.94725036621094, -343.55120849609375, -63.90775680541992, 0.35693359375, 0.15478515625, -0.86328125
564, 1765092150, -21.838838577270508, 1.3454053401947021, 7.55574893951416, -55.90268325805664, -328.9680480957031, -59.07448959350586, 0.2275390625, 0.240478515625, -0.96484375
565, 1765108817, -22.8139591217041, 2.0102837085723877, 4.070172309875488, -51.01444625854492, -288.4259033203125, -65.83313751220703, 0.078125, 0.302490234375, -0.988525390625
566, 1765125484, -22.940279006958008, 1.1673481464385986, -0.12519139051437378, -40.318424224853516, -239.07711791992188, -77.95357513427734, -0.044189453125, 0.339599609375, -0.970458984375
567, 1765142151, -21.973905563354492, 4.231778144836426, -5.021117210388184, -8.567609786987305, -177.36721801757812, -83.06700134277344, -0.1318359375, 0.3603515625, -0.952880859375
568, 1765158818, -23.113567352294922, 7.870173931121826, -8.98643684387207, 8.974520683288574, -101.41236114501953, -74.61592102050781, -0.1904296875, 0.366455078125, -0.93505859375
569, 1765175485, -24.05085563659668, 7.292568683624268, -10.11625862121582, 24.059152603149414, -17.615510940551758, -70.52562713623047, -0.220703125, 0.36669921875, -0.9296875
570, 1765192152, -20.68694305419922, 7.27987003326416, -8.851790428161621, 47.7268180847168, 63.222869873046875, -53.63248062133789, -0.22314453125, 0.360107421875, -0.936279296875
571, 1765208819, 5.836605548858643, 0.8566862940788269, 14.182563781738281, 52.23419952392578, 107.36245727539062, 15.485575675964355, -0.2001953125, 0.353759765625, -0.952880859375
572, 1765225486, 5.095916748046875, -12.082480430603027, 12.762674331665039, -36.773460388183594, 184.16172790527344, 2.1061573028564453, -0.158447265625, 0.367919921875, -0.965087890625
573, 1765242153, -7.227888107299805, 1.5626428127288818, 6.399857997894287, -15.960390090942383, 226.42669677734375, 20.198036193847656, -0.102783203125, 0.385009765625, -0.969482421875
574, 1765258820, -10.003424644470215, 9.676187515258789, 17.703121185302734, -20.47092628479004, 218.79153442382812, 45.944766998291016, -0.038330078125, 0.404541015625, -0.970947265625
575, 1765275487, -9.415722846984863, -3.450967788696289, 11.622989654541016, -12.452489852905273, 156.3973846435547, 59.533870697021484, 0.014892578125, 0.41455078125, -0.974365234375
576, 1765292154, -7.710057735443115, -10.910109519958496, 7.924375534057617, 8.987737655639648, 146.87669372558594, 43.59904479980469, 0.060302734375, 0.421630859375, -0.97314453125
577, 1765308821, -6.989224910736084, -0.13939234614372253, 10.792928695678711, 28.123580932617188, 119.93111419677734, 45.76975631713867, 0.1005859375, 0.4169921875, -0.975341796875
578, 1765325488, -11.823526382446289, -3.481760025024414, 12.927196502685547, 26.2104549407959, 85.27529907226562, 30.525741577148438, 0.131103515625, 0.4140625, -0.978515625
579, 1765342155, -5.855262279510498, -3.2200756072998047, 9.321385383605957, 44.4013786315918, 53.33919906616211, 20.725252151489258, 0.149169921875, 0.40185546875, -0.981201171875
580, 1765358822, -5.804446697235107, -0.41225531697273254, 10.321938514709473, 32.73601150512695, 30.71169662475586, 11.587882041931152, 0.162841796875, 0.393310546875, -0.98388671875
581, 1765375489, -5.67079496383667, -2.60756778717041, 9.263193130493164, 21.947978973388672, 23.09776496887207, 7.624460697174072, 0.17041015625, 0.3857421875, -0.986572265625
582, 1765392156, -4.7822442054748535, -1.7009506225585938, 8.499510765075684, 26.74872398376465, 13.854720115661621, 10.230535507202148, 0.175048828125, 0.37841796875, -0.987548828125
583, 1765408823, -4.83643102645874, -2.027235507965088, 8.669897079467773, 31.400358200073242, 7.08805513381958, 11.566287994384766, 0.18115234375, 0.369873046875, -0.990966796875
584, 1765425490, -4.30565881729126, -1.9277327060699463, 8.910545349121094, 24.866819381713867, 3.5629148483276367, 10.658930778503418, 0.180419921875, 0.36181640625, -0.996337890625
585, 1765442157, -4.464147567749023, -2.2230794429779053, 8.501256942749023, 16.342044830322266, 0.00434776209294796, 10.247035026550293, 0.185791015625, 0.35791015625, -0.997802734375
586, 1765458824, -4.501582145690918, -1.9241434335708618, 8.53799057006836, 18.85511016845703, -4.599844455718994, 11.337705612182617, 0.184326171875, 0.353759765625, -0.999267578125
587, 1765475491, -4.409252643585205, -1.7644526958465576, 8.640213012695312, 16.765668869018555, -7.655224800109863, 10.497259140014648, 0.18310546875, 0.34619140625, -1.001708984375
588, 1765492158, -4.583868503570557, -1.4021649360656738, 8.677654266357422, 12.075162887573242, -6.523368835449219, 8.580575942993164, 0.1826171875, 0.34375, -1.001708984375
589, 1765508825, -4.7175421714782715, -1.3511873483657837, 8.486090660095215, 8.496689796447754, -3.7666821479797363, 6.346426010131836, 0.1806640625, 0.338134765625, -1.004150390625
590, 1765525492, -4.665182113647461, -1.3275624513626099, 8.567447662353516, 4.650120258331299, -2.3507080078125, 4.898704528808594, 0.18212890625, 0.336669921875, -1.004638671875
591, 1765542159, -4.539028644561768, -1.4524235725402832, 8.477669715881348, 2.0272903442382812, -1.0042868852615356, 3.350301504135132, 0.18359375, 0.338134765625, -1.007080078125
592, 1765558826, -4.477670669555664, -1.515068769454956, 8.470254898071289, -0.11610237509012222, 2.2036335468292236, 3.036661148071289, 0.18115234375, 0.335693359375, -1.005615234375
593, 1765575493, -4.499689102172852, -1.5748356580734253, 8.456645965576172, 0.5926971435546875, 3.24690318107605, 3.88444185256958, 0.186279296875, 0.336181640625, -1.00146484375
594, 1765592160, -4.5341715812683105, -1.6915949583053589, 8.432975769042969, 2.2253150939941406, 3.2191009521484375, 5.907960891723633, 0.187255859375, 0.335205078125, -1.00341796875
595, 1765608827, -4.4351487159729, -1.6308989524841309, 8.446375846862793, 2.7490947246551514, 3.9783124923706055, 7.788112163543701, 0.187255859375, 0.335693359375, -1.006591796875
596, 1765625494, -4.4358134269714355, -1.5735385417938232, 8.475980758666992, 0.434423565864563, 7.686099052429199, 9.233465194702148, 0.191650390625, 0.334716796875, -1.00390625
597, 1765642161, -4.358172416687012, -1.5888874530792236, 8.50540542602539, -0.5998371839523315, 12.651385307312012, 10.268890380859375, 0.194580078125, 0.335693359375, -1.00390625
598, 1765658828, -4.459354400634766, -1.5180103778839111, 8.507362365722656, -0.018633272498846054, 20.461645126342773, 11.266988754272461, 0.203125, 0.333251953125, -0.999755859375
599, 1765675495, -4.512074947357178, -1.2528129816055298, 8.56295108795166, -2.761367082595825, 30.268325805664062, 11.745305061340332, 0.209716796875, 0.33447265625, -1.00048828125
600, 1765692162, -3.9070770740509033, -1.2284724712371826, 8.65237808227539, -5.36605167388916, 49.66355895996094, 13.406893730163574, 0.22314453125, 0.3330078125, -0.998291015625
601, 1765708829, -4.446805953979492, -1.0840339660644531, 8.557358741760254, -11.06556510925293, 73.87017822265625, 14.442303657531738, 0.2470703125, 0.336669921875, -0.98974609375
602, 1765725496, -4.542413234710693, -1.0906054973602295, 8.306878089904785, -15.79039192199707, 101.85806274414062, 12.710418701171875, 0.2734375, 0.341064453125, -0.983154296875
603, 1765742163, -4.735739231109619, -1.1767255067825317, 8.146965980529785, -17.9134464263916, 132.66004943847656, 11.774786949157715, 0.308837890625, 0.34619140625, -0.969482421875
604, 1765758830, -5.070106029510498, -1.3861913681030273, 8.074801445007324, -15.859256744384766, 163.16204833984375, 13.401190757751465, 0.3544921875, 0.34814453125, -0.953125
605, 1765775497, -5.133074760437012, -1.2686806917190552, 8.231799125671387, -9.817790985107422, 192.96165466308594, 15.723715782165527, 0.406982421875, 0.35107421875, -0.9345703125
606, 1765792164, -5.378643989562988, -1.2966582775115967, 8.218725204467773, -4.6008524894714355, 226.28880310058594, 20.334095001220703, 0.465576171875, 0.3505859375, -0.900634765625
607, 1765808831, -5.5386834144592285, -1.769026279449463, 7.438760757446289, 0.5460830330848694, 269.4089660644531, 34.04566192626953, 0.534912109375, 0.34912109375, -0.864501953125
608, 1765825498, -5.520019054412842, -2.038358688354492, 7.576394557952881, 10.502942085266113, 330.00946044921875, 55.67131042480469, 0.614013671875, 0.338623046875, -0.812255859375
609, 1765842165, -6.545482635498047, -3.045001745223999, 8.167016983032227, 28.299283981323242, 415.4347229003906, 82.8694839477539, 0.708251953125, 0.322021484375, -0.73291015625
610, 1765858832, -9.968273162841797, -3.4397785663604736, 10.00594711303711, 37.89479446411133, 487.76287841796875, 117.8556137084961, 0.8115234375, 0.291259765625, -0.629150390625
611, 1765875499, -18.760393142700195, -1.4048182964324951, 11.512836456298828, 28.11200523376465, 486.66815185546875, 136.6075897216797, 0.899658203125, 0.2509765625, -0.50732421875
612, 1765892166, -19.672161102294922, -4.781666278839111, 11.020098686218262, 29.039106369018555, 445.5233459472656, 136.8514404296875, 0.965576171875, 0.206298828125, -0.383056640625
613, 1765908833, -16.967178344726562, -5.09912633895874, 12.647757530212402, 42.974483489990234, 411.9856262207031, 145.87994384765625, 1.0078125, 0.1591796875, -0.263427734375
614, 1765925500, -10.263124465942383, -4.746771812438965, 14.672569274902344, 37.515132904052734, 353.763916015625, 135.44497680664062, 1.025390625, 0.11328125, -0.157470703125
615, 1765942167, -10.256170272827148, -2.9374241828918457, 16.46049690246582, 32.87433624267578, 206.77146911621094, 121.57522583007812, 1.0263671875, 0.07763671875, -0.08837890625
616, 1765958834, -25.629898071289062, -0.6465356945991516, 27.539403915405273, -44.03951644897461, 53.31201171875, 92.34827423095703, 1.020751953125, 0.041748046875, -0.062744140625
617, 1765975501, -8.82986831665039, -8.199786186218262, 17.580142974853516, -90.11357879638672, -162.66610717773438, -15.922873497009277, 1.00537109375, 0.04931640625, -0.105224609375
618, 1765992168, 0.013028591871261597, -7.108269214630127, 6.8268842697143555, -21.3758487701416, -211.09515380859375, -7.897355079650879, 0.990234375, 0.059814453125, -0.171875
619, 1766008835, 0.8316677808761597, -4.514108180999756, 3.8129568099975586, 35.80758285522461, -181.56185913085938, -3.1801111698150635, 0.970703125, 0.064697265625, -0.23193359375
620, 1766025502, -1.238631248474121, -4.130084991455078, 6.112827777862549, 52.017513275146484, -165.30909729003906, -30.012107849121094, 0.95703125, 0.076416015625, -0.279541015625
621, 1766042169, -5.053210735321045, -4.575277328491211, 8.859203338623047, 54.59382629394531, -202.6430206298828, -64.48817443847656, 0.93603515625, 0.097900390625, -0.34423828125
622, 1766058836, -6.630187034606934, -3.8050901889801025, 9.406800270080566, 54.04010772705078, -264.294921875, -96.8900375366211, 0.902099609375, 0.12744140625, -0.425048828125
623, 1766075503, -7.179640293121338, -2.4556243419647217, 8.016373634338379, 57.26247787475586, -311.1313781738281, -117.72056579589844, 0.83935546875, 0.15869140625, -0.517822265625
624, 1766092170, -7.662095546722412, 0.062307558953762054, 7.172598838806152, 50.753173828125, -341.041259765625, -117.24999237060547, 0.75732421875, 0.176513671875, -0.60986328125
625, 1766108837, -8.377442359924316, 1.552942156791687, 7.870635032653809, 33.00095748901367, -362.5075988769531, -96.19103240966797, 0.651611328125, 0.18212890625, -0.685302734375
626, 1766125504, -9.665680885314941, 1.3150043487548828, 8.70621395111084, 17.86247444152832, -385.80096435546875, -62.47796630859375, 0.550537109375, 0.17138671875, -0.74365234375
627, 1766142171, -9.79877758026123, 1.0919458866119385, 7.849242210388184, -1.4216395616531372, -403.99151611328125, -40.958702087402344, 0.43798828125, 0.162353515625, -0.79248046875
628, 1766158838, -8.624513626098633, 2.226703643798828, 6.090189456939697, -37.342132568359375, -383.0868225097656, -36.125545501708984, 0.320556640625, 0.15478515625, -0.812744140625
629, 1766175505, -11.904168128967285, 4.082659721374512, 8.127998352050781, -99.42145538330078, -328.699462890625, -33.568748474121094, 0.224853515625, 0.155517578125, -0.798828125
630, 1766192172, -14.109023094177246, 0.9725104570388794, 10.39840030670166, -123.788330078125, -297.90045166015625, -10.371700286865234, 0.161865234375, 0.160888671875, -0.780517578125
631, 1766208839, -18.893442153930664, -1.0752053260803223, 14.101690292358398, -121.07855987548828, -299.5575256347656, 5.3050947189331055, 0.1123046875, 0.16845703125, -0.765380859375
632, 1766225506, -22.761737823486328, -2.154356002807617, 13.129339218139648, -117.94702911376953, -336.1639404296875, -6.3722310066223145, 0.060791015625, 0.17919921875, -0.762451171875
633, 1766242173, -21.915874481201172, -1.776414155960083, 6.925111293792725, -87.21621704101562, -343.8493347167969, -24.66877555847168, 0.002685546875, 0.190185546875, -0.7587890625
634, 1766258840, -21.187793731689453, 1.959902286529541, 4.034923076629639, -77.0023193359375, -301.39410400390625, -33.506900787353516, -0.05419921875, 0.1962890625, -0.757080078125
635, 1766275507, -22.68777084350586, 3.2223267555236816, 2.35185170173645, -106.67692565917969, -252.05406188964844, -45.06450271606445, -0.100341796875, 0.21142578125, -0.75439453125
636, 1766292174, -22.361915588378906, 1.8907066583633423, -1.6290061473846436, -93.57432556152344, -207.9567108154297, -64.29672241210938, -0.1455078125, 0.2265625, -0.755126953125
637, 1766308841, -21.97100067138672, 4.00142240524292, -7.030929088592529, -43.522037506103516, -145.73318481445312, -85.1906509399414, -0.181396484375, 0.2353515625, -0.75439453125
638, 1766325508, -23.729068756103516, 6.434536457061768, -10.868669509887695, -29.29798126220703, -56.1139030456543, -86.59912109375, -0.2060546875, 0.238525390625, -0.75439453125
639, 1766342175, -25.02046012878418, 5.525999069213867, -11.914985656738281, -8.703840255737305, 49.790645599365234, -82.26380157470703, -0.206787109375, 0.236572265625, -0.75927734375
640, 1766358842, -0.357773095369339, 5.48840856552124, 5.554681301116943, 36.06955337524414, 133.71751403808594, -30.806509017944336, -0.1796875, 0.225830078125, -0.773193359375
641, 1766375509, 8.443414688110352, -1.1258773803710938, 20.848421096801758, -45.97746276855469, 187.0254669189453, 8.047706604003906, -0.135009765625, 0.228759765625, -0.77978515625
642, 1766392176, -7.811148166656494, 3.5712833404541016, 5.994967937469482, -46.14839172363281, 219.7852783203125, 34.13835525512695, -0.083251953125, 0.23779296875, -0.7900390625
643, 1766408843, -9.534431457519531, 2.556257963180542, 14.264140129089355, -70.21746826171875, 227.42672729492188, 33.96691131591797, -0.02197265625, 0.25048828125, -0.789306640625
644, 1766425510, -10.254374504089355, -8.286785125732422, 10.612085342407227, -65.73207092285156, 186.98675537109375, 28.99803924560547, 0.028076171875, 0.266357421875, -0.788818359375
645, 1766442177, -8.923388481140137, -8.316033363342285, 8.541133880615234, -40.29063415527344, 167.14527893066406, 26.959152221679688, 0.0732421875, 0.27783203125, -0.78369140625
646, 1766458844, -12.42221450805664, -7.553041458129883, 11.945904731750488, 29.74726104736328, 114.05174255371094, 48.6611328125, 0.111083984375, 0.277099609375, -0.783447265625
647, 1766475511, -6.604865550994873, -0.03858952224254608, 10.30877685546875, 56.07633972167969, 58.72798156738281, 34.759151458740234, 0.1318359375, 0.26171875, -0.784912109375
648, 1766492178, -6.431987762451172, -2.644054412841797, 9.488527297973633, 50.3297119140625, 30.253602981567383, 23.56739044189453, 0.14453125, 0.246826171875, -0.787353515625
649, 1766508845, -5.716874122619629, -1.7536371946334839, 9.683579444885254, 47.796573638916016, 16.856233596801758, 20.317737579345703, 0.153076171875, 0.23583984375, -0.791748046875
650, 1766525512, -4.69451904296875, -1.9984685182571411, 9.013232231140137, 38.754127502441406, 9.294018745422363, 15.630410194396973, 0.157470703125, 0.222412109375, -0.794921875
651, 1766542179, -4.738907814025879, -2.1178343296051025, 8.556143760681152, 37.39767837524414, 4.86530876159668, 15.482476234436035, 0.159912109375, 0.21337890625, -0.79736328125
