sep=,
DeviceTag:,B,,,,,,,,,,,,,,,,,
FirmwareVersion:,2.2.1,,,,,,,,,,,,,,,,,
AppVersion:,2022.0.1,,,,,,,,,,,,,,,,,
SyncStatus:,Synced,,,,,,,,,,,,,,,,,
OutputRate:,60Hz,,,,,,,,,,,,,,,,,
FilterProfile:,General,,,,,,,,,,,,,,,,,
Measurement Mode:,Inertial Mode - Rate quantities (with mag),,,,,,,,,,,,,,,,,
StartTime:,2022-08-05 15:21:46.057 +0300,,,,,,,,,,,,,,,,,
© Xsens Technologies B. V. 2005-2022,,,,,,,,,,,,,,,,,,,

PacketCounter,SampleTimeFine,Acc_X,Acc_Y,Acc_Z,Gyr_X,Gyr_Y,Gyr_Z,Mag_X,Mag_Y,Mag_Z
1, 2648093143, -4.616572380065918, -1.6715506315231323, 8.308321952819824, -0.20993448793888092, -0.563248872756958, -1.045881748199463, -0.009521484375, 0.1181640625, -0.828857421875
2, 2648109810, -4.630579948425293, -1.665334701538086, 8.331781387329102, -0.2358161211013794, -0.5250091552734375, -0.9454800486564636, -0.010986328125, 0.1181640625, -0.826171875
3, 2648126477, -4.635186672210693, -1.653993844985962, 8.350639343261719, -0.17133614420890808, -0.5514670014381409, -0.9347354173660278, -0.008544921875, 0.11669921875, -0.8271484375
4, 2648143144, -4.641592979431152, -1.6608951091766357, 8.322381019592285, -0.18651166558265686, -0.49779561161994934, -0.8734954595565796, -0.010009765625, 0.1171875, -0.82568359375
5, 2648159811, -4.6410980224609375, -1.6631357669830322, 8.334858894348145, -0.10141347348690033, -0.46565166115760803, -0.9630630612373352, -0.010009765625, 0.11865234375, -0.828369140625
6, 2648176478, -4.638732433319092, -1.6637318134307861, 8.326430320739746, 0.06111830100417137, -0.6764698028564453, -0.8316826820373535, -0.009521484375, 0.11865234375, -0.827880859375
7, 2648193145, -4.6283345222473145, -1.6594388484954834, 8.316545486450195, 0.12249915301799774, -0.7424609661102295, -0.7732090353965759, -0.010986328125, 0.11865234375, -0.82421875
8, 2648209812, -4.6365251541137695, -1.6387999057769775, 8.322092056274414, 0.2687988579273224, -0.7774094343185425, -0.7821477651596069, -0.009033203125, 0.1171875, -0.82568359375
9, 2648226479, -4.646946907043457, -1.6400493383407593, 8.330567359924316, 0.24173904955387115, -0.893345296382904, -0.7327409386634827, -0.011474609375, 0.1162109375, -0.8251953125
10, 2648243146, -4.635385036468506, -1.6331663131713867, 8.340271949768066, 0.08705637603998184, -0.8442195653915405, -0.8669137954711914, -0.008544921875, 0.1181640625, -0.82568359375
11, 2648259813, -4.627413272857666, -1.6440718173980713, 8.344788551330566, -0.20524738729000092, -0.6699257493019104, -0.9914035797119141, -0.010498046875, 0.118896484375, -0.828369140625
12, 2648276480, -4.633687496185303, -1.654481053352356, 8.329164505004883, -0.20423565804958344, -0.5727384090423584, -1.060314655303955, -0.010986328125, 0.118896484375, -0.829345703125
13, 2648293147, -4.649328708648682, -1.6469242572784424, 8.353750228881836, -0.2197185605764389, -0.7087419033050537, -1.0666921138763428, -0.011474609375, 0.11767578125, -0.826904296875
14, 2648309814, -4.646239280700684, -1.6488803625106812, 8.33965015411377, -0.2240726798772812, -0.8194782733917236, -1.0843263864517212, -0.008544921875, 0.11767578125, -0.8251953125
15, 2648326481, -4.640000820159912, -1.6403228044509888, 8.331120491027832, -0.13155962526798248, -0.8864554762840271, -1.0460225343704224, -0.011962890625, 0.1181640625, -0.82470703125
16, 2648343148, -4.640412330627441, -1.6300190687179565, 8.339086532592773, -0.07261200249195099, -0.9552127718925476, -1.0113558769226074, -0.010986328125, 0.11669921875, -0.8251953125
17, 2648359815, -4.639204978942871, -1.651572346687317, 8.358162879943848, -0.10658726096153259, -1.0533479452133179, -1.1951653957366943, -0.011474609375, 0.11572265625, -0.828369140625
18, 2648376482, -4.642476558685303, -1.644681453704834, 8.366288185119629, -0.22841407358646393, -1.0030829906463623, -1.2834267616271973, -0.010498046875, 0.11767578125, -0.828857421875
19, 2648393149, -4.637138843536377, -1.6560699939727783, 8.346675872802734, -0.4785861372947693, -0.7854006290435791, -1.3768234252929688, -0.009033203125, 0.11572265625, -0.828125
20, 2648409816, -4.611982822418213, -1.6531325578689575, 8.34738826751709, -0.5006258487701416, -0.8371895551681519, -1.391525387763977, -0.009521484375, 0.11669921875, -0.82763671875
21, 2648426483, -4.623328685760498, -1.6547749042510986, 8.350906372070312, -0.5268020629882812, -0.6459779143333435, -1.2410122156143188, -0.010986328125, 0.1171875, -0.826171875
22, 2648443150, -4.619614601135254, -1.6668936014175415, 8.327285766601562, -0.6708990335464478, -0.7107011675834656, -1.252140760421753, -0.009521484375, 0.11669921875, -0.828369140625
23, 2648459817, -4.610313415527344, -1.6689667701721191, 8.333206176757812, -0.5455761551856995, -0.6500887870788574, -1.1896971464157104, -0.011962890625, 0.1181640625, -0.828857421875
24, 2648476484, -4.622129917144775, -1.6683685779571533, 8.338804244995117, -0.515775740146637, -0.6706044673919678, -1.1292126178741455, -0.012451171875, 0.119140625, -0.827880859375
25, 2648493151, -4.6439995765686035, -1.6492512226104736, 8.341231346130371, -0.44619882106781006, -0.6949236989021301, -1.071648120880127, -0.011962890625, 0.1181640625, -0.826904296875
26, 2648509818, -4.624784469604492, -1.6561650037765503, 8.334234237670898, -0.3693607449531555, -0.6024491786956787, -1.0950069427490234, -0.011474609375, 0.1171875, -0.826904296875
27, 2648526485, -4.609842777252197, -1.6568117141723633, 8.354637145996094, -0.347615510225296, -0.6293680667877197, -1.1177253723144531, -0.010986328125, 0.1162109375, -0.82421875
28, 2648543152, -4.6366286277771, -1.6554102897644043, 8.349355697631836, -0.3798747658729553, -0.6633177399635315, -1.1268435716629028, -0.012451171875, 0.119140625, -0.825927734375
29, 2648559819, -4.609742641448975, -1.6819360256195068, 8.349678993225098, -0.3369094729423523, -0.6272422075271606, -1.1577067375183105, -0.01416015625, 0.11962890625, -0.825439453125
30, 2648576486, -4.61932897567749, -1.659393548965454, 8.342934608459473, -0.4015815258026123, -0.7038114070892334, -1.0486352443695068, -0.012451171875, 0.119140625, -0.826416015625
31, 2648593153, -4.618078708648682, -1.656800389289856, 8.336907386779785, -0.26690995693206787, -0.7251211404800415, -1.0519392490386963, -0.010986328125, 0.11572265625, -0.828369140625
32, 2648609820, -4.612522125244141, -1.6660810708999634, 8.331448554992676, -0.21955204010009766, -0.7037217617034912, -1.0505815744400024, -0.011474609375, 0.1171875, -0.82177734375
33, 2648626487, -4.629382610321045, -1.6499103307724, 8.34914779663086, -0.23138514161109924, -0.5795385837554932, -1.0411306619644165, -0.009521484375, 0.11669921875, -0.82568359375
34, 2648643154, -4.6269707679748535, -1.6584062576293945, 8.322447776794434, -0.25046661496162415, -0.6246553659439087, -1.0238548517227173, -0.012939453125, 0.1181640625, -0.82470703125
35, 2648659821, -4.628548622131348, -1.666320562362671, 8.346054077148438, -0.21595343947410583, -0.6346698999404907, -0.9172418117523193, -0.010986328125, 0.118896484375, -0.829833984375
36, 2648676488, -4.619515419006348, -1.6601219177246094, 8.354384422302246, -0.19253067672252655, -0.7077558040618896, -0.9935550689697266, -0.011962890625, 0.119140625, -0.829833984375
37, 2648693155, -4.624156475067139, -1.655853271484375, 8.34453296661377, -0.20203299820423126, -0.7470584511756897, -1.0580222606658936, -0.010009765625, 0.11669921875, -0.827880859375
38, 2648709822, -4.618773937225342, -1.6702829599380493, 8.339035034179688, -0.2509916126728058, -0.7524498105049133, -0.9823878407478333, -0.010009765625, 0.11767578125, -0.82373046875
39, 2648726489, -4.617708683013916, -1.6731431484222412, 8.360626220703125, -0.09623973071575165, -0.6543533205986023, -1.0449981689453125, -0.011474609375, 0.11669921875, -0.827880859375
40, 2648743156, -4.629022121429443, -1.6643210649490356, 8.35312271118164, -0.16394688189029694, -0.8030222058296204, -0.9932861328125, -0.010498046875, 0.11767578125, -0.8232421875
41, 2648759823, -4.613729000091553, -1.6469192504882812, 8.327388763427734, -0.08653251081705093, -0.811858594417572, -0.9527668952941895, -0.012939453125, 0.11767578125, -0.826416015625
42, 2648776490, -4.616858005523682, -1.6610220670700073, 8.33281421661377, -0.049342866986989975, -0.8477163910865784, -0.9004784822463989, -0.013427734375, 0.1181640625, -0.828369140625
43, 2648793157, -4.629083156585693, -1.654614806175232, 8.358036994934082, -0.03501255810260773, -0.90927654504776, -1.0084487199783325, -0.012451171875, 0.11865234375, -0.826416015625
44, 2648809824, -4.612759590148926, -1.6521919965744019, 8.355067253112793, -0.0825674906373024, -0.7125239968299866, -0.9520555734634399, -0.010986328125, 0.11767578125, -0.82568359375
45, 2648826491, -4.621153831481934, -1.6558904647827148, 8.359862327575684, -0.035563237965106964, -0.7634761333465576, -0.92831951379776, -0.011962890625, 0.119140625, -0.825927734375
46, 2648843158, -4.6026105880737305, -1.6694214344024658, 8.344152450561523, -0.02415277808904648, -0.7091516852378845, -0.9321102499961853, -0.012939453125, 0.1171875, -0.82373046875
47, 2648859825, -4.613184452056885, -1.6664459705352783, 8.366695404052734, -0.1608477383852005, -0.6497429013252258, -0.933954119682312, -0.012451171875, 0.1171875, -0.82568359375
48, 2648876492, -4.609494686126709, -1.6660007238388062, 8.346131324768066, -0.24828952550888062, -0.526725172996521, -0.9701578617095947, -0.011962890625, 0.11865234375, -0.828369140625
49, 2648893159, -4.6197123527526855, -1.6537007093429565, 8.355566024780273, -0.26383641362190247, -0.501355767250061, -0.9945794939994812, -0.013916015625, 0.11767578125, -0.82470703125
50, 2648909826, -4.6269307136535645, -1.6635674238204956, 8.364884376525879, -0.27337712049484253, -0.5354591608047485, -0.9771884679794312, -0.011962890625, 0.11767578125, -0.827392578125
51, 2648926493, -4.624993324279785, -1.6600261926651, 8.342948913574219, -0.15457265079021454, -0.6448765993118286, -1.0507609844207764, -0.009033203125, 0.11767578125, -0.826171875
52, 2648943160, -4.598539352416992, -1.6631662845611572, 8.338495254516602, -0.15196016430854797, -0.6148968935012817, -0.8844450116157532, -0.010498046875, 0.1162109375, -0.82421875
53, 2648959827, -4.616441249847412, -1.6605808734893799, 8.322275161743164, -0.1786998063325882, -0.5806015133857727, -0.9147575497627258, -0.011474609375, 0.120361328125, -0.825927734375
54, 2648976494, -4.621527671813965, -1.6610304117202759, 8.348597526550293, -0.24374322593212128, -0.5720596313476562, -0.9765737056732178, -0.011474609375, 0.1181640625, -0.828369140625
55, 2648993161, -4.616489410400391, -1.6437524557113647, 8.341147422790527, -0.19058412313461304, -0.6344394087791443, -0.9781490564346313, -0.011962890625, 0.1171875, -0.82568359375
56, 2649009828, -4.616148471832275, -1.6604920625686646, 8.343106269836426, -0.18688303232192993, -0.6635097861289978, -0.921442449092865, -0.009521484375, 0.11669921875, -0.82470703125
57, 2649026495, -4.614289283752441, -1.6634477376937866, 8.355504035949707, -0.2287982702255249, -0.6854087114334106, -0.9449037313461304, -0.010986328125, 0.11669921875, -0.826171875
58, 2649043162, -4.611895561218262, -1.658026933670044, 8.360017776489258, -0.19300448894500732, -0.6331843137741089, -0.9320973753929138, -0.012451171875, 0.11767578125, -0.82568359375
59, 2649059829, -4.6179728507995605, -1.6547820568084717, 8.3651762008667, -0.28341731429100037, -0.6812978386878967, -0.9905199408531189, -0.011962890625, 0.11865234375, -0.8251953125
60, 2649076496, -4.616105079650879, -1.6601026058197021, 8.333127975463867, -0.1937984973192215, -0.613257646560669, -1.0114967823028564, -0.011962890625, 0.120849609375, -0.829833984375
61, 2649093163, -4.619532108306885, -1.662688970565796, 8.34394645690918, -0.2031983733177185, -0.6904800534248352, -0.976535439491272, -0.012939453125, 0.1181640625, -0.829345703125
62, 2649109830, -4.6129350662231445, -1.6400445699691772, 8.337014198303223, -0.20453020930290222, -0.5814979076385498, -0.9764072299003601, -0.012451171875, 0.115234375, -0.826416015625
63, 2649126497, -4.6235198974609375, -1.649814486503601, 8.35222053527832, -0.2598664462566376, -0.6342344880104065, -1.0286061763763428, -0.010986328125, 0.120361328125, -0.8251953125
64, 2649143164, -4.61869478225708, -1.6559748649597168, 8.350800514221191, -0.28873196244239807, -0.6251676082611084, -1.1201075315475464, -0.013916015625, 0.1181640625, -0.825439453125
65, 2649159831, -4.603538513183594, -1.669020175933838, 8.345272064208984, -0.2668587267398834, -0.6863691806793213, -1.0494804382324219, -0.011474609375, 0.11767578125, -0.828369140625
66, 2649176498, -4.608159065246582, -1.6649752855300903, 8.355828285217285, -0.3217211067676544, -0.5375849604606628, -0.9287420511245728, -0.012451171875, 0.119140625, -0.828857421875
67, 2649193165, -4.621767044067383, -1.6587239503860474, 8.353719711303711, -0.1735132336616516, -0.5690757632255554, -0.9617055654525757, -0.01416015625, 0.11865234375, -0.827392578125
68, 2649209832, -4.613983154296875, -1.6546850204467773, 8.347715377807617, -0.18140193819999695, -0.6237077116966248, -1.0141348838806152, -0.012451171875, 0.119140625, -0.82470703125
69, 2649226499, -4.621997356414795, -1.668094515800476, 8.333328247070312, -0.29837512969970703, -0.5896043181419373, -0.9912883043289185, -0.010498046875, 0.1181640625, -0.8251953125
70, 2649243166, -4.606457233428955, -1.6674927473068237, 8.348038673400879, -0.15893958508968353, -0.6032686233520508, -1.0093194246292114, -0.012451171875, 0.1181640625, -0.8251953125
71, 2649259833, -4.621663570404053, -1.6726858615875244, 8.34760570526123, -0.21258540451526642, -0.5862618684768677, -1.0141475200653076, -0.013916015625, 0.11767578125, -0.826904296875
72, 2649276500, -4.61627197265625, -1.6493455171585083, 8.357810974121094, -0.23810845613479614, -0.584302544593811, -0.9804413318634033, -0.013427734375, 0.11865234375, -0.826904296875
73, 2649293167, -4.6282453536987305, -1.656500220298767, 8.379867553710938, -0.21080532670021057, -0.6769309043884277, -0.9491554498672485, -0.014404296875, 0.11669921875, -0.826416015625
74, 2649309834, -4.607062339782715, -1.6555410623550415, 8.355487823486328, -0.20805196464061737, -0.6620115041732788, -0.9956938028335571, -0.010498046875, 0.11767578125, -0.82373046875
75, 2649326501, -4.619093418121338, -1.6548203229904175, 8.347911834716797, -0.15102529525756836, -0.6543020606040955, -1.0036592483520508, -0.014892578125, 0.11572265625, -0.82373046875
76, 2649343168, -4.617217063903809, -1.6510108709335327, 8.33443546295166, -0.22540457546710968, -0.6756886839866638, -1.0372631549835205, -0.012451171875, 0.11669921875, -0.82470703125
77, 2649359835, -4.618327617645264, -1.6686711311340332, 8.365647315979004, -0.26731017231941223, -0.5277684926986694, -1.0354810953140259, -0.011962890625, 0.11767578125, -0.82568359375
78, 2649376502, -4.618380546569824, -1.6666290760040283, 8.35495376586914, -0.3437480628490448, -0.4553682506084442, -1.0326272249221802, -0.012939453125, 0.11767578125, -0.827392578125
79, 2649393169, -4.616921424865723, -1.6504911184310913, 8.347372055053711, -0.2874641418457031, -0.45039933919906616, -1.0546542406082153, -0.012939453125, 0.11865234375, -0.828369140625
80, 2649409836, -4.621411323547363, -1.6419029235839844, 8.330453872680664, -0.303356796503067, -0.6157804727554321, -1.009614109992981, -0.01416015625, 0.1181640625, -0.825439453125
81, 2649426503, -4.60521936416626, -1.6642930507659912, 8.355198860168457, -0.16174419224262238, -0.6025899648666382, -1.0266209840774536, -0.010986328125, 0.11669921875, -0.82470703125
82, 2649443170, -4.611508846282959, -1.6681127548217773, 8.33786392211914, -0.2729673385620117, -0.5524531006813049, -0.989188015460968, -0.010986328125, 0.1181640625, -0.82373046875
83, 2649459837, -4.6013593673706055, -1.653172254562378, 8.350123405456543, -0.3328498303890228, -0.504928708076477, -0.9153978824615479, -0.012939453125, 0.1181640625, -0.827392578125
84, 2649476504, -4.615630149841309, -1.6696124076843262, 8.367538452148438, -0.3774031400680542, -0.3081720173358917, -0.9052937626838684, -0.01318359375, 0.119140625, -0.826904296875
85, 2649493171, -4.622725009918213, -1.665907859802246, 8.354487419128418, -0.2662952244281769, -0.3907345235347748, -0.9144757986068726, -0.012451171875, 0.11767578125, -0.826416015625
86, 2649509838, -4.618314266204834, -1.6734356880187988, 8.336471557617188, -0.2087050974369049, -0.37285691499710083, -0.9395122528076172, -0.013916015625, 0.1171875, -0.827880859375
87, 2649526505, -4.62150239944458, -1.658313512802124, 8.334962844848633, -0.21944960951805115, -0.6027436852455139, -0.9598230123519897, -0.010986328125, 0.11669921875, -0.82568359375
88, 2649543172, -4.616039752960205, -1.660418152809143, 8.330767631530762, -0.2709823548793793, -0.508949875831604, -0.9989208579063416, -0.012451171875, 0.1162109375, -0.82568359375
89, 2649559839, -4.618645191192627, -1.6582000255584717, 8.355546951293945, -0.28220072388648987, -0.5405816435813904, -0.9985750317573547, -0.011962890625, 0.11767578125, -0.826171875
90, 2649576506, -4.627565383911133, -1.6557759046554565, 8.355945587158203, -0.20161037147045135, -0.6103506088256836, -0.896085798740387, -0.011962890625, 0.11767578125, -0.826904296875
91, 2649593173, -4.609659671783447, -1.6601665019989014, 8.327191352844238, -0.10110612213611603, -0.7187819480895996, -0.9157564640045166, -0.0126953125, 0.120361328125, -0.826904296875
92, 2649609840, -4.6284308433532715, -1.6601804494857788, 8.349154472351074, -0.20867948234081268, -0.6535976529121399, -0.993439793586731, -0.010986328125, 0.119384765625, -0.82568359375
93, 2649626507, -4.614389896392822, -1.6548702716827393, 8.328977584838867, -0.13966605067253113, -0.6390624642372131, -1.0241236686706543, -0.012451171875, 0.1171875, -0.82568359375
94, 2649643174, -4.616979598999023, -1.6519901752471924, 8.349627494812012, -0.22390621900558472, -0.7295265197753906, -1.02865731716156, -0.012939453125, 0.1162109375, -0.826904296875
95, 2649659841, -4.610742092132568, -1.669229507446289, 8.3292875289917, -0.14335428178310394, -0.7200242280960083, -1.0036592483520508, -0.011474609375, 0.11669921875, -0.826171875
96, 2649676508, -4.619612693786621, -1.6622939109802246, 8.37668514251709, -0.17633062601089478, -0.7684321999549866, -0.9300995469093323, -0.015625, 0.11767578125, -0.825927734375
97, 2649693175, -4.628779888153076, -1.6612931489944458, 8.358939170837402, -0.17264239490032196, -0.8245239853858948, -1.0595718622207642, -0.011474609375, 0.119873046875, -0.82470703125
98, 2649709842, -4.619322299957275, -1.6598109006881714, 8.353208541870117, -0.1780979037284851, -0.6971520781517029, -1.0904479026794434, -0.011474609375, 0.11669921875, -0.826171875
99, 2649726509, -4.605140209197998, -1.6735103130340576, 8.350472450256348, -0.2991819381713867, -0.6110294461250305, -1.0124701261520386, -0.013916015625, 0.1181640625, -0.825439453125
100, 2649743176, -4.616492748260498, -1.6614898443222046, 8.355676651000977, -0.33724245429039, -0.5596247315406799, -1.0174517631530762, -0.012451171875, 0.11767578125, -0.82470703125
101, 2649759843, -4.624879360198975, -1.6621040105819702, 8.357049942016602, -0.22411112487316132, -0.6156396865844727, -1.0289133787155151, -0.011962890625, 0.1181640625, -0.82568359375
102, 2649776510, -4.608767509460449, -1.6765550374984741, 8.337125778198242, -0.18026216328144073, -0.6212744116783142, -1.0107156038284302, -0.01220703125, 0.121337890625, -0.825927734375
103, 2649793177, -4.616010665893555, -1.6630817651748657, 8.332009315490723, -0.15810717642307281, -0.5854679346084595, -0.9937215447425842, -0.014892578125, 0.1162109375, -0.827392578125
104, 2649809844, -4.6155619621276855, -1.6556066274642944, 8.3418550491333, -0.19560417532920837, -0.6037041544914246, -1.0092300176620483, -0.010986328125, 0.119140625, -0.826904296875
105, 2649826511, -4.62544584274292, -1.655153512954712, 8.339933395385742, -0.23627716302871704, -0.5407353639602661, -1.0205637216567993, -0.012451171875, 0.1162109375, -0.828369140625
106, 2649843178, -4.598565101623535, -1.6620285511016846, 8.340819358825684, -0.16305045783519745, -0.5101537704467773, -0.9769708514213562, -0.012939453125, 0.11865234375, -0.825439453125
107, 2649859845, -4.614019870758057, -1.6639330387115479, 8.351452827453613, -0.1472858339548111, -0.5137395858764648, -0.9220187664031982, -0.011962890625, 0.119873046875, -0.826904296875
108, 2649876512, -4.625027179718018, -1.650337815284729, 8.336186408996582, -0.18834301829338074, -0.5611999034881592, -0.8990698456764221, -0.012451171875, 0.119873046875, -0.827880859375
109, 2649893179, -4.631046295166016, -1.6548082828521729, 8.34207820892334, -0.20442773401737213, -0.5357151627540588, -0.8723941445350647, -0.01416015625, 0.119140625, -0.828369140625
110, 2649909846, -4.624980926513672, -1.656619668006897, 8.333605766296387, -0.22864456474781036, -0.5334099531173706, -0.9925176501274109, -0.012451171875, 0.1171875, -0.82568359375
111, 2649926513, -4.631382942199707, -1.6648794412612915, 8.327524185180664, -0.23403726518154144, -0.6169828176498413, -0.9575497508049011, -0.011962890625, 0.11865234375, -0.8232421875
112, 2649943180, -4.62215518951416, -1.664459228515625, 8.34798526763916, -0.1947205513715744, -0.5804349780082703, -0.9400116205215454, -0.011962890625, 0.120361328125, -0.82470703125
113, 2649959847, -4.615427017211914, -1.6616923809051514, 8.356499671936035, -0.2606220245361328, -0.5771437287330627, -0.9152697920799255, -0.013671875, 0.11962890625, -0.825927734375
114, 2649976514, -4.607735633850098, -1.6595749855041504, 8.36234188079834, -0.2782692015171051, -0.568896472454071, -1.0449212789535522, -0.012451171875, 0.1181640625, -0.82275390625
115, 2649993181, -4.606724262237549, -1.6502989530563354, 8.369258880615234, -0.30951666831970215, -0.5442826747894287, -1.0843007564544678, -0.01416015625, 0.119140625, -0.82373046875
116, 2650009848, -4.613700866699219, -1.6719948053359985, 8.334062576293945, -0.32339876890182495, -0.6493843793869019, -1.096851110458374, -0.010986328125, 0.1171875, -0.826171875
117, 2650026515, -4.614714622497559, -1.6533801555633545, 8.344504356384277, -0.3108997642993927, -0.6581951975822449, -1.1166753768920898, -0.011474609375, 0.1171875, -0.8251953125
118, 2650043182, -4.594117641448975, -1.657191276550293, 8.362153053283691, -0.34256988763809204, -0.6124892830848694, -1.052733063697815, -0.01416015625, 0.11865234375, -0.826904296875
119, 2650059849, -4.615617752075195, -1.6673582792282104, 8.350669860839844, -0.3706797957420349, -0.6500246524810791, -1.1005135774612427, -0.012451171875, 0.1181640625, -0.826416015625
120, 2650076516, -4.618072986602783, -1.6692116260528564, 8.327703475952148, -0.35786059498786926, -0.6980612277984619, -1.146270751953125, -0.01220703125, 0.120849609375, -0.825927734375
121, 2650093183, -4.611093997955322, -1.6647155284881592, 8.322295188903809, -0.3755590617656708, -0.6766363382339478, -1.1551456451416016, -0.013427734375, 0.11572265625, -0.82421875
122, 2650109850, -4.6140522956848145, -1.663741111755371, 8.35562801361084, -0.3492804169654846, -0.6378970742225647, -1.113166332244873, -0.012451171875, 0.1171875, -0.827880859375
123, 2650126517, -4.611180782318115, -1.6619635820388794, 8.350132942199707, -0.3816932737827301, -0.5622372627258301, -1.0911906957626343, -0.012451171875, 0.1162109375, -0.826416015625
124, 2650143184, -4.600732326507568, -1.6804990768432617, 8.367444038391113, -0.36979612708091736, -0.6025899052619934, -1.0423343181610107, -0.013427734375, 0.1171875, -0.82373046875
125, 2650159851, -4.610751628875732, -1.6764929294586182, 8.35158634185791, -0.3169059157371521, -0.4294353723526001, -0.9732698202133179, -0.013427734375, 0.11767578125, -0.82470703125
126, 2650176518, -4.613069534301758, -1.666029453277588, 8.363224983215332, -0.4050648510456085, -0.4690837860107422, -1.018617033958435, -0.013671875, 0.119140625, -0.828857421875
127, 2650193185, -4.593592166900635, -1.6692707538604736, 8.328156471252441, -0.4271045923233032, -0.4753333032131195, -0.9769195914268494, -0.013671875, 0.11962890625, -0.828369140625
128, 2650209852, -4.613768577575684, -1.6573803424835205, 8.333840370178223, -0.3783380091190338, -0.4866028428077698, -1.0225615501403809, -0.011962890625, 0.1181640625, -0.826904296875
129, 2650226519, -4.608359336853027, -1.6587554216384888, 8.350500106811523, -0.35255885124206543, -0.489702045917511, -1.0467783212661743, -0.013427734375, 0.1171875, -0.8251953125
130, 2650243186, -4.614229679107666, -1.671718716621399, 8.36812686920166, -0.5934975147247314, -0.45661041140556335, -1.1166881322860718, -0.012451171875, 0.11767578125, -0.826416015625
131, 2650259853, -4.61846399307251, -1.6606248617172241, 8.357501029968262, -0.7204852104187012, -0.4491955041885376, -1.1637256145477295, -0.013427734375, 0.1181640625, -0.825927734375
132, 2650276520, -4.611151695251465, -1.6695042848587036, 8.37018871307373, -0.8690645694732666, -0.42537569999694824, -1.2614766359329224, -0.01318359375, 0.120849609375, -0.825927734375
133, 2650293187, -4.607089042663574, -1.6672184467315674, 8.320110321044922, -0.6686195731163025, -0.3699754476547241, -1.1991738080978394, -0.010986328125, 0.11865234375, -0.826904296875
134, 2650309854, -4.612661838531494, -1.6691923141479492, 8.34054946899414, -0.5932157635688782, -0.465267539024353, -1.0981190204620361, -0.011474609375, 0.120849609375, -0.826904296875
135, 2650326521, -4.642310619354248, -1.6697897911071777, 8.364203453063965, -0.6293424367904663, -0.46270620822906494, -1.179925799369812, -0.010986328125, 0.119140625, -0.82470703125
136, 2650343188, -4.615453243255615, -1.6739667654037476, 8.358268737792969, -0.5112166404724121, -0.444418728351593, -1.1411738395690918, -0.011474609375, 0.11865234375, -0.8251953125
137, 2650359855, -4.621076583862305, -1.6766107082366943, 8.35610294342041, -0.4586082100868225, -0.5683714151382446, -1.047585129737854, -0.010009765625, 0.118896484375, -0.82666015625
138, 2650376522, -4.617676734924316, -1.6833492517471313, 8.340021133422852, -0.38520219922065735, -0.5612894892692566, -1.0768346786499023, -0.01318359375, 0.119873046875, -0.827880859375
139, 2650393189, -4.629890441894531, -1.679215431213379, 8.347213745117188, -0.029531443491578102, -0.5037121772766113, -1.069048523902893, -0.012451171875, 0.11962890625, -0.826904296875
140, 2650409856, -4.628994941711426, -1.6703413724899292, 8.329940795898438, -0.28665733337402344, -0.5271605849266052, -1.051439642906189, -0.01318359375, 0.120361328125, -0.82373046875
141, 2650426523, -4.617935657501221, -1.6659595966339111, 8.342936515808105, -0.30858179926872253, -0.5417342185974121, -1.0849796533584595, -0.010498046875, 0.119140625, -0.8251953125
142, 2650443190, -4.596099853515625, -1.6821086406707764, 8.355582237243652, -0.366889089345932, -0.6641501188278198, -1.1031005382537842, -0.01318359375, 0.120361328125, -0.825927734375
143, 2650459857, -4.631676197052002, -1.664743423461914, 8.346603393554688, -0.41281265020370483, -0.5430148243904114, -1.081931710243225, -0.010498046875, 0.119140625, -0.826171875
144, 2650476524, -4.622539043426514, -1.669960379600525, 8.346538543701172, -0.29808568954467773, -0.5292285084724426, -1.1612341403961182, -0.01416015625, 0.11865234375, -0.827392578125
145, 2650493191, -4.611425876617432, -1.6936569213867188, 8.321883201599121, -0.29455888271331787, -0.5166466236114502, -1.0187451839447021, -0.012451171875, 0.119140625, -0.828857421875
146, 2650509858, -4.620889663696289, -1.6734570264816284, 8.341064453125, -0.2717123031616211, -0.4486576318740845, -0.9951429963111877, -0.012939453125, 0.11767578125, -0.825439453125
147, 2650526525, -4.603400230407715, -1.671939730644226, 8.335692405700684, -0.28197023272514343, -0.5380972623825073, -0.9309448599815369, -0.011474609375, 0.119384765625, -0.826904296875
148, 2650543192, -4.6144256591796875, -1.6863151788711548, 8.347807884216309, -0.22496914863586426, -0.5999903082847595, -1.0409770011901855, -0.011962890625, 0.11767578125, -0.826416015625
149, 2650559859, -4.602099418640137, -1.6756525039672852, 8.328008651733398, -0.2098192572593689, -0.5048647522926331, -1.0942769050598145, -0.01318359375, 0.121337890625, -0.825439453125
150, 2650576526, -4.617480278015137, -1.67853581905365, 8.352935791015625, -0.3038690686225891, -0.5490338206291199, -0.9878433346748352, -0.010986328125, 0.119384765625, -0.829833984375
151, 2650593193, -4.618099212646484, -1.678895354270935, 8.37836742401123, -0.17078547179698944, -0.5770540833473206, -0.9290494918823242, -0.01171875, 0.121826171875, -0.829345703125
152, 2650609860, -4.6172590255737305, -1.675120234489441, 8.331459045410156, -0.18150439858436584, -0.5778225064277649, -1.0278760194778442, -0.011962890625, 0.11865234375, -0.827392578125
153, 2650626527, -4.614962577819824, -1.675954818725586, 8.365863800048828, -0.23358780145645142, -0.5620962977409363, -0.9590931534767151, -0.01318359375, 0.119140625, -0.82177734375
154, 2650643194, -4.613402843475342, -1.6735485792160034, 8.352571487426758, -0.22231821715831757, -0.6388959884643555, -0.9343255758285522, -0.011474609375, 0.120849609375, -0.828857421875
155, 2650659861, -4.60292911529541, -1.6734553575515747, 8.36145305633545, -0.15480312705039978, -0.6138979196548462, -0.9980499744415283, -0.012451171875, 0.11865234375, -0.827880859375
156, 2650676528, -4.615206241607666, -1.6886757612228394, 8.33837604522705, -0.21760545670986176, -0.5771180987358093, -1.0122265815734863, -0.012451171875, 0.119873046875, -0.828857421875
157, 2650693195, -4.608436107635498, -1.6803597211837769, 8.321161270141602, -0.14020390808582306, -0.5571146607398987, -0.9597718715667725, -0.011474609375, 0.121337890625, -0.829833984375
158, 2650709862, -4.6128644943237305, -1.6787973642349243, 8.350298881530762, -0.1590292602777481, -0.6650338172912598, -0.9249386787414551, -0.0126953125, 0.119873046875, -0.825439453125
159, 2650726529, -4.606269836425781, -1.6722415685653687, 8.341711044311523, 0.008407367393374443, -0.5877217650413513, -0.8898491859436035, -0.011962890625, 0.11865234375, -0.827392578125
160, 2650743196, -4.62021541595459, -1.6756564378738403, 8.345626831054688, -0.03216954693198204, -0.6937455534934998, -0.9038336873054504, -0.013427734375, 0.11767578125, -0.82470703125
161, 2650759863, -4.6098713874816895, -1.6718238592147827, 8.328168869018555, -0.127615287899971, -0.7471737265586853, -0.9146039485931396, -0.010986328125, 0.119384765625, -0.826416015625
162, 2650776530, -4.6161885261535645, -1.6726200580596924, 8.35344123840332, -0.10209222137928009, -0.7493635416030884, -0.9362850189208984, -0.012451171875, 0.119873046875, -0.827392578125
163, 2650793197, -4.6210246086120605, -1.6752904653549194, 8.332893371582031, -0.05894763395190239, -0.7278745174407959, -0.8834332823753357, -0.0126953125, 0.119873046875, -0.826416015625
164, 2650809864, -4.638354778289795, -1.6780550479888916, 8.348305702209473, 0.03125389665365219, -0.6911202073097229, -0.9622946977615356, -0.011962890625, 0.11865234375, -0.82421875
165, 2650826531, -4.607715129852295, -1.6821764707565308, 8.328907012939453, 0.01912628300487995, -0.7316266894340515, -0.8917701244354248, -0.012451171875, 0.11767578125, -0.8251953125
166, 2650843198, -4.62416934967041, -1.6685909032821655, 8.346561431884766, 0.05071954429149628, -0.8066335320472717, -0.9583759903907776, -0.01416015625, 0.1181640625, -0.826416015625
167, 2650859865, -4.627772331237793, -1.6780102252960205, 8.347617149353027, 0.07722869515419006, -0.8518272042274475, -0.9102498292922974, -0.011474609375, 0.119140625, -0.827392578125
168, 2650876532, -4.618498802185059, -1.6803267002105713, 8.332147598266602, 0.0767548531293869, -0.8752883672714233, -0.8792583346366882, -0.0126953125, 0.120361328125, -0.825927734375
169, 2650893199, -4.622978687286377, -1.667420506477356, 8.348402976989746, 0.18673579394817352, -0.9453392028808594, -0.8698201179504395, -0.011962890625, 0.119873046875, -0.827880859375
170, 2650909866, -4.609234809875488, -1.679982304573059, 8.339284896850586, 0.20164236426353455, -0.8215017318725586, -0.8194655179977417, -0.013916015625, 0.1181640625, -0.827392578125
171, 2650926533, -4.608253479003906, -1.6708213090896606, 8.357845306396484, 0.24323739111423492, -0.7804189920425415, -0.8323871493339539, -0.010986328125, 0.1181640625, -0.82568359375
172, 2650943200, -4.615952968597412, -1.669377088546753, 8.351917266845703, 0.12691731750965118, -0.734713077545166, -0.8728423118591309, -0.013671875, 0.119140625, -0.825439453125
173, 2650959867, -4.608922481536865, -1.660631775856018, 8.355224609375, -0.007760648149996996, -0.6333765387535095, -0.9601688981056213, -0.010986328125, 0.11767578125, -0.826904296875
174, 2650976534, -4.604602336883545, -1.6738611459732056, 8.358368873596191, 0.028859110549092293, -0.5476763844490051, -0.871446430683136, -0.013427734375, 0.1181640625, -0.827880859375
175, 2650993201, -4.614912509918213, -1.6810877323150635, 8.342074394226074, 0.07351484894752502, -0.30214017629623413, -0.8748401403427124, -0.01318359375, 0.11962890625, -0.826416015625
176, 2651009868, -4.626180171966553, -1.6673206090927124, 8.377320289611816, -0.11095422506332397, -0.31433185935020447, -0.8502904772758484, -0.010009765625, 0.11865234375, -0.82568359375
177, 2651026535, -4.621885299682617, -1.6603269577026367, 8.358006477355957, -0.0927179679274559, -0.4244920611381531, -0.8994283676147461, -0.013427734375, 0.1171875, -0.8251953125
178, 2651043202, -4.613450527191162, -1.6583558320999146, 8.346416473388672, -0.11275386810302734, -0.26577329635620117, -0.9208062291145325, -0.012451171875, 0.11767578125, -0.828857421875
179, 2651059869, -4.625241279602051, -1.6562410593032837, 8.350828170776367, -0.08351020514965057, -0.30768534541130066, -0.9348122477531433, -0.012939453125, 0.11865234375, -0.825927734375
180, 2651076536, -4.609520435333252, -1.6703888177871704, 8.328817367553711, -0.1736028641462326, -0.34981825947761536, -0.9514349102973938, -0.013427734375, 0.1181640625, -0.828857421875
181, 2651093203, -4.609304428100586, -1.6797614097595215, 8.327425003051758, -0.1863451898097992, -0.46090054512023926, -1.0133535861968994, -0.013427734375, 0.11865234375, -0.826904296875
182, 2651109870, -4.610049247741699, -1.6511634588241577, 8.350062370300293, -0.19197998940944672, -0.5199121236801147, -1.0206019878387451, -0.010986328125, 0.1181640625, -0.827880859375
183, 2651126537, -4.631204605102539, -1.6418534517288208, 8.364215850830078, -0.43080565333366394, -0.5327697992324829, -1.07880699634552, -0.013916015625, 0.1181640625, -0.827880859375
184, 2651143204, -4.606992244720459, -1.679856777191162, 8.359692573547363, -1.0259934663772583, -0.31510022282600403, -1.3028154373168945, -0.012451171875, 0.11962890625, -0.825439453125
185, 2651159871, -4.618191242218018, -1.6651887893676758, 8.323038101196289, -1.4516253471374512, -0.33717840909957886, -1.5197041034698486, -0.011474609375, 0.11669921875, -0.826171875
186, 2651176538, -4.604454040527344, -1.685665488243103, 8.334216117858887, -1.0949941873550415, -0.3786325454711914, -1.3722259998321533, -0.011474609375, 0.119140625, -0.826416015625
187, 2651193205, -4.619418621063232, -1.6797783374786377, 8.352210998535156, -0.9041282534599304, -0.5396979451179504, -1.3205138444900513, -0.01220703125, 0.120849609375, -0.827392578125
188, 2651209872, -4.632131576538086, -1.6651047468185425, 8.358867645263672, -1.0487629175186157, -0.6751634478569031, -1.3389804363250732, -0.01318359375, 0.119140625, -0.825927734375
189, 2651226539, -4.634464263916016, -1.6796681880950928, 8.35876178741455, -1.5334579944610596, -0.5157885551452637, -1.5544220209121704, -0.010009765625, 0.119873046875, -0.82568359375
190, 2651243206, -4.603847980499268, -1.692804217338562, 8.324966430664062, -1.7087000608444214, -0.5621860027313232, -1.6135362386703491, -0.011962890625, 0.11962890625, -0.82275390625
191, 2651259873, -4.610100746154785, -1.6863130331039429, 8.335926055908203, -1.3309383392333984, -0.5758374929428101, -1.5180648565292358, -0.011962890625, 0.120361328125, -0.827880859375
192, 2651276540, -4.620236873626709, -1.697473406791687, 8.342232704162598, -1.0876432657241821, -0.43467310070991516, -1.3661428689956665, -0.011962890625, 0.119873046875, -0.825439453125
193, 2651293207, -4.624086380004883, -1.6929471492767334, 8.369376182556152, -1.3645422458648682, -0.4466983377933502, -1.528296947479248, -0.010009765625, 0.120361328125, -0.82568359375
194, 2651309874, -4.635073661804199, -1.6927721500396729, 8.358016967773438, -1.3299520015716553, -0.3157789409160614, -1.5291802883148193, -0.011962890625, 0.11865234375, -0.827880859375
195, 2651326541, -4.683504104614258, -1.6650831699371338, 8.393282890319824, -2.651144504547119, -0.20666886866092682, -2.024632453918457, -0.013671875, 0.120849609375, -0.824951171875
196, 2651343208, -4.728760242462158, -1.6450380086898804, 8.433660507202148, -4.658079624176025, -0.007863100618124008, -2.9227168560028076, -0.01171875, 0.122802734375, -0.82470703125
197, 2651359875, -4.724245071411133, -1.6577290296554565, 8.440174102783203, -6.002477645874023, 0.005461908411234617, -3.924339771270752, -0.0126953125, 0.120849609375, -0.826904296875
198, 2651376542, -4.701468467712402, -1.745782494544983, 8.42033576965332, -6.43704891204834, -0.5217435956001282, -4.479661464691162, -0.013671875, 0.124755859375, -0.825927734375
199, 2651393209, -4.613065242767334, -1.7796542644500732, 8.319897651672363, -5.599794864654541, -1.1527764797210693, -4.557319164276123, -0.01171875, 0.127197265625, -0.825927734375
200, 2651409876, -4.59248161315918, -1.798051357269287, 8.342738151550293, -4.178059101104736, -2.2218635082244873, -4.050943374633789, -0.01025390625, 0.126708984375, -0.82470703125
201, 2651426543, -4.551433086395264, -1.892746925354004, 8.24722671508789, -2.635188341140747, -2.9249963760375977, -3.4222412109375, -0.015625, 0.127197265625, -0.822509765625
202, 2651443210, -4.613722801208496, -1.833855152130127, 8.364691734313965, -4.261544227600098, -3.0934252738952637, -3.53556489944458, -0.0166015625, 0.128662109375, -0.825439453125
203, 2651459877, -4.614112854003906, -1.8567824363708496, 8.331925392150879, -5.706958293914795, -3.2338600158691406, -3.9773199558258057, -0.015869140625, 0.1328125, -0.824462890625
204, 2651476544, -4.656857967376709, -1.8514233827590942, 8.376715660095215, -6.998237609863281, -3.6303577423095703, -4.507375717163086, -0.01318359375, 0.13525390625, -0.824462890625
205, 2651493211, -4.417246341705322, -1.883180022239685, 8.245513916015625, -6.198082447052002, -3.1572139263153076, -4.023345947265625, -0.017333984375, 0.13330078125, -0.824951171875
206, 2651509878, -4.457988262176514, -1.964837908744812, 8.2008638381958, -5.008217811584473, -2.4424400329589844, -3.307176113128662, -0.015869140625, 0.13671875, -0.822021484375
207, 2651526545, -4.442402362823486, -1.9353978633880615, 8.250213623046875, -3.5773770809173584, -1.892163872718811, -2.503628969192505, -0.015380859375, 0.13427734375, -0.822509765625
208, 2651543212, -4.480294704437256, -1.9077751636505127, 8.241602897644043, -2.289301633834839, -1.456530213356018, -1.912628412246704, -0.017822265625, 0.13720703125, -0.822509765625
209, 2651559879, -4.521187782287598, -1.9266778230667114, 8.275501251220703, -1.2306647300720215, -1.1755973100662231, -1.4778655767440796, -0.016845703125, 0.13671875, -0.824462890625
210, 2651576546, -4.506205081939697, -1.984596610069275, 8.26858901977539, -0.7836333513259888, -0.7863867282867432, -1.2122362852096558, -0.020751953125, 0.138671875, -0.82568359375
211, 2651593213, -4.495440483093262, -1.8475106954574585, 8.279096603393555, -0.40056976675987244, 0.04637818783521652, -1.1342071294784546, -0.017822265625, 0.137939453125, -0.82763671875
212, 2651609880, -4.511493682861328, -1.9618785381317139, 8.301531791687012, 0.7035014629364014, 0.8229918479919434, -0.6286758184432983, -0.015869140625, 0.138916015625, -0.824462890625
213, 2651626547, -4.556577205657959, -1.8895673751831055, 8.3524751663208, 0.7637642621994019, 1.4695093631744385, -0.8076580166816711, -0.013916015625, 0.136962890625, -0.822021484375
214, 2651643214, -4.524326324462891, -1.8599132299423218, 8.366514205932617, -0.7662423253059387, 2.3220152854919434, -1.5292574167251587, -0.015869140625, 0.13623046875, -0.822998046875
215, 2651659881, -4.337277889251709, -1.8136541843414307, 8.24091625213623, 0.04934927076101303, 6.737773418426514, -0.37248551845550537, -0.015380859375, 0.137939453125, -0.823486328125
216, 2651676548, -4.195590972900391, -1.5894708633422852, 8.55117130279541, -1.466660737991333, 11.525240898132324, 0.007331639528274536, -0.014892578125, 0.138427734375, -0.827392578125
217, 2651693215, -4.34947395324707, -1.4106942415237427, 9.013360023498535, -5.378008842468262, 19.878400802612305, -1.0903342962265015, -0.00830078125, 0.138916015625, -0.8232421875
218, 2651709882, -3.955864429473877, -1.0811541080474854, 9.317228317260742, -12.819449424743652, 38.50615310668945, -3.826892614364624, -9.765625E-4, 0.140380859375, -0.822265625
219, 2651726549, -1.8223830461502075, -0.6882705688476562, 10.583932876586914, -41.303043365478516, 76.8098373413086, -2.939814567565918, 0.013916015625, 0.146240234375, -0.822998046875
220, 2651743216, -4.241568088531494, -2.4732184410095215, 11.014055252075195, -58.514469146728516, 122.76036071777344, 5.048060894012451, 0.038330078125, 0.157470703125, -0.8134765625
221, 2651759883, -4.573497772216797, -2.5735714435577393, 12.64767074584961, -60.53537368774414, 130.46421813964844, 18.347881317138672, 0.073974609375, 0.1728515625, -0.807861328125
222, 2651776550, -3.413377523422241, -4.7220282554626465, 14.866137504577637, -24.486034393310547, 101.09623718261719, 36.37384033203125, 0.102294921875, 0.18017578125, -0.80126953125
223, 2651793217, -0.8602645993232727, -4.546737194061279, 16.736286163330078, 43.43892288208008, 62.412288665771484, 57.11528396606445, 0.126220703125, 0.169677734375, -0.795166015625
224, 2651809884, 3.669620990753174, -2.4535255432128906, 13.212729454040527, 43.403804779052734, 35.67203903198242, 60.34410858154297, 0.143310546875, 0.15673828125, -0.787841796875
225, 2651826551, 5.175083160400391, -3.1656272411346436, 11.240731239318848, 29.902278900146484, 28.74980926513672, 69.29440307617188, 0.155029296875, 0.143310546875, -0.779052734375
226, 2651843218, 5.567047119140625, -3.6855103969573975, 11.790839195251465, 28.887920379638672, 18.2077693939209, 75.12523651123047, 0.171875, 0.12841796875, -0.76953125
227, 2651859885, 3.479914903640747, -3.8046863079071045, 14.328048706054688, 0.17531512677669525, -12.781065940856934, 63.32148742675781, 0.182861328125, 0.120361328125, -0.76123046875
228, 2651876552, 1.9185549020767212, -5.322734355926514, 14.106697082519531, -35.38624572753906, -62.136287689208984, 32.63821029663086, 0.183837890625, 0.123779296875, -0.757568359375
229, 2651893219, 1.6732597351074219, -5.784650802612305, 11.535152435302734, -41.47024917602539, -98.62068939208984, -0.636462926864624, 0.17578125, 0.12890625, -0.75537109375
230, 2651909886, 0.9670164585113525, -4.531225681304932, 10.081233024597168, -38.4325065612793, -111.7414779663086, -25.968107223510742, 0.16650390625, 0.138671875, -0.755126953125
231, 2651926553, -0.5637922286987305, -3.6413934230804443, 10.205741882324219, -37.03789138793945, -118.09452056884766, -39.35362243652344, 0.153564453125, 0.15087890625, -0.758544921875
232, 2651943220, -2.235459566116333, -3.1156373023986816, 10.822174072265625, -25.176162719726562, -126.38748931884766, -38.5836296081543, 0.140380859375, 0.15869140625, -0.767333984375
233, 2651959887, -5.16824197769165, -2.4340193271636963, 13.21318244934082, -27.040218353271484, -142.74301147460938, -37.8229866027832, 0.121826171875, 0.174072265625, -0.7763671875
234, 2651976554, -6.210446357727051, -2.574308395385742, 12.893733024597168, -40.8405647277832, -174.52662658691406, -46.263553619384766, 0.090087890625, 0.193115234375, -0.78369140625
235, 2651993221, -5.01967716217041, -1.7785992622375488, 10.059638023376465, -38.49226379394531, -183.88568115234375, -48.607208251953125, 0.04638671875, 0.211669921875, -0.796630859375
236, 2652009888, -5.209342002868652, -0.3001226484775543, 9.713932037353516, -37.53964614868164, -172.80213928222656, -43.69877243041992, 0.006591796875, 0.22802734375, -0.8046875
237, 2652026555, -5.6513166427612305, 0.1390567570924759, 9.683467864990234, -40.21572494506836, -162.93984985351562, -32.58609390258789, -0.04150390625, 0.244140625, -0.808837890625
238, 2652043222, -7.489420413970947, -0.09830203652381897, 10.849661827087402, -39.61520767211914, -155.3713836669922, -17.8118839263916, -0.08203125, 0.25439453125, -0.812255859375
239, 2652059889, -8.893840789794922, -1.0664993524551392, 10.648316383361816, -40.13432693481445, -167.11390686035156, -8.79104232788086, -0.131103515625, 0.2705078125, -0.808837890625
240, 2652076556, -8.165597915649414, -1.6443251371383667, 7.764484882354736, -31.807071685791016, -170.85916137695312, 0.47133028507232666, -0.176025390625, 0.2802734375, -0.799072265625
241, 2652093223, -7.296350479125977, -1.2961194515228271, 5.344062328338623, -27.140653610229492, -152.07936096191406, 10.129762649536133, -0.21875, 0.287353515625, -0.7861328125
242, 2652109890, -7.4712934494018555, -1.1189123392105103, 4.075995445251465, -30.618677139282227, -119.75096130371094, 16.5350341796875, -0.248779296875, 0.296142578125, -0.774658203125
243, 2652126557, -8.623087882995605, -1.3972972631454468, 4.167905330657959, -26.8795108795166, -87.16636657714844, 17.459665298461914, -0.267822265625, 0.303955078125, -0.76318359375
244, 2652143224, -10.018754005432129, -1.0675911903381348, 4.4761857986450195, -16.557165145874023, -68.68551635742188, 9.170221328735352, -0.284912109375, 0.309326171875, -0.75634765625
245, 2652159891, -9.685434341430664, -0.2558238208293915, 2.8070170879364014, 2.015890121459961, -50.2657585144043, 4.491796970367432, -0.29638671875, 0.310791015625, -0.751220703125
246, 2652176558, -9.68720531463623, 0.4268795847892761, 1.7446744441986084, 20.900114059448242, -19.23651885986328, 10.390600204467773, -0.307373046875, 0.310791015625, -0.748779296875
247, 2652193225, -9.99997615814209, 0.8384990692138672, 1.7254663705825806, 25.732933044433594, 14.470099449157715, 17.158098220825195, -0.3056640625, 0.30224609375, -0.753662109375
248, 2652209892, -10.167019844055176, 0.6241576075553894, 2.1902883052825928, 26.629013061523438, 47.94762420654297, 22.060842514038086, -0.293212890625, 0.2998046875, -0.759033203125
249, 2652226559, -4.28287935256958, -1.8475805521011353, 3.0478994846343994, 67.38338470458984, 77.69977569580078, 52.06602096557617, -0.27294921875, 0.29150390625, -0.76611328125
250, 2652243226, 0.6186838746070862, 0.05798467993736267, 14.383366584777832, 36.870849609375, 87.0132827758789, 61.79507064819336, -0.25146484375, 0.282470703125, -0.780029296875
251, 2652259893, 2.1578989028930664, -12.115484237670898, 11.230352401733398, -48.74688720703125, 143.2823028564453, 3.2235734462738037, -0.22119140625, 0.291259765625, -0.78564453125
252, 2652276560, -5.738530158996582, -2.3414008617401123, 8.136051177978516, -23.02579116821289, 164.38365173339844, 8.957331657409668, -0.183837890625, 0.29833984375, -0.79345703125
253, 2652293227, -7.213287353515625, 2.4174389839172363, 13.994446754455566, -37.231998443603516, 147.21788024902344, 13.160555839538574, -0.148193359375, 0.30712890625, -0.7958984375
254, 2652309894, -6.173696994781494, -0.9630385637283325, 12.037043571472168, -38.51632308959961, 124.6585922241211, 24.086721420288086, -0.1123046875, 0.317138671875, -0.8017578125
255, 2652326561, -5.051097869873047, -4.212898254394531, 9.788419723510742, -39.6109619140625, 118.64078521728516, 13.12415885925293, -0.087646484375, 0.32421875, -0.798095703125
256, 2652343228, -4.878360271453857, -4.281816482543945, 9.055755615234375, -31.69231414794922, 109.4124984741211, 12.568431854248047, -0.05859375, 0.3310546875, -0.799072265625
257, 2652359895, -5.16321325302124, -3.726484775543213, 8.95452880859375, -30.430118560791016, 104.44237518310547, 10.766066551208496, -0.032470703125, 0.3408203125, -0.796142578125
258, 2652376562, -5.731070041656494, -2.6677405834198, 9.988480567932129, -30.24402618408203, 87.3813705444336, 10.621173858642578, -0.010009765625, 0.3486328125, -0.794189453125
259, 2652393229, -6.513913631439209, -5.195012092590332, 9.589521408081055, -19.92136001586914, 66.24884796142578, 14.060846328735352, 0.0078125, 0.354736328125, -0.79296875
260, 2652409896, -6.72166109085083, -5.495996952056885, 8.977179527282715, 9.69092082977295, 43.10374450683594, 19.942808151245117, 0.018310546875, 0.350341796875, -0.795654296875
261, 2652426563, -5.174968242645264, -2.1412606239318848, 9.419776916503906, 15.172881126403809, 26.78022003173828, 16.45435333251953, 0.02978515625, 0.348388671875, -0.7939453125
262, 2652443230, -4.568536281585693, -3.1378579139709473, 8.374515533447266, 16.230985641479492, 18.399873733520508, 13.064900398254395, 0.037353515625, 0.342529296875, -0.7958984375
263, 2652459897, -4.168778896331787, -2.740971803665161, 8.357096672058105, 18.803791046142578, 18.099145889282227, 12.654664039611816, 0.041015625, 0.339599609375, -0.7978515625
264, 2652476564, -3.801943778991699, -3.274268388748169, 7.677821636199951, 21.650007247924805, 20.964380264282227, 13.568016052246094, 0.0478515625, 0.3359375, -0.801513671875
265, 2652493231, -4.199971675872803, -3.2280921936035156, 8.041303634643555, 26.934146881103516, 23.17856216430664, 16.696989059448242, 0.051513671875, 0.328125, -0.804443359375
266, 2652509898, -4.468311309814453, -2.90631103515625, 8.01541519165039, 32.88737106323242, 19.512409210205078, 18.53494644165039, 0.06103515625, 0.322021484375, -0.8056640625
267, 2652526565, -4.497596740722656, -2.6691765785217285, 8.155064582824707, 38.25672912597656, 17.968719482421875, 20.55499267578125, 0.065673828125, 0.3125, -0.81005859375
268, 2652543232, -4.557734489440918, -2.1756865978240967, 8.504302978515625, 39.84294891357422, 14.657246589660645, 21.26285171508789, 0.0712890625, 0.302490234375, -0.81298828125
269, 2652559899, -4.89788293838501, -2.5792713165283203, 8.497360229492188, 39.946434020996094, 11.445778846740723, 20.108840942382812, 0.07861328125, 0.29248046875, -0.817626953125
270, 2652576566, -4.819344520568848, -2.1456844806671143, 8.5271635055542, 39.653350830078125, 6.127593040466309, 19.176136016845703, 0.080810546875, 0.281982421875, -0.822998046875
271, 2652593233, -4.744163513183594, -2.630659341812134, 8.3260498046875, 37.495906829833984, 2.611544132232666, 17.827653884887695, 0.083251953125, 0.276123046875, -0.824462890625
272, 2652609900, -4.459805011749268, -2.579292058944702, 8.405380249023438, 33.014137268066406, -1.1824158430099487, 16.591632843017578, 0.08447265625, 0.26611328125, -0.825927734375
273, 2652626567, -4.741894245147705, -2.3852834701538086, 8.473722457885742, 24.684675216674805, -2.6608726978302, 13.70524787902832, 0.087158203125, 0.256103515625, -0.827880859375
274, 2652643234, -4.416250228881836, -2.021071434020996, 8.444079399108887, 20.0693302154541, -5.404086112976074, 12.949968338012695, 0.085205078125, 0.25244140625, -0.829833984375
275, 2652659901, -4.472455978393555, -2.0197291374206543, 8.540323257446289, 22.742738723754883, -9.249719619750977, 15.319785118103027, 0.084228515625, 0.24853515625, -0.831787109375
276, 2652676568, -4.682297706604004, -1.5742605924606323, 8.372061729431152, 22.290096282958984, -7.452470779418945, 16.48100471496582, 0.085693359375, 0.242431640625, -0.835205078125
277, 2652693235, -4.4354753494262695, -1.7589772939682007, 8.246335983276367, 21.538284301757812, -4.32019567489624, 18.050722122192383, 0.08447265625, 0.234375, -0.83837890625
278, 2652709902, -4.6194000244140625, -1.807395339012146, 8.363333702087402, 18.165294647216797, 0.2091602236032486, 20.027751922607422, 0.087890625, 0.228759765625, -0.837646484375
279, 2652726569, -4.751282215118408, -1.4350377321243286, 8.460393905639648, 10.83102035522461, 9.059613227844238, 19.377010345458984, 0.088623046875, 0.223388671875, -0.839111328125
280, 2652743236, -4.449717044830322, -1.8808735609054565, 8.490960121154785, 7.837347507476807, 18.783222198486328, 18.921606063842773, 0.094970703125, 0.221435546875, -0.83935546875
281, 2652759903, -4.5030837059021, -2.0056650638580322, 8.599870681762695, 10.502674102783203, 33.698829650878906, 23.00415802001953, 0.103515625, 0.218994140625, -0.836181640625
282, 2652776570, -4.372644424438477, -1.1090413331985474, 8.861571311950684, 10.343777656555176, 52.445274353027344, 28.185928344726562, 0.114501953125, 0.218017578125, -0.83544921875
283, 2652793237, -4.119729518890381, -0.9696967005729675, 8.808521270751953, -1.6717026233673096, 88.64823913574219, 29.412843704223633, 0.136474609375, 0.215576171875, -0.836669921875
284, 2652809904, -4.398756504058838, -0.5642452239990234, 8.643132209777832, -9.3959321975708, 128.55499267578125, 29.29574966430664, 0.166015625, 0.2138671875, -0.829345703125
285, 2652826571, -4.488415718078613, -0.8530899286270142, 8.314530372619629, -16.157176971435547, 176.44174194335938, 26.31315040588379, 0.205810546875, 0.21630859375, -0.817138671875
286, 2652843238, -4.579219818115234, -0.888252854347229, 8.21221923828125, -13.362990379333496, 226.63839721679688, 25.508033752441406, 0.257080078125, 0.21728515625, -0.800537109375
287, 2652859905, -5.0876617431640625, -1.1092473268508911, 8.351937294006348, -4.5776848793029785, 273.70941162109375, 26.563875198364258, 0.318115234375, 0.216552734375, -0.7802734375
288, 2652876572, -5.528910160064697, -1.3586426973342896, 7.9338459968566895, 5.29350471496582, 323.0275573730469, 40.90700912475586, 0.389404296875, 0.212646484375, -0.74658203125
289, 2652893239, -5.8745269775390625, -1.7793399095535278, 7.8916144371032715, 20.544218063354492, 392.9486389160156, 60.875633239746094, 0.4697265625, 0.2001953125, -0.69873046875
290, 2652909906, -7.2106804847717285, -2.7936792373657227, 9.313145637512207, 43.04737091064453, 482.614501953125, 84.15667724609375, 0.561279296875, 0.18017578125, -0.631103515625
291, 2652926573, -15.07059383392334, -3.323253870010376, 11.924903869628906, 41.57285690307617, 520.3508911132812, 111.66895294189453, 0.653076171875, 0.150146484375, -0.53515625
292, 2652943240, -20.893510818481445, -2.9225053787231445, 12.205484390258789, 44.49824523925781, 478.16717529296875, 125.07452392578125, 0.724365234375, 0.117431640625, -0.4384765625
293, 2652959907, -17.700469970703125, -4.917311191558838, 11.924980163574219, 59.34989929199219, 448.2878723144531, 124.14602661132812, 0.777099609375, 0.08447265625, -0.33544921875
294, 2652976574, -12.610881805419922, -5.085921287536621, 14.467695236206055, 73.85250854492188, 395.8909606933594, 122.53730010986328, 0.81005859375, 0.0478515625, -0.237548828125
295, 2652993241, -3.7399048805236816, -1.3969749212265015, 16.837263107299805, 59.71971130371094, 283.6806640625, 99.01799774169922, 0.82666015625, 0.0205078125, -0.15625
296, 2653009908, -27.94510841369629, -0.6927517652511597, 25.068052291870117, -25.85129165649414, 143.62503051757812, 113.86077880859375, 0.8271484375, -0.01123046875, -0.105712890625
297, 2653026575, -15.432171821594238, -7.702316761016846, 24.5076961517334, -105.81333923339844, -100.1934585571289, -15.361278533935547, 0.81689453125, -0.014892578125, -0.1044921875
298, 2653043242, -1.3709789514541626, -9.721940040588379, 10.478363990783691, -30.729827880859375, -215.4086151123047, -30.448923110961914, 0.811279296875, -0.0087890625, -0.13232421875
299, 2653059909, 1.522116780281067, -5.504936695098877, 4.542724132537842, 50.118255615234375, -202.57537841796875, -12.18063735961914, 0.818359375, -0.01416015625, -0.15673828125
300, 2653076576, 0.45131367444992065, -3.408855676651001, 5.722143173217773, 78.18171691894531, -179.5076904296875, -26.5567626953125, 0.835693359375, -0.01611328125, -0.181884765625
301, 2653093243, -4.253217697143555, -4.126626968383789, 9.147756576538086, 79.75819396972656, -211.15304565429688, -47.79861068725586, 0.859375, -0.01513671875, -0.22607421875
302, 2653109910, -6.26643180847168, -2.7777786254882812, 10.166293144226074, 68.79479217529297, -277.9526672363281, -68.1400375366211, 0.882080078125, -0.00732421875, -0.318115234375
303, 2653126577, -6.329275131225586, -1.7490628957748413, 8.464127540588379, 43.84175491333008, -326.3327941894531, -82.85783386230469, 0.869140625, -4.8828125E-4, -0.44677734375
304, 2653143244, -6.60964298248291, -0.8853166699409485, 7.037971496582031, 22.216506958007812, -348.52972412109375, -83.63591003417969, 0.802978515625, 0.003173828125, -0.5771484375
305, 2653159911, -6.935185432434082, -0.24003973603248596, 6.7198004722595215, 8.864885330200195, -356.3349304199219, -65.15143585205078, 0.70703125, 0.0126953125, -0.674560546875
306, 2653176578, -8.132972717285156, 0.6695106029510498, 8.191511154174805, -11.396066665649414, -357.3121337890625, -40.91306686401367, 0.603515625, 0.037353515625, -0.73291015625
307, 2653193245, -10.825517654418945, 0.7921169996261597, 9.990728378295898, -53.90495300292969, -371.5588684082031, -31.610990524291992, 0.523681640625, 0.06689453125, -0.767333984375
308, 2653209912, -11.134368896484375, -0.3125753104686737, 9.736505508422852, -89.24365997314453, -386.5135498046875, -28.798816680908203, 0.458984375, 0.100341796875, -0.815673828125
309, 2653226579, -10.143318176269531, 1.0705286264419556, 7.733116149902344, -108.22007751464844, -366.8780212402344, -18.699188232421875, 0.365234375, 0.13671875, -0.88916015625
310, 2653243246, -13.42319393157959, 2.972731590270996, 10.185493469238281, -143.5715789794922, -306.7722473144531, 1.617743968963623, 0.244384765625, 0.174560546875, -0.928955078125
311, 2653259913, -21.26860237121582, 3.834366798400879E-4, 16.07084083557129, -187.32188415527344, -314.65289306640625, -3.1716086864471436, 0.12060546875, 0.224365234375, -0.918701171875
312, 2653276580, -22.078332901000977, -2.5379652976989746, 12.667282104492188, -167.1167449951172, -348.563232421875, -26.40668487548828, 0.00927734375, 0.265869140625, -0.882568359375
313, 2653293247, -22.029876708984375, 0.5048927068710327, 8.235389709472656, -124.75235748291016, -331.62896728515625, -51.324337005615234, -0.0810546875, 0.290771484375, -0.845947265625
314, 2653309914, -25.233806610107422, 1.9811816215515137, 5.856642723083496, -108.6948013305664, -300.2481384277344, -66.26338195800781, -0.155517578125, 0.310546875, -0.810546875
315, 2653326581, -26.078561782836914, 0.7767142653465271, -9.042024612426758E-4, -83.61302947998047, -267.7447814941406, -74.6979751586914, -0.22119140625, 0.322509765625, -0.779296875
316, 2653343248, -25.510595321655273, 1.3107680082321167, -6.718498706817627, -54.21458053588867, -205.01271057128906, -92.36739349365234, -0.2724609375, 0.323974609375, -0.751220703125
317, 2653359915, -24.987823486328125, 5.247006893157959, -10.402304649353027, -39.17148208618164, -109.85040283203125, -121.47118377685547, -0.308349609375, 0.318115234375, -0.73193359375
318, 2653376582, -25.506811141967773, 7.04851770401001, -13.131884574890137, -29.0970458984375, -26.44693374633789, -119.54180908203125, -0.32568359375, 0.3125, -0.72216796875
319, 2653393249, -17.47283172607422, 4.291760444641113, -16.957992553710938, 88.51243591308594, 124.33839416503906, -50.51901626586914, -0.31689453125, 0.29150390625, -0.73193359375
320, 2653409916, 4.795799255371094, 5.145834922790527, 24.522560119628906, 31.35173225402832, 170.83041381835938, -18.64995765686035, -0.28369140625, 0.274169921875, -0.7470703125
321, 2653426583, -0.9792678952217102, 5.671186923980713, 11.526846885681152, 2.054471015930176, 192.91812133789062, 50.01948547363281, -0.23681640625, 0.275146484375, -0.75830078125
322, 2653443250, -9.416318893432617, 9.634523391723633, 10.321773529052734, -19.071542739868164, 245.57948303222656, 73.13365173339844, -0.1806640625, 0.277587890625, -0.76708984375
323, 2653459917, -14.952664375305176, -7.435277938842773, 15.539588928222656, -33.66291046142578, 188.01513671875, 53.92292785644531, -0.12890625, 0.28759765625, -0.769287109375
324, 2653476584, -8.587701797485352, -10.00881290435791, 7.643767356872559, 8.481904029846191, 156.38168334960938, 43.666324615478516, -0.091552734375, 0.287353515625, -0.77294921875
325, 2653493251, -8.755337715148926, -3.964634418487549, 10.419759750366211, 51.92617416381836, 120.1175537109375, 53.7518196105957, -0.057861328125, 0.27880859375, -0.779296875
326, 2653509918, -9.874027252197266, -4.087389945983887, 11.109528541564941, 85.48658752441406, 69.70623779296875, 47.832889556884766, -0.0361328125, 0.25732421875, -0.78466796875
327, 2653526585, -6.939549922943115, 0.9026980400085449, 12.220891952514648, 69.63229370117188, 34.746883392333984, 29.17335319519043, -0.02197265625, 0.240234375, -0.787841796875
328, 2653543252, -6.169373512268066, -2.9757604598999023, 9.578644752502441, 48.49197769165039, 11.400640487670898, 19.187170028686523, -0.018310546875, 0.226806640625, -0.7919921875
329, 2653559919, -4.783153533935547, -1.2617818117141724, 9.280915260314941, 28.974821090698242, 3.1784512996673584, 13.381217002868652, -0.015625, 0.2197265625, -0.79638671875
330, 2653576586, -4.61904764175415, -1.9417811632156372, 8.916966438293457, 10.00009536743164, 5.45049524307251, 8.136513710021973, -0.015625, 0.2158203125, -0.797607421875
331, 2653593253, -4.662741661071777, -1.3616359233856201, 8.639497756958008, 0.5019897818565369, 5.002026557922363, 4.9779887199401855, -0.012451171875, 0.21484375, -0.79833984375
332, 2653609920, -4.56976842880249, -1.7343776226043701, 8.592562675476074, 1.357658863067627, 4.974070072174072, 3.020153760910034, -0.011474609375, 0.21630859375, -0.79833984375
333, 2653626587, -4.457433700561523, -1.839712142944336, 8.514713287353516, 1.0963963270187378, 4.453927040100098, 3.036545515060425, -0.010009765625, 0.21435546875, -0.79541015625
334, 2653643254, -4.479429721832275, -2.054016590118408, 8.371904373168945, 5.428670406341553, 1.4864780902862549, 5.117706298828125, -0.009521484375, 0.211669921875, -0.79541015625
335, 2653659921, -4.716590881347656, -1.9294792413711548, 8.413118362426758, 12.089286804199219, -3.4729182720184326, 9.056663513183594, -0.010009765625, 0.211181640625, -0.7978515625
336, 2653676588, -4.593268871307373, -1.7284777164459229, 8.424811363220215, 13.665690422058105, -6.7724409103393555, 9.98749828338623, -0.0068359375, 0.206787109375, -0.79833984375
337, 2653693255, -4.532970428466797, -1.572027564048767, 8.485092163085938, 12.597469329833984, -5.099544048309326, 9.559263229370117, -0.01025390625, 0.20361328125, -0.7998046875
338, 2653709922, -4.508686065673828, -1.7336475849151611, 8.467025756835938, 12.047768592834473, -4.765195369720459, 9.449614524841309, -0.00927734375, 0.2021484375, -0.798828125
339, 2653726589, -4.418191909790039, -1.691041111946106, 8.479767799377441, 10.320589065551758, -4.1493635177612305, 10.266584396362305, -0.01171875, 0.19873046875, -0.79931640625
340, 2653743256, -4.435446262359619, -1.5833934545516968, 8.466503143310547, 7.077093124389648, -2.879176139831543, 10.931960105895996, -0.01025390625, 0.19580078125, -0.79931640625
341, 2653759923, -4.555020332336426, -1.3823885917663574, 8.512828826904297, 3.508820056915283, 0.6650916934013367, 10.1136474609375, -0.01123046875, 0.193603515625, -0.7998046875
342, 2653776590, -4.342803955078125, -1.4804236888885498, 8.518977165222168, -0.38069453835487366, 6.0232062339782715, 9.028768539428711, -0.00830078125, 0.19677734375, -0.80126953125
343, 2653793257, -4.201122760772705, -1.6732105016708374, 8.526436805725098, -0.46110591292381287, 14.085892677307129, 9.940574645996094, -0.00439453125, 0.19580078125, -0.799560546875
344, 2653809924, -4.460865497589111, -1.7413252592086792, 8.50377082824707, 3.808791399002075, 23.696565628051758, 13.818798065185547, 0.002685546875, 0.1962890625, -0.799560546875
345, 2653826591, -4.61662483215332, -1.313720703125, 8.538146018981934, 2.5608911514282227, 31.75543785095215, 16.296123504638672, 0.0107421875, 0.1943359375, -0.7998046875
346, 2653843258, -4.070713043212891, -0.9049805402755737, 8.549208641052246, -3.311310052871704, 47.99827575683594, 15.963632583618164, 0.020751953125, 0.19384765625, -0.799072265625
347, 2653859925, -4.534229278564453, -0.9087285995483398, 8.518582344055176, -10.652148246765137, 70.3925552368164, 14.238922119140625, 0.0341796875, 0.195068359375, -0.7978515625
348, 2653876592, -4.512863636016846, -0.9651839733123779, 8.381486892700195, -14.246419906616211, 97.6828842163086, 12.161826133728027, 0.05810546875, 0.19873046875, -0.7958984375
349, 2653893259, -4.62990665435791, -0.903344988822937, 8.197151184082031, -21.121091842651367, 131.89959716796875, 9.252511978149414, 0.0869140625, 0.2021484375, -0.791748046875
350, 2653909926, -4.91119909286499, -0.6899670362472534, 8.152776718139648, -27.428632736206055, 169.8499298095703, 0.8668562173843384, 0.121826171875, 0.207275390625, -0.78564453125
351, 2653926593, -5.344684600830078, -0.9134411811828613, 8.176318168640137, -25.429763793945312, 202.62710571289062, -6.580333232879639, 0.16796875, 0.21240234375, -0.773681640625
352, 2653943260, -5.428455829620361, -1.4437323808670044, 8.23676872253418, -20.505224227905273, 231.1640167236328, -7.62293004989624, 0.21435546875, 0.21630859375, -0.7607421875
353, 2653959927, -5.545229911804199, -1.4130215644836426, 8.148479461669922, -19.08241844177246, 267.79205322265625, -3.3241307735443115, 0.27099609375, 0.21875, -0.738037109375
354, 2653976594, -5.253159046173096, -2.3481054306030273, 7.556828498840332, -16.01283073425293, 328.8769836425781, 7.372392654418945, 0.33544921875, 0.22265625, -0.705078125
355, 2653993261, -6.207114219665527, -2.8598294258117676, 6.847148418426514, -13.6622314453125, 415.1789855957031, 27.147891998291016, 0.41015625, 0.223876953125, -0.6640625
356, 2654009928, -8.179510116577148, -4.031978607177734, 10.215752601623535, -8.62877368927002, 503.20550537109375, 65.77383422851562, 0.50341796875, 0.2177734375, -0.59423828125
357, 2654026595, -17.990320205688477, -3.16548490524292, 11.392316818237305, -4.353630065917969, 519.9584350585938, 107.03455352783203, 0.591796875, 0.19775390625, -0.505126953125
358, 2654043262, -19.616525650024414, -3.817800283432007, 10.880620956420898, 2.24001145362854, 486.6204833984375, 103.73902893066406, 0.666015625, 0.1796875, -0.4091796875
359, 2654059929, -19.560314178466797, -8.000683784484863, 11.722906112670898, 49.09334945678711, 447.6495666503906, 132.19529724121094, 0.72265625, 0.149658203125, -0.31298828125
360, 2654076596, -12.834050178527832, -7.05794620513916, 15.901623725891113, 85.09437561035156, 388.9310302734375, 142.02919006347656, 0.762451171875, 0.111572265625, -0.224365234375
361, 2654093263, -7.693777084350586, -0.6427072882652283, 17.60893440246582, 57.7451171875, 245.14601135253906, 114.43810272216797, 0.779052734375, 0.078369140625, -0.152587890625
362, 2654109930, -31.065296173095703, -0.38411563634872437, 28.784568786621094, -31.668886184692383, 100.24186706542969, 144.4815216064453, 0.78759765625, 0.037841796875, -0.112060546875
363, 2654126597, -12.68142318725586, -6.738803863525391, 22.418148040771484, -115.9721450805664, -157.7376251220703, 26.249677658081055, 0.78515625, 0.026611328125, -0.12646484375
364, 2654143264, -1.158113718032837, -8.280221939086914, 9.635125160217285, -54.14065170288086, -241.4744873046875, 29.23172378540039, 0.779052734375, 0.01513671875, -0.167236328125
365, 2654159931, 0.6326950788497925, -5.950309753417969, 4.390144348144531, 14.357547760009766, -226.97109985351562, 43.41169357299805, 0.77685546875, -0.001953125, -0.209716796875
366, 2654176598, -1.0349938869476318, -5.575638294219971, 5.70405387878418, 55.29773712158203, -212.1898193359375, 17.312612533569336, 0.778076171875, -0.014404296875, -0.251708984375
367, 2654193265, -4.943836688995361, -6.102868556976318, 8.861089706420898, 74.36579132080078, -256.28497314453125, -23.090999603271484, 0.778564453125, -0.01318359375, -0.31103515625
368, 2654209932, -5.267369270324707, -3.8349404335021973, 8.355210304260254, 73.74324798583984, -313.9559020996094, -60.201656341552734, 0.758544921875, -0.006103515625, -0.395751953125
369, 2654226599, -4.419536590576172, -1.966072916984558, 6.505079746246338, 49.24137496948242, -343.9674987792969, -80.73281860351562, 0.704833984375, 0.0126953125, -0.493896484375
370, 2654243266, -5.4795660972595215, -0.8445290923118591, 6.3075270652771, 24.59621810913086, -354.1389465332031, -79.95378112792969, 0.617919921875, 0.027099609375, -0.576171875
371, 2654259933, -6.72573709487915, -0.3433483839035034, 7.334258556365967, 14.77598762512207, -369.3236999511719, -55.47225570678711, 0.50927734375, 0.032470703125, -0.62451171875
372, 2654276600, -7.592264175415039, 0.6719896793365479, 8.532965660095215, -3.5710160732269287, -379.6511535644531, -25.24504280090332, 0.40673828125, 0.0205078125, -0.636474609375
373, 2654293267, -10.17792797088623, 1.1794859170913696, 10.003934860229492, -56.06635665893555, -389.2761535644531, -16.19710922241211, 0.326171875, 0.006591796875, -0.626953125
374, 2654309934, -10.78506088256836, 1.0561630725860596, 9.066279411315918, -102.43184661865234, -385.8466491699219, -12.619967460632324, 0.279541015625, -0.008544921875, -0.5966796875
375, 2654326601, -12.24276351928711, 1.1865917444229126, 8.594685554504395, -131.46395874023438, -342.8630676269531, 5.262345314025879, 0.30810546875, -0.025390625, -0.5654296875
376, 2654343268, -18.677570343017578, -2.1661012172698975, 14.572580337524414, -157.01998901367188, -318.4969787597656, 5.360591411590576, 0.410400390625, -0.0234375, -0.6201171875
377, 2654359935, -24.661041259765625, -5.956391334533691, 16.00705909729004, -152.709716796875, -349.9273376464844, -38.181640625, 0.474365234375, 0.0390625, -0.791748046875
378, 2654376602, -25.22616195678711, -4.2377028465271, 10.59312629699707, -109.77581787109375, -368.1912841796875, -92.3468017578125, 0.37548828125, 0.15771484375, -0.96826171875
379, 2654393269, -25.177671432495117, 0.9921237230300903, 6.536428928375244, -88.57157897949219, -335.6974792480469, -116.2252197265625, 0.18994140625, 0.251220703125, -1.031494140625
380, 2654409936, -28.29494857788086, 3.4531338214874268, 4.17464017868042, -92.67745208740234, -303.4803771972656, -101.45150756835938, 0.028076171875, 0.312744140625, -1.0126953125
381, 2654426603, -27.439722061157227, 3.724468469619751, -2.5077474117279053, -99.52510833740234, -263.6959533691406, -88.72543334960938, -0.0927734375, 0.356201171875, -0.97021484375
382, 2654443270, -26.835012435913086, 4.581417083740234, -8.699082374572754, -70.6866455078125, -184.8876190185547, -101.8016128540039, -0.18212890625, 0.383544921875, -0.93505859375
383, 2654459937, -28.447429656982422, 9.706902503967285, -13.16510009765625, -51.63589859008789, -104.8529052734375, -110.2995376586914, -0.2392578125, 0.397216796875, -0.91015625
384, 2654476604, -26.498136520385742, 10.152905464172363, -14.71982192993164, -30.708148956298828, -3.607060432434082, -89.45296478271484, -0.265380859375, 0.407958984375, -0.898193359375
385, 2654493271, -6.922360897064209, 0.9912359714508057, 0.12664958834648132, 79.14033508300781, 76.9415512084961, -46.20793914794922, -0.2646484375, 0.39892578125, -0.9111328125
386, 2654509938, 15.936448097229004, -5.449517250061035, 24.906002044677734, -12.360121726989746, 142.23641967773438, -20.213640213012695, -0.23779296875, 0.399658203125, -0.918701171875
387, 2654526605, -0.986727774143219, 7.536201000213623, 0.004589900374412537, 7.274681091308594, 230.5951385498047, 28.468605041503906, -0.18505859375, 0.408203125, -0.92822265625
388, 2654543272, -12.848228454589844, 11.816319465637207, 19.886917114257812, -33.31090545654297, 240.03085327148438, 52.60496520996094, -0.117431640625, 0.427001953125, -0.93359375
389, 2654559939, -12.149102210998535, -7.093825340270996, 13.045225143432617, -36.60334014892578, 158.95709228515625, 58.16915512084961, -0.06494140625, 0.444091796875, -0.93310546875
390, 2654576606, -7.626248836517334, -12.51257038116455, 7.689892768859863, -16.584693908691406, 148.97804260253906, 30.21225357055664, -0.021240234375, 0.458984375, -0.934814453125
391, 2654593273, -4.751365661621094, -0.3166867196559906, 9.514690399169922, 14.469978332519531, 129.39675903320312, 46.6431770324707, 0.022216796875, 0.46142578125, -0.935546875
392, 2654609940, -7.2446699142456055, -2.9261410236358643, 9.802111625671387, 21.791093826293945, 108.69227600097656, 46.55455780029297, 0.05419921875, 0.461181640625, -0.936767578125
393, 2654626607, -8.52625846862793, -6.849374771118164, 8.987448692321777, 73.16108703613281, 80.65636444091797, 53.89590072631836, 0.085693359375, 0.4462890625, -0.939697265625
394, 2654643274, -6.349857807159424, -0.7173745632171631, 10.950998306274414, 85.86529541015625, 54.53961944580078, 46.987796783447266, 0.109619140625, 0.42236328125, -0.950927734375
395, 2654659941, -6.078799724578857, -1.13394033908844, 10.40794849395752, 66.57969665527344, 24.389841079711914, 31.230600357055664, 0.122314453125, 0.404052734375, -0.957763671875
396, 2654676608, -4.5649189949035645, -1.1347187757492065, 9.393189430236816, 56.09569549560547, 14.591726303100586, 24.50173568725586, 0.12744140625, 0.389404296875, -0.96435546875
397, 2654693275, -5.3621039390563965, -1.9854564666748047, 9.408596992492676, 43.326148986816406, 10.913692474365234, 17.461978912353516, 0.13427734375, 0.37451171875, -0.97216796875
398, 2654709942, -4.755405902862549, -1.9209681749343872, 9.260836601257324, 22.84069061279297, 10.19565486907959, 11.422493934631348, 0.13671875, 0.367431640625, -0.97412109375
399, 2654726609, -4.402006149291992, -1.742222785949707, 8.795692443847656, 5.620256423950195, 9.507818222045898, 8.716756820678711, 0.139892578125, 0.366943359375, -0.97314453125
400, 2654743276, -4.856172561645508, -1.5762336254119873, 8.73337173461914, 6.06754207611084, 4.181793689727783, 9.845660209655762, 0.144775390625, 0.363037109375, -0.971923828125
401, 2654759943, -4.781046390533447, -1.4579803943634033, 8.403286933898926, 8.857972145080566, -2.451777219772339, 10.115236282348633, 0.14697265625, 0.362060546875, -0.974853515625
402, 2654776610, -4.812343120574951, -1.4666534662246704, 8.490218162536621, 10.944453239440918, -5.489716529846191, 9.950472831726074, 0.14599609375, 0.35791015625, -0.977294921875
403, 2654793277, -4.643285751342773, -1.3001878261566162, 8.506498336791992, 10.782296180725098, -7.217216968536377, 8.564579963684082, 0.1435546875, 0.3564453125, -0.975341796875
404, 2654809944, -4.4692535400390625, -1.4271926879882812, 8.576560020446777, 9.752470970153809, -6.856908321380615, 7.71088171005249, 0.1416015625, 0.350341796875, -0.9794921875
405, 2654826611, -4.26401948928833, -1.7055336236953735, 8.539807319641113, 8.276206016540527, -6.953866004943848, 8.868231773376465, 0.14453125, 0.350341796875, -0.978515625
406, 2654843278, -4.455530166625977, -1.5069293975830078, 8.495680809020996, 7.083242416381836, -7.696789264678955, 11.13977336883545, 0.1435546875, 0.346923828125, -0.978271484375
407, 2654859945, -4.469075679779053, -1.4283806085586548, 8.497454643249512, 7.022770881652832, -4.660477161407471, 12.07017993927002, 0.14111328125, 0.3427734375, -0.98095703125
408, 2654876612, -4.401783466339111, -1.3787189722061157, 8.552507400512695, 4.714116096496582, 0.39851462841033936, 12.337010383605957, 0.1416015625, 0.34228515625, -0.97900390625
409, 2654893279, -4.14222526550293, -1.4937770366668701, 8.515044212341309, 5.9944329261779785, 6.772521495819092, 12.610454559326172, 0.144775390625, 0.33984375, -0.9833984375
410, 2654909946, -4.160637378692627, -1.6994507312774658, 8.623645782470703, 10.460728645324707, 14.954050064086914, 16.250246047973633, 0.149169921875, 0.337890625, -0.980224609375
411, 2654926613, -4.485504627227783, -1.3090925216674805, 8.651750564575195, 11.445664405822754, 24.445058822631836, 21.11854362487793, 0.15771484375, 0.3349609375, -0.9794921875
412, 2654943280, -4.497199535369873, -0.8004753589630127, 8.687721252441406, 9.95355224609375, 36.56858825683594, 21.781036376953125, 0.168212890625, 0.330078125, -0.979248046875
413, 2654959947, -3.9166386127471924, -0.45548689365386963, 8.842172622680664, 0.5837758779525757, 60.262447357177734, 19.969863891601562, 0.187744140625, 0.3310546875, -0.977783203125
414, 2654976614, -4.08799934387207, -0.4041474163532257, 8.599370956420898, -6.7290425300598145, 93.03934478759766, 19.662673950195312, 0.211181640625, 0.328369140625, -0.970947265625
415, 2654993281, -4.4598188400268555, -0.30660951137542725, 8.593603134155273, -13.40902328491211, 129.4110107421875, 16.731979370117188, 0.24560546875, 0.332763671875, -0.959716796875
416, 2655009948, -4.648013591766357, -0.3662230372428894, 8.19017219543457, -17.12656593322754, 165.8121337890625, 11.642315864562988, 0.29052734375, 0.33447265625, -0.94873046875
417, 2655026615, -5.097119331359863, -0.3782091438770294, 7.901000022888184, -21.416057586669922, 201.76959228515625, 1.0961202383041382, 0.3427734375, 0.342041015625, -0.92578125
418, 2655043282, -5.4816365242004395, -0.8371752500534058, 8.01607608795166, -12.800374031066895, 232.0968780517578, -2.5863893032073975, 0.40283203125, 0.345458984375, -0.89794921875
419, 2655059949, -5.891861915588379, -1.2887285947799683, 8.004345893859863, -2.964134454727173, 262.36224365234375, 3.6018853187561035, 0.46875, 0.347900390625, -0.868408203125
420, 2655076616, -5.734551906585693, -1.807492733001709, 7.401641368865967, -4.206374168395996, 302.0128479003906, 19.393171310424805, 0.54248046875, 0.35009765625, -0.8232421875
421, 2655093283, -6.279098033905029, -2.529158592224121, 6.957582950592041, 3.7185001373291016, 363.4596252441406, 44.685333251953125, 0.625244140625, 0.3447265625, -0.763916015625
422, 2655109950, -7.908945083618164, -3.699808120727539, 8.519017219543457, 10.761892318725586, 438.602294921875, 72.10314178466797, 0.7216796875, 0.328125, -0.680419921875
423, 2655126617, -13.531618118286133, -2.728870391845703, 10.37920093536377, 14.946950912475586, 474.2077331542969, 103.63124084472656, 0.814208984375, 0.306640625, -0.57470703125
424, 2655143284, -19.835363388061523, -1.8407801389694214, 11.149070739746094, 4.733208656311035, 451.6181945800781, 108.25344848632812, 0.889404296875, 0.2734375, -0.45947265625
425, 2655159951, -17.897727966308594, -4.474146842956543, 10.903512001037598, 16.290485382080078, 427.64764404296875, 108.19678497314453, 0.943359375, 0.236328125, -0.341552734375
426, 2655176618, -15.81403636932373, -5.414653778076172, 13.66348934173584, 44.786502838134766, 385.35748291015625, 118.84700012207031, 0.979736328125, 0.196044921875, -0.232666015625
427, 2655193285, -8.221537590026855, -4.548471450805664, 15.701885223388672, 47.37018585205078, 293.1679382324219, 104.17987823486328, 0.99609375, 0.160888671875, -0.143310546875
428, 2655209952, -19.808048248291016, -2.6509580612182617, 20.020355224609375, 49.15653610229492, 147.20639038085938, 126.3165054321289, 0.998779296875, 0.1240234375, -0.099365234375
429, 2655226619, -17.88775062561035, -1.0944002866744995, 27.79652214050293, -52.71000289916992, -64.17779541015625, 54.18507385253906, 0.99267578125, 0.096923828125, -0.101318359375
430, 2655243286, -2.2395691871643066, -5.779104709625244, 11.922331809997559, -64.95455169677734, -195.77462768554688, 11.142041206359863, 0.978271484375, 0.096923828125, -0.15771484375
431, 2655259953, 1.4555728435516357, -5.09963846206665, 5.0568928718566895, -4.1118879318237305, -187.89634704589844, 29.67271614074707, 0.961669921875, 0.097900390625, -0.2158203125
432, 2655276620, -0.6881997585296631, -4.213987827301025, 6.211038112640381, 46.823097229003906, -173.67266845703125, 16.970422744750977, 0.94873046875, 0.095947265625, -0.268310546875
433, 2655293287, -4.031428337097168, -4.786142826080322, 8.89600944519043, 70.06450653076172, -211.33990478515625, -18.16025161743164, 0.926513671875, 0.100341796875, -0.333984375
434, 2655309954, -6.100958824157715, -3.6989223957061768, 9.743722915649414, 79.58611297607422, -275.7723388671875, -50.52549362182617, 0.890869140625, 0.11376953125, -0.4140625
435, 2655326621, -6.485049247741699, -2.323880672454834, 8.626956939697266, 65.38507080078125, -326.1116638183594, -75.87328338623047, 0.83447265625, 0.125, -0.5087890625
436, 2655343288, -6.273343563079834, -1.36333429813385, 6.971991539001465, 44.40786361694336, -352.151123046875, -85.50289154052734, 0.75390625, 0.135986328125, -0.59912109375
437, 2655359955, -6.570536136627197, 0.0018891002982854843, 6.310088634490967, 21.09784507751465, -360.2117004394531, -73.51203155517578, 0.66162109375, 0.14208984375, -0.67626953125
438, 2655376622, -7.789914131164551, 0.9510648250579834, 7.25832462310791, -2.9878458976745605, -355.86834716796875, -43.90199279785156, 0.566162109375, 0.13818359375, -0.73486328125
439, 2655393289, -9.597901344299316, 0.48079684376716614, 8.604774475097656, -36.99153137207031, -360.82696533203125, -16.926219940185547, 0.471923828125, 0.135009765625, -0.778564453125
440, 2655409956, -11.207967758178711, -0.9454792737960815, 9.06839656829834, -67.21784210205078, -371.7415466308594, -5.968393325805664, 0.3642578125, 0.133056640625, -0.8017578125
441, 2655426623, -10.978022575378418, -1.1652487516403198, 8.440792083740234, -88.76860046386719, -356.5517272949219, -10.571901321411133, 0.26708984375, 0.13232421875, -0.798583984375
442, 2655443290, -12.393218994140625, 0.30672359466552734, 9.879189491271973, -113.24905395507812, -319.2673034667969, -14.039013862609863, 0.193603515625, 0.132568359375, -0.78662109375
443, 2655459957, -16.716602325439453, 1.0845383405685425, 14.3799467086792, -135.91702270507812, -306.3306579589844, -3.570556640625, 0.14111328125, 0.140625, -0.78076171875
444, 2655476624, -21.08559799194336, 1.4445228576660156, 15.538926124572754, -151.8692626953125, -339.65411376953125, 0.7928757667541504, 0.0849609375, 0.15625, -0.7744140625
445, 2655493291, -21.1707820892334, 1.9848438501358032, 10.814263343811035, -154.65878295898438, -350.7043151855469, -12.799372673034668, 0.02392578125, 0.17822265625, -0.770751953125
446, 2655509958, -24.784610748291016, 1.4239472150802612, 8.029167175292969, -144.86544799804688, -327.0515441894531, -28.566162109375, -0.03173828125, 0.199951171875, -0.76708984375
447, 2655526625, -26.374666213989258, 0.6390278935432434, 2.1819708347320557, -123.06626892089844, -301.858642578125, -49.76227569580078, -0.089599609375, 0.2216796875, -0.766845703125
448, 2655543292, -23.880022048950195, 2.0380148887634277, -6.751354217529297, -96.3686752319336, -223.93592834472656, -81.45053100585938, -0.1435546875, 0.2412109375, -0.765625
449, 2655559959, -25.44899559020996, 6.906042575836182, -8.81662654876709, -75.76746368408203, -120.97793579101562, -127.07893371582031, -0.18115234375, 0.25, -0.764404296875
450, 2655576626, -26.68212890625, 11.238326072692871, -11.76198959350586, -39.61287307739258, -61.08842086791992, -123.24896240234375, -0.207763671875, 0.25732421875, -0.762939453125
451, 2655593293, -22.358211517333984, 14.070304870605469, -11.272415161132812, 12.441387176513672, 20.52814292907715, -74.25782775878906, -0.215087890625, 0.251708984375, -0.76806640625
452, 2655609960, 1.603184700012207, 9.223427772521973, 8.925507545471191, 58.01904296875, 78.37213134765625, 2.7777328491210938, -0.19775390625, 0.231689453125, -0.778564453125
453, 2655626627, 15.528268814086914, -8.206424713134766, 16.943944931030273, -71.31874084472656, 179.05953979492188, 24.67139434814453, -0.15869140625, 0.2431640625, -0.785888671875
454, 2655643294, -8.005032539367676, 2.130441427230835, 3.269132137298584, -47.49432373046875, 260.6400146484375, 49.35095977783203, -0.096435546875, 0.253662109375, -0.796875
455, 2655659961, -15.547932624816895, 3.0737316608428955, 18.860124588012695, -68.35944366455078, 245.83299255371094, 38.01064682006836, -0.0302734375, 0.27001953125, -0.798095703125
456, 2655676628, -11.768999099731445, -9.770222663879395, 11.503838539123535, -56.997379302978516, 181.98666381835938, 27.53331756591797, 0.023193359375, 0.285400390625, -0.797607421875
457, 2655693295, -7.94494104385376, -6.5553388595581055, 9.43174934387207, -29.95525360107422, 152.19422912597656, 21.575563430786133, 0.0634765625, 0.291015625, -0.794921875
458, 2655709962, -8.026683807373047, -3.637129783630371, 10.739262580871582, -2.016941785812378, 119.23223876953125, 32.01786804199219, 0.099365234375, 0.293701171875, -0.794189453125
459, 2655726629, -8.938872337341309, -5.628016471862793, 9.172830581665039, 42.83488082885742, 76.086181640625, 37.07564163208008, 0.125, 0.286376953125, -0.794677734375
460, 2655743296, -6.262972354888916, -0.06338322907686234, 11.103564262390137, 47.75613784790039, 46.34814453125, 24.301624298095703, 0.138671875, 0.27197265625, -0.793701171875
461, 2655759963, -5.126511096954346, -3.5507421493530273, 8.47863483428955, 45.892120361328125, 24.467031478881836, 19.415245056152344, 0.14794921875, 0.258056640625, -0.800048828125
462, 2655776630, -4.1032609939575195, -1.1933082342147827, 8.943349838256836, 49.96875762939453, 19.785812377929688, 23.369762420654297, 0.155517578125, 0.2490234375, -0.802734375
463, 2655793297, -4.742342472076416, -2.2542569637298584, 8.638764381408691, 49.95242691040039, 12.528727531433105, 23.05613899230957, 0.15966796875, 0.23583984375, -0.8046875
464, 2655809964, -4.617839336395264, -2.624610424041748, 8.39886474609375, 47.96247863769531, 8.90162467956543, 23.107328414916992, 0.164794921875, 0.221923828125, -0.808349609375
465, 2655826631, -5.25053071975708, -3.159696578979492, 9.104358673095703, 24.564115524291992, 8.701950073242188, 16.80280113220215, 0.16943359375, 0.212890625, -0.810302734375
466, 2655843298, -4.812204837799072, -1.701156497001648, 8.844048500061035, 8.734291076660156, 2.0054824352264404, 12.134456634521484, 0.172607421875, 0.20849609375, -0.810302734375
467, 2655859965, -5.128496170043945, -1.8552563190460205, 8.605997085571289, 12.791552543640137, -2.741163969039917, 11.114137649536133, 0.171630859375, 0.204345703125, -0.812744140625
468, 2655876632, -5.13656759262085, -1.577294111251831, 8.444506645202637, 12.069592475891113, -6.235775947570801, 9.522074699401855, 0.172119140625, 0.203369140625, -0.815673828125
469, 2655893299, -4.866536617279053, -1.648633599281311, 8.377972602844238, 8.368844985961914, -3.6511049270629883, 6.066402912139893, 0.172119140625, 0.199951171875, -0.820068359375
470, 2655909966, -4.69357967376709, -1.7715312242507935, 8.282455444335938, 8.000724792480469, -0.03009493462741375, 5.255606174468994, 0.17236328125, 0.197265625, -0.815673828125
471, 2655926633, -4.641692161560059, -2.171863317489624, 8.141319274902344, 14.701541900634766, -1.8966349363327026, 8.407740592956543, 0.17431640625, 0.1943359375, -0.815673828125
472, 2655943300, -4.857340335845947, -2.0988011360168457, 8.345904350280762, 16.323850631713867, -3.7695672512054443, 11.796156883239746, 0.1728515625, 0.190673828125, -0.814697265625
473, 2655959967, -4.711277484893799, -1.7823195457458496, 8.351214408874512, 16.14800453186035, -4.354767322540283, 12.387837409973145, 0.17236328125, 0.186279296875, -0.816162109375
474, 2655976634, -4.606897830963135, -1.744134545326233, 8.47403335571289, 13.310812950134277, -1.3947540521621704, 12.046351432800293, 0.172119140625, 0.18115234375, -0.818115234375
475, 2655993301, -4.41510534286499, -1.877490520477295, 8.4373140335083, 9.082649230957031, 3.015994071960449, 12.99185562133789, 0.175048828125, 0.1806640625, -0.819580078125
476, 2656009968, -4.343988418579102, -1.9229990243911743, 8.467329025268555, 9.052123069763184, 11.016402244567871, 15.267054557800293, 0.177490234375, 0.1748046875, -0.8212890625
477, 2656026635, -4.6341681480407715, -1.6564197540283203, 8.54235553741455, 9.674105644226074, 20.483619689941406, 18.571535110473633, 0.181640625, 0.171875, -0.82080078125
478, 2656043302, -4.398092269897461, -1.1030840873718262, 8.553665161132812, 8.009077072143555, 33.60755920410156, 19.747711181640625, 0.190673828125, 0.16845703125, -0.821533203125
479, 2656059969, -4.472980499267578, -0.9954654574394226, 8.537452697753906, -2.1194629669189453, 55.03289794921875, 18.079980850219727, 0.20361328125, 0.16552734375, -0.818359375
480, 2656076636, -4.595033645629883, -0.9986963868141174, 8.452963829040527, -7.759762763977051, 77.73139953613281, 14.868992805480957, 0.220703125, 0.16552734375, -0.81298828125
481, 2656093303, -4.64608907699585, -1.2450389862060547, 8.285124778747559, -9.717589378356934, 104.95989990234375, 14.091803550720215, 0.24560546875, 0.167236328125, -0.808349609375
482, 2656109970, -4.92978048324585, -1.2175425291061401, 8.061120986938477, -11.317283630371094, 133.3236083984375, 14.770920753479004, 0.2734375, 0.169921875, -0.79638671875
483, 2656126637, -5.166807174682617, -1.3585889339447021, 8.044936180114746, -10.309910774230957, 161.1497802734375, 13.740238189697266, 0.308837890625, 0.17333984375, -0.78369140625
484, 2656143304, -5.247878074645996, -1.19266676902771, 7.975953102111816, -7.147115707397461, 190.02664184570312, 14.453376770019531, 0.35302734375, 0.170654296875, -0.76611328125
485, 2656159971, -5.482937335968018, -1.4279221296310425, 7.872989177703857, -4.995162487030029, 220.9127655029297, 18.70726776123047, 0.402587890625, 0.171630859375, -0.740966796875
486, 2656176638, -5.856276512145996, -0.8806945085525513, 7.408516883850098, -6.168865203857422, 257.492431640625, 23.95029067993164, 0.455810546875, 0.1708984375, -0.7109375
487, 2656193305, -5.563019752502441, -1.6765475273132324, 7.267006874084473, -5.375718593597412, 318.6134033203125, 32.13113021850586, 0.51611328125, 0.1689453125, -0.67041015625
488, 2656209972, -6.379445552825928, -2.4396908283233643, 7.3420209884643555, 2.8008852005004883, 407.7322082519531, 50.55949783325195, 0.592041015625, 0.160888671875, -0.607177734375
489, 2656226639, -8.672229766845703, -3.429814338684082, 9.904833793640137, 8.893179893493652, 499.8507385253906, 78.13770294189453, 0.675537109375, 0.1494140625, -0.5185546875
490, 2656243306, -17.871631622314453, -2.0423479080200195, 12.010711669921875, 8.259248733520508, 524.0756225585938, 108.62163543701172, 0.7509765625, 0.125, -0.41259765625
491, 2656259973, -21.044696807861328, -3.1172828674316406, 11.070297241210938, 10.554226875305176, 481.6304626464844, 104.19187927246094, 0.810546875, 0.100830078125, -0.30615234375
492, 2656276640, -19.031200408935547, -6.4855194091796875, 11.675009727478027, 39.41941833496094, 438.927001953125, 116.3200454711914, 0.843994140625, 0.072509765625, -0.20556640625
493, 2656293307, -12.356588363647461, -4.889475345611572, 15.422765731811523, 48.59611511230469, 378.95916748046875, 112.23483276367188, 0.86376953125, 0.04541015625, -0.11962890625
494, 2656309974, -7.828601837158203, -2.0056865215301514, 17.797128677368164, 37.15937042236328, 217.81976318359375, 80.19775390625, 0.8701171875, 0.024658203125, -0.068603515625
495, 2656326641, -27.64503288269043, 0.5011051297187805, 27.077251434326172, -24.986177444458008, 67.18817138671875, 101.54351043701172, 0.866455078125, -0.005859375, -0.054931640625
496, 2656343308, -10.83668041229248, -5.968896865844727, 19.900320053100586, -98.6811294555664, -167.7262420654297, -6.948770046234131, 0.85205078125, -0.005615234375, -0.101318359375
497, 2656359975, -1.1140336990356445, -7.014094352722168, 8.387845993041992, -37.98868942260742, -239.70413208007812, 8.81399154663086, 0.82373046875, -0.006591796875, -0.169189453125
498, 2656376642, -0.6126999855041504, -4.573390960693359, 4.5465168952941895, 33.360050201416016, -235.71690368652344, 30.52677345275879, 0.7880859375, -0.02001953125, -0.218994140625
499, 2656393309, -1.2998478412628174, -4.351766586303711, 5.422943115234375, 73.750732421875, -238.32614135742188, 22.551284790039062, 0.75439453125, -0.038818359375, -0.26025390625
500, 2656409976, -4.13432502746582, -4.209615230560303, 7.060175895690918, 89.69110870361328, -269.62799072265625, 4.252054691314697, 0.720703125, -0.054931640625, -0.29541015625
501, 2656426643, -5.492027282714844, -3.1368813514709473, 7.489920616149902, 76.1045150756836, -311.5765380859375, -22.757328033447266, 0.690673828125, -0.06982421875, -0.3310546875
502, 2656443310, -6.043810844421387, -2.321434259414673, 6.3375325202941895, 48.39432144165039, -342.8313293457031, -46.5711784362793, 0.67138671875, -0.073974609375, -0.368896484375
503, 2656459977, -5.799111843109131, -1.8218727111816406, 5.474349021911621, 25.70755386352539, -351.16827392578125, -52.91136169433594, 0.667724609375, -0.073974609375, -0.419189453125
504, 2656476644, -6.929020404815674, -0.719807505607605, 6.350330352783203, 5.926794052124023, -343.5285339355469, -50.60974884033203, 0.6748046875, -0.065673828125, -0.495361328125
505, 2656493311, -9.439659118652344, -0.6918739080429077, 8.44400405883789, -23.53127670288086, -353.009521484375, -47.77149963378906, 0.661376953125, -0.041748046875, -0.61474609375
506, 2656509978, -10.332907676696777, -1.9447201490402222, 8.442742347717285, -36.8183708190918, -373.35174560546875, -46.259559631347656, 0.586181640625, 0.001220703125, -0.751708984375
507, 2656526645, -9.390935897827148, -0.23469069600105286, 6.521748065948486, -42.0693359375, -358.1446838378906, -45.18214797973633, 0.43798828125, 0.044677734375, -0.841796875
508, 2656543312, -11.75862979888916, 3.1842312812805176, 8.295808792114258, -84.70179748535156, -302.6771545410156, -39.094970703125, 0.290283203125, 0.082763671875, -0.844970703125
509, 2656559979, -16.636280059814453, 2.601750373840332, 13.85573673248291, -135.55821228027344, -284.179443359375, -23.747373580932617, 0.1943359375, 0.116455078125, -0.79248046875
510, 2656576646, -21.269575119018555, -0.8615559339523315, 14.183341979980469, -144.80616760253906, -321.51043701171875, -11.810958862304688, 0.150634765625, 0.1357421875, -0.7587890625
511, 2656593313, -21.212862014770508, -2.2206547260284424, 9.079270362854004, -108.57427978515625, -335.9876403808594, -22.328720092773438, 0.1201171875, 0.1494140625, -0.76416015625
512, 2656609980, -22.988468170166016, -0.7506880760192871, 6.8528900146484375, -93.89974212646484, -311.48907470703125, -50.773197174072266, 0.076171875, 0.15966796875, -0.789306640625
513, 2656626647, -24.867549896240234, 0.48739585280418396, 2.888629198074341, -100.2022705078125, -288.7868347167969, -71.28629302978516, 0.017578125, 0.17724609375, -0.81103515625
514, 2656643314, -24.071765899658203, 1.724570870399475, -2.969498634338379, -95.33174133300781, -235.6534881591797, -72.52381134033203, -0.041748046875, 0.194580078125, -0.828369140625
515, 2656659981, -24.78700065612793, 2.511545181274414, -5.9679388999938965, -84.71276092529297, -157.8490753173828, -79.7141342163086, -0.08935546875, 0.208740234375, -0.83544921875
516, 2656676648, -23.65705680847168, 4.368253231048584, -8.131043434143066, -51.46097183227539, -91.01638793945312, -108.6878433227539, -0.124267578125, 0.218994140625, -0.83642578125
517, 2656693315, -23.488000869750977, 6.954902648925781, -10.035334587097168, -19.927589416503906, -26.116130828857422, -116.46405792236328, -0.143310546875, 0.22119140625, -0.83984375
518, 2656709982, -11.587414741516113, 7.454991817474365, -12.19835376739502, 47.21829605102539, 111.48236846923828, -60.484066009521484, -0.127197265625, 0.21142578125, -0.849365234375
519, 2656726649, 5.92927360534668, 6.680246353149414, 24.665245056152344, -8.92679500579834, 159.712890625, -9.69192886352539, -0.088134765625, 0.205078125, -0.85498046875
520, 2656743316, -4.16846227645874, 4.565377712249756, 9.781576156616211, -54.47177505493164, 189.07879638671875, 44.92067337036133, -0.033447265625, 0.2197265625, -0.861083984375
521, 2656759983, -10.399136543273926, 2.4322640895843506, 11.421162605285645, -60.995845794677734, 211.31414794921875, 41.071109771728516, 0.026611328125, 0.23681640625, -0.859619140625
522, 2656776650, -10.534407615661621, -9.497254371643066, 11.342081069946289, -67.68267059326172, 176.91995239257812, 23.462953567504883, 0.07568359375, 0.25634765625, -0.855712890625
523, 2656793317, -6.854848861694336, -7.300343990325928, 7.305618762969971, -36.3463134765625, 161.81149291992188, 25.518985748291016, 0.123291015625, 0.266357421875, -0.84912109375
524, 2656809984, -11.40249252319336, -8.19517707824707, 10.982841491699219, 31.13999366760254, 124.78873443603516, 50.06421661376953, 0.164794921875, 0.263671875, -0.846435546875
525, 2656826651, -6.377971649169922, -0.314899206161499, 9.495018005371094, 93.24087524414062, 66.99546813964844, 50.47616958618164, 0.190673828125, 0.23828125, -0.84765625
526, 2656843318, -6.230101585388184, -1.0853561162948608, 10.812712669372559, 83.12904357910156, 43.18594741821289, 32.49564743041992, 0.205810546875, 0.2158203125, -0.853271484375
527, 2656859985, -6.134280681610107, -2.0757951736450195, 9.96984577178955, 67.19512939453125, 23.127464294433594, 27.120195388793945, 0.21826171875, 0.1962890625, -0.854248046875
528, 2656876652, -5.715634822845459, -2.810837984085083, 9.658111572265625, 28.183427810668945, 5.501816272735596, 19.569318771362305, 0.222412109375, 0.184326171875, -0.855224609375
529, 2656893319, -5.53837251663208, -1.6116549968719482, 9.088927268981934, 17.45656967163086, -10.941749572753906, 19.752574920654297, 0.222900390625, 0.181396484375, -0.857177734375
530, 2656909986, -5.356268882751465, -1.3564939498901367, 8.660633087158203, 17.951101303100586, -16.874052047729492, 15.150357246398926, 0.219970703125, 0.17578125, -0.86181640625
531, 2656926653, -4.819149017333984, -1.5437582731246948, 8.456321716308594, 17.461782455444336, -11.909110069274902, 10.376180648803711, 0.217041015625, 0.166748046875, -0.862060546875
532, 2656943320, -4.63470983505249, -1.592025876045227, 8.463380813598633, 11.687384605407715, -6.1248459815979, 7.108547687530518, 0.216064453125, 0.16455078125, -0.86181640625
533, 2656959987, -4.5991129875183105, -1.7638150453567505, 8.428616523742676, 10.374499320983887, -3.0575175285339355, 6.144546985626221, 0.21728515625, 0.16259765625, -0.862548828125
534, 2656976654, -4.512032508850098, -1.7851998805999756, 8.428468704223633, 9.837886810302734, -3.303783416748047, 6.932650566101074, 0.2158203125, 0.1591796875, -0.86572265625
535, 2656993321, -4.544661521911621, -1.7019954919815063, 8.439066886901855, 7.1618571281433105, -2.7668895721435547, 6.773786544799805, 0.21484375, 0.15966796875, -0.8642578125
536, 2657009988, -4.550547122955322, -1.5810699462890625, 8.350066184997559, 4.38852596282959, -1.884019374847412, 6.304073810577393, 0.216796875, 0.155517578125, -0.864013671875
537, 2657026655, -4.535003185272217, -1.7261024713516235, 8.391826629638672, 3.334665298461914, 0.3698026239871979, 6.287425994873047, 0.21728515625, 0.153564453125, -0.86669921875
538, 2657043322, -4.535749435424805, -1.6760025024414062, 8.3766450881958, 2.859537124633789, 0.6844419240951538, 6.902759075164795, 0.216796875, 0.151611328125, -0.865478515625
539, 2657059989, -4.569569110870361, -1.5988361835479736, 8.387435913085938, 2.4818644523620605, 1.8059197664260864, 7.269096374511719, 0.21923828125, 0.151611328125, -0.864990234375
540, 2657076656, -4.45161771774292, -1.5713180303573608, 8.38885498046875, 1.9524118900299072, 5.309917449951172, 7.718433856964111, 0.219970703125, 0.149169921875, -0.866455078125
541, 2657093323, -4.407811641693115, -1.7179603576660156, 8.488447189331055, 4.739486217498779, 11.383925437927246, 8.448643684387207, 0.221435546875, 0.148193359375, -0.865478515625
542, 2657109990, -4.549502372741699, -1.7074581384658813, 8.475147247314453, 7.015823841094971, 17.690052032470703, 11.197245597839355, 0.2275390625, 0.1455078125, -0.86328125
543, 2657126657, -4.6403889656066895, -1.4454526901245117, 8.45760726928711, 9.774519920349121, 24.499469757080078, 12.050407409667969, 0.23388671875, 0.1435546875, -0.86328125
544, 2657143324, -4.117486000061035, -1.0195475816726685, 8.541627883911133, 2.7988619804382324, 36.81352996826172, 12.46049690246582, 0.244873046875, 0.1396484375, -0.86083984375
545, 2657159991, -4.472981929779053, -1.0306801795959473, 8.470711708068848, -4.863234519958496, 58.42168045043945, 13.66632080078125, 0.257568359375, 0.138916015625, -0.859130859375
546, 2657176658, -4.631496906280518, -1.1158506870269775, 8.366877555847168, -7.846591472625732, 79.36071014404297, 12.375960350036621, 0.27734375, 0.14111328125, -0.852294921875
547, 2657193325, -4.855160713195801, -1.3013026714324951, 8.253792762756348, -8.706872940063477, 99.99336242675781, 12.024914741516113, 0.30078125, 0.1416015625, -0.84423828125
548, 2657209992, -5.002718925476074, -1.4838663339614868, 8.091902732849121, -7.7638630867004395, 121.3161849975586, 14.39900016784668, 0.32958984375, 0.142822265625, -0.835205078125
549, 2657226659, -5.100629806518555, -1.3924100399017334, 7.96645450592041, -4.235697269439697, 144.77197265625, 17.39229393005371, 0.361083984375, 0.14111328125, -0.820556640625
550, 2657243326, -5.425382614135742, -1.2911008596420288, 7.823588848114014, 0.11320063471794128, 170.3858184814453, 18.175378799438477, 0.404052734375, 0.137939453125, -0.803955078125
551, 2657259993, -5.616390228271484, -1.2569972276687622, 7.5328049659729, 5.926260948181152, 195.44821166992188, 21.877233505249023, 0.448974609375, 0.13427734375, -0.781005859375
552, 2657276660, -6.114908218383789, -1.067508339881897, 7.1401214599609375, 5.796947479248047, 222.64979553222656, 28.8841495513916, 0.500244140625, 0.129638671875, -0.748779296875
553, 2657293327, -6.151477336883545, -1.2289271354675293, 7.263838291168213, 5.802053451538086, 257.3800354003906, 38.666412353515625, 0.5537109375, 0.123046875, -0.713134765625
554, 2657309994, -6.027658462524414, -1.9505242109298706, 7.098506927490234, 11.785981178283691, 322.0927429199219, 52.0818977355957, 0.6171875, 0.11279296875, -0.66162109375
555, 2657326661, -6.961811065673828, -2.918473958969116, 7.802027225494385, 19.963672637939453, 411.599365234375, 74.08319091796875, 0.691162109375, 0.095703125, -0.589111328125
556, 2657343328, -11.033514976501465, -2.9902546405792236, 10.260891914367676, 22.278255462646484, 483.820068359375, 103.67842102050781, 0.7724609375, 0.072509765625, -0.488525390625
557, 2657359995, -20.507944107055664, -1.7758097648620605, 11.810351371765137, 13.257177352905273, 477.1268615722656, 117.58546447753906, 0.8349609375, 0.040771484375, -0.37744140625
558, 2657376662, -18.86241912841797, -2.4859066009521484, 10.50383186340332, 16.983875274658203, 442.6980285644531, 108.88359069824219, 0.88232421875, 0.0087890625, -0.276611328125
559, 2657393329, -16.639163970947266, -4.687697887420654, 12.6690673828125, 28.349563598632812, 416.2615051269531, 108.99298095703125, 0.913330078125, -0.0234375, -0.177734375
560, 2657409996, -11.14342975616455, -4.196479320526123, 15.549169540405273, 13.581254959106445, 351.7765808105469, 96.23201751708984, 0.9306640625, -0.0546875, -0.093994140625
561, 2657426663, -11.395075798034668, -1.2298599481582642, 17.79603385925293, -5.40873908996582, 182.8660430908203, 91.33521270751953, 0.9375, -0.078857421875, -0.051513671875
562, 2657443330, -24.518508911132812, 1.706262469291687, 27.87514877319336, -97.19246673583984, 12.709086418151855, 86.15203857421875, 0.939208984375, -0.10498046875, -0.064208984375
563, 2657459997, -7.911390781402588, -7.4195733070373535, 16.328853607177734, -142.40496826171875, -196.5312957763672, -12.14183235168457, 0.93017578125, -0.09521484375, -0.140380859375
564, 2657476664, 0.035634979605674744, -7.665796756744385, 5.724827289581299, -57.87229537963867, -234.7243194580078, 7.223341941833496, 0.9052734375, -0.084228515625, -0.231201171875
565, 2657493331, -0.5493817925453186, -4.9904375076293945, 3.9866254329681396, 36.55229568481445, -207.62982177734375, 12.126823425292969, 0.871337890625, -0.081787109375, -0.30322265625
566, 2657509998, -2.4823360443115234, -4.394300937652588, 6.625593662261963, 72.4642333984375, -214.64456176757812, -27.706554412841797, 0.830810546875, -0.074951171875, -0.36083984375
567, 2657526665, -4.162240982055664, -2.9173669815063477, 7.432004928588867, 88.01293182373047, -251.0327911376953, -59.17082595825195, 0.784423828125, -0.066162109375, -0.4208984375
568, 2657543332, -5.069605350494385, -0.46331825852394104, 6.990854263305664, 64.1173095703125, -287.0625, -88.24689483642578, 0.73046875, -0.052978515625, -0.478759765625
569, 2657559999, -6.003660678863525, -0.13209421932697296, 5.9416680335998535, 32.70212936401367, -305.8574523925781, -97.1008529663086, 0.67138671875, -0.034912109375, -0.533935546875
570, 2657576666, -7.363973140716553, -0.7952799797058105, 6.470534324645996, 30.930376052856445, -317.11273193359375, -88.33773040771484, 0.599365234375, -0.022705078125, -0.57763671875
571, 2657593333, -8.925361633300781, -0.6992745399475098, 7.5332417488098145, 35.3787956237793, -330.56671142578125, -75.24019622802734, 0.52587890625, -0.017822265625, -0.6005859375
572, 2657610000, -10.25106143951416, -0.8016985058784485, 8.498370170593262, 26.93361473083496, -348.1163330078125, -62.56770324707031, 0.46630859375, -0.02392578125, -0.60693359375
573, 2657626667, -11.864108085632324, -1.2405710220336914, 9.38416862487793, -7.776292324066162, -370.7607421875, -65.71075439453125, 0.448974609375, -0.037109375, -0.626708984375
574, 2657643334, -10.455718994140625, -1.0526463985443115, 6.36967658996582, -32.99567794799805, -364.2363586425781, -71.37213134765625, 0.43408203125, -0.03466796875, -0.686279296875
575, 2657660001, -11.154833793640137, -0.18962864577770233, 6.731179714202881, -53.77326202392578, -317.06195068359375, -55.24748229980469, 0.403076171875, -0.025146484375, -0.763671875
576, 2657676668, -14.37161922454834, -0.4257926344871521, 11.022172927856445, -77.38593292236328, -283.3186950683594, -31.090673446655273, 0.343994140625, -0.00390625, -0.834228515625
577, 2657693335, -19.161766052246094, -1.6359323263168335, 14.07247543334961, -103.25341033935547, -302.8976135253906, -23.233179092407227, 0.263916015625, 0.018310546875, -0.8857421875
578, 2657710002, -19.90230369567871, -1.9155935049057007, 11.049234390258789, -109.42222595214844, -328.99456787109375, -28.21946907043457, 0.176025390625, 0.05029296875, -0.92431640625
579, 2657726669, -19.968294143676758, 0.3883264660835266, 8.219566345214844, -113.06153106689453, -313.1622619628906, -38.21700668334961, 0.07275390625, 0.086669921875, -0.9443359375
580, 2657743336, -22.10416603088379, 1.5694454908370972, 5.823131561279297, -120.7946548461914, -289.918212890625, -43.095638275146484, -0.031005859375, 0.12890625, -0.944091796875
581, 2657760003, -21.959814071655273, 1.2481746673583984, 1.8553192615509033, -103.42345428466797, -255.15765380859375, -46.73591995239258, -0.124267578125, 0.163330078125, -0.92724609375
582, 2657776670, -22.422761917114258, 1.5504298210144043, -2.1256465911865234, -69.00102233886719, -205.94961547851562, -62.08544921875, -0.195068359375, 0.187255859375, -0.90185546875
583, 2657793337, -22.148841857910156, 5.068195343017578, -6.9052653312683105, -36.00871276855469, -141.78855895996094, -77.16242218017578, -0.248046875, 0.19970703125, -0.880859375
584, 2657810004, -22.67518424987793, 7.8598856925964355, -10.18438720703125, -21.761770248413086, -68.47662353515625, -72.45585632324219, -0.276123046875, 0.20458984375, -0.8642578125
585, 2657826671, -22.281232833862305, 7.257660865783691, -11.214641571044922, 6.472354412078857, 21.82284927368164, -61.021034240722656, -0.28466796875, 0.201416015625, -0.861083984375
586, 2657843338, -5.212765216827393, 9.61447525024414, 2.0739152431488037, 34.771728515625, 116.99727630615234, 7.870127201080322, -0.26416015625, 0.195556640625, -0.8671875
587, 2657860005, 9.209506034851074, -5.345168113708496, 20.76628875732422, -65.54740905761719, 169.2914581298828, 15.537988662719727, -0.2314453125, 0.21142578125, -0.87451171875
588, 2657876672, -7.063567161560059, -5.0765485763549805, 5.814956188201904, -69.92920684814453, 224.65261840820312, 34.109779357910156, -0.177001953125, 0.235595703125, -0.878173828125
589, 2657893339, -10.794776916503906, 3.791393280029297, 13.238059043884277, -85.54866790771484, 219.75633239746094, 19.565208435058594, -0.120849609375, 0.2626953125, -0.880615234375
590, 2657910006, -10.544853210449219, -4.284936428070068, 12.933509826660156, -72.69088745117188, 164.99533081054688, 23.40080451965332, -0.075439453125, 0.286865234375, -0.87890625
591, 2657926673, -6.440664768218994, -9.037176132202148, 6.897852420806885, -55.54191207885742, 150.24769592285156, 18.65723991394043, -0.038818359375, 0.30615234375, -0.872314453125
592, 2657943340, -11.162713050842285, -9.705162048339844, 10.226641654968262, 18.721872329711914, 116.27957153320312, 44.906742095947266, -0.0078125, 0.3076171875, -0.873779296875
593, 2657960007, -6.80215311050415, -0.5323396921157837, 10.112653732299805, 53.7866096496582, 68.18531036376953, 38.13511276245117, 0.01806640625, 0.296630859375, -0.876220703125
594, 2657976674, -6.585214138031006, -1.8766906261444092, 9.87442684173584, 39.757904052734375, 40.58517837524414, 17.60451316833496, 0.0283203125, 0.286865234375, -0.87890625
595, 2657993341, -6.403826713562012, -1.9699065685272217, 10.170731544494629, 30.81116485595703, 25.590320587158203, 10.085618019104004, 0.034912109375, 0.27978515625, -0.88134765625
596, 2658010008, -4.64236307144165, -2.6028904914855957, 8.534533500671387, 22.592391967773438, 10.648804664611816, 6.3087615966796875, 0.041015625, 0.2744140625, -0.885009765625
597, 2658026675, -4.597142219543457, -2.290135383605957, 8.669473648071289, 18.472429275512695, 10.532005310058594, 7.128993988037109, 0.046142578125, 0.268310546875, -0.884521484375
598, 2658043342, -4.83225154876709, -2.669970989227295, 8.31429386138916, 15.388338088989258, 7.690291881561279, 5.929391384124756, 0.045654296875, 0.26318359375, -0.885498046875
599, 2658060009, -4.993699550628662, -2.5904624462127686, 8.512919425964355, 12.710420608520508, 4.461063385009766, 5.02428674697876, 0.046630859375, 0.2607421875, -0.88525390625
600, 2658076676, -4.696345806121826, -2.6160478591918945, 8.355018615722656, 10.978485107421875, 4.317899703979492, 4.210044860839844, 0.0498046875, 0.25830078125, -0.8876953125
601, 2658093343, -4.604427814483643, -2.633356809616089, 8.037667274475098, 10.705915451049805, 2.8382534980773926, 4.397581100463867, 0.048095703125, 0.25732421875, -0.88671875
602, 2658110010, -4.4351019859313965, -2.6770966053009033, 7.810417652130127, 16.314905166625977, 1.7065056562423706, 7.235154628753662, 0.04931640625, 0.253662109375, -0.890869140625
603, 2658126677, -4.393758773803711, -2.4901623725891113, 7.993370532989502, 23.420032501220703, 1.107566237449646, 10.430188179016113, 0.05029296875, 0.247802734375, -0.89111328125
604, 2658143344, -4.653663158416748, -2.358238697052002, 8.17646312713623, 23.803020477294922, 0.8120589852333069, 10.002326965332031, 0.051513671875, 0.2421875, -0.8916015625
605, 2658160011, -4.777544975280762, -2.301931858062744, 8.430675506591797, 15.582762718200684, 1.98549222946167, 8.173821449279785, 0.055419921875, 0.235595703125, -0.89404296875
606, 2658176678, -4.631272792816162, -2.341914176940918, 8.031869888305664, 14.602127075195312, -0.7777943015098572, 7.860717296600342, 0.053955078125, 0.233154296875, -0.89404296875
607, 2658193345, -4.4952263832092285, -2.4073033332824707, 8.186056137084961, 19.02198028564453, -6.843163013458252, 11.197516441345215, 0.052734375, 0.22802734375, -0.89501953125
608, 2658210012, -4.422489166259766, -2.475087881088257, 8.21696949005127, 24.15655517578125, -12.979986190795898, 15.374506950378418, 0.05078125, 0.2216796875, -0.89599609375
609, 2658226679, -4.812280654907227, -2.3061001300811768, 8.332879066467285, 25.715381622314453, -14.774670600891113, 17.83112907409668, 0.05029296875, 0.217041015625, -0.89697265625
610, 2658243346, -4.933699607849121, -1.671438217163086, 8.483518600463867, 17.369489669799805, -9.838857650756836, 15.247611999511719, 0.046875, 0.21142578125, -0.8984375
611, 2658260013, -4.827262878417969, -1.5621061325073242, 8.342846870422363, 12.273354530334473, -1.2602869272232056, 11.750726699829102, 0.0458984375, 0.2060546875, -0.900634765625
612, 2658276680, -4.6879472732543945, -1.9794626235961914, 8.347782135009766, 11.628657341003418, 5.118492126464844, 11.093620300292969, 0.045654296875, 0.202392578125, -0.900634765625
613, 2658293347, -4.713052749633789, -2.040536642074585, 8.319109916687012, 8.321106910705566, 9.954853057861328, 11.364347457885742, 0.050048828125, 0.201416015625, -0.900390625
614, 2658310014, -4.57893705368042, -1.9852522611618042, 8.38873291015625, 6.433862686157227, 15.883594512939453, 11.781137466430664, 0.053466796875, 0.199951171875, -0.90185546875
615, 2658326681, -4.281647682189941, -1.8194111585617065, 8.457586288452148, 9.117391586303711, 27.423694610595703, 12.663840293884277, 0.05859375, 0.197021484375, -0.899658203125
616, 2658343348, -4.128108024597168, -1.555894136428833, 8.591218948364258, -3.594520330429077, 49.474464416503906, 15.576530456542969, 0.073486328125, 0.19775390625, -0.8984375
617, 2658360015, -4.462734699249268, -1.3535667657852173, 8.47367000579834, -6.965097904205322, 75.47320556640625, 16.09654426574707, 0.091064453125, 0.1982421875, -0.896484375
618, 2658376682, -4.6409592628479, -1.2465276718139648, 8.302040100097656, -12.639351844787598, 105.21578979492188, 13.47097110748291, 0.117431640625, 0.200927734375, -0.892578125
619, 2658393349, -5.082479476928711, -1.2906973361968994, 8.176706314086914, -13.323568344116211, 134.61148071289062, 11.358734130859375, 0.151123046875, 0.205810546875, -0.884765625
620, 2658410016, -5.489722728729248, -1.4299497604370117, 8.07087230682373, -11.969015121459961, 160.6134490966797, 8.289496421813965, 0.189453125, 0.208740234375, -0.876708984375
621, 2658426683, -5.432590961456299, -1.6908824443817139, 7.9748735427856445, -9.16773796081543, 183.69305419921875, 7.458277225494385, 0.2353515625, 0.2080078125, -0.862548828125
622, 2658443350, -5.754650115966797, -1.6682158708572388, 7.668639183044434, -3.2405872344970703, 207.0423126220703, 11.4143705368042, 0.283203125, 0.21142578125, -0.8447265625
623, 2658460017, -5.948194980621338, -1.6238300800323486, 7.534688949584961, 0.5152556300163269, 235.28228759765625, 15.163633346557617, 0.339599609375, 0.207763671875, -0.823486328125
624, 2658476684, -6.200160980224609, -1.8351398706436157, 6.787471294403076, 2.3628389835357666, 278.4063720703125, 23.27855682373047, 0.404541015625, 0.205322265625, -0.791015625
625, 2658493351, -6.413741111755371, -2.6733205318450928, 6.9837541580200195, 3.7153851985931396, 341.9869079589844, 37.7169189453125, 0.474365234375, 0.201904296875, -0.747802734375
626, 2658510018, -7.396788120269775, -3.711859941482544, 8.698010444641113, 7.092930793762207, 416.47698974609375, 64.91114807128906, 0.562255859375, 0.19140625, -0.684814453125
627, 2658526685, -12.787437438964844, -3.276099443435669, 9.806415557861328, 9.166582107543945, 457.90240478515625, 104.25286865234375, 0.649169921875, 0.1728515625, -0.6015625
628, 2658543352, -19.426870346069336, -2.1692378520965576, 10.466670036315918, -9.05207347869873, 439.8687438964844, 108.63164520263672, 0.721923828125, 0.148681640625, -0.502685546875
629, 2658560019, -17.548397064208984, -4.696421146392822, 10.219141006469727, -0.3760567307472229, 411.9403076171875, 112.09457397460938, 0.781982421875, 0.118896484375, -0.40234375
630, 2658576686, -14.814712524414062, -5.214781284332275, 11.428391456604004, 32.10686492919922, 379.47906494140625, 127.61883544921875, 0.823974609375, 0.083251953125, -0.306396484375
631, 2658593353, -8.23795223236084, -4.679080009460449, 14.155593872070312, 36.24238586425781, 324.8140563964844, 115.48345947265625, 0.848876953125, 0.045654296875, -0.214111328125
632, 2658610020, -15.496342658996582, -3.936493158340454, 16.6881160736084, 16.092113494873047, 194.002197265625, 100.4107666015625, 0.855224609375, 0.013671875, -0.150634765625
633, 2658626687, -23.200462341308594, -2.645076274871826, 27.726844787597656, -46.536434173583984, 35.27797317504883, 58.774932861328125, 0.85107421875, -0.011474609375, -0.114501953125
634, 2658643354, -7.603301525115967, -7.757116317749023, 16.67976951599121, -67.00825500488281, -164.82803344726562, -31.644550323486328, 0.8466796875, -0.011962890625, -0.131103515625
635, 2658660021, -0.8742274641990662, -5.998314380645752, 7.413089752197266, -1.9474481344223022, -205.77110290527344, -22.525428771972656, 0.841552734375, -0.007080078125, -0.167236328125
636, 2658676688, -0.6442681550979614, -3.729673147201538, 5.248363971710205, 59.15043640136719, -192.8008270263672, -5.58799409866333, 0.841796875, -0.013916015625, -0.201904296875
637, 2658693355, -2.995008945465088, -2.797419786453247, 7.794586181640625, 83.31575012207031, -208.02101135253906, -10.743577003479004, 0.845458984375, -0.020263671875, -0.243408203125
638, 2658710022, -5.334962844848633, -2.3088138103485107, 9.046175003051758, 85.64141845703125, -262.5798034667969, -27.423921585083008, 0.847412109375, -0.021728515625, -0.30517578125
639, 2658726689, -5.700580596923828, -1.1910308599472046, 8.029163360595703, 71.35590362548828, -311.5797119140625, -44.425689697265625, 0.839599609375, -0.017578125, -0.399658203125
640, 2658743356, -5.391827583312988, -0.5853111147880554, 5.8999342918396, 52.08499526977539, -336.25396728515625, -46.25853729248047, 0.803466796875, -0.010986328125, -0.51025390625
641, 2658760023, -5.852306365966797, -0.6911467909812927, 5.744187355041504, 33.969566345214844, -334.53045654296875, -36.91562271118164, 0.736328125, -0.009521484375, -0.613037109375
642, 2658776690, -7.591456890106201, -0.649288535118103, 7.53872013092041, 4.36750602722168, -334.7876281738281, -40.389137268066406, 0.6484375, -0.005126953125, -0.68603515625
643, 2658793357, -9.516895294189453, -1.8247910737991333, 8.963349342346191, -22.144420623779297, -356.7839660644531, -50.23760223388672, 0.55419921875, -0.002197265625, -0.73779296875
644, 2658810024, -10.246976852416992, -1.8778129816055298, 7.897679328918457, -35.089420318603516, -372.8255920410156, -58.78068542480469, 0.46484375, 0.008056640625, -0.772705078125
645, 2658826691, -9.49551010131836, 0.4683089256286621, 5.626496315002441, -60.85704040527344, -341.6553955078125, -60.08845901489258, 0.389404296875, 0.01318359375, -0.792236328125
646, 2658843358, -11.526926040649414, 0.6934540271759033, 6.168649673461914, -96.80658721923828, -283.23992919921875, -55.33934020996094, 0.3408203125, 0.033203125, -0.805908203125
647, 2658860025, -17.13462257385254, -2.7576229572296143, 11.724443435668945, -105.03936004638672, -267.4807434082031, -46.842491149902344, 0.314453125, 0.0537109375, -0.82568359375
648, 2658876692, -19.59209442138672, -4.506833553314209, 11.463921546936035, -86.96595764160156, -298.26361083984375, -56.39992904663086, 0.28173828125, 0.07763671875, -0.872802734375
649, 2658893359, -19.465604782104492, -3.300382614135742, 9.587137222290039, -68.14134979248047, -306.1500244140625, -79.23514556884766, 0.22509765625, 0.110107421875, -0.943359375
650, 2658910026, -20.149648666381836, -0.2697739005088806, 9.148259162902832, -72.0761489868164, -301.39788818359375, -89.857177734375, 0.126220703125, 0.1435546875, -1.00537109375
651, 2658926693, -21.02921485900879, 1.7950053215026855, 6.892524242401123, -84.0628433227539, -292.21917724609375, -73.12869262695312, -0.002685546875, 0.173095703125, -1.03466796875
652, 2658943360, -21.96327781677246, 1.6346495151519775, 3.5880165100097656, -84.55467987060547, -270.2142333984375, -49.17156219482422, -0.12939453125, 0.196533203125, -1.02392578125
653, 2658960027, -21.73554039001465, 0.790063202381134, -1.215162754058838, -62.67245101928711, -231.26296997070312, -39.263633728027344, -0.232666015625, 0.207763671875, -0.99560546875
