sep=,
DeviceTag:,B,,,,,,,,,,,,,,,,,
FirmwareVersion:,2.2.1,,,,,,,,,,,,,,,,,
AppVersion:,2022.0.1,,,,,,,,,,,,,,,,,
SyncStatus:,Synced,,,,,,,,,,,,,,,,,
OutputRate:,60Hz,,,,,,,,,,,,,,,,,
FilterProfile:,General,,,,,,,,,,,,,,,,,
Measurement Mode:,Inertial Mode - Rate quantities (with mag),,,,,,,,,,,,,,,,,
StartTime:,2022-08-05 15:03:00.473 +0300,,,,,,,,,,,,,,,,,
© Xsens Technologies B. V. 2005-2022,,,,,,,,,,,,,,,,,,,

PacketCounter,SampleTimeFine,Acc_X,Acc_Y,Acc_Z,Gyr_X,Gyr_Y,Gyr_Z,Mag_X,Mag_Y,Mag_Z
1, 1522520632, -4.524523735046387, -1.6732916831970215, 8.363232612609863, 0.6556786894798279, -0.6853830218315125, -0.6331074833869934, -0.017333984375, 0.1376953125, -0.807861328125
2, 1522537299, -4.527164459228516, -1.6975919008255005, 8.366290092468262, 1.226137638092041, -0.5815363526344299, -0.45435646176338196, -0.016845703125, 0.138916015625, -0.806884765625
3, 1522553966, -4.547164440155029, -1.6823700666427612, 8.373900413513184, 1.3883683681488037, -0.8340263962745667, -0.33583375811576843, -0.016357421875, 0.1376953125, -0.808349609375
4, 1522570633, -4.535866737365723, -1.672407865524292, 8.397903442382812, 1.412662148475647, -0.8832283616065979, -0.3458738923072815, -0.017333984375, 0.1376953125, -0.803955078125
5, 1522587300, -4.528521537780762, -1.6743409633636475, 8.412755012512207, 1.2421966791152954, -0.9274486899375916, -0.31540757417678833, -0.014404296875, 0.13525390625, -0.806884765625
6, 1522603967, -4.530499458312988, -1.6764763593673706, 8.41944408416748, 1.0459907054901123, -0.9035264849662781, -0.480276495218277, -0.015380859375, 0.139404296875, -0.807373046875
7, 1522620634, -4.5269269943237305, -1.6718016862869263, 8.403656959533691, 0.9820356369018555, -0.9740637540817261, -0.46447351574897766, -0.016357421875, 0.1357421875, -0.804931640625
8, 1522637301, -4.531832695007324, -1.6662288904190063, 8.422954559326172, 1.075586199760437, -0.9733722805976868, -0.40121015906333923, -0.019287109375, 0.1376953125, -0.806640625
9, 1522653968, -4.524683952331543, -1.6678340435028076, 8.410133361816406, 1.097497820854187, -1.0141732692718506, -0.4141957759857178, -0.015380859375, 0.13671875, -0.802978515625
10, 1522670635, -4.522373676300049, -1.65179443359375, 8.407334327697754, 0.9373032450675964, -0.9751266837120056, -0.5162880420684814, -0.016357421875, 0.13525390625, -0.804931640625
11, 1522687302, -4.511861324310303, -1.6487575769424438, 8.402929306030273, 0.9577036499977112, -1.0048246383666992, -0.4186011552810669, -0.017333984375, 0.1357421875, -0.805908203125
12, 1522703969, -4.510401725769043, -1.6432116031646729, 8.418025970458984, 0.6904864311218262, -0.756829559803009, -0.5232802033424377, -0.016845703125, 0.13525390625, -0.804931640625
13, 1522720636, -4.537990570068359, -1.6392091512680054, 8.410221099853516, 0.29264429211616516, -0.7040802836418152, -0.7212536334991455, -0.014892578125, 0.1357421875, -0.807861328125
14, 1522737303, -4.521633625030518, -1.6623891592025757, 8.417268753051758, 0.04090987890958786, -0.6684658527374268, -0.8192605376243591, -0.017822265625, 0.13525390625, -0.807373046875
15, 1522753970, -4.532208442687988, -1.6312178373336792, 8.425884246826172, -0.1869470775127411, -0.6242966651916504, -0.9692613482475281, -0.016357421875, 0.1328125, -0.803466796875
16, 1522770637, -4.516500473022461, -1.656890869140625, 8.409778594970703, -0.39028629660606384, -0.6449790596961975, -0.9671996235847473, -0.016357421875, 0.13427734375, -0.805908203125
17, 1522787304, -4.510190963745117, -1.6592804193496704, 8.412922859191895, -0.30717310309410095, -0.6254109740257263, -0.9792376160621643, -0.017822265625, 0.13330078125, -0.804443359375
18, 1522803971, -4.513514995574951, -1.6507847309112549, 8.410059928894043, -0.34989506006240845, -0.4820438027381897, -0.9549053907394409, -0.015869140625, 0.13671875, -0.805419921875
19, 1522820638, -4.532933712005615, -1.6522489786148071, 8.423510551452637, -0.4340968132019043, -0.5121899247169495, -0.9172803163528442, -0.015869140625, 0.13818359375, -0.808349609375
20, 1522837305, -4.520026683807373, -1.632413625717163, 8.429905891418457, -0.4599272310733795, -0.39722734689712524, -0.9305093288421631, -0.017333984375, 0.134765625, -0.807861328125
21, 1522853972, -4.527396202087402, -1.6431000232696533, 8.41486644744873, -0.4511421024799347, -0.5187852382659912, -0.972373366355896, -0.017333984375, 0.13427734375, -0.804443359375
22, 1522870639, -4.526413917541504, -1.6487834453582764, 8.389690399169922, -0.3208887577056885, -0.6826040744781494, -0.9545980095863342, -0.016357421875, 0.13525390625, -0.805419921875
23, 1522887306, -4.528318881988525, -1.6573516130447388, 8.398224830627441, -0.3907345235347748, -0.6279850006103516, -0.9519855976104736, -0.015380859375, 0.134765625, -0.805419921875
24, 1522903973, -4.507691383361816, -1.6575020551681519, 8.4113187789917, -0.35828322172164917, -0.42125204205513, -0.9075219035148621, -0.018310546875, 0.1376953125, -0.80859375
25, 1522920640, -4.529950141906738, -1.6425706148147583, 8.406427383422852, -0.4461347758769989, -0.24808458983898163, -0.8907456398010254, -0.015869140625, 0.13671875, -0.80908203125
26, 1522937307, -4.528600215911865, -1.6465874910354614, 8.430326461791992, -0.399839848279953, -0.27974191308021545, -0.9171778559684753, -0.014892578125, 0.13671875, -0.807373046875
27, 1522953974, -4.520256042480469, -1.6545170545578003, 8.411775588989258, -0.40327197313308716, -0.40264448523521423, -0.905409038066864, -0.018310546875, 0.1376953125, -0.806884765625
28, 1522970641, -4.5366973876953125, -1.6584713459014893, 8.418867111206055, -0.20620781183242798, -0.47812503576278687, -0.918279230594635, -0.015869140625, 0.134765625, -0.803466796875
29, 1522987308, -4.5431318283081055, -1.6485592126846313, 8.393484115600586, -0.23584173619747162, -0.5713425278663635, -0.9132080674171448, -0.016845703125, 0.1357421875, -0.802978515625
30, 1523003975, -4.53237771987915, -1.6472854614257812, 8.405324935913086, -0.27577194571495056, -0.6527268290519714, -0.9149112105369568, -0.016845703125, 0.13671875, -0.806884765625
31, 1523020642, -4.530296802520752, -1.64600670337677, 8.4103364944458, -0.25211861729621887, -0.6250523328781128, -0.8738797307014465, -0.015380859375, 0.1357421875, -0.805419921875
32, 1523037309, -4.5229082107543945, -1.6509579420089722, 8.400457382202148, -0.3163296580314636, -0.6224399209022522, -0.9858457446098328, -0.018798828125, 0.13525390625, -0.806396484375
33, 1523053976, -4.51925802230835, -1.660989761352539, 8.416996002197266, -0.3010697364807129, -0.46386098861694336, -0.9956125617027283, -0.016357421875, 0.1357421875, -0.802490234375
34, 1523070643, -4.539501667022705, -1.6702523231506348, 8.411821365356445, -0.30032166838645935, -0.2741583287715912, -0.9503719806671143, -0.015869140625, 0.13623046875, -0.804931640625
35, 1523087310, -4.542860507965088, -1.6531131267547607, 8.399298667907715, -0.2904095947742462, -0.3940129578113556, -0.8654658794403076, -0.014892578125, 0.13525390625, -0.805419921875
36, 1523103977, -4.539942264556885, -1.6650900840759277, 8.420249938964844, -0.10845696926116943, -0.4207397997379303, -0.8494963645935059, -0.015380859375, 0.13720703125, -0.807861328125
37, 1523120644, -4.531486988067627, -1.6366605758666992, 8.398399353027344, -0.12889590859413147, -0.5039938688278198, -0.9183304905891418, -0.018798828125, 0.1376953125, -0.8076171875
38, 1523137311, -4.519445896148682, -1.6391886472702026, 8.39063835144043, -0.08804365247488022, -0.6187388300895691, -0.8904383778572083, -0.016357421875, 0.13623046875, -0.805908203125
39, 1523153978, -4.53022575378418, -1.6617707014083862, 8.415262222290039, 0.03790038824081421, -0.64654141664505, -0.8990441560745239, -0.013427734375, 0.13525390625, -0.805419921875
40, 1523170645, -4.523675918579102, -1.649717092514038, 8.407772064208984, 0.11359871923923492, -0.6076741218566895, -0.8127805590629578, -0.016357421875, 0.1357421875, -0.802978515625
41, 1523187312, -4.528616428375244, -1.6564747095108032, 8.390816688537598, 0.12981155514717102, -0.5917173624038696, -0.7477754950523376, -0.014404296875, 0.13525390625, -0.805908203125
42, 1523203979, -4.534529685974121, -1.6507229804992676, 8.396522521972656, 0.1830219328403473, -0.6049463152885437, -0.7813281416893005, -0.015380859375, 0.13671875, -0.807861328125
43, 1523220646, -4.531635761260986, -1.657700538635254, 8.410993576049805, 0.17724627256393433, -0.6195967793464661, -0.7742718458175659, -0.017333984375, 0.13525390625, -0.806884765625
44, 1523237313, -4.534929275512695, -1.6412124633789062, 8.413488388061523, 0.08433621376752853, -0.6501399278640747, -0.8148167133331299, -0.016357421875, 0.1376953125, -0.807861328125
45, 1523253980, -4.544119834899902, -1.6389764547348022, 8.394110679626465, 0.11722292006015778, -0.5564870834350586, -0.8928202390670776, -0.015380859375, 0.13623046875, -0.806396484375
46, 1523270647, -4.518692970275879, -1.6537233591079712, 8.413278579711914, 0.06676590442657471, -0.690800130367279, -0.7882052063941956, -0.017333984375, 0.1357421875, -0.804931640625
47, 1523287314, -4.529370307922363, -1.641205072402954, 8.399979591369629, 0.023864634335041046, -0.6486929059028625, -0.8587939143180847, -0.016845703125, 0.13525390625, -0.808837890625
48, 1523303981, -4.522098064422607, -1.641194462776184, 8.395927429199219, 0.04699289798736572, -0.5951110124588013, -0.8235123157501221, -0.016845703125, 0.13720703125, -0.807373046875
49, 1523320648, -4.526669025421143, -1.6556177139282227, 8.397363662719727, 0.043407123535871506, -0.5900397896766663, -0.9120554327964783, -0.015380859375, 0.134765625, -0.81005859375
50, 1523337315, -4.538489818572998, -1.6421717405319214, 8.399022102355957, -0.00697946036234498, -0.5291839838027954, -0.8090282678604126, -0.017822265625, 0.1357421875, -0.810546875
51, 1523353982, -4.543923377990723, -1.6394107341766357, 8.417276382446289, -0.06450558453798294, -0.5675134062767029, -0.9572233557701111, -0.014892578125, 0.134765625, -0.807861328125
52, 1523370649, -4.549029350280762, -1.6443235874176025, 8.420180320739746, -0.18110741674900055, -0.6144742965698242, -0.9255533814430237, -0.015869140625, 0.1328125, -0.804931640625
53, 1523387316, -4.544062614440918, -1.6453078985214233, 8.407294273376465, -0.13807804882526398, -0.5802044868469238, -0.9491041302680969, -0.013671875, 0.1337890625, -0.805908203125
54, 1523403983, -4.537947654724121, -1.6347852945327759, 8.413190841674805, -0.11825382709503174, -0.6784548163414001, -0.972296416759491, -0.018310546875, 0.138671875, -0.805908203125
55, 1523420650, -4.525967121124268, -1.6456828117370605, 8.409284591674805, -0.0943571925163269, -0.6859593391418457, -0.9679808020591736, -0.014892578125, 0.13525390625, -0.809326171875
56, 1523437317, -4.534809589385986, -1.6430363655090332, 8.392973899841309, -0.12027724832296371, -0.7186027765274048, -0.8057498931884766, -0.015869140625, 0.134765625, -0.81005859375
57, 1523453984, -4.536382675170898, -1.6336349248886108, 8.445499420166016, -0.04215850681066513, -0.8143430352210999, -0.8649921417236328, -0.016357421875, 0.1337890625, -0.807861328125
58, 1523470651, -4.530910015106201, -1.6446813344955444, 8.408045768737793, 0.008202467113733292, -0.6546478271484375, -0.8839454054832458, -0.016357421875, 0.134765625, -0.803955078125
59, 1523487318, -4.540017127990723, -1.6421703100204468, 8.406426429748535, 0.1033792570233345, -0.5970960259437561, -0.8113206028938293, -0.017822265625, 0.13525390625, -0.804931640625
60, 1523503985, -4.5308756828308105, -1.6503790616989136, 8.408464431762695, 0.19266512989997864, -0.6036273241043091, -0.8040082454681396, -0.017333984375, 0.13330078125, -0.808349609375
61, 1523520652, -4.53937292098999, -1.6328606605529785, 8.402958869934082, 0.243928924202919, -0.49084174633026123, -0.8059547543525696, -0.016845703125, 0.1337890625, -0.808837890625
62, 1523537319, -4.53626012802124, -1.6313436031341553, 8.41057014465332, 0.27796822786331177, -0.5523890852928162, -0.7636682391166687, -0.016845703125, 0.1357421875, -0.805419921875
63, 1523553986, -4.5254225730896, -1.6285221576690674, 8.396005630493164, 0.8145030736923218, -0.6001055240631104, -0.5246505737304688, -0.018310546875, 0.13232421875, -0.806396484375
64, 1523570653, -4.535613536834717, -1.6402045488357544, 8.423802375793457, 0.9614174365997314, -0.7411803603172302, -0.49423548579216003, -0.016357421875, 0.13330078125, -0.804443359375
65, 1523587320, -4.5335798263549805, -1.623870611190796, 8.41720199584961, 0.6990281343460083, -0.6593604683876038, -0.5810752511024475, -0.015625, 0.130859375, -0.807373046875
66, 1523603987, -4.523146152496338, -1.6325229406356812, 8.392170906066895, 0.6475082039833069, -0.564388632774353, -0.6410858631134033, -0.015380859375, 0.1337890625, -0.806884765625
67, 1523620654, -4.529043674468994, -1.6359825134277344, 8.393810272216797, 0.6624289751052856, -0.6272670030593872, -0.57292640209198, -0.015869140625, 0.134765625, -0.808837890625
68, 1523637321, -4.5237040519714355, -1.63120436668396, 8.412714004516602, 0.7502022981643677, -0.42547816038131714, -0.6059964895248413, -0.016845703125, 0.1337890625, -0.807373046875
69, 1523653988, -4.52116060256958, -1.614989161491394, 8.384597778320312, 0.9591636061668396, -0.4316251873970032, -0.45976075530052185, -0.018310546875, 0.131103515625, -0.807373046875
70, 1523670655, -4.534890651702881, -1.6092543601989746, 8.404178619384766, 0.9021112322807312, -0.4935566782951355, -0.4013894200325012, -0.015869140625, 0.134765625, -0.805908203125
71, 1523687322, -4.530060291290283, -1.601128101348877, 8.412542343139648, 0.8705564141273499, -0.5048646926879883, -0.45240992307662964, -0.0146484375, 0.13134765625, -0.807373046875
72, 1523703989, -4.538536071777344, -1.592219352722168, 8.411629676818848, 0.5335060954093933, -0.47606316208839417, -0.49228888750076294, -0.015380859375, 0.1318359375, -0.807861328125
73, 1523720656, -4.541557312011719, -1.5963361263275146, 8.434186935424805, 0.11372678726911545, -0.3857784569263458, -0.8049430847167969, -0.015625, 0.130859375, -0.806396484375
74, 1523737323, -4.557257652282715, -1.5973215103149414, 8.42678165435791, -0.17607448995113373, -0.3524691164493561, -0.9644333720207214, -0.018310546875, 0.1337890625, -0.80810546875
75, 1523753990, -4.551777362823486, -1.596280574798584, 8.417943954467773, -0.13588817417621613, -0.4041939973831177, -0.9125291705131531, -0.014892578125, 0.1328125, -0.804931640625
76, 1523770657, -4.541589260101318, -1.6032363176345825, 8.409533500671387, -0.39246341586112976, -0.49893540143966675, -1.0644125938415527, -0.013671875, 0.1318359375, -0.807861328125
77, 1523787324, -4.536336421966553, -1.6026358604431152, 8.405808448791504, -0.6002848148345947, -0.4929420053958893, -1.0582141876220703, -0.016357421875, 0.130126953125, -0.808837890625
78, 1523803991, -4.555639743804932, -1.6044586896896362, 8.391855239868164, -0.6234387755393982, -0.6122331619262695, -1.0716224908828735, -0.017822265625, 0.13134765625, -0.807373046875
79, 1523820658, -4.518860340118408, -1.6102080345153809, 8.402191162109375, -0.4671500027179718, -0.665392279624939, -1.02321457862854, -0.016845703125, 0.1318359375, -0.805419921875
80, 1523837325, -4.531114101409912, -1.6203233003616333, 8.395483016967773, -0.5211800336837769, -0.6441978216171265, -1.1397395133972168, -0.015869140625, 0.1318359375, -0.807373046875
81, 1523853992, -4.533735275268555, -1.6215134859085083, 8.399349212646484, -0.5736988186836243, -0.5422208905220032, -1.0253020524978638, -0.017333984375, 0.1328125, -0.805419921875
82, 1523870659, -4.540101528167725, -1.608607292175293, 8.408904075622559, -0.655275285243988, -0.6134369373321533, -1.086836576461792, -0.017333984375, 0.13134765625, -0.806396484375
83, 1523887326, -4.539313793182373, -1.616082787513733, 8.396482467651367, -0.5590612292289734, -0.6111831068992615, -1.1011157035827637, -0.01416015625, 0.13037109375, -0.808837890625
84, 1523903993, -4.541360855102539, -1.605137825012207, 8.411775588989258, -0.5294401049613953, -0.49295487999916077, -1.0810863971710205, -0.016845703125, 0.13330078125, -0.806884765625
85, 1523920660, -4.527943134307861, -1.6285380125045776, 8.40589714050293, -0.3637259006500244, -0.5398900508880615, -1.003710389137268, -0.015380859375, 0.13330078125, -0.808349609375
86, 1523937327, -4.532253742218018, -1.606440782546997, 8.387856483459473, -0.4281803071498871, -0.5774639248847961, -1.0151464939117432, -0.014892578125, 0.1318359375, -0.807373046875
87, 1523953994, -4.545709609985352, -1.6143862009048462, 8.413542747497559, -0.3291616141796112, -0.41518184542655945, -0.9383211731910706, -0.01318359375, 0.13134765625, -0.805419921875
88, 1523970661, -4.549470901489258, -1.6168349981307983, 8.423850059509277, -0.24361519515514374, -0.48985567688941956, -0.9162175059318542, -0.015625, 0.130859375, -0.807373046875
89, 1523987328, -4.522963047027588, -1.6043007373809814, 8.416618347167969, -0.17081108689308167, -0.548137366771698, -0.9282810091972351, -0.015380859375, 0.1337890625, -0.807373046875
90, 1524003995, -4.534261226654053, -1.6135293245315552, 8.389355659484863, -0.24171984195709229, -0.48760175704956055, -0.9744608402252197, -0.016357421875, 0.13525390625, -0.808837890625
91, 1524020662, -4.540497303009033, -1.621325969696045, 8.397977828979492, -0.34381207823753357, -0.5446797013282776, -0.9136049151420593, -0.015380859375, 0.1337890625, -0.805908203125
92, 1524037329, -4.537954330444336, -1.6161643266677856, 8.405558586120605, -0.30586686730384827, -0.48440021276474, -0.9393073916435242, -0.014892578125, 0.1328125, -0.806884765625
93, 1524053996, -4.530082702636719, -1.6117719411849976, 8.401562690734863, -0.4146311581134796, -0.3933086097240448, -0.9027195572853088, -0.015869140625, 0.1318359375, -0.808349609375
94, 1524070663, -4.538767337799072, -1.614919900894165, 8.3822021484375, -0.5982998609542847, -0.37237024307250977, -1.0108821392059326, -0.015380859375, 0.13232421875, -0.807373046875
95, 1524087330, -4.539025783538818, -1.5798485279083252, 8.421284675598145, -1.1337333917617798, -0.19527122378349304, -1.1785043478012085, -0.015380859375, 0.1318359375, -0.804931640625
96, 1524103997, -4.549739837646484, -1.5956429243087769, 8.40767765045166, -1.4888534545898438, -0.06659302115440369, -1.3419133424758911, -0.017333984375, 0.13427734375, -0.805419921875
97, 1524120664, -4.526603698730469, -1.6226038932800293, 8.384163856506348, -1.5283098220825195, -0.14416107535362244, -1.3831498622894287, -0.014892578125, 0.1328125, -0.807861328125
98, 1524137331, -4.532022953033447, -1.6453498601913452, 8.399998664855957, -1.928316354751587, -0.04346475750207901, -1.4494355916976929, -0.016357421875, 0.134765625, -0.805908203125
99, 1524153998, -4.540519714355469, -1.6250828504562378, 8.389792442321777, -1.9567079544067383, 0.08538634330034256, -1.3975698947906494, -0.015380859375, 0.1328125, -0.805908203125
100, 1524170665, -4.56172513961792, -1.665857195854187, 8.40516471862793, -1.4309263229370117, -0.12340938299894333, -1.2797768115997314, -0.014404296875, 0.1357421875, -0.806884765625
101, 1524187332, -4.566219806671143, -1.6605144739151, 8.397151947021484, -1.0508249998092651, -0.32268160581588745, -1.1063790321350098, -0.01318359375, 0.1337890625, -0.806884765625
102, 1524203999, -4.563863754272461, -1.6464208364486694, 8.377114295959473, -0.6605258584022522, -0.4550352096557617, -0.8636090755462646, -0.014892578125, 0.13427734375, -0.804443359375
103, 1524220666, -4.554906368255615, -1.647506594657898, 8.381132125854492, -0.45763489603996277, -0.4761272668838501, -0.768368124961853, -0.016845703125, 0.1376953125, -0.805908203125
104, 1524237333, -4.56569766998291, -1.639283299446106, 8.398309707641602, -0.2852102220058441, -0.4020425081253052, -0.8282634615898132, -0.015380859375, 0.13720703125, -0.805908203125
105, 1524254000, -4.552120208740234, -1.6454620361328125, 8.395902633666992, -0.08717282116413116, -0.4513469636440277, -0.7543579339981079, -0.014404296875, 0.13671875, -0.805908203125
106, 1524270667, -4.577159404754639, -1.6400314569473267, 8.411860466003418, -0.15450860559940338, -0.46037545800209045, -0.7519888281822205, -0.015380859375, 0.13427734375, -0.804443359375
107, 1524287334, -4.551596164703369, -1.648311734199524, 8.41987419128418, -0.0018697271589189768, -0.5269044637680054, -0.7529365420341492, -0.015380859375, 0.13623046875, -0.804443359375
108, 1524304001, -4.5655293464660645, -1.6346632242202759, 8.380792617797852, -0.09072017669677734, -0.6680175065994263, -0.767727792263031, -0.013427734375, 0.13720703125, -0.808349609375
109, 1524320668, -4.551783084869385, -1.6375123262405396, 8.420282363891602, 0.02007395215332508, -0.6706173419952393, -0.8502520322799683, -0.01123046875, 0.13671875, -0.807861328125
110, 1524337335, -4.5388383865356445, -1.651597261428833, 8.381341934204102, 0.06561333686113358, -0.7019160389900208, -0.8596773743629456, -0.014892578125, 0.13623046875, -0.807861328125
111, 1524354002, -4.543132305145264, -1.6450388431549072, 8.386226654052734, 0.257170706987381, -0.715247392654419, -0.6853830218315125, -0.014892578125, 0.1318359375, -0.807861328125
112, 1524370669, -4.559614181518555, -1.631301999092102, 8.387480735778809, 0.45112285017967224, -0.750336766242981, -0.6966782212257385, -0.01220703125, 0.13525390625, -0.808837890625
113, 1524387336, -4.5533857345581055, -1.6398085355758667, 8.393388748168945, 0.5256814360618591, -0.808554470539093, -0.7055530548095703, -0.014892578125, 0.1328125, -0.807373046875
114, 1524404003, -4.554778099060059, -1.6401283740997314, 8.388114929199219, 0.45013678073883057, -0.7650385499000549, -0.7027868628501892, -0.014892578125, 0.1357421875, -0.807373046875
115, 1524420670, -4.5524001121521, -1.6291532516479492, 8.40187931060791, 0.32474979758262634, -0.6808879375457764, -0.717027485370636, -0.017333984375, 0.1357421875, -0.80859375
116, 1524437337, -4.551328659057617, -1.6330008506774902, 8.399481773376465, 0.22347719967365265, -0.7176038026809692, -0.7768843770027161, -0.016845703125, 0.1337890625, -0.809326171875
117, 1524454004, -4.548412322998047, -1.6137255430221558, 8.390734672546387, 0.19471414387226105, -0.5882084369659424, -0.8156107664108276, -0.015380859375, 0.13134765625, -0.808349609375
118, 1524470671, -4.553582668304443, -1.6358190774917603, 8.377938270568848, 0.26895254850387573, -0.5527732372283936, -0.7789462208747864, -0.014404296875, 0.1328125, -0.806884765625
119, 1524487338, -4.54919958114624, -1.6264197826385498, 8.394731521606445, 0.15054504573345184, -0.749478816986084, -0.8478315472602844, -0.015869140625, 0.13330078125, -0.804443359375
120, 1524504005, -4.54479455947876, -1.6343529224395752, 8.3870849609375, -0.03913620114326477, -0.6149609684944153, -0.8552464246749878, -0.013427734375, 0.13427734375, -0.806396484375
121, 1524520672, -4.5506486892700195, -1.6225866079330444, 8.365988731384277, -0.1433030366897583, -0.5616480708122253, -0.8661574125289917, -0.014892578125, 0.134765625, -0.806884765625
122, 1524537339, -4.555717945098877, -1.6339739561080933, 8.402155876159668, -0.12507961690425873, -0.6055097579956055, -0.8436053991317749, -0.017822265625, 0.134765625, -0.806884765625
123, 1524554006, -4.55342435836792, -1.6314010620117188, 8.417757034301758, -0.16489455103874207, -0.5685122609138489, -0.9414331316947937, -0.01416015625, 0.13232421875, -0.806884765625
124, 1524570673, -4.554527759552002, -1.6174145936965942, 8.403334617614746, -0.18082565069198608, -0.6422128081321716, -0.9286267757415771, -0.014892578125, 0.1337890625, -0.805908203125
125, 1524587340, -4.5568928718566895, -1.621227502822876, 8.404404640197754, -0.2707133889198303, -0.6866891980171204, -0.9705803394317627, -0.016357421875, 0.13330078125, -0.806396484375
126, 1524604007, -4.5604634284973145, -1.6196699142456055, 8.403934478759766, -0.3156765401363373, -0.6603338122367859, -1.0077059268951416, -0.014404296875, 0.134765625, -0.806884765625
127, 1524620674, -4.55396032333374, -1.621401071548462, 8.388917922973633, -0.22513560950756073, -0.6339911222457886, -1.008884072303772, -0.017333984375, 0.13525390625, -0.8095703125
128, 1524637341, -4.544735431671143, -1.628684163093567, 8.405563354492188, -0.14060091972351074, -0.7186282873153687, -1.002314567565918, -0.016357421875, 0.1337890625, -0.81005859375
129, 1524654008, -4.555116653442383, -1.6341108083724976, 8.40553092956543, -0.13395442068576813, -0.592037558555603, -0.9383084774017334, -0.013671875, 0.1337890625, -0.805908203125
130, 1524670675, -4.559364318847656, -1.6309120655059814, 8.41063117980957, -0.1458515077829361, -0.6731913685798645, -0.8739821314811707, -0.016845703125, 0.1328125, -0.805419921875
131, 1524687342, -4.556734561920166, -1.62563157081604, 8.417299270629883, -0.01938881166279316, -0.715093731880188, -0.8864938616752625, -0.014892578125, 0.1318359375, -0.805908203125
132, 1524704009, -4.550307273864746, -1.6205089092254639, 8.39753532409668, -0.07058858871459961, -0.6400613784790039, -0.920994222164154, -0.015869140625, 0.13427734375, -0.806884765625
133, 1524720676, -4.552011489868164, -1.6279308795928955, 8.396134376525879, 0.0657413974404335, -0.6488337516784668, -0.8522882461547852, -0.015380859375, 0.134765625, -0.806884765625
134, 1524737343, -4.543003082275391, -1.6342802047729492, 8.408388137817383, 0.15454989671707153, -0.7846536636352539, -0.7863186597824097, -0.016357421875, 0.13427734375, -0.808349609375
135, 1524754010, -4.5528950691223145, -1.6243997812271118, 8.395912170410156, 0.1288638859987259, -0.7201010584831238, -0.8538377285003662, -0.014404296875, 0.1328125, -0.806884765625
136, 1524770677, -4.552185535430908, -1.616089105606079, 8.416385650634766, 0.06793128699064255, -0.7168867588043213, -0.9498597979545593, -0.017822265625, 0.13134765625, -0.805419921875
137, 1524787344, -4.550988674163818, -1.618522047996521, 8.400308609008789, 0.059235770255327225, -0.8089643120765686, -1.0338950157165527, -0.015380859375, 0.134765625, -0.805908203125
138, 1524804011, -4.549409866333008, -1.6095515489578247, 8.389355659484863, -0.037317704409360886, -0.7447020411491394, -0.949949324131012, -0.015869140625, 0.13232421875, -0.806396484375
139, 1524820678, -4.55124568939209, -1.6092885732650757, 8.401652336120605, -0.06523554772138596, -0.674254298210144, -0.9414331316947937, -0.015380859375, 0.1337890625, -0.81103515625
140, 1524837345, -4.566779136657715, -1.6106234788894653, 8.416607856750488, -0.06066368147730827, -0.6750866770744324, -1.0466758012771606, -0.015869140625, 0.13330078125, -0.809326171875
141, 1524854012, -4.546208381652832, -1.6198058128356934, 8.40365219116211, -0.10329601913690567, -0.7133521437644958, -1.0368918180465698, -0.013671875, 0.13232421875, -0.808349609375
142, 1524870679, -4.5420823097229, -1.622531771659851, 8.417644500732422, -0.22760728001594543, -0.6990090012550354, -1.0025707483291626, -0.015380859375, 0.1318359375, -0.805419921875
143, 1524887346, -4.540118217468262, -1.6240123510360718, 8.395301818847656, -0.21601749956607819, -0.6339654922485352, -0.9908016324043274, -0.016357421875, 0.1318359375, -0.806396484375
144, 1524904013, -4.534280300140381, -1.611467957496643, 8.397147178649902, -0.3613952100276947, -0.6116056442260742, -1.1642123460769653, -0.015869140625, 0.1328125, -0.806884765625
145, 1524920680, -4.545942783355713, -1.6231321096420288, 8.40178394317627, -0.4729897379875183, -0.596340537071228, -1.103036642074585, -0.015869140625, 0.13330078125, -0.808837890625
146, 1524937347, -4.5444111824035645, -1.629834771156311, 8.40747356414795, -0.4774463474750519, -0.7031070590019226, -1.0960954427719116, -0.015380859375, 0.1328125, -0.808349609375
147, 1524954014, -4.555094242095947, -1.623018503189087, 8.412631034851074, -0.40327194333076477, -0.668491542339325, -1.0591620206832886, -0.017333984375, 0.1337890625, -0.806396484375
148, 1524970681, -4.528434753417969, -1.6305086612701416, 8.403578758239746, -0.36366191506385803, -0.6847426891326904, -1.0637210607528687, -0.014404296875, 0.134765625, -0.805908203125
149, 1524987348, -4.542410850524902, -1.6267935037612915, 8.4017915725708, -0.3884038031101227, -0.7570474147796631, -1.0194751024246216, -0.013427734375, 0.13427734375, -0.806884765625
150, 1525004015, -4.524285316467285, -1.6247655153274536, 8.385424613952637, -0.3825768828392029, -0.588323712348938, -0.9709389209747314, -0.016357421875, 0.1337890625, -0.807861328125
151, 1525020682, -4.55575704574585, -1.631658673286438, 8.403101921081543, -0.29085782170295715, -0.6486032605171204, -0.9538042545318604, -0.015380859375, 0.1337890625, -0.808349609375
152, 1525037349, -4.541490077972412, -1.6374815702438354, 8.402212142944336, -0.055605169385671616, -0.5683073997497559, -0.8745841383934021, -0.018798828125, 0.13427734375, -0.803955078125
153, 1525054016, -4.527839183807373, -1.6218112707138062, 8.422686576843262, -0.09517679363489151, -0.6282923817634583, -0.8911042809486389, -0.014892578125, 0.13330078125, -0.805908203125
154, 1525070683, -4.549037933349609, -1.6245040893554688, 8.434088706970215, -0.13784757256507874, -0.6245273351669312, -0.8720228672027588, -0.017333984375, 0.1337890625, -0.805419921875
155, 1525087350, -4.538494110107422, -1.6256829500198364, 8.39901351928711, -0.047024916857481, -0.5500326752662659, -0.8949460983276367, -0.016845703125, 0.13134765625, -0.808349609375
156, 1525104017, -4.55054235458374, -1.6228107213974, 8.41425895690918, 0.024146370589733124, -0.43222710490226746, -0.7876033186912537, -0.015380859375, 0.13427734375, -0.806396484375
157, 1525120684, -4.544816493988037, -1.6157288551330566, 8.393604278564453, -0.0234100092202425, -0.3973170220851898, -0.8247033357620239, -0.015380859375, 0.13525390625, -0.807861328125
158, 1525137351, -4.552338600158691, -1.6193662881851196, 8.39631462097168, -0.05978003889322281, -0.4690709710121155, -0.8808462619781494, -0.014892578125, 0.13330078125, -0.807373046875
159, 1525154018, -4.5522050857543945, -1.6194071769714355, 8.41164493560791, 0.06489618122577667, -0.49089300632476807, -0.8043540716171265, -0.014404296875, 0.13427734375, -0.803955078125
160, 1525170685, -4.561694622039795, -1.6320521831512451, 8.426891326904297, 0.11386766284704208, -0.5608668327331543, -0.7744383215904236, -0.014892578125, 0.1357421875, -0.806396484375
161, 1525187352, -4.555594444274902, -1.6102349758148193, 8.426210403442383, -0.0175446979701519, -0.5343064665794373, -0.8509947061538696, -0.014404296875, 0.13330078125, -0.803955078125
162, 1525204019, -4.543301105499268, -1.5987262725830078, 8.395410537719727, -0.13796280324459076, -0.37263914942741394, -0.9485279321670532, -0.017822265625, 0.1328125, -0.806396484375
163, 1525220686, -4.539268970489502, -1.6214202642440796, 8.408984184265137, -0.2011493593454361, -0.4092141389846802, -1.0094605684280396, -0.016357421875, 0.13525390625, -0.805419921875
164, 1525237353, -4.539176940917969, -1.6218030452728271, 8.401108741760254, -0.234817236661911, -0.3519057333469391, -0.8945748209953308, -0.014404296875, 0.1337890625, -0.808349609375
165, 1525254020, -4.552961826324463, -1.6353360414505005, 8.395845413208008, -0.2624149024486542, -0.5498405694961548, -0.9223388433456421, -0.01416015625, 0.1328125, -0.808349609375
166, 1525270687, -4.540323257446289, -1.6074261665344238, 8.391528129577637, -0.1934014856815338, -0.478342741727829, -0.9425473213195801, -0.013671875, 0.13330078125, -0.804443359375
167, 1525287354, -4.54875373840332, -1.6120586395263672, 8.39208984375, -0.3046557307243347, -0.5306628942489624, -0.9548858404159546, -0.016845703125, 0.13134765625, -0.805908203125
168, 1525304021, -4.557399272918701, -1.62734055519104, 8.425968170166016, -0.4672653079032898, -0.5185803771018982, -1.0144805908203125, -0.01416015625, 0.13232421875, -0.806396484375
169, 1525320688, -4.536528587341309, -1.6259628534317017, 8.396943092346191, -0.38775068521499634, -0.6306871175765991, -1.0814578533172607, -0.017333984375, 0.1337890625, -0.80908203125
170, 1525337355, -4.543905258178711, -1.6153697967529297, 8.380982398986816, -0.44445714354515076, -0.6775199174880981, -1.086695671081543, -0.01318359375, 0.13330078125, -0.806396484375
171, 1525354022, -4.554662227630615, -1.6123007535934448, 8.393304824829102, -0.5750947594642639, -0.6427122950553894, -1.0974018573760986, -0.014892578125, 0.13232421875, -0.803466796875
172, 1525370689, -4.550832271575928, -1.6329504251480103, 8.402376174926758, -0.4811345338821411, -0.6108628511428833, -1.1586415767669678, -0.01416015625, 0.13232421875, -0.804443359375
173, 1525387356, -4.550906181335449, -1.623212218284607, 8.4019136428833, -0.37051331996917725, -0.7489281892776489, -1.0433334112167358, -0.014892578125, 0.1328125, -0.803466796875
174, 1525404023, -4.5407891273498535, -1.6170397996902466, 8.396468162536621, -0.48513010144233704, -0.7270804643630981, -1.0941745042800903, -0.016845703125, 0.1357421875, -0.805908203125
175, 1525420690, -4.541270732879639, -1.6275873184204102, 8.406339645385742, -0.46528029441833496, -0.6480268836021423, -1.1103233098983765, -0.015869140625, 0.13623046875, -0.805908203125
176, 1525437357, -4.539409160614014, -1.6250982284545898, 8.37464714050293, -0.49771881103515625, -0.6602954864501953, -0.9942338466644287, -0.017333984375, 0.13427734375, -0.804931640625
177, 1525454024, -4.5420660972595215, -1.623103380203247, 8.376110076904297, -0.47168347239494324, -0.8159694075584412, -1.1924376487731934, -0.015380859375, 0.134765625, -0.805908203125
178, 1525470691, -4.559279918670654, -1.6376125812530518, 8.406820297241211, -0.4100593328475952, -0.9320846796035767, -1.1303781270980835, -0.015869140625, 0.1357421875, -0.804443359375
179, 1525487358, -4.540453910827637, -1.6185085773468018, 8.38734245300293, -0.3196721076965332, -0.9392945766448975, -1.1723958253860474, -0.015380859375, 0.1318359375, -0.806884765625
180, 1525504025, -4.5365753173828125, -1.6173266172409058, 8.405409812927246, -0.29706889390945435, -1.0859272480010986, -1.089269757270813, -0.014892578125, 0.13330078125, -0.805908203125
181, 1525520692, -4.5290961265563965, -1.6371487379074097, 8.37077808380127, -0.35223865509033203, -1.1301219463348389, -1.0778849124908447, -0.016357421875, 0.13525390625, -0.808349609375
182, 1525537359, -4.522864818572998, -1.6195677518844604, 8.398821830749512, -0.292548269033432, -0.9028605222702026, -0.9689797163009644, -0.015869140625, 0.13427734375, -0.809326171875
183, 1525554026, -4.536954879760742, -1.642237663269043, 8.386542320251465, -0.21451915800571442, -0.8139203190803528, -1.0553585290908813, -0.015869140625, 0.134765625, -0.807373046875
184, 1525570693, -4.533863067626953, -1.6185001134872437, 8.3923978805542, -0.17253996431827545, -0.6057916283607483, -0.9230816960334778, -0.017333984375, 0.13232421875, -0.805908203125
185, 1525587360, -4.537569999694824, -1.6183786392211914, 8.424033164978027, -0.18382233381271362, -0.5841360092163086, -0.9570184946060181, -0.015380859375, 0.13232421875, -0.805908203125
186, 1525604027, -4.540457248687744, -1.620642066001892, 8.376008987426758, -0.09493346512317657, -0.5048903226852417, -0.9643694758415222, -0.016845703125, 0.13330078125, -0.81005859375
187, 1525620694, -4.540157794952393, -1.6409493684768677, 8.412018775939941, -0.15143507719039917, -0.5269428491592407, -0.8984678387641907, -0.016845703125, 0.134765625, -0.807373046875
188, 1525637361, -4.542696952819824, -1.6132951974868774, 8.426787376403809, -0.06919270753860474, -0.38011810183525085, -0.9535096883773804, -0.015869140625, 0.1328125, -0.804443359375
189, 1525654028, -4.5528717041015625, -1.6230173110961914, 8.399943351745605, 0.10925738513469696, -0.3497798442840576, -0.8820630311965942, -0.016845703125, 0.134765625, -0.808349609375
190, 1525670695, -4.547435283660889, -1.6072477102279663, 8.390674591064453, 0.3345082402229309, -0.4956185519695282, -0.9072785973548889, -0.014892578125, 0.1337890625, -0.805908203125
191, 1525687362, -4.525923252105713, -1.6282349824905396, 8.390950202941895, 0.33607062697410583, -0.4136962890625, -0.8377785682678223, -0.017333984375, 0.134765625, -0.804931640625
192, 1525704029, -4.541513442993164, -1.6126034259796143, 8.400951385498047, 0.175478994846344, -0.46658650040626526, -0.9180487394332886, -0.017333984375, 0.1337890625, -0.807861328125
193, 1525720696, -4.551520824432373, -1.6278835535049438, 8.373509407043457, 0.0804302841424942, -0.45741724967956543, -0.9586192965507507, -0.014892578125, 0.13427734375, -0.808349609375
194, 1525737363, -4.535036563873291, -1.6193715333938599, 8.38296890258789, 0.061400044709444046, -0.5259055495262146, -0.9183689951896667, -0.014404296875, 0.1357421875, -0.807861328125
195, 1525754030, -4.553461074829102, -1.618310809135437, 8.416512489318848, 0.026605188846588135, -0.4879603087902069, -0.9623075127601624, -0.015869140625, 0.134765625, -0.802978515625
196, 1525770697, -4.5428667068481445, -1.6062109470367432, 8.406978607177734, -0.033655088394880295, -0.5973777174949646, -1.0047348737716675, -0.015380859375, 0.13232421875, -0.802978515625
197, 1525787364, -4.539008617401123, -1.6293771266937256, 8.41633415222168, -0.1520882248878479, -0.5683714151382446, -0.9597078561782837, -0.015869140625, 0.1318359375, -0.804931640625
198, 1525804031, -4.538548946380615, -1.6115058660507202, 8.415487289428711, -0.19618047773838043, -0.5182217955589294, -1.0654499530792236, -0.016845703125, 0.13134765625, -0.806884765625
199, 1525820698, -4.549593448638916, -1.6296836137771606, 8.392707824707031, -0.25067150592803955, -0.4675726592540741, -0.9582736492156982, -0.013671875, 0.1318359375, -0.807861328125
200, 1525837365, -4.539313316345215, -1.6265928745269775, 8.43176555633545, -0.28031817078590393, -0.5181320905685425, -1.0009315013885498, -0.014892578125, 0.1337890625, -0.809326171875
201, 1525854032, -4.544346809387207, -1.6255544424057007, 8.372845649719238, -0.25455427169799805, -0.4333159923553467, -1.030819058418274, -0.015380859375, 0.1318359375, -0.808349609375
202, 1525870699, -4.523383140563965, -1.6292645931243896, 8.378307342529297, -0.16078370809555054, -0.3414172828197479, -0.9997660517692566, -0.016845703125, 0.13232421875, -0.804443359375
203, 1525887366, -4.546205520629883, -1.6359246969223022, 8.387142181396484, -0.23912017047405243, -0.4228785037994385, -1.0098832845687866, -0.01318359375, 0.1328125, -0.806884765625
204, 1525904033, -4.544315338134766, -1.6271660327911377, 8.394194602966309, -0.15107649564743042, -0.4800843894481659, -0.9510123133659363, -0.01513671875, 0.130126953125, -0.806884765625
205, 1525920700, -4.548568248748779, -1.6367131471633911, 8.388713836669922, -0.1304582804441452, -0.5679744482040405, -0.9882787466049194, -0.013427734375, 0.134765625, -0.806884765625
206, 1525937367, -4.538126468658447, -1.6243854761123657, 8.405415534973145, -0.19902350008487701, -0.6279721856117249, -0.8944339156150818, -0.014892578125, 0.13330078125, -0.807861328125
207, 1525954034, -4.535506725311279, -1.6205240488052368, 8.39319133758545, -0.2381724864244461, -0.4961947798728943, -0.8660933971405029, -0.014404296875, 0.13427734375, -0.807373046875
208, 1525970701, -4.541038990020752, -1.6173821687698364, 8.390555381774902, -0.10758615285158157, -0.6951415538787842, -0.921468198299408, -0.013916015625, 0.1357421875, -0.806884765625
209, 1525987368, -4.535475730895996, -1.610824704170227, 8.402125358581543, -0.20514492690563202, -0.7420639395713806, -0.9493475556373596, -0.014892578125, 0.134765625, -0.807373046875
210, 1526004035, -4.553553581237793, -1.6291565895080566, 8.414358139038086, -0.2005346268415451, -0.648692786693573, -0.8848674893379211, -0.014892578125, 0.1337890625, -0.806884765625
211, 1526020702, -4.548503398895264, -1.628174066543579, 8.394641876220703, -0.22968189418315887, -0.7890505194664001, -0.962653398513794, -0.013916015625, 0.1337890625, -0.808837890625
212, 1526037369, -4.55209493637085, -1.62004554271698, 8.406920433044434, -0.23566244542598724, -0.7131727337837219, -0.9553664326667786, -0.016357421875, 0.134765625, -0.808837890625
213, 1526054036, -4.539443016052246, -1.6143628358840942, 8.396355628967285, -0.15745407342910767, -0.7386574745178223, -0.9478107690811157, -0.014892578125, 0.134765625, -0.808837890625
214, 1526070703, -4.5356125831604, -1.6120675802230835, 8.410311698913574, -0.1952200084924698, -0.7328818440437317, -0.9248362183570862, -0.015380859375, 0.13232421875, -0.806396484375
215, 1526087370, -4.550317287445068, -1.6121978759765625, 8.413878440856934, -0.4340072274208069, -0.6183034777641296, -1.0234194993972778, -0.0146484375, 0.1318359375, -0.807373046875
216, 1526104037, -4.538405418395996, -1.620405673980713, 8.39169692993164, -0.4188828766345978, -0.6939248442649841, -1.0518878698349, -0.014404296875, 0.13525390625, -0.807373046875
217, 1526120704, -4.536807537078857, -1.6402043104171753, 8.39734935760498, -0.35121411085128784, -0.651715099811554, -0.9923511743545532, -0.015869140625, 0.13525390625, -0.805908203125
218, 1526137371, -4.534797191619873, -1.6127493381500244, 8.396286964416504, -0.39919954538345337, -0.7494532465934753, -1.0270179510116577, -0.017333984375, 0.13427734375, -0.81005859375
219, 1526154038, -4.530633449554443, -1.6346813440322876, 8.397852897644043, -0.2843649983406067, -0.7279257774353027, -0.9925689697265625, -0.015869140625, 0.13525390625, -0.81005859375
220, 1526170705, -4.554050445556641, -1.6264352798461914, 8.422607421875, -0.4119803011417389, -0.703926682472229, -0.9765482544898987, -0.014404296875, 0.1328125, -0.805419921875
221, 1526187372, -4.5629191398620605, -1.6042231321334839, 8.422287940979004, -0.7416157126426697, -0.7637450098991394, -1.0992201566696167, -0.0146484375, 0.1318359375, -0.804931640625
222, 1526204039, -4.526098728179932, -1.6461002826690674, 8.407308578491211, -0.876248836517334, -0.7437031269073486, -1.1171362400054932, -0.014892578125, 0.1337890625, -0.803955078125
223, 1526220706, -4.530232906341553, -1.6423442363739014, 8.406785011291504, -0.7175653576850891, -0.8083752393722534, -1.1697064638137817, -0.016357421875, 0.1337890625, -0.808349609375
224, 1526237373, -4.535229682922363, -1.618609070777893, 8.382193565368652, -0.5209751129150391, -0.7583791613578796, -1.0657827854156494, -0.015869140625, 0.134765625, -0.804931640625
225, 1526254040, -4.528069972991943, -1.6214958429336548, 8.389018058776855, -0.4135298728942871, -0.8307479619979858, -1.0084232091903687, -0.015380859375, 0.13427734375, -0.806396484375
226, 1526270707, -4.534987449645996, -1.6496070623397827, 8.383941650390625, -0.20467106997966766, -0.6778144836425781, -0.9575179219245911, -0.015869140625, 0.13330078125, -0.805908203125
227, 1526287374, -4.532070159912109, -1.6386648416519165, 8.383193016052246, -0.14224012196063995, -0.6595269441604614, -0.8977634906768799, -0.015869140625, 0.1328125, -0.804931640625
228, 1526304041, -4.548003673553467, -1.6355735063552856, 8.395758628845215, -0.05801276117563248, -0.6633177399635315, -0.9184714555740356, -0.017333984375, 0.13330078125, -0.806884765625
229, 1526320708, -4.531389236450195, -1.6344358921051025, 8.39179515838623, -0.0725223645567894, -0.7156700491905212, -0.8953815698623657, -0.016845703125, 0.1337890625, -0.808837890625
230, 1526337375, -4.558378219604492, -1.629909634590149, 8.398772239685059, 0.007037089206278324, -0.6808623671531677, -0.7818275690078735, -0.015869140625, 0.13330078125, -0.808349609375
231, 1526354042, -4.545220851898193, -1.6255793571472168, 8.381697654724121, 0.04988713189959526, -0.6989321708679199, -0.811333417892456, -0.016357421875, 0.13330078125, -0.807373046875
232, 1526370709, -4.539918899536133, -1.6266673803329468, 8.393291473388672, 0.04372727870941162, -0.6803244948387146, -0.8640956282615662, -0.014892578125, 0.1328125, -0.804931640625
233, 1526387376, -4.532245635986328, -1.633021593093872, 8.429994583129883, -0.02630424126982689, -0.6473225355148315, -0.8673356175422668, -0.014892578125, 0.13330078125, -0.804443359375
234, 1526404043, -4.553549289703369, -1.6322523355484009, 8.4102783203125, 0.02314886264503002, -0.578126072883606, -0.8968439698219299, -0.016845703125, 0.1337890625, -0.804931640625
235, 1526420710, -4.530123710632324, -1.6172009706497192, 8.40375804901123, 0.028820689767599106, -0.6304181814193726, -0.8751347661018372, -0.016845703125, 0.13330078125, -0.806396484375
236, 1526437377, -4.53580379486084, -1.6272896528244019, 8.393967628479004, 0.15737082064151764, -0.652649998664856, -0.8190940618515015, -0.015869140625, 0.1337890625, -0.807373046875
237, 1526454044, -4.549639701843262, -1.6273573637008667, 8.417156219482422, 0.16637367010116577, -0.6039602160453796, -0.8158797025680542, -0.017822265625, 0.13427734375, -0.810546875
238, 1526470711, -4.545236110687256, -1.6296563148498535, 8.407113075256348, 0.15737082064151764, -0.6498197913169861, -0.7453166842460632, -0.013427734375, 0.134765625, -0.807861328125
239, 1526487378, -4.533121109008789, -1.616766095161438, 8.395686149597168, 0.25498083233833313, -0.5111270546913147, -0.8040083050727844, -0.016357421875, 0.1328125, -0.804443359375
240, 1526504045, -4.54355001449585, -1.6182303428649902, 8.39123821258545, 0.12620016932487488, -0.5212952494621277, -0.8415820598602295, -0.015380859375, 0.13427734375, -0.805419921875
241, 1526520712, -4.546736717224121, -1.6136411428451538, 8.410930633544922, 0.1032639890909195, -0.5331795811653137, -0.7900748252868652, -0.015869140625, 0.134765625, -0.807373046875
242, 1526537379, -4.545248508453369, -1.633564829826355, 8.398794174194336, 0.029230492189526558, -0.49605390429496765, -0.7913042902946472, -0.015380859375, 0.13525390625, -0.807373046875
243, 1526554046, -4.528175354003906, -1.6236048936843872, 8.3724946975708, -0.06606795638799667, -0.5271733999252319, -0.8746224641799927, -0.015380859375, 0.13623046875, -0.808349609375
244, 1526570713, -4.539896488189697, -1.6160569190979004, 8.402344703674316, -0.10083719342947006, -0.6291503310203552, -0.917485237121582, -0.017822265625, 0.1337890625, -0.804931640625
245, 1526587380, -4.55606746673584, -1.6254191398620605, 8.396687507629395, -0.17234785854816437, -0.6860873699188232, -0.9028220772743225, -0.014404296875, 0.1328125, -0.803955078125
246, 1526604047, -4.54451322555542, -1.5987502336502075, 8.407963752746582, -0.19723057746887207, -0.5977107286453247, -0.8956120014190674, -0.014892578125, 0.1318359375, -0.805419921875
247, 1526620714, -4.537149429321289, -1.620070219039917, 8.420158386230469, -0.2025580257177353, -0.5656948685646057, -0.9416508674621582, -0.015869140625, 0.13525390625, -0.806396484375
248, 1526637381, -4.543801784515381, -1.6111819744110107, 8.392309188842773, -0.1577998548746109, -0.5895915627479553, -0.935004472732544, -0.01318359375, 0.13427734375, -0.810302734375
249, 1526654048, -4.545206546783447, -1.6154029369354248, 8.383925437927246, -0.20691220462322235, -0.6292144060134888, -0.9050504565238953, -0.016357421875, 0.13330078125, -0.8095703125
250, 1526670715, -4.540538787841797, -1.6240339279174805, 8.388359069824219, -0.11054440587759018, -0.5822022557258606, -0.9415100812911987, -0.014404296875, 0.13330078125, -0.806884765625
251, 1526687382, -4.5364603996276855, -1.6163060665130615, 8.400198936462402, -0.13778351247310638, -0.6937583088874817, -0.9005424976348877, -0.0146484375, 0.130859375, -0.805419921875
252, 1526704049, -4.545689582824707, -1.6173043251037598, 8.403644561767578, -0.02740558795630932, -0.5915125608444214, -0.8260864019393921, -0.0146484375, 0.13232421875, -0.805419921875
253, 1526720716, -4.537601947784424, -1.6253395080566406, 8.422245025634766, -0.03138836473226547, -0.6027052402496338, -0.912068247795105, -0.0146484375, 0.1318359375, -0.805908203125
254, 1526737383, -4.538680553436279, -1.6144542694091797, 8.41418743133545, -0.10777822881937027, -0.614243745803833, -0.8819348216056824, -0.015869140625, 0.134765625, -0.808349609375
255, 1526754050, -4.540850639343262, -1.6067918539047241, 8.402793884277344, 0.003899533301591873, -0.5758887529373169, -0.8209637999534607, -0.015869140625, 0.13134765625, -0.807373046875
256, 1526770717, -4.548125267028809, -1.619118332862854, 8.425307273864746, -0.007875904440879822, -0.646259605884552, -0.9353756308555603, -0.014892578125, 0.13232421875, -0.803955078125
257, 1526787384, -4.526763439178467, -1.6156846284866333, 8.416877746582031, 0.015297184698283672, -0.6387422680854797, -0.8162127137184143, -0.016845703125, 0.13232421875, -0.804443359375
258, 1526804051, -4.5380988121032715, -1.6230945587158203, 8.385236740112305, -0.015393233858048916, -0.540351152420044, -0.8821014165878296, -0.015380859375, 0.13232421875, -0.804931640625
259, 1526820718, -4.552096366882324, -1.623476266860962, 8.38427448272705, -0.03106820210814476, -0.49683505296707153, -0.9398451447486877, -0.017333984375, 0.13232421875, -0.807373046875
260, 1526837385, -4.543931484222412, -1.6103187799453735, 8.405180931091309, 0.06334660202264786, -0.5088474750518799, -0.8189916014671326, -0.015380859375, 0.13330078125, -0.808837890625
261, 1526854052, -4.538311004638672, -1.607901692390442, 8.394597053527832, 0.030818480998277664, -0.5721492767333984, -0.8254076242446899, -0.014892578125, 0.13232421875, -0.806884765625
262, 1526870719, -4.528431415557861, -1.6084325313568115, 8.404763221740723, -0.09942850470542908, -0.6134369969367981, -0.8046870231628418, -0.015380859375, 0.1318359375, -0.807861328125
263, 1526887386, -4.540988445281982, -1.607561469078064, 8.397011756896973, -0.10943025350570679, -0.6380635499954224, -0.897020697593689, -0.015380859375, 0.1328125, -0.804931640625
264, 1526904053, -4.535783767700195, -1.610596776008606, 8.407113075256348, -0.19294047355651855, -0.5513902306556702, -0.9679552316665649, -0.01416015625, 0.1328125, -0.804931640625
265, 1526920720, -4.549548149108887, -1.6068446636199951, 8.389371871948242, -0.11719091981649399, -0.5148152709007263, -0.8897852301597595, -0.014892578125, 0.1328125, -0.804931640625
266, 1526937387, -4.5290422439575195, -1.6154640913009644, 8.418336868286133, -0.038419049233198166, -0.5825095772743225, -0.9045764803886414, -0.014892578125, 0.13427734375, -0.806396484375
267, 1526954054, -4.528937816619873, -1.6176217794418335, 8.417634010314941, 0.02303222008049488, -0.5066704154014587, -0.821027934551239, -0.017333984375, 0.130126953125, -0.805419921875
268, 1526970721, -4.532810211181641, -1.6098045110702515, 8.404350280761719, 0.00263186264783144, -0.5689177513122559, -0.8033392429351807, -0.01513671875, 0.13134765625, -0.806396484375
269, 1526987388, -4.539148807525635, -1.5988986492156982, 8.417542457580566, 0.0454433299601078, -0.6040242910385132, -0.8592548370361328, -0.016357421875, 0.130126953125, -0.806396484375
270, 1527004055, -4.559228420257568, -1.5963562726974487, 8.40124797821045, 0.006896219216287136, -0.4724262058734894, -0.9354141354560852, -0.014892578125, 0.13232421875, -0.806884765625
271, 1527020722, -4.54797887802124, -1.6037521362304688, 8.38658618927002, -0.03587058186531067, -0.5525683164596558, -0.8842015862464905, -0.016357421875, 0.13330078125, -0.808349609375
272, 1527037389, -4.548014163970947, -1.6167048215866089, 8.390275955200195, -0.0860842764377594, -0.49066242575645447, -0.8615215420722961, -0.016357421875, 0.1318359375, -0.808349609375
273, 1527054056, -4.54878044128418, -1.606719732284546, 8.408674240112305, -0.1342233419418335, -0.5947396755218506, -0.9179462790489197, -0.01611328125, 0.129638671875, -0.808349609375
274, 1527070723, -4.540222644805908, -1.612993597984314, 8.383252143859863, -0.21350744366645813, -0.6270117163658142, -0.9434309601783752, -0.01416015625, 0.13232421875, -0.806884765625
275, 1527087390, -4.543538570404053, -1.596600890159607, 8.403972625732422, -0.0891449972987175, -0.5448077321052551, -0.909993588924408, -0.01513671875, 0.130859375, -0.804931640625
276, 1527104057, -4.552095413208008, -1.6129449605941772, 8.399538040161133, -0.20132862031459808, -0.5951494574546814, -0.9584400057792664, -0.013671875, 0.1337890625, -0.807373046875
277, 1527120724, -4.5460286140441895, -1.6041975021362305, 8.396303176879883, -0.2639901041984558, -0.6444154977798462, -0.8896059393882751, -0.01416015625, 0.1328125, -0.810302734375
278, 1527137391, -4.546609878540039, -1.606726050376892, 8.415719032287598, -0.20474791526794434, -0.5938048362731934, -0.8622002601623535, -0.014404296875, 0.1328125, -0.808837890625
279, 1527154058, -4.539737224578857, -1.6079386472702026, 8.376236915588379, -0.3770958185195923, -0.5841232538223267, -0.9962700605392456, -0.015869140625, 0.13232421875, -0.806884765625
280, 1527170725, -4.5366291999816895, -1.609778642654419, 8.415626525878906, -0.31142476201057434, -0.615524411201477, -0.9853205680847168, -0.01513671875, 0.130859375, -0.803955078125
281, 1527187392, -4.544804573059082, -1.6045557260513306, 8.403363227844238, -0.3672861158847809, -0.6404327750205994, -0.988573431968689, -0.0126953125, 0.129638671875, -0.804443359375
282, 1527204059, -4.5575385093688965, -1.5912656784057617, 8.421432495117188, -0.47138893604278564, -0.6381019353866577, -1.088706135749817, -0.015380859375, 0.13232421875, -0.806396484375
283, 1527220726, -4.552848815917969, -1.6039842367172241, 8.403367042541504, -0.656427800655365, -0.5575756430625916, -1.1211317777633667, -0.016357421875, 0.13427734375, -0.806884765625
284, 1527237393, -4.548986434936523, -1.609734058380127, 8.409871101379395, -1.1658387184143066, -0.5235235691070557, -1.333192229270935, -0.013671875, 0.1337890625, -0.809814453125
285, 1527254060, -4.541686534881592, -1.6094707250595093, 8.40341567993164, -1.2731304168701172, -0.5622884035110474, -1.4110803604125977, -0.01220703125, 0.13427734375, -0.807861328125
286, 1527270727, -4.542989730834961, -1.6272155046463013, 8.409686088562012, -1.0831353664398193, -0.6303540468215942, -1.3394287824630737, -0.015869140625, 0.1328125, -0.805419921875
287, 1527287394, -4.546314239501953, -1.620017170906067, 8.404890060424805, -1.2808655500411987, -0.5490210056304932, -1.4209541082382202, -0.017333984375, 0.1318359375, -0.806396484375
288, 1527304061, -4.554318428039551, -1.5978537797927856, 8.434141159057617, -1.9939614534378052, -0.5255342125892639, -1.6717537641525269, -0.015869140625, 0.134765625, -0.803955078125
289, 1527320728, -4.537411689758301, -1.6638028621673584, 8.385095596313477, -2.1532087326049805, -0.5375465750694275, -1.6688212156295776, -0.015869140625, 0.13720703125, -0.806884765625
290, 1527337395, -4.532706260681152, -1.658566951751709, 8.351285934448242, -1.485229253768921, -0.7008147835731506, -1.4034351110458374, -0.015869140625, 0.134765625, -0.809326171875
291, 1527354062, -4.533395767211914, -1.649165153503418, 8.386775970458984, -0.8277255296707153, -0.756714403629303, -1.156157374382019, -0.015380859375, 0.13427734375, -0.806396484375
292, 1527370729, -4.537454128265381, -1.6428215503692627, 8.380932807922363, -0.46539559960365295, -0.8071330189704895, -1.032089352607727, -0.015869140625, 0.1328125, -0.807861328125
293, 1527387396, -4.533246040344238, -1.647760033607483, 8.41745662689209, -0.11479612439870834, -0.8235251307487488, -0.9378730058670044, -0.014892578125, 0.13232421875, -0.806884765625
294, 1527404063, -4.530744552612305, -1.6393446922302246, 8.398880958557129, 0.06770076602697372, -0.8112950325012207, -0.8666954040527344, -0.016845703125, 0.13671875, -0.805419921875
295, 1527420730, -4.52776575088501, -1.6358275413513184, 8.378811836242676, 0.17871901392936707, -0.7130447626113892, -0.819734513759613, -0.016357421875, 0.13623046875, -0.807373046875
296, 1527437397, -4.538739204406738, -1.6347452402114868, 8.409786224365234, 0.2904416024684906, -0.6941041350364685, -0.8112565875053406, -0.016845703125, 0.13427734375, -0.807373046875
297, 1527454064, -4.524240970611572, -1.6285768747329712, 8.418915748596191, 0.35218098759651184, -0.5996317267417908, -0.788282036781311, -0.015380859375, 0.13525390625, -0.807861328125
298, 1527470731, -4.532700538635254, -1.6376036405563354, 8.395669937133789, 0.31721967458724976, -0.6383453011512756, -0.6741647124290466, -0.014892578125, 0.13330078125, -0.805419921875
299, 1527487398, -4.542165279388428, -1.618725061416626, 8.414904594421387, 0.22574391961097717, -0.547548234462738, -0.764359712600708, -0.015380859375, 0.13427734375, -0.805908203125
300, 1527504065, -4.539646625518799, -1.6226946115493774, 8.385154724121094, 0.26539236307144165, -0.6595141887664795, -0.7924697399139404, -0.015380859375, 0.1337890625, -0.805908203125
301, 1527520732, -4.538109302520752, -1.6463261842727661, 8.379851341247559, 0.2732718586921692, -0.6529196500778198, -0.81125408411026, -0.014404296875, 0.13330078125, -0.807861328125
302, 1527537399, -4.538538455963135, -1.643847942352295, 8.427907943725586, 0.33891361951828003, -0.6007074117660522, -0.709843099117279, -0.014892578125, 0.13525390625, -0.807373046875
303, 1527554066, -4.54921293258667, -1.6155074834823608, 8.384608268737793, 0.1406073272228241, -0.7263889908790588, -0.7417564988136292, -0.013671875, 0.1337890625, -0.806884765625
304, 1527570733, -4.541377067565918, -1.6241815090179443, 8.41110897064209, 0.20561236143112183, -0.6118361949920654, -0.7105859518051147, -0.014892578125, 0.1328125, -0.805908203125
305, 1527587400, -4.5386247634887695, -1.6207064390182495, 8.406557083129883, 0.12853093445301056, -0.577873706817627, -0.7934173345565796, -0.015869140625, 0.1318359375, -0.802978515625
306, 1527604067, -4.539677143096924, -1.6351648569107056, 8.41417407989502, -0.005327441729605198, -0.6867148280143738, -0.8875184059143066, -0.016357421875, 0.1337890625, -0.807861328125
307, 1527620734, -4.559478759765625, -1.6176682710647583, 8.39961051940918, -0.03204149007797241, -0.5534263849258423, -0.9175620675086975, -0.014892578125, 0.13427734375, -0.809814453125
308, 1527637401, -4.53318452835083, -1.622415542602539, 8.397929191589355, -0.11142803728580475, -0.581792414188385, -0.9070993065834045, -0.013671875, 0.13330078125, -0.806884765625
309, 1527654068, -4.547868251800537, -1.6263302564620972, 8.385865211486816, -0.11418140679597855, -0.5706125497817993, -0.930611789226532, -0.014892578125, 0.134765625, -0.806396484375
310, 1527670735, -4.538795471191406, -1.619221806526184, 8.425668716430664, -0.024024710059165955, -0.523062527179718, -0.9605273604393005, -0.015869140625, 0.130859375, -0.807373046875
311, 1527687402, -4.547874927520752, -1.6293275356292725, 8.409834861755371, -0.027751358225941658, -0.5845714211463928, -0.8640187978744507, -0.016357421875, 0.1337890625, -0.806396484375
312, 1527704069, -4.535042762756348, -1.6222707033157349, 8.395498275756836, -0.15098686516284943, -0.5320782661437988, -0.8433237671852112, -0.015869140625, 0.13330078125, -0.803955078125
313, 1527720736, -4.563308238983154, -1.6135772466659546, 8.417963027954102, -0.18037740886211395, -0.5724438428878784, -0.9336468577384949, -0.015869140625, 0.1328125, -0.806396484375
314, 1527737403, -4.540436744689941, -1.6183834075927734, 8.425086975097656, -0.031951844692230225, -0.5475994944572449, -0.8600872159004211, -0.015380859375, 0.13427734375, -0.806884765625
315, 1527754070, -4.54878568649292, -1.6099904775619507, 8.41177749633789, -0.26931750774383545, -0.5817411541938782, -0.9657139182090759, -0.015380859375, 0.13427734375, -0.809814453125
316, 1527770737, -4.551681041717529, -1.6140636205673218, 8.400670051574707, -0.2704957127571106, -0.6180856227874756, -0.9075347185134888, -0.016357421875, 0.1328125, -0.804443359375
317, 1527787404, -4.545301914215088, -1.625321865081787, 8.4117431640625, -0.12404229491949081, -0.5807039141654968, -0.9354141354560852, -0.013671875, 0.13134765625, -0.803955078125
318, 1527804071, -4.557681560516357, -1.6188664436340332, 8.406453132629395, -0.2447037249803543, -0.6193405985832214, -0.9342615604400635, -0.014892578125, 0.13427734375, -0.804443359375
319, 1527820738, -4.548031330108643, -1.625378966331482, 8.409741401672363, -0.21956485509872437, -0.6217354536056519, -1.025493860244751, -0.016845703125, 0.13330078125, -0.806396484375
320, 1527837405, -4.525041580200195, -1.623846173286438, 8.399618148803711, -0.12860135734081268, -0.6610637307167053, -0.9337621331214905, -0.015869140625, 0.134765625, -0.805419921875
321, 1527854072, -4.539103984832764, -1.623510479927063, 8.411166191101074, -0.11497541517019272, -0.6119258403778076, -0.8468711376190186, -0.015869140625, 0.1337890625, -0.808349609375
322, 1527870739, -4.546454429626465, -1.6234177350997925, 8.418441772460938, -0.04624372720718384, -0.7174245119094849, -0.8838430047035217, -0.014892578125, 0.1328125, -0.803955078125
323, 1527887406, -4.557387828826904, -1.6218916177749634, 8.400178909301758, -0.05315915495157242, -0.6128990650177002, -0.8685010075569153, -0.015380859375, 0.13330078125, -0.806396484375
324, 1527904073, -4.5330491065979, -1.6360162496566772, 8.377883911132812, -0.06341703981161118, -0.6999694108963013, -0.8894648551940918, -0.016845703125, 0.13232421875, -0.805419921875
325, 1527920740, -4.5373616218566895, -1.6239581108093262, 8.384516716003418, 0.008381754159927368, -0.6353229284286499, -0.8660421967506409, -0.014892578125, 0.13232421875, -0.807861328125
326, 1527937407, -4.54038667678833, -1.6222554445266724, 8.41799545288086, -5.122539587318897E-4, -0.6959738731384277, -0.8451294302940369, -0.017822265625, 0.1328125, -0.806884765625
327, 1527954074, -4.532950401306152, -1.609983205795288, 8.405834197998047, 0.020304467529058456, -0.6538153290748596, -0.784913957118988, -0.015380859375, 0.1318359375, -0.808837890625
328, 1527970741, -4.530309200286865, -1.6103218793869019, 8.420815467834473, 0.04083304852247238, -0.6541483402252197, -0.8057370781898499, -0.014404296875, 0.13427734375, -0.803466796875
329, 1527987408, -4.533226013183594, -1.622809886932373, 8.392058372497559, 0.11321453750133514, -0.6928235292434692, -0.8380730748176575, -0.015380859375, 0.13330078125, -0.805908203125
330, 1528004075, -4.544912815093994, -1.5996897220611572, 8.406121253967285, -0.040263161063194275, -0.6905183792114258, -0.7839534878730774, -0.015869140625, 0.13330078125, -0.802978515625
331, 1528020742, -4.550677299499512, -1.6057507991790771, 8.417190551757812, -0.165522038936615, -0.6705660223960876, -0.8344489336013794, -0.01416015625, 0.1328125, -0.806884765625
332, 1528037409, -4.547000408172607, -1.6116456985473633, 8.416631698608398, -0.24517756700515747, -0.6247449517250061, -0.9689924120903015, -0.014892578125, 0.13525390625, -0.807861328125
333, 1528054076, -4.564356327056885, -1.6249847412109375, 8.378292083740234, -0.4107636511325836, -0.6322622895240784, -1.063336730003357, -0.015380859375, 0.13330078125, -0.810546875
334, 1528070743, -4.543560028076172, -1.6207515001296997, 8.38296890258789, -0.3464629650115967, -0.6663911938667297, -1.0323070287704468, -0.016357421875, 0.1318359375, -0.804443359375
335, 1528087410, -4.531339168548584, -1.6112242937088013, 8.397022247314453, -0.0917758047580719, -0.6761773824691772, -0.9349836707115173, -0.0146484375, 0.13232421875, -0.807373046875
336, 1528104077, -4.5355401039123535, -1.590424656867981, 8.40225887298584, -0.21622242033481598, -0.8154315948486328, -0.9261040687561035, -0.015380859375, 0.13232421875, -0.803955078125
337, 1528120744, -4.540657997131348, -1.626375675201416, 8.397197723388672, -0.32499954104423523, -0.7253645062446594, -1.0499029159545898, -0.01513671875, 0.13134765625, -0.808837890625
338, 1528137411, -4.581557750701904, -1.5868732929229736, 8.438197135925293, -1.000624179840088, -0.6342601776123047, -1.2246073484420776, -0.016845703125, 0.1328125, -0.807373046875
339, 1528154078, -4.602517604827881, -1.5790941715240479, 8.456948280334473, -2.0380024909973145, -0.7979124188423157, -1.7419453859329224, -0.015869140625, 0.13427734375, -0.808837890625
340, 1528170745, -4.549302577972412, -1.63080894947052, 8.416626930236816, -3.1080503463745117, -1.102204442024231, -2.1878883838653564, -0.017822265625, 0.1328125, -0.805419921875
341, 1528187412, -4.4991631507873535, -1.6282318830490112, 8.360809326171875, -2.39563250541687, -0.9726039171218872, -2.042177438735962, -0.016357421875, 0.1328125, -0.805908203125
342, 1528204079, -4.503293514251709, -1.6670888662338257, 8.412386894226074, -1.0071425437927246, -0.3161887526512146, -1.4603592157363892, -0.014892578125, 0.13427734375, -0.807373046875
343, 1528220746, -4.509255886077881, -1.670249104499817, 8.387393951416016, -1.0283499956130981, -0.56705242395401, -1.3073234558105469, -0.017333984375, 0.134765625, -0.80908203125
344, 1528237413, -4.5428242683410645, -1.6467859745025635, 8.421833992004395, -1.0238291025161743, -0.7822757959365845, -1.252729892730713, -0.015380859375, 0.13427734375, -0.807373046875
345, 1528254080, -4.577610969543457, -1.6179555654525757, 8.402002334594727, -1.358715295791626, -0.7736188173294067, -1.575001835823059, -0.015380859375, 0.13671875, -0.807861328125
346, 1528270747, -4.53384256362915, -1.6557356119155884, 8.419827461242676, -1.5726196765899658, -0.8601128458976746, -1.8174771070480347, -0.018798828125, 0.13330078125, -0.807373046875
347, 1528287414, -4.514017105102539, -1.6756908893585205, 8.399227142333984, -1.538631558418274, -0.8312985897064209, -1.650917649269104, -0.014404296875, 0.1337890625, -0.803466796875
348, 1528304081, -4.525774955749512, -1.677829623222351, 8.383760452270508, -1.2104562520980835, -0.8480877876281738, -1.5906000137329102, -0.016357421875, 0.1357421875, -0.804931640625
349, 1528320748, -4.539301872253418, -1.6699800491333008, 8.40133285522461, -1.1507656574249268, -0.9563397169113159, -1.425884485244751, -0.015380859375, 0.1376953125, -0.805908203125
350, 1528337415, -4.537021636962891, -1.678368091583252, 8.381932258605957, -0.9512812495231628, -1.0044147968292236, -1.3827784061431885, -0.016845703125, 0.138671875, -0.807373046875
351, 1528354082, -4.523053169250488, -1.6730241775512695, 8.36530876159668, -0.9699785709381104, -1.1162910461425781, -1.363389492034912, -0.016845703125, 0.1376953125, -0.804931640625
352, 1528370749, -4.51884651184082, -1.6700856685638428, 8.40687084197998, -0.9246056079864502, -1.1050597429275513, -1.2861160039901733, -0.016845703125, 0.13671875, -0.808349609375
353, 1528387416, -4.508596897125244, -1.6880342960357666, 8.382180213928223, -0.8868395686149597, -1.0964666604995728, -1.3447691202163696, -0.016845703125, 0.13671875, -0.803466796875
354, 1528404083, -4.537068843841553, -1.6934198141098022, 8.377096176147461, -0.8517630696296692, -1.1319659948349, -1.2020423412322998, -0.019287109375, 0.138671875, -0.806640625
355, 1528420750, -4.519599914550781, -1.7105077505111694, 8.394314765930176, -0.5149048566818237, -1.1373831033706665, -1.1125133037567139, -0.016357421875, 0.13818359375, -0.80859375
356, 1528437417, -4.531342029571533, -1.6735762357711792, 8.397639274597168, -0.730141282081604, -1.1928603649139404, -1.1524306535720825, -0.019287109375, 0.138671875, -0.8095703125
357, 1528454084, -4.550234794616699, -1.686330795288086, 8.416260719299316, -0.8555024266242981, -1.3403892517089844, -1.1684255599975586, -0.016845703125, 0.139892578125, -0.805908203125
358, 1528470751, -4.5117998123168945, -1.704193115234375, 8.376408576965332, -0.6843840479850769, -1.3094874620437622, -1.1565158367156982, -0.019287109375, 0.13818359375, -0.806640625
359, 1528487418, -4.501077651977539, -1.6954381465911865, 8.392350196838379, -0.11633287370204926, -1.2419342994689941, -0.8949717283248901, -0.017822265625, 0.139404296875, -0.804443359375
360, 1528504085, -4.598387241363525, -1.6685484647750854, 8.478130340576172, -0.5963661670684814, -1.2382333278656006, -1.0542317628860474, -0.016845703125, 0.13818359375, -0.805908203125
361, 1528520752, -4.642940998077393, -1.6189807653427124, 8.559394836425781, -1.8511067628860474, -1.5209590196609497, -1.9356926679611206, -0.019775390625, 0.141357421875, -0.80712890625
362, 1528537419, -4.61319637298584, -1.6640580892562866, 8.447345733642578, -1.997470498085022, -1.8478026390075684, -2.6343815326690674, -0.016845703125, 0.13720703125, -0.807373046875
363, 1528554086, -4.437572479248047, -1.673738718032837, 8.350531578063965, -2.372363805770874, -1.2458404302597046, -2.8539726734161377, -0.018798828125, 0.140869140625, -0.805908203125
364, 1528570753, -4.30689001083374, -1.656578779220581, 8.34066104888916, -2.072080373764038, 1.3928635120391846, -2.603620767593384, -0.018798828125, 0.140380859375, -0.805908203125
365, 1528587420, -4.429407119750977, -1.7302619218826294, 8.381874084472656, -2.573423147201538, 3.681729316711426, -2.1016242504119873, -0.015380859375, 0.142333984375, -0.801513671875
366, 1528604087, -4.566433429718018, -1.7296807765960693, 8.546838760375977, -4.119227409362793, 6.832592964172363, -1.8529385328292847, -0.016845703125, 0.141357421875, -0.803466796875
367, 1528620754, -4.742801666259766, -1.5279561281204224, 9.078648567199707, -7.214678764343262, 10.260176658630371, -2.189016103744507, -0.011474609375, 0.144287109375, -0.804443359375
368, 1528637421, -3.848518133163452, -1.5727230310440063, 8.606136322021484, -8.898299217224121, 18.00909996032715, -2.36094331741333, -0.007568359375, 0.14599609375, -0.804931640625
369, 1528654088, -3.1869311332702637, -1.3310673236846924, 9.202372550964355, -16.45049285888672, 37.43069076538086, 1.12221097946167, -0.00244140625, 0.14892578125, -0.8037109375
370, 1528670755, -1.1517882347106934, -3.2951810359954834, 9.583651542663574, -17.43036460876465, 79.64794158935547, 15.906966209411621, 0.014404296875, 0.150146484375, -0.800537109375
371, 1528687422, -3.853041648864746, -4.616010665893555, 10.920324325561523, 1.3169419765472412, 109.32101440429688, 25.934595108032227, 0.041259765625, 0.1513671875, -0.7978515625
372, 1528704089, -4.029078483581543, -5.758534908294678, 15.390663146972656, 33.425804138183594, 100.96601867675781, 17.63414764404297, 0.068359375, 0.14501953125, -0.795166015625
373, 1528720756, -2.2947888374328613, -6.230273246765137, 16.103757858276367, 52.11982345581055, 66.41529083251953, -6.85075044631958, 0.0888671875, 0.1357421875, -0.796875
374, 1528737423, 2.8462772369384766, -2.842660427093506, 12.414712905883789, 54.862937927246094, 45.97329330444336, -16.08399200439453, 0.10400390625, 0.122314453125, -0.79150390625
375, 1528754090, 4.309243679046631, -1.0225582122802734, 11.292466163635254, 32.144779205322266, 40.901973724365234, -7.479991912841797, 0.1201171875, 0.11669921875, -0.787109375
376, 1528770757, 4.793450832366943, -1.3680058717727661, 11.264742851257324, 22.554101943969727, 29.47273063659668, 11.01383113861084, 0.13623046875, 0.1064453125, -0.779541015625
377, 1528787424, 3.9666926860809326, -1.5912903547286987, 13.118568420410156, 13.896774291992188, 10.952507019042969, 25.907108306884766, 0.150634765625, 0.100830078125, -0.769775390625
378, 1528804091, 1.8141210079193115, -2.643770456314087, 14.793848991394043, -12.707138061523438, -28.579805374145508, 20.996519088745117, 0.15478515625, 0.1005859375, -0.76513671875
379, 1528820758, 1.1500532627105713, -3.657909870147705, 13.534616470336914, -27.54379653930664, -75.6086654663086, 3.6265785694122314, 0.153076171875, 0.10302734375, -0.76318359375
380, 1528837425, 0.7239795923233032, -3.2860500812530518, 11.644882202148438, -29.192075729370117, -105.26211547851562, -12.476016998291016, 0.14501953125, 0.111328125, -0.764404296875
381, 1528854092, -0.3848843574523926, -2.657128095626831, 11.064059257507324, -30.159250259399414, -121.50174713134766, -22.93876075744629, 0.130126953125, 0.119384765625, -0.768798828125
382, 1528870759, -1.856802225112915, -2.3066518306732178, 12.104604721069336, -30.22430419921875, -134.19326782226562, -25.378787994384766, 0.113037109375, 0.126220703125, -0.770751953125
383, 1528887426, -5.075710296630859, -2.0938572883605957, 14.902070045471191, -31.9667911529541, -166.5515899658203, -25.12605857849121, 0.087890625, 0.14013671875, -0.7783203125
384, 1528904093, -4.360817909240723, -1.2313292026519775, 12.476945877075195, -32.02995300292969, -201.78372192382812, -19.746929168701172, 0.05322265625, 0.154052734375, -0.78759765625
385, 1528920760, -4.161928176879883, -0.3214763104915619, 10.066496849060059, -35.38032913208008, -199.20523071289062, -9.627272605895996, 0.010009765625, 0.170166015625, -0.794189453125
386, 1528937427, -5.273411273956299, -0.5823173522949219, 9.8012113571167, -45.36518096923828, -185.30897521972656, -4.559850692749023, -0.031982421875, 0.18603515625, -0.802001953125
387, 1528954094, -5.963222503662109, -0.9375874400138855, 9.478116989135742, -48.87722396850586, -171.64646911621094, -3.3274760246276855, -0.07568359375, 0.203125, -0.8037109375
388, 1528970761, -6.964911937713623, -1.3446592092514038, 9.776961326599121, -47.57508087158203, -159.58677673339844, -2.2587356567382812, -0.118408203125, 0.218994140625, -0.802978515625
389, 1528987428, -7.734888076782227, -1.7363134622573853, 9.43112564086914, -42.240623474121094, -157.2713165283203, -1.5051045417785645, -0.157958984375, 0.233154296875, -0.799560546875
390, 1529004095, -6.714476585388184, -0.9786697030067444, 7.005227565765381, -39.13849639892578, -149.1947021484375, 0.985832154750824, -0.201904296875, 0.244384765625, -0.789794921875
391, 1529020762, -6.163177013397217, -0.6942504048347473, 5.269218921661377, -38.63976287841797, -122.90171813964844, 5.916438579559326, -0.235107421875, 0.255126953125, -0.783203125
392, 1529037429, -6.7219133377075195, -0.7383884191513062, 5.459521770477295, -38.45039749145508, -95.53555297851562, 8.223337173461914, -0.259765625, 0.267822265625, -0.772216796875
393, 1529054096, -7.063507080078125, -0.7380738854408264, 5.468483924865723, -37.20796585083008, -76.19139099121094, 5.832780838012695, -0.2822265625, 0.275146484375, -0.7626953125
394, 1529070763, -6.920319080352783, -0.6139728426933289, 4.806164264678955, -29.297325134277344, -58.75052261352539, 6.171403884887695, -0.2958984375, 0.28515625, -0.75244140625
395, 1529087430, -6.309362888336182, -0.20427432656288147, 4.352854251861572, -21.524511337280273, -39.32119369506836, 10.84328842163086, -0.307861328125, 0.29150390625, -0.74609375
396, 1529104097, -5.640313148498535, -0.18334437906742096, 4.493255615234375, -19.324663162231445, -21.52728843688965, 15.79297161102295, -0.31103515625, 0.297607421875, -0.742431640625
397, 1529120764, -5.143677234649658, -0.3778640031814575, 4.807599067687988, -17.65373992919922, -5.47097635269165, 20.980806350708008, -0.314697265625, 0.304443359375, -0.741455078125
398, 1529137431, -5.01122522354126, -1.0250370502471924, 5.171385288238525, -14.348209381103516, 9.023162841796875, 27.075237274169922, -0.310302734375, 0.31005859375, -0.7392578125
399, 1529154098, -5.094939231872559, -2.5520896911621094, 5.195413112640381, -8.16071605682373, 24.038066864013672, 32.93523025512695, -0.305908203125, 0.313720703125, -0.73974609375
400, 1529170765, -5.239491939544678, -3.633582353591919, 5.172234535217285, -6.5824809074401855, 38.2924919128418, 29.678264617919922, -0.296875, 0.31689453125, -0.74072265625
401, 1529187432, -5.633424758911133, -5.76535701751709, 3.8755688667297363, 0.37850257754325867, 56.86503601074219, 11.833765029907227, -0.281982421875, 0.320556640625, -0.746337890625
402, 1529204099, -3.433779716491699, -4.89981746673584, 3.0227580070495605, 100.94468688964844, 102.12781524658203, 27.818973541259766, -0.26123046875, 0.3076171875, -0.760986328125
403, 1529220766, 2.507897138595581, -0.8263428807258606, 13.902926445007324, 34.62213134765625, 122.98265075683594, -2.6683177947998047, -0.235595703125, 0.292236328125, -0.775390625
404, 1529237433, 1.4669017791748047, -3.6873538494110107, 11.056380271911621, -3.162992238998413, 156.24388122558594, -0.22442497313022614, -0.201416015625, 0.296630859375, -0.783203125
405, 1529254100, -4.089658737182617, 7.041780948638916, 9.560798645019531, 2.404024600982666, 170.9989013671875, 26.64250946044922, -0.159423828125, 0.29541015625, -0.79443359375
406, 1529270767, -6.323122501373291, 2.8871328830718994, 12.996626853942871, -19.120697021484375, 166.33135986328125, 48.06940841674805, -0.1181640625, 0.2998046875, -0.797119140625
407, 1529287434, -8.910283088684082, -6.8481125831604, 11.465123176574707, -21.297550201416016, 144.2451629638672, 38.111026763916016, -0.077880859375, 0.3056640625, -0.80078125
408, 1529304101, -7.417076587677002, -5.822677135467529, 10.581283569335938, -11.732865333557129, 126.04154968261719, 23.66972541809082, -0.04541015625, 0.310546875, -0.80322265625
409, 1529320768, -6.717287540435791, -1.9553718566894531, 10.833113670349121, -8.348705291748047, 97.51021575927734, 22.309114456176758, -0.01806640625, 0.314453125, -0.80517578125
410, 1529337435, -5.87897253036499, -4.0715718269348145, 8.939340591430664, -8.482294082641602, 78.69025421142578, 21.241607666015625, 0.00341796875, 0.316650390625, -0.805419921875
411, 1529354102, -6.503612995147705, -5.509524822235107, 9.369890213012695, -1.2387179136276245, 71.82221221923828, 17.035736083984375, 0.022216796875, 0.316162109375, -0.805908203125
412, 1529370769, -7.124603748321533, -2.065584659576416, 10.40698528289795, 25.649436950683594, 44.72747039794922, 25.312610626220703, 0.035888671875, 0.310302734375, -0.8056640625
413, 1529387436, -5.025722980499268, -2.5833725929260254, 8.946701049804688, 23.359153747558594, 33.394222259521484, 17.431245803833008, 0.04833984375, 0.304931640625, -0.810791015625
414, 1529404103, -4.819543361663818, -2.3536808490753174, 8.963881492614746, 19.618139266967773, 33.20022201538086, 11.338479995727539, 0.055419921875, 0.29931640625, -0.809326171875
415, 1529420770, -4.616321563720703, -1.2085151672363281, 9.294506072998047, 13.701498985290527, 25.870874404907227, 5.896811008453369, 0.06298828125, 0.29638671875, -0.8115234375
416, 1529437437, -4.856935977935791, -2.8232169151306152, 8.58421802520752, 12.250138282775879, 21.46314811706543, 3.6210479736328125, 0.069580078125, 0.294921875, -0.814453125
417, 1529454104, -4.353389739990234, -2.1680052280426025, 8.493151664733887, 15.003096580505371, 17.297908782958984, 4.440667629241943, 0.075927734375, 0.29296875, -0.814697265625
418, 1529470771, -4.165443420410156, -2.490010976791382, 8.286419868469238, 14.748172760009766, 16.918210983276367, 5.151485443115234, 0.07958984375, 0.284423828125, -0.8125
419, 1529487438, -4.774739742279053, -2.6969082355499268, 8.308268547058105, 16.368894577026367, 14.903153419494629, 6.7662529945373535, 0.082275390625, 0.281494140625, -0.81494140625
420, 1529504105, -4.589202404022217, -2.360565423965454, 8.257997512817383, 20.880586624145508, 10.07681941986084, 9.410236358642578, 0.085693359375, 0.277099609375, -0.81591796875
421, 1529520772, -4.445581912994385, -2.034726142883301, 8.373218536376953, 21.127199172973633, 7.630955696105957, 10.282157897949219, 0.0888671875, 0.2724609375, -0.81689453125
422, 1529537439, -4.510183334350586, -2.098140001296997, 8.342378616333008, 21.334888458251953, 5.7120208740234375, 10.360760688781738, 0.091796875, 0.26708984375, -0.82080078125
423, 1529554106, -4.332644462585449, -2.513090133666992, 8.33917236328125, 15.664533615112305, 1.1405795812606812, 10.167363166809082, 0.094482421875, 0.26611328125, -0.8203125
424, 1529570773, -4.851661205291748, -2.1455063819885254, 8.264317512512207, 21.912336349487305, -6.573976039886475, 13.298280715942383, 0.095458984375, 0.257568359375, -0.821044921875
425, 1529587440, -4.883967399597168, -2.255256414413452, 8.438163757324219, 26.474082946777344, -15.457304000854492, 15.674558639526367, 0.0927734375, 0.2490234375, -0.822509765625
426, 1529604107, -5.02866268157959, -1.8982259035110474, 8.464927673339844, 26.90241241455078, -17.351245880126953, 16.237760543823242, 0.08984375, 0.244384765625, -0.82568359375
427, 1529620774, -4.872107982635498, -1.1153302192687988, 8.614991188049316, 18.073144912719727, -10.520437240600586, 11.355880737304688, 0.08740234375, 0.239990234375, -0.830810546875
428, 1529637441, -4.528245449066162, -1.4194316864013672, 8.58381462097168, 7.416895866394043, -2.4613940715789795, 4.509392738342285, 0.08740234375, 0.23583984375, -0.831298828125
429, 1529654108, -4.306998252868652, -1.6785333156585693, 8.429513931274414, 3.2815186977386475, 1.2239094972610474, 2.952420949935913, 0.08642578125, 0.2333984375, -0.83056640625
430, 1529670775, -4.232350826263428, -1.8562148809432983, 8.444108963012695, 3.1491527557373047, 4.154988765716553, 4.562474727630615, 0.0908203125, 0.234375, -0.830078125
431, 1529687442, -4.564746379852295, -1.6503247022628784, 8.412934303283691, 0.6379549503326416, 8.738178253173828, 6.077171802520752, 0.091552734375, 0.232421875, -0.83056640625
432, 1529704109, -4.574974060058594, -1.6375501155853271, 8.432548522949219, -0.765410304069519, 11.573572158813477, 6.087328910827637, 0.093017578125, 0.23095703125, -0.828125
433, 1529720776, -4.69105863571167, -1.6932406425476074, 8.330687522888184, -1.673150897026062, 14.02647876739502, 5.627658843994141, 0.097412109375, 0.234375, -0.83056640625
434, 1529737443, -4.379986763000488, -2.0884206295013428, 8.264324188232422, -2.994691848754883, 17.473037719726562, 7.729006290435791, 0.1044921875, 0.234130859375, -0.833251953125
435, 1529754110, -4.40873384475708, -1.9200693368911743, 8.42432975769043, -2.8441319465637207, 26.55667495727539, 11.384744644165039, 0.1103515625, 0.236572265625, -0.831787109375
436, 1529770777, -4.458133697509766, -1.3034131526947021, 8.614583969116211, -3.706508159637451, 42.55704879760742, 12.704026222229004, 0.122314453125, 0.233642578125, -0.826904296875
437, 1529787444, -4.184056758880615, -1.2209138870239258, 8.539101600646973, -14.267534255981445, 71.11100006103516, 14.327844619750977, 0.13623046875, 0.2353515625, -0.8232421875
438, 1529804111, -4.489646911621094, -1.2202619314193726, 8.296005249023438, -13.755730628967285, 99.12193298339844, 13.371864318847656, 0.1591796875, 0.239990234375, -0.818115234375
439, 1529820778, -4.63851261138916, -1.912671685218811, 8.129467010498047, -14.748921394348145, 129.67474365234375, 15.85091781616211, 0.18701171875, 0.24462890625, -0.811767578125
440, 1529837445, -5.114526748657227, -1.9264785051345825, 8.134305953979492, -10.926156044006348, 158.83145141601562, 22.72618865966797, 0.223388671875, 0.242919921875, -0.802001953125
441, 1529854112, -5.293872356414795, -1.7248635292053223, 8.144979476928711, -1.8289144039154053, 187.2162628173828, 30.385398864746094, 0.270263671875, 0.239990234375, -0.788330078125
442, 1529870779, -5.176706314086914, -1.4564999341964722, 8.296905517578125, 4.206777095794678, 224.5362548828125, 37.03596115112305, 0.318603515625, 0.23681640625, -0.767822265625
443, 1529887446, -5.250245571136475, -1.4627224206924438, 7.863544940948486, 9.489029884338379, 276.79095458984375, 48.120201110839844, 0.380126953125, 0.228271484375, -0.743408203125
444, 1529904113, -5.757229804992676, -1.5732249021530151, 7.683056831359863, 19.90424156188965, 345.1190490722656, 61.524513244628906, 0.45166015625, 0.2177734375, -0.704345703125
445, 1529920780, -6.39957857131958, -2.374812364578247, 8.56938648223877, 35.54804992675781, 437.4159240722656, 73.1610336303711, 0.53759765625, 0.20166015625, -0.645263671875
446, 1529937447, -10.744049072265625, -2.367262840270996, 10.543485641479492, 34.135467529296875, 509.6660461425781, 94.64874267578125, 0.628173828125, 0.18212890625, -0.56298828125
447, 1529954114, -19.948802947998047, -1.4328111410140991, 12.677801132202148, 13.579057693481445, 499.0404052734375, 102.08927154541016, 0.710205078125, 0.154052734375, -0.461181640625
448, 1529970781, -19.74077796936035, -5.602499485015869, 10.68258285522461, 21.603418350219727, 454.5936279296875, 105.69609832763672, 0.767822265625, 0.130126953125, -0.3583984375
449, 1529987448, -15.761043548583984, -5.154211521148682, 12.798876762390137, 44.094810485839844, 411.0374450683594, 116.20526123046875, 0.8056640625, 0.09716796875, -0.26171875
450, 1530004115, -7.853793621063232, -5.106307506561279, 15.877145767211914, 46.233123779296875, 339.3855285644531, 106.12126159667969, 0.825439453125, 0.06591796875, -0.173095703125
451, 1530020782, -17.105098724365234, -3.7499403953552246, 20.776817321777344, 40.01462173461914, 192.3187255859375, 104.04215240478516, 0.83349609375, 0.03857421875, -0.11865234375
452, 1530037449, -20.932981491088867, -2.066227674484253, 27.224945068359375, -13.025696754455566, 15.20350456237793, 56.79528045654297, 0.830322265625, 0.015869140625, -0.093994140625
453, 1530054116, -5.383268356323242, -5.513859748840332, 16.377958297729492, -50.21920394897461, -184.99465942382812, -35.57588577270508, 0.819091796875, 0.02197265625, -0.1171875
454, 1530070783, 1.7133007049560547, -3.9167871475219727, 6.281346797943115, -4.701125144958496, -208.1858367919922, -13.40296745300293, 0.811767578125, 0.02197265625, -0.146484375
455, 1530087450, 0.9190019965171814, -2.2078471183776855, 5.075847148895264, 46.78110885620117, -186.61668395996094, 21.245141983032227, 0.81298828125, 0.013427734375, -0.16943359375
456, 1530104117, -2.9997215270996094, -2.048802137374878, 8.471160888671875, 56.29758834838867, -209.36102294921875, 22.6624755859375, 0.82861328125, -4.8828125E-4, -0.19873046875
457, 1530120784, -4.796030044555664, -2.3827672004699707, 9.18919563293457, 36.77888870239258, -265.9167785644531, -2.1261892318725586, 0.852294921875, -0.01171875, -0.25830078125
458, 1530137451, -5.179671287536621, -3.089679718017578, 7.642796516418457, 14.844193458557129, -307.68060302734375, -32.38850402832031, 0.870361328125, -0.012939453125, -0.359375
459, 1530154118, -6.933027744293213, -2.6575443744659424, 7.103891372680664, 4.6057209968566895, -331.3878173828125, -54.749141693115234, 0.845458984375, -0.007080078125, -0.493896484375
460, 1530170785, -8.08841323852539, -1.9992923736572266, 6.551900863647461, -12.993271827697754, -351.6884460449219, -66.97804260253906, 0.7685546875, -0.00146484375, -0.62109375
461, 1530187452, -8.396673202514648, -1.841671347618103, 6.405342102050781, -20.147634506225586, -356.7608947753906, -66.3503189086914, 0.6591796875, 0.01416015625, -0.713134765625
462, 1530204119, -9.930427551269531, -1.8945577144622803, 7.783944129943848, -29.112049102783203, -363.35906982421875, -59.66179275512695, 0.556640625, 0.04052734375, -0.759033203125
463, 1530220786, -12.135034561157227, -1.8691471815109253, 8.709980010986328, -53.34646224975586, -374.4533996582031, -57.56855010986328, 0.476806640625, 0.07421875, -0.787109375
464, 1530237453, -12.19267749786377, -0.8438684344291687, 7.310044288635254, -94.50983428955078, -362.2147216796875, -72.18901062011719, 0.413818359375, 0.112060546875, -0.829833984375
465, 1530254120, -12.965873718261719, -0.2212044894695282, 6.7654266357421875, -120.78449249267578, -310.848388671875, -76.05865478515625, 0.33447265625, 0.15966796875, -0.891845703125
466, 1530270787, -16.423015594482422, -1.4348360300064087, 11.487272262573242, -117.47127532958984, -278.20111083984375, -60.723388671875, 0.22509765625, 0.205078125, -0.926025390625
467, 1530287454, -20.031110763549805, -1.727666974067688, 13.490185737609863, -106.68681335449219, -300.01226806640625, -59.059513092041016, 0.100341796875, 0.237060546875, -0.917236328125
468, 1530304121, -19.73469352722168, 0.026778504252433777, 10.29864501953125, -92.14836120605469, -310.12548828125, -67.48759460449219, -0.006591796875, 0.25830078125, -0.886962890625
469, 1530320788, -21.16634178161621, 0.9529411792755127, 8.022247314453125, -80.07453918457031, -295.5180358886719, -68.3055648803711, -0.09228515625, 0.27294921875, -0.856689453125
470, 1530337455, -21.311023712158203, 0.7037082314491272, 4.395867824554443, -65.1395492553711, -271.7756652832031, -65.56407165527344, -0.16162109375, 0.281005859375, -0.823974609375
471, 1530354122, -21.083782196044922, 1.2117743492126465, 0.4337223768234253, -55.466861724853516, -227.96533203125, -70.24230194091797, -0.220703125, 0.287841796875, -0.795166015625
472, 1530370789, -21.285537719726562, 2.2529544830322266, -2.610736608505249, -48.84976577758789, -170.92245483398438, -86.29337310791016, -0.263427734375, 0.28857421875, -0.7705078125
473, 1530387456, -21.739171981811523, 5.177487373352051, -6.390986442565918, -41.144630432128906, -108.77140808105469, -89.2315902709961, -0.29638671875, 0.28515625, -0.75439453125
474, 1530404123, -20.57497787475586, 6.192478656768799, -9.105561256408691, -36.02198028564453, -35.259033203125, -71.44844818115234, -0.312744140625, 0.281494140625, -0.74072265625
475, 1530420790, -21.295438766479492, 4.418593406677246, -6.8520894050598145, -17.10993003845215, 35.298118591308594, -62.22611999511719, -0.3134765625, 0.283447265625, -0.73828125
476, 1530437457, -7.269338607788086, 5.219868183135986, 0.7933179140090942, 62.167930603027344, 107.99703216552734, 5.883630275726318, -0.296142578125, 0.26806640625, -0.748291015625
477, 1530454124, 9.6351900100708, -4.964364528656006, 19.9051456451416, -29.312528610229492, 148.8218994140625, 6.754443645477295, -0.266845703125, 0.271240234375, -0.75537109375
478, 1530470791, -3.9749815464019775, 0.25053542852401733, 4.969806671142578, -11.014166831970215, 215.27024841308594, 55.72507095336914, -0.220947265625, 0.2763671875, -0.761474609375
479, 1530487458, -11.495386123657227, 4.617108345031738, 14.229094505310059, -43.15992736816406, 226.47702026367188, 40.78608703613281, -0.165283203125, 0.28369140625, -0.767333984375
480, 1530504125, -10.689054489135742, -5.510107517242432, 11.877615928649902, -58.57857894897461, 180.44122314453125, 31.62472152709961, -0.12158203125, 0.294677734375, -0.7685546875
481, 1530520792, -9.054902076721191, -9.13464641571045, 9.24754810333252, -45.798004150390625, 167.09896850585938, 17.264068603515625, -0.082275390625, 0.30712890625, -0.769287109375
482, 1530537459, -12.104594230651855, -7.408268451690674, 10.753442764282227, 39.73167037963867, 109.87811279296875, 45.018795013427734, -0.05029296875, 0.304443359375, -0.773681640625
483, 1530554126, -6.399224281311035, -0.5665850043296814, 10.550673484802246, 49.14512634277344, 75.31903076171875, 23.81637954711914, -0.0302734375, 0.291015625, -0.776123046875
484, 1530570793, -5.181244850158691, -2.0719289779663086, 9.808673858642578, 42.24443435668945, 52.00774002075195, 12.102126121520996, -0.0146484375, 0.279052734375, -0.78125
485, 1530587460, -6.367325305938721, -1.9409210681915283, 10.358475685119629, 22.188793182373047, 29.856170654296875, 6.01243782043457, -0.008544921875, 0.275146484375, -0.783203125
486, 1530604127, -4.967313289642334, -2.790996551513672, 8.620214462280273, 13.73568344116211, 15.106706619262695, 5.642172813415527, -0.001953125, 0.269775390625, -0.782958984375
487, 1530620794, -5.573154926300049, -2.133819580078125, 8.944754600524902, 6.819889545440674, 7.284298419952393, 3.432237386703491, 0.00146484375, 0.268310546875, -0.784912109375
488, 1530637461, -5.062735557556152, -2.2130305767059326, 8.532875061035156, -0.9469529390335083, 3.7932093143463135, -0.7383630871772766, 0.001708984375, 0.26708984375, -0.782470703125
489, 1530654128, -4.648201942443848, -2.4824564456939697, 8.221612930297852, -2.1797688007354736, 6.450104236602783, -2.307537794113159, 0.002197265625, 0.267822265625, -0.782958984375
490, 1530670795, -4.774189472198486, -3.0288991928100586, 8.0718412399292, -1.6694488525390625, 8.706008911132812, -2.3746819496154785, 0.005126953125, 0.267333984375, -0.783447265625
491, 1530687462, -4.818819999694824, -2.9308574199676514, 7.906792640686035, -1.4280107021331787, 8.005474090576172, -0.05312074348330498, 0.006591796875, 0.266845703125, -0.78125
492, 1530704129, -4.900895118713379, -2.8073041439056396, 7.809455394744873, 0.543136477470398, 3.9128198623657227, 1.6822996139526367, 0.008056640625, 0.26611328125, -0.78271484375
493, 1530720796, -4.593837738037109, -2.8890790939331055, 7.695639133453369, 7.115167140960693, -2.3562541007995605, 6.295072555541992, 0.008544921875, 0.267822265625, -0.78271484375
494, 1530737463, -4.04789924621582, -2.9346425533294678, 7.4369425773620605, 18.031301498413086, -11.221360206604004, 15.148649215698242, 0.008056640625, 0.263671875, -0.788330078125
495, 1530754130, -3.80413818359375, -3.2762389183044434, 6.908819675445557, 44.47883605957031, -18.161590576171875, 29.867229461669922, 0.00390625, 0.254638671875, -0.786376953125
496, 1530770797, -4.820865154266357, -2.94856333732605, 7.883477210998535, 53.75758743286133, -27.500328063964844, 38.74990463256836, 0.0029296875, 0.241455078125, -0.789306640625
497, 1530787464, -5.338496685028076, -2.4963314533233643, 8.550082206726074, 44.65532684326172, -31.707162857055664, 35.26399230957031, -0.00146484375, 0.2314453125, -0.792236328125
498, 1530804131, -5.374103546142578, -1.1232064962387085, 9.22668743133545, 46.30280303955078, -35.81144332885742, 29.397192001342773, -0.008544921875, 0.2197265625, -0.79541015625
499, 1530820798, -4.750575542449951, -0.8643263578414917, 8.756047248840332, 29.426145553588867, -21.677536010742188, 16.810611724853516, -0.011962890625, 0.21337890625, -0.796875
500, 1530837465, -4.50628662109375, -1.256266474723816, 8.699158668518066, 14.938554763793945, -5.7978644371032715, 7.433115005493164, -0.014892578125, 0.206787109375, -0.79736328125
501, 1530854132, -4.217287063598633, -1.8465081453323364, 8.51913070678711, 9.563908576965332, 2.3485002517700195, 4.793578624725342, -0.014892578125, 0.203125, -0.798828125
502, 1530870799, -4.286999225616455, -1.9463165998458862, 8.415610313415527, 7.60475492477417, 6.923661231994629, 6.8053178787231445, -0.012451171875, 0.20263671875, -0.7998046875
503, 1530887466, -4.2690348625183105, -2.030442714691162, 8.379810333251953, 8.663620948791504, 10.294864654541016, 10.282158851623535, -0.00732421875, 0.20166015625, -0.798583984375
504, 1530904133, -4.43476676940918, -1.611608862876892, 8.429952621459961, 5.775332450866699, 15.390878677368164, 11.691437721252441, -0.00244140625, 0.19873046875, -0.802001953125
505, 1530920800, -4.384525299072266, -1.515736699104309, 8.565694808959961, 1.1426056623458862, 28.550270080566406, 9.76933765411377, 0.002197265625, 0.19921875, -0.801025390625
506, 1530937467, -4.082200050354004, -1.532665491104126, 8.71431827545166, 3.37090802192688, 46.6269416809082, 10.628336906433105, 0.01220703125, 0.198974609375, -0.802734375
507, 1530954134, -4.006350517272949, -1.5165619850158691, 8.60077953338623, -6.365428447723389, 75.49040985107422, 16.780765533447266, 0.029052734375, 0.197509765625, -0.801513671875
508, 1530970801, -4.593326568603516, -1.007712721824646, 8.493863105773926, -11.859094619750977, 105.0915756225586, 17.37877082824707, 0.049560546875, 0.19873046875, -0.798095703125
509, 1530987468, -4.725741863250732, -1.5448074340820312, 8.209503173828125, -14.94502067565918, 136.8363800048828, 15.527639389038086, 0.081787109375, 0.201416015625, -0.79296875
510, 1531004135, -4.887805938720703, -1.6864123344421387, 8.09411334991455, -12.434588432312012, 168.9974822998047, 18.426467895507812, 0.119384765625, 0.201904296875, -0.78515625
511, 1531020802, -4.901081562042236, -1.824096441268921, 8.304194450378418, -8.266268730163574, 205.1013641357422, 23.227928161621094, 0.16650390625, 0.205810546875, -0.778076171875
512, 1531037469, -4.84753942489624, -1.7634745836257935, 8.583663940429688, -1.218614935874939, 248.342041015625, 34.847171783447266, 0.219482421875, 0.2041015625, -0.76611328125
513, 1531054136, -5.410245895385742, -1.5854816436767578, 7.599853515625, 8.877553939819336, 306.5425720214844, 56.51923751831055, 0.285888671875, 0.19677734375, -0.739501953125
514, 1531070803, -5.477746486663818, -2.679983615875244, 8.564866065979004, 26.92291259765625, 388.54833984375, 83.0398941040039, 0.365966796875, 0.184814453125, -0.70361328125
515, 1531087470, -7.801451206207275, -3.125345468521118, 10.496345520019531, 43.679935455322266, 479.5512390136719, 111.13610076904297, 0.45947265625, 0.16064453125, -0.64453125
516, 1531104137, -16.590604782104492, -2.0434176921844482, 12.618144035339355, 35.198368072509766, 504.7700500488281, 127.12039184570312, 0.555419921875, 0.13330078125, -0.568115234375
517, 1531120804, -19.81235694885254, -2.22817063331604, 12.256065368652344, 24.659414291381836, 461.7579040527344, 118.1624755859375, 0.63671875, 0.107177734375, -0.48388671875
518, 1531137471, -14.784622192382812, -4.15546989440918, 11.512641906738281, 33.180389404296875, 439.5499572753906, 112.46070861816406, 0.69775390625, 0.079833984375, -0.394775390625
519, 1531154138, -9.827513694763184, -3.498117685317993, 12.951416015625, 35.43684387207031, 401.39776611328125, 112.1241455078125, 0.744140625, 0.04931640625, -0.30322265625
520, 1531170805, -6.167593955993652, 1.391136884689331, 18.46405601501465, -14.694454193115234, 294.667724609375, 99.38362121582031, 0.769287109375, 0.024658203125, -0.22412109375
521, 1531187472, -29.695646286010742, 2.6999051570892334, 26.842063903808594, -140.5018310546875, 109.83473205566406, 110.07234191894531, 0.77783203125, 0.0, -0.1826171875
522, 1531204139, -12.707622528076172, -7.346664905548096, 21.41473960876465, -203.44039916992188, -140.85179138183594, 12.87765884399414, 0.774169921875, -4.8828125E-4, -0.1943359375
523, 1531220806, -0.6683380007743835, -8.98009204864502, 7.714530944824219, -102.32499694824219, -228.2444610595703, 21.96600914001465, 0.7607421875, -0.0029296875, -0.233154296875
524, 1531237473, 0.41351643204689026, -6.3133544921875, 3.6986160278320312, 24.417171478271484, -194.86447143554688, 43.81612777709961, 0.750244140625, -0.01806640625, -0.27099609375
525, 1531254140, -1.502357840538025, -5.579395771026611, 6.519140243530273, 76.20724487304688, -182.71705627441406, 7.5177202224731445, 0.740478515625, -0.038330078125, -0.299560546875
526, 1531270807, -5.954740047454834, -5.00093936920166, 10.082514762878418, 74.71746063232422, -224.9484100341797, -41.4434814453125, 0.735595703125, -0.04638671875, -0.33935546875
527, 1531287474, -6.060841083526611, -4.262576103210449, 9.434685707092285, 54.30074691772461, -291.7091979980469, -91.37972259521484, 0.72607421875, -0.03564453125, -0.40087890625
528, 1531304141, -5.059613227844238, -3.465015411376953, 6.597492694854736, 58.47943878173828, -326.488525390625, -102.377685546875, 0.700927734375, -0.0185546875, -0.483154296875
529, 1531320808, -5.434956073760986, -1.027116298675537, 5.493134021759033, 49.509403228759766, -333.5840148925781, -97.97677612304688, 0.646728515625, 0.003662109375, -0.5732421875
530, 1531337475, -6.383563041687012, 0.17985615134239197, 6.339192867279053, 8.529233932495117, -328.0147705078125, -93.95011138916016, 0.55517578125, 0.024658203125, -0.646484375
531, 1531354142, -7.940323829650879, -0.8453347682952881, 8.175566673278809, -39.25224304199219, -331.24029541015625, -94.82176208496094, 0.44677734375, 0.047119140625, -0.68505859375
532, 1531370809, -10.49501895904541, -2.997891426086426, 8.767141342163086, -54.731319427490234, -352.6204833984375, -100.501220703125, 0.3388671875, 0.0556640625, -0.684326171875
533, 1531387476, -11.636881828308105, -2.3432514667510986, 8.249832153320312, -64.44511413574219, -358.44744873046875, -112.94654083251953, 0.257080078125, 0.052490234375, -0.6689453125
534, 1531404143, -11.957743644714355, 2.0102009773254395, 7.945305347442627, -92.85263061523438, -334.4617919921875, -106.952880859375, 0.205322265625, 0.0458984375, -0.643310546875
535, 1531420810, -14.916706085205078, 0.9537014961242676, 8.859265327453613, -118.39090728759766, -304.9886779785156, -74.63907623291016, 0.201416015625, 0.039794921875, -0.611572265625
536, 1531437477, -18.584089279174805, -2.6469151973724365, 12.261224746704102, -106.52345275878906, -297.4818115234375, -52.93354797363281, 0.255859375, 0.0390625, -0.615478515625
537, 1531454144, -19.949338912963867, -0.9127644300460815, 12.197751998901367, -95.95159912109375, -308.1553039550781, -64.2685775756836, 0.317138671875, 0.069580078125, -0.698486328125
538, 1531470811, -21.1520938873291, 1.4951331615447998, 9.023818016052246, -98.0403823852539, -302.2530517578125, -67.85823059082031, 0.307861328125, 0.141845703125, -0.8291015625
539, 1531487478, -22.84344482421875, 1.1492514610290527, 5.926029682159424, -79.88483428955078, -283.1011962890625, -65.11833190917969, 0.22021484375, 0.22265625, -0.92919921875
540, 1531504145, -22.285640716552734, 0.6959103941917419, 2.480358839035034, -42.54936218261719, -254.94522094726562, -65.4027328491211, 0.09130859375, 0.282958984375, -0.969482421875
541, 1531520812, -19.984375, 2.1854803562164307, -2.262451410293579, -17.382871627807617, -204.73330688476562, -74.26754760742188, -0.0205078125, 0.313232421875, -0.976318359375
542, 1531537479, -20.311443328857422, 4.7313714027404785, -5.320003986358643, -1.7967674732208252, -134.9752960205078, -75.8014907836914, -0.1005859375, 0.3310546875, -0.962646484375
543, 1531554146, -20.711591720581055, 6.664608955383301, -6.817245960235596, 11.257645606994629, -61.4017333984375, -59.452274322509766, -0.14892578125, 0.3408203125, -0.95703125
544, 1531570813, -20.863637924194336, 7.430260181427002, -6.345138072967529, 28.43576431274414, 3.1932075023651123, -52.791717529296875, -0.17041015625, 0.339111328125, -0.9580078125
545, 1531587480, -10.07160758972168, 10.610506057739258, -6.486761569976807, 45.767906188964844, 108.69244384765625, 24.104154586791992, -0.154296875, 0.334228515625, -0.97021484375
546, 1531604147, 4.131006240844727, -2.389106512069702, 18.936368942260742, -10.403850555419922, 146.1600799560547, 50.77255630493164, -0.11767578125, 0.343994140625, -0.986572265625
547, 1531620814, -5.296426773071289, -14.60546875, 10.512496948242188, -64.45024108886719, 186.93710327148438, 20.21636390686035, -0.070068359375, 0.37255859375, -0.989013671875
548, 1531637481, -11.86003303527832, 4.345096111297607, 12.537651062011719, -49.96784591674805, 182.1575164794922, 29.77141571044922, -0.017578125, 0.396240234375, -0.988525390625
549, 1531654148, -8.167736053466797, -0.09937325119972229, 11.992209434509277, -40.53356170654297, 148.27505493164062, 30.946453094482422, 0.0263671875, 0.419677734375, -0.98779296875
550, 1531670815, -6.528604507446289, -7.178961753845215, 8.791482925415039, -56.79362106323242, 154.51307678222656, 8.790806770324707, 0.06640625, 0.440673828125, -0.97900390625
551, 1531687482, -6.915446758270264, -2.15811824798584, 10.711426734924316, -53.70447540283203, 146.2959442138672, 3.5971314907073975, 0.1083984375, 0.463134765625, -0.972900390625
552, 1531704149, -11.665443420410156, -7.2697319984436035, 11.914677619934082, 12.183366775512695, 87.33119201660156, 18.48973846435547, 0.138916015625, 0.466552734375, -0.9697265625
553, 1531720816, -4.658636093139648, -1.311869740486145, 9.891705513000488, 21.421171188354492, 56.61102294921875, 4.618407726287842, 0.15625, 0.460693359375, -0.969970703125
554, 1531737483, -5.000201225280762, -2.4919674396514893, 9.704904556274414, -0.02415287494659424, 32.68486404418945, -8.401703834533691, 0.166748046875, 0.4638671875, -0.97216796875
555, 1531754150, -5.393545627593994, -3.7269210815429688, 8.614214897155762, -0.8563235402107239, 21.27265739440918, -4.808036804199219, 0.170166015625, 0.46630859375, -0.97021484375
556, 1531770817, -4.829106330871582, -3.295478343963623, 7.988170146942139, 4.015632152557373, 11.19851303100586, 0.3196146488189697, 0.17431640625, 0.46240234375, -0.968505859375
557, 1531787484, -4.790381908416748, -2.7497386932373047, 8.3508939743042, 3.458988904953003, 7.008051872253418, 1.7383662462234497, 0.17578125, 0.46337890625, -0.968505859375
558, 1531804151, -4.5205183029174805, -2.7527945041656494, 8.42516040802002, 3.3535807132720947, 8.223286628723145, 2.4813272953033447, 0.18017578125, 0.4609375, -0.968994140625
559, 1531820818, -4.765859603881836, -2.4280149936676025, 9.083301544189453, -0.8369333744049072, 6.039724349975586, -0.8918342590332031, 0.183349609375, 0.4619140625, -0.968994140625
560, 1531837485, -4.577291488647461, -2.812990427017212, 8.351067543029785, -3.397090196609497, 4.568429946899414, -4.17134952545166, 0.183349609375, 0.4619140625, -0.96826171875
561, 1531854152, -4.726287841796875, -3.034076690673828, 8.165777206420898, -3.77763032913208, 4.0856170654296875, -5.173305034637451, 0.18359375, 0.4658203125, -0.967529296875
562, 1531870819, -4.474106788635254, -3.2302873134613037, 7.698513031005859, -3.037883996963501, 1.7812801599502563, -4.557960033416748, 0.184814453125, 0.46533203125, -0.9658203125
563, 1531887486, -4.207266330718994, -3.3143789768218994, 7.570146560668945, 1.1102656126022339, 3.069650173187256, -0.10661286860704422, 0.185791015625, 0.46484375, -0.96630859375
564, 1531904153, -3.436476945877075, -3.7055444717407227, 6.393728256225586, 11.993853569030762, 3.664776563644409, 9.625432968139648, 0.186767578125, 0.46435546875, -0.966796875
565, 1531920820, -3.8607912063598633, -3.4162840843200684, 6.591705799102783, 34.516944885253906, 8.969300270080566, 25.072254180908203, 0.18798828125, 0.455322265625, -0.97216796875
566, 1531937487, -4.364157199859619, -3.0946102142333984, 7.406394004821777, 59.004188537597656, 4.98369836807251, 39.079891204833984, 0.197021484375, 0.4384765625, -0.9765625
567, 1531954154, -4.382344722747803, -2.531369686126709, 7.7647223472595215, 71.33390808105469, -9.329522132873535, 45.589813232421875, 0.201416015625, 0.418212890625, -0.98876953125
568, 1531970821, -4.743585586547852, -2.2509260177612305, 8.945757865905762, 71.57062530517578, -12.843396186828613, 47.687950134277344, 0.201904296875, 0.394287109375, -0.99853515625
569, 1531987488, -5.085135459899902, -2.4043374061584473, 9.479254722595215, 47.39933395385742, -18.558025360107422, 38.214508056640625, 0.201171875, 0.377197265625, -1.006591796875
570, 1532004155, -4.810922622680664, -1.3918352127075195, 9.138252258300781, 19.101383209228516, -15.410710334777832, 21.764904022216797, 0.19921875, 0.3720703125, -1.009521484375
571, 1532020822, -4.4721150398254395, -1.188679575920105, 8.940738677978516, 19.88300323486328, -10.70521354675293, 14.584284782409668, 0.1953125, 0.364013671875, -1.01220703125
572, 1532037489, -4.468703269958496, -1.262232780456543, 8.726120948791504, 17.9630126953125, -4.34943962097168, 9.729286193847656, 0.1943359375, 0.360595703125, -1.01416015625
573, 1532054156, -4.388130187988281, -1.9916833639144897, 8.398736953735352, 18.12584686279297, 2.600557327270508, 10.90224838256836, 0.19580078125, 0.35546875, -1.01611328125
574, 1532070823, -4.483498573303223, -1.9114779233932495, 8.391234397888184, 17.77854347229004, 6.108902454376221, 13.815817832946777, 0.198974609375, 0.349853515625, -1.017822265625
575, 1532087490, -4.433445453643799, -1.6926900148391724, 8.520750045776367, 12.930245399475098, 13.721090316772461, 14.293713569641113, 0.20556640625, 0.343994140625, -1.018798828125
576, 1532104157, -4.194412708282471, -1.7929975986480713, 8.57178783416748, 6.608181953430176, 27.671459197998047, 13.542280197143555, 0.213134765625, 0.342041015625, -1.01806640625
577, 1532120824, -4.4829301834106445, -1.304071068763733, 8.6691255569458, 3.4375295639038086, 47.55065155029297, 14.102660179138184, 0.224609375, 0.339599609375, -1.012939453125
578, 1532137491, -3.959057569503784, -0.8158910274505615, 8.94344711303711, -8.624200820922852, 76.8578109741211, 12.85925579071045, 0.244873046875, 0.34228515625, -1.009033203125
579, 1532154158, -4.45421028137207, -0.7253614068031311, 8.673458099365234, -19.775671005249023, 113.77851867675781, 10.382427215576172, 0.27734375, 0.3466796875, -1.000244140625
580, 1532170825, -4.648716449737549, -1.5369744300842285, 8.313840866088867, -22.02605438232422, 152.539794921875, 8.065431594848633, 0.319091796875, 0.350341796875, -0.986328125
581, 1532187492, -5.057486057281494, -1.6720879077911377, 8.108662605285645, -15.811094284057617, 186.18289184570312, 10.095370292663574, 0.369873046875, 0.35693359375, -0.96435546875
582, 1532204159, -4.9084792137146, -1.7123723030090332, 8.529821395874023, -10.583826065063477, 218.0047149658203, 13.944555282592773, 0.4267578125, 0.3603515625, -0.9365234375
583, 1532220826, -4.74457311630249, -1.6894524097442627, 8.4677095413208, -5.712558269500732, 264.98822021484375, 23.431447982788086, 0.495361328125, 0.359375, -0.901611328125
584, 1532237493, -5.546910762786865, -1.1682021617889404, 7.530817031860352, -1.1977534294128418, 324.3819580078125, 34.2910270690918, 0.576904296875, 0.35498046875, -0.851806640625
585, 1532254160, -6.211161136627197, -2.1932826042175293, 8.030552864074707, 7.395288467407227, 408.7341003417969, 43.2697868347168, 0.670166015625, 0.349609375, -0.780517578125
586, 1532270827, -7.6214447021484375, -3.3816704750061035, 10.004108428955078, 16.331151962280273, 495.633056640625, 73.86885070800781, 0.77685546875, 0.333740234375, -0.677001953125
587, 1532287494, -14.931802749633789, -2.0614049434661865, 11.639686584472656, 17.004865646362305, 526.7235717773438, 104.65452575683594, 0.87841796875, 0.3046875, -0.54833984375
588, 1532304161, -19.9769287109375, -3.680300712585449, 11.689186096191406, 12.879779815673828, 495.3936767578125, 105.91290283203125, 0.9521484375, 0.274658203125, -0.410400390625
589, 1532320828, -17.609777450561523, -6.527955055236816, 11.612602233886719, 33.70790481567383, 460.9530944824219, 121.38992309570312, 1.003173828125, 0.232666015625, -0.274169921875
590, 1532337495, -12.84144401550293, -5.302393436431885, 13.266337394714355, 62.505104064941406, 412.4555969238281, 135.7795867919922, 1.027587890625, 0.188232421875, -0.1513671875
591, 1532354162, -6.570205211639404, -4.687450408935547, 18.055768966674805, 46.87227249145508, 301.6846618652344, 98.98070526123047, 1.0341796875, 0.153564453125, -0.0517578125
592, 1532370829, -29.018259048461914, -3.3895230293273926, 24.941497802734375, -22.461122512817383, 137.46563720703125, 96.03618621826172, 1.025146484375, 0.1240234375, -0.005859375
593, 1532387496, -18.13247299194336, -7.455015182495117, 26.504985809326172, -80.9581527709961, -137.8330078125, -21.740772247314453, 1.011962890625, 0.12451171875, -0.033935546875
594, 1532404163, -1.0799269676208496, -8.555068016052246, 10.217229843139648, -13.93230152130127, -259.83599853515625, -26.316299438476562, 0.995849609375, 0.140625, -0.114013671875
595, 1532420830, 1.5870368480682373, -4.494618892669678, 3.498168706893921, 74.86590576171875, -236.62942504882812, 25.02311897277832, 0.974609375, 0.140625, -0.19384765625
596, 1532437497, 1.2083370685577393, -1.81949782371521, 4.643954753875732, 101.26493072509766, -200.01658630371094, 37.17302703857422, 0.955810546875, 0.131591796875, -0.262939453125
597, 1532454164, -4.4346537590026855, -2.086660861968994, 9.45616626739502, 42.133148193359375, -220.32908630371094, -4.6283183097839355, 0.936279296875, 0.133056640625, -0.325927734375
598, 1532470831, -7.608740329742432, -4.232171535491943, 9.646564483642578, -8.941235542297363, -290.3267517089844, -67.06047058105469, 0.899658203125, 0.15869140625, -0.4052734375
599, 1532487498, -7.343449115753174, -4.776314735412598, 6.887552261352539, 8.964518547058105, -348.46258544921875, -88.72398376464844, 0.845703125, 0.192626953125, -0.50634765625
600, 1532504165, -7.043638229370117, -2.493589162826538, 5.889513969421387, 42.513023376464844, -374.4794006347656, -75.6032485961914, 0.762451171875, 0.20751953125, -0.606689453125
601, 1532520832, -6.799990653991699, 0.969663679599762, 6.298468112945557, 26.250045776367188, -381.99810791015625, -62.24652099609375, 0.65673828125, 0.21044921875, -0.695068359375
602, 1532537499, -8.261146545410156, 1.8101059198379517, 7.0824198722839355, -32.1512451171875, -382.74896240234375, -53.34101486206055, 0.547607421875, 0.211181640625, -0.757080078125
603, 1532554166, -9.213347434997559, 0.20061476528644562, 7.265862464904785, -83.81494140625, -382.7895202636719, -53.975337982177734, 0.438232421875, 0.21923828125, -0.79833984375
604, 1532570833, -9.59778881072998, 0.3157713711261749, 5.4116339683532715, -109.60786437988281, -360.1964416503906, -57.357730865478516, 0.326904296875, 0.23095703125, -0.81689453125
605, 1532587500, -11.936580657958984, -0.2999807298183441, 5.293693542480469, -113.0151596069336, -307.27923583984375, -53.88059997558594, 0.228515625, 0.239990234375, -0.809814453125
606, 1532604167, -17.324281692504883, -2.651632070541382, 12.231290817260742, -119.40103912353516, -279.95733642578125, -62.9295539855957, 0.158447265625, 0.245361328125, -0.78662109375
607, 1532620834, -19.766040802001953, -4.225193977355957, 13.302091598510742, -99.58782958984375, -305.1786193847656, -100.02992248535156, 0.093505859375, 0.250244140625, -0.766357421875
608, 1532637501, -19.170272827148438, -0.6222805976867676, 11.747234344482422, -61.93989181518555, -317.6183776855469, -116.22863006591797, 0.0361328125, 0.250732421875, -0.756591796875
609, 1532654168, -21.28578758239746, 3.0920650959014893, 9.724525451660156, -46.89710235595703, -314.0921325683594, -103.58565521240234, -0.01953125, 0.249755859375, -0.74853515625
610, 1532670835, -23.030574798583984, 2.6421728134155273, 7.0898919105529785, -41.54142379760742, -298.8050231933594, -76.48463439941406, -0.074951171875, 0.247802734375, -0.74169921875
611, 1532687502, -21.950641632080078, 0.7901100516319275, 3.2281525135040283, -28.516874313354492, -271.6986999511719, -54.20470428466797, -0.125244140625, 0.245849609375, -0.74072265625
612, 1532704169, -21.005088806152344, 1.2529617547988892, -1.362640619277954, -27.927978515625, -223.46762084960938, -43.15576934814453, -0.170654296875, 0.248046875, -0.736572265625
613, 1532720836, -20.896595001220703, 3.8034565448760986, -4.987128734588623, -44.553653717041016, -150.1714630126953, -42.92388153076172, -0.2041015625, 0.254150390625, -0.7353515625
614, 1532737503, -21.997894287109375, 4.633266925811768, -6.747448921203613, -51.26539611816406, -78.384521484375, -45.99509048461914, -0.225341796875, 0.261962890625, -0.730712890625
615, 1532754170, -21.352346420288086, 3.3417742252349854, -8.194769859313965, -1.634648323059082, -14.294257164001465, -33.089656829833984, -0.233154296875, 0.263427734375, -0.73193359375
616, 1532770837, -16.769062042236328, 4.4191365242004395, -7.094839096069336, 36.74900817871094, 57.76220703125, -1.5267853736877441, -0.22314453125, 0.2529296875, -0.7373046875
617, 1532787504, 3.617760181427002, -4.74201774597168, 15.807211875915527, 25.37750244140625, 75.91475677490234, 34.73324966430664, -0.198974609375, 0.24267578125, -0.74462890625
618, 1532804171, 6.692212104797363, -16.569957733154297, 11.835159301757812, -63.481964111328125, 156.01828002929688, -6.479279518127441, -0.166748046875, 0.254638671875, -0.750732421875
619, 1532820838, -3.7589073181152344, 2.262005090713501, 4.124200820922852, -16.345094680786133, 223.7184600830078, 15.995746612548828, -0.117431640625, 0.257568359375, -0.76220703125
620, 1532837505, -10.104970932006836, 8.750804901123047, 17.570680618286133, -60.59107208251953, 215.6476287841797, 26.067020416259766, -0.057861328125, 0.2685546875, -0.76513671875
621, 1532854172, -8.972465515136719, -4.424495697021484, 11.77626895904541, -68.04598236083984, 171.6887664794922, 31.355134963989258, -0.01318359375, 0.283203125, -0.764892578125
622, 1532870839, -8.83182430267334, -9.532306671142578, 9.058608055114746, -54.58721923828125, 158.4840850830078, 13.895153045654297, 0.028076171875, 0.298095703125, -0.759033203125
623, 1532887506, -6.517238140106201, -4.496515274047852, 10.224884986877441, -25.02625274658203, 126.4461898803711, 24.79768943786621, 0.06591796875, 0.302490234375, -0.75634765625
624, 1532904173, -9.694518089294434, -9.2571382522583, 8.454283714294434, 34.858787536621094, 83.8978042602539, 43.08428192138672, 0.09326171875, 0.297119140625, -0.755126953125
625, 1532920840, -5.8905839920043945, -1.230593204498291, 9.84257698059082, 50.70760726928711, 58.61893081665039, 37.38724899291992, 0.111572265625, 0.283203125, -0.7578125
626, 1532937507, -5.7253804206848145, -2.957773447036743, 8.936941146850586, 47.394596099853516, 32.55673599243164, 29.1632080078125, 0.125244140625, 0.273193359375, -0.761962890625
627, 1532954174, -4.340739727020264, -2.7770497798919678, 7.669012069702148, 63.54451370239258, 25.980104446411133, 33.53914260864258, 0.1328125, 0.25732421875, -0.76513671875
628, 1532970841, -4.201906204223633, -1.9164631366729736, 9.004097938537598, 76.42152404785156, 22.47258186340332, 38.927059173583984, 0.14404296875, 0.23828125, -0.771240234375
629, 1532987508, -4.548820972442627, -1.425755262374878, 9.3781156539917, 71.70452880859375, 10.433712005615234, 37.678565979003906, 0.15283203125, 0.2197265625, -0.77099609375
630, 1533004175, -4.449121475219727, -2.889744758605957, 8.635546684265137, 66.25271606445312, 8.65158462524414, 34.04233932495117, 0.15625, 0.20166015625, -0.77783203125
631, 1533020842, -6.232598304748535, -3.7466132640838623, 9.372798919677734, 37.105674743652344, 7.056545734405518, 23.395484924316406, 0.158935546875, 0.191162109375, -0.78076171875
632, 1533037509, -5.290617942810059, -0.816845715045929, 9.022712707519531, 10.200092315673828, 1.386154055595398, 11.01342487335205, 0.162353515625, 0.18701171875, -0.780517578125
633, 1533054176, -4.6870341300964355, -1.9041883945465088, 8.52621841430664, 11.722295761108398, -2.453007221221924, 8.112643241882324, 0.16552734375, 0.18359375, -0.781005859375
634, 1533070843, -4.696164131164551, -1.7728623151779175, 8.49675464630127, 9.188834190368652, -3.88789439201355, 5.396066665649414, 0.1640625, 0.18212890625, -0.781494140625
635, 1533087510, -4.594723701477051, -1.9816797971725464, 8.458962440490723, 7.701811790466309, -4.173834323883057, 3.386300802230835, 0.1630859375, 0.177978515625, -0.782470703125
636, 1533104177, -4.802947998046875, -1.973084568977356, 8.364664077758789, 7.986291885375977, -3.9798943996429443, 4.227767467498779, 0.1640625, 0.175048828125, -0.785400390625
637, 1533120844, -4.792929649353027, -1.8252041339874268, 8.324318885803223, 8.038422584533691, -3.68001127243042, 5.666043281555176, 0.1640625, 0.175048828125, -0.783935546875
638, 1533137511, -4.617922782897949, -1.8069708347320557, 8.366292953491211, 6.232677936553955, -0.5040067434310913, 5.180316925048828, 0.165771484375, 0.169921875, -0.785888671875
639, 1533154178, -4.57525110244751, -1.8809912204742432, 8.463754653930664, 3.678887128829956, 2.999305248260498, 4.962263107299805, 0.1669921875, 0.173095703125, -0.786865234375
640, 1533170845, -4.634863376617432, -1.9432216882705688, 8.421719551086426, 1.396769642829895, 5.540994644165039, 5.119806289672852, 0.16650390625, 0.171630859375, -0.783447265625
641, 1533187512, -4.765081405639648, -1.7544026374816895, 8.30353832244873, 0.18496857583522797, 8.06501293182373, 5.188846588134766, 0.169189453125, 0.16796875, -0.785400390625
642, 1533204179, -4.794090270996094, -1.756711483001709, 8.368715286254883, -1.8285428285598755, 12.160308837890625, 3.678978443145752, 0.172119140625, 0.168701171875, -0.78369140625
643, 1533220846, -4.680736064910889, -1.8804707527160645, 8.296220779418945, -3.7331957817077637, 14.992851257324219, 3.1566596031188965, 0.175048828125, 0.170654296875, -0.785400390625
644, 1533237513, -4.510226249694824, -2.0928876399993896, 8.16442584991455, -2.3735830783843994, 17.769376754760742, 5.188505172729492, 0.18017578125, 0.171142578125, -0.783203125
645, 1533254180, -4.322889804840088, -2.1381754875183105, 8.22675609588623, 0.17783582210540771, 25.074697494506836, 8.21523666381836, 0.185546875, 0.169677734375, -0.783447265625
646, 1533270847, -4.316958427429199, -1.6284152269363403, 8.491986274719238, -4.230092525482178, 40.9256477355957, 12.168779373168945, 0.197509765625, 0.169189453125, -0.78125
647, 1533287514, -4.541263103485107, -1.6510132551193237, 8.372775077819824, -8.596394538879395, 60.74153518676758, 13.669732093811035, 0.21044921875, 0.17041015625, -0.779052734375
648, 1533304181, -4.671080112457275, -1.642432451248169, 8.18939208984375, -7.889765739440918, 82.4322280883789, 13.94918441772461, 0.22705078125, 0.16943359375, -0.771728515625
649, 1533320848, -4.862564563751221, -1.5600237846374512, 8.064398765563965, -12.50387954711914, 106.84963989257812, 11.85071086883545, 0.25048828125, 0.170654296875, -0.76318359375
