Yaw,Pitch,Roll,MagX,MagY,MagZ,AccelX,AccelY,AccelZ,GyroX,GyroY,GyroZ
-163.991,-020.190,-014.607,-0.106,-0.721,+2.494,-08.7070,+05.9470,-15.3120,+00.482712,-01.605083,-00.704067
-163.642,-021.963,-013.418,-0.045,-0.691,+2.519,-05.3020,+06.2900,-12.5420,+01.832413,-01.495553,+00.117312
-163.749,-023.186,-011.732,-0.008,-0.672,+2.553,-05.3490,-03.2200,-11.1960,+01.018160,-00.865579,-00.580952
-163.940,-024.294,-010.718,+0.025,-0.652,+2.549,-03.9890,+03.1090,-09.3850,+00.833516,-00.911321,-00.208634
-164.062,-025.197,-009.972,+0.058,-0.597,+2.588,-05.1050,+01.3070,-10.2830,+00.505379,-00.641214,-00.254159
-164.224,-025.818,-009.522,+0.082,-0.582,+2.561,-03.1460,+00.6800,-09.0710,+00.248900,-00.495138,-00.201847
-164.289,-026.323,-009.318,+0.105,-0.593,+2.557,-04.8170,+00.5750,-08.7620,+00.140994,-00.381420,-00.109982
-164.348,-026.700,-009.214,+0.119,-0.573,+2.579,-04.4770,+01.5140,-08.6390,+00.065030,-00.279806,-00.099242
-164.451,-026.989,-009.082,+0.128,-0.603,+2.591,-04.4590,+01.2670,-08.5780,+00.070547,-00.224098,-00.119473
-164.570,-027.259,-008.980,+0.133,-0.573,+2.585,-04.4740,+01.1130,-08.4960,+00.023423,-00.217690,-00.133127
-164.691,-027.519,-008.938,+0.152,-0.588,+2.592,-04.5080,+01.1610,-08.4100,-00.030072,-00.204817,-00.125990
-164.805,-027.752,-008.927,+0.147,-0.588,+2.581,-04.5990,+01.2840,-08.3350,-00.039603,-00.176188,-00.113084
-164.936,-027.951,-008.899,+0.161,-0.578,+2.559,-04.6000,+01.3750,-08.3090,-00.011983,-00.155832,-00.152803
-165.095,-028.116,-008.844,+0.171,-0.568,+2.565,-04.8640,+01.2770,-08.3580,-00.008271,-00.097737,-00.142879
-165.262,-028.239,-008.775,+0.166,-0.603,+2.587,-04.3990,+01.2720,-08.1380,-00.015550,-00.115451,-00.116234
-165.454,-028.323,-008.674,+0.185,-0.578,+2.571,-04.6050,+01.4950,-08.2330,+00.024008,-00.003287,-00.246886
-165.721,-028.411,-008.520,+0.180,-0.568,+2.587,-04.3930,+01.3790,-08.2950,+00.013407,-00.026335,-00.199746
-166.052,-028.505,-008.305,+0.194,-0.598,+2.594,-04.4180,+01.5290,-08.2180,+00.045276,-00.040432,-00.283694
-166.428,-028.634,-008.079,+0.189,-0.553,+2.577,-04.3950,+01.5150,-08.1740,+00.040053,-00.090884,-00.311738
-166.837,-028.860,-007.824,+0.213,-0.569,+2.589,-04.5420,+01.2390,-08.0990,+00.046978,-00.198286,-00.346266
-167.220,-029.263,-007.585,+0.236,-0.554,+2.584,-04.7290,+01.1930,-08.0600,+00.048153,-00.370870,-00.325332
-167.532,-029.823,-007.364,+0.232,-0.579,+2.595,-04.5100,+01.0440,-08.1910,+00.064538,-00.504411,-00.273603
-167.736,-030.584,-007.178,+0.279,-0.554,+2.603,-04.6010,+00.8700,-08.2330,+00.087279,-00.728851,-00.215617
-167.815,-031.646,-006.986,+0.316,-0.570,+2.583,-04.7580,+00.7430,-08.2800,+00.166563,-01.029520,-00.140079
-167.655,-033.115,-006.782,+0.368,-0.575,+2.585,-04.9670,+00.6870,-08.1940,+00.315892,-01.493909,+00.037353
-167.222,-035.395,-006.583,+0.424,-0.541,+2.571,-05.0700,+01.1990,-08.0590,+00.406992,-02.363339,+00.044220
-166.977,-038.842,-006.273,+0.536,-0.522,+2.559,-05.0600,+01.0670,-08.1910,+00.418606,-03.420705,-00.288281
-166.933,-043.911,-005.634,+0.724,-0.484,+2.518,-05.1730,+01.3120,-08.4060,+00.692085,-05.102105,-00.511752
-167.321,-051.368,-004.276,+0.963,-0.452,+2.452,-06.7240,+03.3660,-09.1930,+01.096280,-07.285265,-01.039262
-169.661,-061.288,-000.574,+1.240,-0.380,+2.327,-08.9340,+02.1830,-10.7830,+01.734673,-09.376844,-01.708926
-176.859,-072.536,+007.368,+1.568,-0.265,+2.051,-18.6080,-00.5430,-13.6410,+00.770582,-09.943403,-01.842757
+160.942,-082.358,+028.282,+1.806,-0.213,+1.745,-15.1830,+01.8680,-18.9710,-01.555044,-08.732001,-01.161971
+080.381,-084.607,+105.665,+1.933,-0.201,+1.511,-14.2630,+01.0440,-21.9890,-02.963431,-06.521290,-01.722099
+053.579,-080.631,+130.770,+1.979,-0.127,+1.288,-16.8050,+20.8070,-40.1000,+00.117477,-02.130941,-01.189201
+060.441,-081.262,+125.769,+1.937,-0.042,+1.324,-02.2810,+09.5400,-27.3440,+01.848426,+02.529849,+00.123029
+085.616,-083.364,+102.975,+1.858,-0.021,+1.391,+00.6960,+04.5890,-08.0950,+01.926651,+03.495060,+00.525005
+120.389,-083.830,+070.256,+1.783,+0.061,+1.458,+02.6240,+01.1290,-03.9560,+01.310030,+03.186788,+00.589415
+148.602,-082.463,+042.909,+1.708,+0.112,+1.537,+01.7840,+00.1840,-04.4240,+00.142842,+03.035848,+00.674966
+166.397,-079.882,+024.993,+1.685,+0.107,+1.574,-01.1550,+01.2340,-07.9800,-00.474188,+03.311703,+00.745306
+177.665,-075.919,+013.155,+1.615,+0.118,+1.647,-05.5590,+01.7010,-12.5980,-00.831162,+04.411380,+00.899419
-175.054,-070.194,+005.205,+1.563,+0.119,+1.792,-06.3970,+02.3590,-10.3110,-00.802733,+05.605195,+01.096469
-170.751,-063.604,+000.596,+1.488,+0.081,+1.942,-06.5690,+01.9690,-06.1350,-00.422522,+05.832156,+01.245310
-167.855,-057.121,-002.317,+1.353,+0.043,+2.182,-06.9040,+00.9790,-05.6850,-00.375651,+05.497673,+01.387788
-165.603,-050.891,-004.919,+1.114,-0.004,+2.379,-09.0430,+00.6550,-09.4290,-00.932161,+05.329461,+01.556023
-163.833,-044.368,-007.879,+0.870,-0.056,+2.423,-11.5750,+01.0690,-11.7330,-01.722813,+05.692527,+01.717257
-162.565,-037.725,-010.923,+0.617,-0.094,+2.390,-13.6880,+01.0160,-08.8670,-01.901587,+05.335487,+01.786843
-161.355,-032.053,-013.355,+0.499,-0.093,+2.358,-20.1700,-00.0300,-13.5410,-01.374100,+04.363638,+01.983279
-160.141,-026.501,-015.476,+0.434,-0.162,+2.356,-24.4700,-01.6940,-14.5230,-01.231273,+04.568725,+02.118171
-159.564,-020.926,-016.650,+0.349,-0.176,+2.423,-23.5850,-02.6790,-07.9070,-00.580166,+04.451637,+01.513147
-159.952,-015.956,-016.953,+0.199,-0.279,+2.515,-25.9830,-04.0710,-01.5340,-00.322934,+04.087802,+00.509140
-161.642,-012.090,-017.330,+0.059,-0.337,+2.564,-27.0730,-07.4400,+06.0610,-01.135937,+03.287649,-00.907461
-164.013,-010.236,-019.652,-0.059,-0.456,+2.571,-24.1960,-10.7130,+15.5210,-03.201265,+01.345579,-01.589535
-165.690,-011.232,-022.767,-0.059,-0.591,+2.544,-22.3130,-03.9280,+12.9810,-02.148175,-01.165593,-01.745739
-167.314,-013.703,-022.249,-0.003,-0.627,+2.564,-25.4180,+00.5110,-00.8710,+01.279865,-01.408783,-02.348851
-168.864,-015.267,-020.149,+0.058,-0.582,+2.609,-08.4670,+15.0490,-18.8890,+00.987205,-00.238255,-00.915890
-168.714,-015.890,-018.317,+0.087,-0.502,+2.665,+09.5960,+05.3890,+00.8780,+02.053912,-01.390363,-00.211160
-168.603,-020.074,-016.764,+0.199,-0.513,+2.724,-08.3030,-11.1050,-15.7420,+02.149832,-04.090984,-01.102972
-168.775,-022.986,-014.656,+0.321,-0.434,+2.767,-18.3400,+06.6190,-15.6980,+01.696888,-01.524166,-00.367497
-168.642,-024.614,-013.076,+0.387,-0.359,+2.780,-02.4680,+01.4320,-13.3780,+01.455078,-01.266618,-00.207980
-168.745,-025.810,-012.136,+0.434,-0.330,+2.788,-09.6180,+05.8970,-10.8380,+00.666947,-00.795011,-00.131429
-168.692,-026.503,-011.618,+0.457,-0.300,+2.805,-03.5690,+00.2090,-09.5540,+00.423794,-00.528914,-00.134844
-168.853,-026.901,-011.110,+0.467,-0.260,+2.811,-04.7190,+01.0010,-08.8850,+00.339621,-00.248762,-00.172340
-168.896,-027.122,-010.879,+0.481,-0.255,+2.817,-04.7450,+01.2150,-08.6730,+00.146432,-00.149725,-00.030638
-168.988,-027.242,-010.670,+0.486,-0.250,+2.822,-04.5130,+01.2700,-08.3930,+00.147825,-00.104375,-00.128407
-169.113,-027.430,-010.526,+0.481,-0.255,+2.844,-04.4810,+01.2110,-08.3530,+00.031950,-00.164285,-00.110969
-169.211,-027.659,-010.468,+0.495,-0.280,+2.812,-04.2090,+01.5260,-08.3340,+00.005489,-00.180614,-00.118982
-169.373,-027.885,-010.359,+0.500,-0.250,+2.812,-04.4910,+01.5650,-08.4500,+00.044762,-00.146761,-00.178464
-169.626,-028.028,-010.164,+0.504,-0.235,+2.828,-04.5240,+01.7370,-08.3250,+00.092797,-00.060957,-00.233567
-169.983,-028.114,-009.838,+0.500,-0.270,+2.839,-04.5420,+01.6060,-08.3110,+00.166955,-00.005806,-00.312135
-170.430,-028.169,-009.402,+0.509,-0.250,+2.823,-04.4080,+01.6320,-08.0550,+00.219830,-00.016600,-00.371569
-170.845,-028.245,-008.985,+0.518,-0.245,+2.840,-04.5690,+01.3780,-08.3230,+00.182473,-00.019769,-00.301649
-171.223,-028.337,-008.629,+0.514,-0.210,+2.845,-04.2670,+01.0010,-08.0670,+00.141405,-00.095593,-00.283624
-171.530,-028.584,-008.325,+0.509,-0.215,+2.828,-04.5470,+01.3500,-08.1950,+00.127267,-00.166415,-00.272058
-171.863,-028.809,-008.046,+0.533,-0.186,+2.840,-04.4940,+01.4080,-08.2130,+00.089096,-00.186454,-00.279773
-172.187,-029.147,-007.806,+0.547,-0.221,+2.825,-04.7090,+01.1150,-08.1390,+00.064375,-00.286637,-00.289172
-172.528,-029.552,-007.561,+0.556,-0.166,+2.830,-04.6640,+01.1880,-08.1440,+00.072456,-00.335281,-00.311962
-172.870,-030.027,-007.304,+0.575,-0.171,+2.847,-04.6640,+01.1390,-08.1990,+00.085005,-00.406557,-00.303776
-173.159,-030.608,-007.021,+0.598,-0.201,+2.832,-04.6400,+01.0310,-08.2220,+00.144275,-00.525472,-00.261748
-173.351,-031.395,-006.720,+0.622,-0.196,+2.844,-04.7460,+00.8840,-08.1710,+00.191203,-00.759738,-00.197930
-173.394,-032.499,-006.441,+0.659,-0.162,+2.829,-04.9300,+00.7900,-08.0860,+00.247602,-01.081391,-00.107254
-173.256,-034.031,-006.150,+0.706,-0.167,+2.809,-05.1480,+00.7270,-08.0650,+00.371616,-01.523054,-00.009406
-172.977,-036.244,-005.786,+0.809,-0.109,+2.792,-05.0490,+00.9660,-08.1420,+00.503468,-02.232169,-00.039223
-172.865,-039.535,-005.180,+0.922,-0.110,+2.769,-05.1980,+01.2670,-08.1790,+00.634895,-03.310742,-00.308518
-173.140,-044.502,-004.026,+1.067,-0.081,+2.705,-06.1440,+01.8870,-08.4940,+00.995074,-04.980890,-00.704895
-174.703,-051.641,-001.220,+1.301,-0.014,+2.578,-06.2880,+02.0810,-09.7560,+01.713529,-06.943119,-01.499209
-179.208,-060.984,+004.980,+1.611,+0.127,+2.345,-09.1630,+02.3410,-12.5010,+02.129459,-08.906149,-02.128234
+170.330,-070.787,+015.783,+1.812,+0.183,+2.119,-18.1210,-02.1880,-17.5640,+00.550412,-08.665632,-01.874522
+150.325,-078.039,+033.598,+1.966,+0.186,+1.826,-13.9980,+02.8880,-20.5970,-02.335507,-06.907427,-01.641446
+114.246,-080.692,+066.230,+2.041,+0.224,+1.610,-14.4440,+05.8760,-18.1640,-01.922267,-05.087201,-02.099690
+096.669,-080.056,+083.949,+2.008,+0.199,+1.500,-07.4510,+27.5400,-32.9030,+01.904092,-00.334408,-00.401938
+108.268,-080.339,+074.378,+1.886,+0.210,+1.505,+00.0120,+12.6340,-18.2200,+01.979625,+02.555000,+01.098779
+131.136,-080.507,+053.841,+1.741,+0.201,+1.543,+03.7760,+02.5180,-06.8570,+01.422898,+02.934626,+01.728645
+152.884,-079.642,+033.331,+1.690,+0.177,+1.546,+03.0150,-00.1440,-05.1480,+00.490138,+02.711243,+01.874893
+169.301,-077.560,+017.580,+1.661,+0.172,+1.556,+00.2940,-00.9870,-08.0170,+00.286761,+02.970856,+01.660244
+179.213,-074.097,+008.301,+1.666,+0.153,+1.660,-03.3600,-01.9860,-11.8120,+00.255337,+03.737937,+01.225775
-175.602,-069.112,+003.352,+1.652,+0.153,+1.757,-06.4330,-02.4370,-10.5240,-00.191407,+04.864109,+00.840436
-173.174,-063.215,+000.633,+1.592,+0.175,+1.967,-05.6160,-01.7400,-06.2840,-00.559578,+05.243583,+00.597896
-172.019,-057.337,-001.145,+1.479,+0.147,+2.225,-06.4900,-00.6400,-05.4830,-00.739001,+05.032964,+00.486672
-171.328,-051.664,-002.796,+1.325,+0.130,+2.442,-07.7470,+00.2110,-07.4790,-01.132751,+04.912128,+00.555802
-170.768,-046.037,-004.885,+1.001,+0.019,+2.619,-08.7430,+01.4820,-07.6630,-01.618662,+04.823110,+00.685938
-170.191,-040.754,-007.204,+0.664,-0.078,+2.687,-11.1160,+04.8770,-08.7480,-01.655600,+04.346632,+01.006895
-168.883,-035.900,-010.156,+0.448,-0.176,+2.613,-15.1350,+05.2490,-11.7010,-02.035966,+03.910999,+01.877168
-166.560,-031.115,-013.800,+0.241,-0.264,+2.539,-21.2240,+03.9380,-11.3140,-01.981831,+03.620436,+02.871193
-163.849,-026.229,-016.918,+0.063,-0.293,+2.471,-26.7540,+00.2990,-08.9720,-01.280211,+03.563020,+03.170282
-161.691,-021.393,-018.629,-0.040,-0.332,+2.402,-27.8810,-03.6950,-04.0190,-00.396623,+03.441811,+02.749994
-160.738,-016.954,-018.388,-0.139,-0.267,+2.315,-26.6340,-03.4530,+01.3500,+01.094561,+03.405885,+01.362952
-161.731,-013.510,-016.730,-0.167,-0.216,+2.335,-23.9270,-09.3000,+07.5570,+00.820972,+02.794826,-00.560575
-163.584,-012.171,-017.441,-0.190,-0.221,+2.318,-16.6070,-10.3540,+13.5510,-02.034639,+00.758439,-01.376732
-165.158,-013.206,-019.048,-0.129,-0.287,+2.310,-20.5680,+00.7090,+01.9370,-00.988647,-00.841734,-01.608860
-166.783,-014.470,-018.329,-0.078,-0.267,+2.279,-19.3230,-01.0750,-05.6630,+00.901113,-00.462022,-01.661810
-167.265,-015.316,-017.469,-0.050,-0.278,+2.281,+08.5650,+19.7330,-07.6160,+00.702568,-01.067662,+00.007611
-166.796,-018.204,-016.569,+0.072,-0.244,+2.259,-04.5490,-05.1760,-09.9560,+01.025049,-03.173712,-00.493469
-166.791,-021.324,-014.934,+0.194,-0.185,+2.285,-13.4160,-00.9700,-20.9440,+00.968170,-01.968656,-00.875244
-166.639,-022.845,-013.997,+0.227,-0.185,+2.276,-04.8250,+03.8590,-08.5030,+00.998105,-01.170537,-00.074111
-166.628,-023.934,-013.127,+0.269,-0.136,+2.283,-06.4740,-00.3100,-10.9050,+00.394945,-00.760483,-00.342305
-166.598,-024.796,-012.683,+0.307,-0.091,+2.279,-03.8740,+02.6120,-09.0160,+00.451956,-00.721441,-00.070329
-166.612,-025.387,-012.353,+0.321,-0.136,+2.285,-05.5820,+01.6760,-08.8060,+00.110678,-00.389825,-00.121482
-166.552,-025.820,-012.329,+0.335,-0.126,+2.275,-04.4100,+01.3070,-08.8030,-00.041352,-00.368009,-00.005540
-166.452,-026.215,-012.432,+0.349,-0.111,+2.286,-04.6560,+02.0540,-08.5710,-00.042522,-00.334461,-00.008453
-166.407,-026.560,-012.496,+0.368,-0.142,+2.260,-04.4100,+01.7350,-08.3520,-00.041947,-00.281219,-00.035498
-166.378,-026.859,-012.550,+0.363,-0.102,+2.248,-04.1820,+01.8180,-08.3110,-00.020533,-00.248215,-00.035945
-166.377,-027.123,-012.525,+0.391,-0.107,+2.261,-04.3290,+01.8170,-08.3040,+00.044241,-00.213822,-00.058797
-166.421,-027.355,-012.411,+0.387,-0.132,+2.261,-04.4290,+01.7410,-08.3340,+00.108208,-00.173439,-00.090394
-166.533,-027.540,-012.174,+0.391,-0.112,+2.271,-04.3060,+01.9470,-08.2610,+00.196951,-00.115751,-00.141999
-166.748,-027.682,-011.822,+0.410,-0.092,+2.289,-04.3850,+01.3290,-08.2450,+00.218759,-00.080646,-00.206842
-167.000,-027.825,-011.473,+0.410,-0.097,+2.261,-04.3640,+01.8060,-08.1450,+00.198687,-00.096564,-00.215085
-167.227,-027.982,-011.199,+0.406,-0.057,+2.266,-04.4900,+01.9150,-08.3220,+00.124760,-00.058666,-00.195251
-167.525,-028.146,-010.918,+0.410,-0.047,+2.266,-04.5690,+01.4460,-08.2760,+00.111689,-00.138009,-00.277575
-167.877,-028.408,-010.633,+0.410,-0.087,+2.256,-04.6500,+01.3130,-08.2650,+00.059585,-00.140192,-00.283856
-168.162,-028.583,-010.468,+0.438,-0.082,+2.262,-04.4410,+01.4880,-08.1600,+00.009819,-00.119520,-00.240875
-168.490,-028.831,-010.297,+0.424,-0.042,+2.262,-04.4100,+01.5860,-08.1430,+00.012819,-00.202888,-00.317906
-168.902,-029.177,-010.091,+0.438,-0.068,+2.251,-04.6470,+01.6250,-08.1550,+00.003646,-00.252011,-00.389924
-169.370,-029.546,-009.856,+0.462,-0.063,+2.247,-04.6190,+01.9990,-08.0630,+00.008348,-00.268843,-00.406444
-169.785,-029.990,-009.607,+0.476,-0.033,+2.258,-04.5130,+01.5090,-08.0480,+00.055647,-00.385783,-00.348330
-170.062,-030.621,-009.366,+0.504,-0.043,+2.243,-04.8330,+01.3000,-08.1600,+00.109815,-00.579729,-00.269706
-170.194,-031.457,-009.173,+0.518,-0.043,+2.249,-04.8470,+00.8950,-08.1990,+00.109453,-00.795197,-00.172607
-170.060,-032.636,-009.073,+0.546,-0.009,+2.267,-05.0620,+00.8430,-08.1370,+00.193859,-01.222525,+00.013767
-169.601,-034.418,-009.026,+0.598,-0.059,+2.226,-05.0700,+01.4150,-08.0240,+00.300808,-01.826828,+00.083858
-169.140,-037.089,-008.934,+0.668,-0.015,+2.196,-05.1350,+01.3470,-08.0380,+00.311703,-02.730321,-00.136591
-168.725,-041.244,-008.782,+0.795,-0.016,+2.174,-05.2570,+02.3670,-08.4680,+00.424835,-04.241650,-00.379047
-168.661,-047.565,-008.042,+0.935,+0.032,+2.114,-05.4160,+04.0380,-08.7730,+00.752848,-06.226971,-01.054357
-169.689,-056.367,-006.071,+1.165,+0.084,+1.977,-07.9760,+02.4010,-09.3190,+01.182693,-08.387093,-01.678165
-172.552,-067.302,-002.407,+1.423,+0.171,+1.780,-12.4240,-01.1060,-17.3660,+00.769808,-09.670596,-01.828321
-179.381,-077.317,+003.948,+1.610,+0.183,+1.570,-22.3770,+02.7770,-19.0520,-00.812097,-08.086385,-01.652007
+154.746,-084.036,+027.782,+1.760,+0.245,+1.369,-14.4370,+01.5850,-20.8000,-01.644521,-05.405742,-02.077013
+112.957,-085.179,+069.546,+1.863,+0.314,+1.285,-06.1750,+18.3710,-38.5910,+01.234017,-01.210561,-01.226114
+118.473,-084.326,+066.681,+1.915,+0.359,+1.326,+03.0110,+09.0220,-22.1260,+02.375672,+01.288039,-00.242322
+137.067,-083.411,+050.409,+1.938,+0.384,+1.419,+03.0730,+04.1670,-11.6170,+01.564327,+02.045856,+00.448124
+154.082,-081.996,+034.403,+1.943,+0.384,+1.545,+03.4090,+00.9820,-09.3170,+00.304680,+02.273980,+00.593062
+166.885,-079.707,+021.545,+1.934,+0.340,+1.670,+01.3790,+01.2610,-09.4950,-00.362283,+02.807312,+00.635354
+175.189,-076.407,+012.987,+1.878,+0.302,+1.848,-01.1630,+01.2600,-09.8550,-00.355289,+03.414255,+00.545503
-179.627,-072.152,+007.479,+1.760,+0.214,+2.062,-04.1540,+01.0270,-10.4020,-00.547026,+04.164291,+00.577943
-176.013,-066.896,+003.185,+1.587,+0.116,+2.219,-06.9520,+00.9790,-10.2460,-00.943449,+04.960086,+00.729972
-173.491,-060.804,-000.380,+1.315,+0.044,+2.316,-08.0110,+01.4460,-08.6070,-01.197174,+05.490732,+00.906648
-171.694,-054.407,-003.328,+1.085,-0.078,+2.340,-08.5810,+01.9820,-07.6800,-01.270081,+05.555648,+01.084589
-170.375,-048.061,-005.876,+0.959,-0.137,+2.335,-09.6060,+01.9720,-07.7430,-01.404752,+05.376683,+01.198924
-169.371,-042.085,-008.546,+0.860,-0.176,+2.358,-11.3200,+01.5430,-08.6530,-01.903840,+04.893402,+01.310605
-168.447,-036.668,-011.425,+0.757,-0.250,+2.474,-13.8170,+03.6500,-12.3720,-01.996751,+04.380803,+01.542262
-167.198,-031.285,-014.451,+0.654,-0.348,+2.579,-19.0050,+03.9540,-16.2000,-02.059406,+04.435984,+02.226012
-165.522,-025.434,-017.517,+0.349,-0.485,+2.665,-22.7030,+01.1920,-12.5060,-01.879839,+04.565429,+02.818481
-164.070,-019.606,-019.763,+0.011,-0.531,+2.651,-22.3640,-00.7680,-06.3740,-01.134012,+04.339943,+02.561749
-163.523,-014.593,-020.617,-0.181,-0.530,+2.593,-23.0040,-03.3930,-01.0390,-00.339965,+03.726224,+01.467171
-164.327,-010.752,-020.915,-0.340,-0.484,+2.520,-26.3240,-08.7560,+04.6690,-00.677936,+03.109916,+00.024903
-165.875,-008.504,-022.611,-0.415,-0.548,+2.458,-27.8150,-12.6640,+13.0810,-02.224127,+01.699864,-00.737092
-167.209,-008.500,-024.124,-0.416,-0.633,+2.414,-21.3740,-03.8830,+10.5050,-00.459618,-00.183542,-01.398438
-169.045,-010.303,-021.695,-0.355,-0.569,+2.422,-19.7660,-01.8520,-01.4990,+02.710870,-01.043027,-02.352689
-170.756,-012.086,-018.979,-0.298,-0.529,+2.479,-07.3960,+09.5100,-13.3890,+01.330553,-00.668863,-01.239677
-170.745,-013.199,-017.745,-0.247,-0.525,+2.497,+09.4380,+15.7520,-11.1080,+01.151641,-01.350145,-00.127823
-170.561,-016.300,-016.877,-0.162,-0.475,+2.484,-09.6280,-14.6510,-06.9590,+01.213341,-03.296887,-00.736761
-170.921,-019.347,-015.320,-0.040,-0.407,+2.506,-09.8810,+01.1390,-22.2260,+00.624199,-01.717737,-00.931478
-170.657,-021.159,-014.375,+0.007,-0.422,+2.524,-04.9870,+07.7330,-08.5980,+01.271891,-01.710060,-00.010533
-170.498,-022.573,-012.946,+0.068,-0.343,+2.499,-07.4420,-04.1530,-11.1980,+00.841499,-00.965272,-00.441205
-170.597,-023.695,-012.138,+0.115,-0.328,+2.534,-04.1680,+04.6750,-09.0230,+00.639378,-00.949073,-00.158835
-170.652,-024.578,-011.504,+0.152,-0.323,+2.524,-04.5550,+00.5030,-09.6370,+00.429565,-00.596917,-00.262487
-170.812,-025.169,-010.999,+0.162,-0.303,+2.530,-04.2550,+02.3820,-08.5810,+00.363954,-00.448281,-00.188095
-170.951,-025.585,-010.568,+0.185,-0.269,+2.542,-04.3950,+01.1550,-08.9060,+00.310884,-00.290874,-00.202142
-171.098,-025.931,-010.223,+0.199,-0.289,+2.543,-04.3340,+01.0790,-08.7270,+00.187524,-00.260199,-00.136072
-171.152,-026.225,-010.063,+0.209,-0.264,+2.532,-03.8990,+01.6430,-08.6250,+00.089341,-00.229316,-00.084716
-171.260,-026.493,-009.897,+0.213,-0.259,+2.554,-04.7150,+01.5250,-08.5410,+00.114014,-00.205881,-00.147812
-171.439,-026.756,-009.691,+0.232,-0.279,+2.533,-04.3600,+01.3790,-08.5390,+00.114560,-00.196510,-00.186178
-171.662,-026.988,-009.479,+0.237,-0.234,+2.544,-04.4910,+01.1300,-08.4960,+00.081180,-00.151432,-00.204177
-171.866,-027.167,-009.313,+0.241,-0.224,+2.522,-04.4660,+01.3430,-08.3700,+00.053525,-00.124621,-00.168502
-172.054,-027.354,-009.162,+0.260,-0.289,+2.551,-04.3670,+01.2760,-08.2670,+00.051187,-00.163221,-00.165140
-172.216,-027.548,-009.028,+0.246,-0.244,+2.544,-04.2560,+01.2830,-08.3620,+00.061892,-00.127254,-00.165251
-172.390,-027.702,-008.897,+0.260,-0.229,+2.534,-04.3080,+01.4250,-08.3110,+00.058989,-00.140427,-00.169789
-172.618,-027.866,-008.728,+0.260,-0.259,+2.529,-04.4820,+01.3210,-08.2950,+00.058436,-00.108958,-00.207054
-172.869,-027.990,-008.545,+0.270,-0.245,+2.518,-04.2630,+01.3270,-08.3100,+00.058973,-00.067309,-00.202215
-173.108,-028.138,-008.381,+0.279,-0.224,+2.556,-04.4550,+01.3470,-08.2650,+00.038371,-00.113222,-00.204175
-173.376,-028.337,-008.214,+0.284,-0.220,+2.529,-04.4620,+01.1890,-08.2000,+00.030261,-00.172460,-00.240617
-173.643,-028.618,-008.042,+0.293,-0.240,+2.541,-04.3590,+01.3640,-08.3040,+00.052872,-00.232688,-00.234608
-173.899,-028.972,-007.858,+0.307,-0.210,+2.541,-04.4250,+01.2640,-08.2770,+00.061854,-00.323202,-00.240805
-174.136,-029.485,-007.664,+0.312,-0.250,+2.542,-04.5240,+01.0680,-08.2160,+00.071288,-00.483040,-00.233735
-174.315,-030.210,-007.466,+0.345,-0.200,+2.510,-04.6270,+01.0140,-08.3040,+00.110783,-00.686081,-00.208085
-174.396,-031.192,-007.263,+0.373,-0.220,+2.533,-04.6920,+00.9000,-08.2920,+00.168084,-00.952008,-00.132364
-174.273,-032.605,-007.067,+0.420,-0.226,+2.514,-04.8070,+00.9290,-08.2120,+00.265144,-01.442669,-00.024370
-173.966,-034.726,-006.863,+0.499,-0.182,+2.522,-05.1240,+01.0500,-08.1190,+00.354435,-02.142603,-00.023109
-173.714,-037.797,-006.617,+0.588,-0.173,+2.510,-05.2010,+00.8180,-08.2040,+00.355963,-03.036715,-00.202617
-173.551,-042.174,-006.165,+0.724,-0.159,+2.466,-05.4900,+01.2440,-08.1970,+00.572395,-04.348465,-00.389360
-173.568,-048.466,-005.142,+0.931,-0.122,+2.388,-06.1790,+02.1980,-08.7100,+01.070948,-06.160823,-00.712511
-174.865,-056.987,-002.537,+1.193,-0.035,+2.268,-07.6570,+01.7260,-09.5160,+01.492906,-08.149385,-01.432678
-179.414,-067.622,+003.195,+1.446,+0.042,+2.082,-12.7660,+02.0630,-15.6050,+01.285954,-09.743476,-01.973911
+168.838,-078.056,+014.684,+1.704,+0.113,+1.787,-18.1070,-00.4510,-17.9460,-00.624625,-09.033837,-01.270948
+127.700,-084.558,+053.770,+1.877,+0.170,+1.494,-14.7080,+04.3790,-21.7520,-01.924811,-06.454186,-01.564761
+069.481,-083.449,+110.312,+1.956,+0.218,+1.339,-18.2590,+17.8460,-27.1330,-00.283412,-03.831413,-01.151141
+065.378,-083.073,+116.547,+2.003,+0.287,+1.265,-09.8490,+18.0510,-35.2480,+01.919600,+00.860550,+00.354663
+085.789,-084.709,+099.437,+2.022,+0.313,+1.347,+02.0680,+07.3000,-13.9800,+02.878777,+02.633137,+00.961410
+126.557,-085.396,+061.621,+2.050,+0.313,+1.397,+02.9330,+01.2610,-08.1640,+02.060730,+02.965397,+01.040309
+161.492,-083.601,+028.358,+2.093,+0.323,+1.557,+01.7560,-00.7780,-07.4560,+00.877698,+03.200169,+00.941899
+177.733,-080.190,+012.656,+2.107,+0.269,+1.815,-01.0580,-00.0680,-08.6170,+00.133634,+03.632005,+00.743051
-175.424,-075.716,+005.881,+2.037,+0.251,+2.057,-04.6350,+00.3140,-10.9150,-00.197666,+04.361641,+00.526823
-172.178,-070.095,+002.245,+1.798,+0.210,+2.347,-06.6200,+00.9390,-09.9970,-00.584516,+05.259022,+00.473390
-170.460,-063.751,-000.108,+1.470,+0.209,+2.562,-07.0150,+01.4890,-07.6940,-00.707704,+05.650136,+00.492399
-169.445,-057.269,-001.917,+1.222,+0.177,+2.677,-08.1450,+01.8440,-07.4200,-00.885602,+05.619442,+00.570563
-168.639,-050.787,-003.908,+0.899,+0.116,+2.772,-09.7010,+02.6520,-09.3100,-01.393944,+05.663019,+00.789830
-167.851,-044.184,-006.524,+0.533,+0.039,+2.795,-11.0480,+03.3120,-09.3560,-01.963272,+05.653378,+01.087610
-167.070,-037.933,-009.414,+0.307,-0.074,+2.611,-12.4710,+05.5200,-09.9300,-02.040580,+05.099969,+01.388588
-165.798,-032.210,-012.160,+0.382,-0.186,+2.386,-17.9110,+07.4290,-14.4970,-01.688487,+04.581785,+02.195428
-163.445,-026.296,-015.276,+0.494,-0.422,+2.513,-24.0050,+03.4950,-13.3820,-01.670067,+04.590395,+03.340408
-160.959,-020.411,-017.543,+0.293,-0.579,+2.669,-25.0160,-00.1180,-07.3650,-00.685415,+04.175702,+03.195875
-159.458,-015.273,-018.128,-0.045,-0.535,+2.735,-26.5170,-04.4000,-05.5180,+00.032974,+03.785256,+02.192163
-159.427,-010.849,-018.438,-0.354,-0.482,+2.743,-29.3840,-07.1030,+02.5480,-00.495650,+03.579320,+00.611030
-160.871,-007.992,-019.914,-0.504,-0.496,+2.710,-28.7620,-16.4770,+17.2910,-02.217003,+02.015232,-00.867388
-162.386,-008.331,-022.643,-0.556,-0.591,+2.632,-22.9290,-08.9270,+14.1960,-02.192886,-00.760628,-01.670664
-164.340,-010.595,-022.756,-0.504,-0.661,+2.667,-24.0990,+01.8540,-02.6200,+00.471649,-01.098502,-02.546444
-166.145,-012.395,-021.269,-0.481,-0.681,+2.690,-08.8970,+14.1810,-08.8230,+01.152093,-00.712554,-01.161107
-165.643,-013.898,-020.044,-0.443,-0.616,+2.746,+14.8610,+15.1160,-07.9090,+01.619875,-02.168712,-00.119395
-165.256,-018.332,-018.281,-0.307,-0.517,+2.833,-14.4210,-17.3910,-21.0140,+01.940607,-03.978317,-01.135084
-165.841,-021.496,-015.787,-0.218,-0.438,+2.874,-10.1640,+09.8690,-13.9390,+01.653098,-01.975786,-00.831437
-165.625,-023.516,-013.219,-0.143,-0.334,+2.904,-04.0980,-00.4740,-13.1980,+02.376613,-01.632773,-00.383319
-166.081,-025.112,-011.577,-0.082,-0.244,+2.955,-07.6510,+03.5160,-11.6130,+00.808020,-01.092989,-00.569752
-166.138,-026.001,-010.737,-0.044,-0.254,+2.963,-03.4790,-01.9700,-10.0960,+00.649782,-00.577527,-00.203734
-166.332,-026.284,-010.134,-0.030,-0.204,+2.974,-04.4040,+00.9440,-08.9640,+00.426005,-00.107397,-00.175825
-166.442,-026.408,-009.741,-0.030,-0.184,+2.990,-04.5000,+01.1990,-08.6600,+00.261067,-00.097667,-00.082647
-166.534,-026.569,-009.485,-0.030,-0.219,+2.979,-04.4660,+01.0120,-08.5250,+00.149952,-00.139583,-00.101232
-166.590,-026.769,-009.397,-0.025,-0.194,+3.001,-04.2640,+01.1310,-08.5180,-00.004465,-00.166872,-00.031650
-166.572,-026.970,-009.463,-0.016,-0.174,+3.001,-04.3290,+01.3260,-08.4850,-00.065178,-00.170383,-00.023753
-166.611,-027.147,-009.481,-0.002,-0.185,+2.980,-04.5510,+01.3060,-08.4400,-00.011519,-00.128838,-00.071217
-166.721,-027.252,-009.406,-0.011,-0.185,+2.974,-04.3940,+01.4060,-08.4490,+00.056895,-00.040719,-00.121247
-166.934,-027.270,-009.191,-0.011,-0.159,+3.001,-04.4370,+01.5580,-08.2340,+00.118716,+00.025557,-00.189724
-167.212,-027.268,-008.917,-0.011,-0.175,+2.985,-04.3790,+01.2050,-08.2190,+00.122667,+00.034321,-00.221467
-167.489,-027.302,-008.662,+0.003,-0.195,+2.991,-04.2840,+01.1630,-08.3720,+00.117736,-00.031815,-00.215068
-167.700,-027.331,-008.464,+0.003,-0.160,+2.991,-04.2440,+01.1780,-08.2950,+00.098951,+00.022214,-00.157165
-167.895,-027.357,-008.249,-0.002,-0.190,+3.002,-04.3780,+01.2070,-08.3400,+00.118466,+00.002663,-00.146416
-168.148,-027.373,-007.938,-0.002,-0.175,+2.986,-04.2570,+01.2530,-08.3780,+00.172097,+00.042782,-00.215144
-168.425,-027.366,-007.634,-0.011,-0.149,+3.018,-04.2710,+01.1920,-08.2250,+00.148327,+00.005437,-00.216646
-168.692,-027.455,-007.356,-0.002,-0.175,+2.991,-04.3490,+00.9350,-08.2310,+00.123658,-00.083227,-00.216284
-168.956,-027.648,-007.106,+0.012,-0.145,+2.986,-04.2270,+01.0040,-08.3290,+00.105415,-00.175673,-00.231746
-169.225,-027.957,-006.880,+0.027,-0.135,+2.997,-04.4360,+00.8990,-08.3480,+00.075486,-00.280755,-00.240099
-169.490,-028.369,-006.677,+0.041,-0.145,+3.004,-04.4480,+00.9620,-08.2670,+00.068665,-00.364084,-00.250712
-169.787,-028.885,-006.456,+0.059,-0.145,+3.004,-04.4980,+01.1480,-08.2500,+00.070648,-00.453329,-00.298769
-170.146,-029.528,-006.187,+0.078,-0.110,+3.005,-04.5670,+00.9380,-08.3340,+00.091957,-00.578804,-00.348532
-170.494,-030.328,-005.865,+0.116,-0.116,+3.007,-04.6880,+00.8740,-08.3770,+00.155628,-00.720041,-00.315988
-170.708,-031.321,-005.514,+0.153,-0.121,+3.003,-04.7140,+00.5860,-08.3200,+00.252740,-00.941067,-00.190442
-170.765,-032.724,-005.106,+0.214,-0.092,+3.016,-04.8860,+01.1710,-08.2890,+00.367722,-01.408901,-00.176021
-171.027,-034.863,-004.429,+0.289,-0.097,+3.009,-05.1130,+01.0210,-08.3590,+00.531219,-02.130828,-00.465735
-171.598,-037.984,-003.305,+0.406,-0.044,+2.986,-05.3260,+00.5640,-08.5440,+00.793764,-03.072561,-00.629191
-172.487,-042.464,-001.482,+0.594,+0.025,+2.972,-05.5710,+01.4000,-08.8990,+01.305617,-04.403976,-00.880560
-174.578,-048.583,+002.021,+0.791,+0.082,+2.915,-06.1920,+01.5240,-09.3400,+02.014300,-05.943242,-01.521173
-179.430,-056.364,+008.600,+1.100,+0.244,+2.796,-07.6050,+00.9610,-10.6200,+02.534641,-07.617185,-02.141046
+170.460,-064.939,+019.810,+1.419,+0.389,+2.580,-12.3270,+00.1290,-11.1340,+01.187930,-08.642129,-02.365608
+152.836,-072.030,+037.056,+1.658,+0.416,+2.367,-14.4260,-01.4910,-14.8910,+00.029636,-07.816664,-01.771127
+126.376,-075.889,+061.013,+1.831,+0.438,+2.112,-12.8910,-01.1150,-15.0530,-02.271349,-06.401464,-01.660453
+099.791,-075.512,+083.520,+1.920,+0.451,+1.914,-16.7730,+07.5760,-17.3530,-02.627786,-04.492790,-02.130129
+093.570,-074.136,+088.754,+1.901,+0.441,+1.810,-17.6050,+20.6730,-29.6060,-00.152265,+00.392035,-00.472719
+103.385,-074.320,+080.216,+1.798,+0.432,+1.854,-02.0580,+11.2760,-12.2510,+01.327505,+02.962673,+00.965410
+118.043,-074.926,+067.684,+1.686,+0.454,+1.888,+01.4090,+03.4060,-03.4260,+01.213325,+03.068887,+01.658259
+133.333,-075.221,+053.767,+1.625,+0.404,+1.891,+01.6400,+00.9940,-02.6620,+00.490721,+02.748740,+02.000663
+148.531,-074.810,+039.366,+1.582,+0.380,+1.905,-00.5650,-00.1910,-05.8300,+00.166180,+02.780371,+02.103747
+162.429,-073.075,+026.124,+1.578,+0.365,+1.949,-04.1270,-01.9750,-10.2300,+00.061178,+03.318614,+01.902441
+173.145,-069.523,+015.754,+1.568,+0.280,+2.026,-06.6110,-03.5160,-11.4460,-00.373801,+04.362795,+01.573978
-180.000,-064.418,+008.681,+1.526,+0.242,+2.209,-06.5420,-04.1720,-08.4230,-00.794118,+05.036841,+01.194768
-176.426,-058.757,+004.418,+1.386,+0.129,+2.471,-06.9590,-03.8530,-06.0390,-01.054549,+05.039742,+00.740925
-174.726,-053.158,+001.645,+1.161,+0.067,+2.647,-07.8000,-02.6180,-06.6030,-01.273100,+04.862486,+00.500274
-173.882,-047.658,-000.767,+0.823,-0.014,+2.781,-09.1190,-02.3730,-08.1780,-01.727942,+04.765693,+00.397196
-173.647,-042.264,-003.257,+0.490,-0.090,+2.794,-10.2420,-02.5330,-09.6460,-02.171549,+04.643285,+00.232506
-174.087,-037.188,-005.641,+0.307,-0.159,+2.721,-11.0310,-02.7630,-11.0150,-02.417755,+04.315172,-00.074096
-175.109,-032.447,-008.196,+0.143,-0.228,+2.676,-13.8630,-03.2420,-13.2860,-02.962128,+04.157959,-00.331534
-176.668,-027.941,-011.134,+0.054,-0.282,+2.656,-16.0270,-04.8900,-11.4210,-03.348105,+03.987373,-00.621640
-178.848,-024.011,-014.166,-0.017,-0.381,+2.621,-16.1890,-08.9970,-09.0930,-03.618257,+03.543965,-01.126006
+178.254,-020.912,-017.673,-0.120,-0.560,+2.596,-15.5380,-11.9820,-07.3000,-04.242666,+03.055711,-01.757439
+174.371,-018.770,-021.341,-0.167,-0.730,+2.524,-16.3290,-11.5120,-05.5060,-04.304884,+02.726347,-02.809988
+169.273,-017.683,-024.440,-0.172,-0.895,+2.443,-16.1580,-12.1190,-00.9630,-03.975413,+02.336828,-03.939768
+163.431,-018.043,-027.105,-0.145,-1.036,+2.326,-16.2360,-12.8080,+02.3420,-03.848920,+01.523970,-04.771637
+157.681,-019.667,-029.352,-0.037,-1.183,+2.233,-17.6290,-09.5470,+02.4740,-03.295284,+00.733659,-04.834528
+152.294,-022.075,-030.382,+0.066,-1.264,+2.178,-17.1490,-04.7970,+01.6730,-02.164200,+00.160264,-04.875311
+147.504,-025.236,-030.791,+0.221,-1.281,+2.114,-12.5960,-00.5990,+04.1140,-02.154330,-00.889799,-04.511337
+144.259,-027.926,-028.677,+0.347,-1.252,+2.163,-11.7240,+34.2620,-25.5830,+03.519143,+00.198021,-02.114012
+143.620,-027.729,-024.632,+0.357,-1.176,+2.250,-01.5310,-02.7220,+04.1800,+03.253387,-00.167199,+00.113798
+143.884,-028.407,-020.369,+0.381,-1.036,+2.359,-09.6210,-03.4520,-24.0430,+03.764647,-00.027947,-00.103190
+142.543,-027.202,-017.402,+0.357,-0.951,+2.445,-10.2430,-03.6970,-06.1100,+02.029749,+01.634118,-01.023853
+140.589,-026.035,-013.892,+0.334,-0.900,+2.498,-04.2800,+05.1460,-08.7570,+02.518143,+01.211001,-01.304602
+138.546,-025.635,-010.279,+0.334,-0.795,+2.541,-03.6840,-03.4490,-11.4640,+02.047683,+00.361550,-01.341767
+137.674,-025.830,-008.682,+0.353,-0.745,+2.585,-02.0020,-00.3570,-07.2960,+00.508474,-00.346105,-00.252011
+137.909,-026.307,-008.656,+0.372,-0.755,+2.602,-03.3290,-04.3620,-10.2910,-00.177550,-00.322536,+00.188342
+138.191,-026.116,-009.161,+0.363,-0.745,+2.564,-06.2550,+00.4570,-10.3150,-00.451388,+00.358033,+00.275226
+138.352,-025.522,-010.082,+0.353,-0.770,+2.564,-05.0120,+03.4340,-07.6720,-00.763696,+00.444123,+00.161206
+138.359,-025.142,-010.980,+0.325,-0.835,+2.563,-04.4200,+00.5950,-09.1050,-00.858119,+00.289681,+00.029856
+138.391,-024.599,-012.458,+0.315,-0.850,+2.519,-03.9990,+01.4440,-08.5900,-01.439489,+00.506863,+00.184864
+138.662,-024.035,-014.377,+0.287,-0.915,+2.496,-03.6670,+01.8590,-08.3320,-01.610910,+00.353053,+00.391631
+139.130,-023.584,-016.618,+0.278,-0.970,+2.447,-02.6190,+01.8720,-09.0480,-01.889971,+00.248145,+00.477055
+139.500,-023.224,-019.188,+0.249,-1.045,+2.386,-02.5980,+03.8670,-07.7790,-02.120806,+00.163806,+00.331624
+139.890,-022.971,-021.517,+0.245,-1.115,+2.327,-03.6180,+03.3100,-07.7500,-01.820478,+00.069809,+00.366693
+140.191,-022.708,-023.545,+0.230,-1.185,+2.299,-03.3640,+04.1080,-07.4790,-01.634901,+00.110681,+00.266565
+140.427,-022.518,-025.332,+0.207,-1.230,+2.255,-03.2250,+04.3430,-06.8500,-01.378818,+00.044916,+00.227066
+140.673,-022.423,-026.860,+0.211,-1.250,+2.234,-03.3590,+04.5920,-07.1190,-01.168902,-00.031092,+00.203146
+140.879,-022.387,-028.274,+0.202,-1.270,+2.162,-03.4360,+04.4200,-06.9820,-01.153492,-00.072833,+00.143165
+141.099,-022.455,-029.446,+0.211,-1.316,+2.119,-03.3130,+04.5860,-06.6590,-00.854386,-00.163360,+00.117409
+141.335,-022.565,-030.413,+0.206,-1.335,+2.130,-03.3760,+04.5230,-06.4550,-00.692455,-00.180732,+00.099889
+141.612,-022.755,-031.095,+0.202,-1.371,+2.109,-03.0970,+05.0510,-06.8370,-00.430865,-00.290732,+00.139500
+141.843,-023.154,-031.324,+0.220,-1.356,+2.104,-03.4060,+05.6600,-07.7260,+00.028015,-00.470466,-00.203098
+141.887,-023.568,-031.474,+0.234,-1.356,+2.104,-04.1340,+04.8610,-07.9840,-00.168835,-00.301368,-00.160973
+141.925,-023.965,-031.661,+0.248,-1.381,+2.083,-03.9810,+04.4230,-07.2340,-00.123986,-00.293142,-00.138916
+141.897,-024.469,-031.442,+0.267,-1.351,+2.095,-02.4560,+05.1960,-04.4890,+00.455121,-00.454106,-00.327610
+141.738,-025.103,-030.953,+0.277,-1.316,+2.128,-05.2100,+03.6690,-08.9880,+00.157882,-00.314580,-00.431628
+141.451,-025.556,-031.027,+0.314,-1.342,+2.108,-03.9450,+04.8840,-06.6240,-00.261592,-00.223301,-00.384707
+141.239,-026.080,-031.139,+0.324,-1.342,+2.097,-04.0720,+04.3060,-07.0280,-00.126234,-00.344552,-00.391994
+141.067,-026.817,-030.930,+0.352,-1.327,+2.115,-03.9210,+04.3370,-07.0770,+00.225643,-00.546969,-00.474414
+140.885,-027.748,-030.400,+0.380,-1.357,+2.122,-03.6110,+04.7380,-05.5810,+00.599455,-00.706812,-00.584933
+140.712,-029.177,-028.529,+0.422,-1.273,+2.128,-03.5310,+05.8530,-04.3730,+02.303296,-01.210391,-00.831374
+140.161,-030.920,-024.560,+0.488,-1.163,+2.256,-05.7750,+03.5070,-08.9480,+03.363179,-01.076026,-01.150254
+139.573,-032.391,-022.946,+0.549,-1.143,+2.269,-04.8530,+04.3310,-05.4960,+00.541320,-01.096652,-00.820920
+139.507,-033.913,-022.787,+0.610,-1.119,+2.255,-05.5060,+02.9110,-07.5530,-00.131631,-01.315702,-00.483750
+139.970,-035.756,-023.376,+0.671,-1.125,+2.242,-05.3620,+02.7200,-07.3190,-00.331778,-01.831456,-00.243251
+141.107,-038.238,-024.479,+0.722,-1.105,+2.206,-05.5610,+03.0770,-07.2560,-00.381489,-02.629192,-00.130532
+143.152,-041.872,-026.114,+0.840,-1.112,+2.145,-05.1490,+03.9300,-06.7230,-00.153569,-03.989487,-00.157473
+146.409,-047.136,-028.536,+0.994,-1.124,+2.065,-05.5930,+02.4750,-07.5390,-00.231903,-05.660415,-00.346893
+152.272,-053.966,-033.825,+1.149,-1.141,+1.936,-07.4500,+02.1170,-09.2780,-01.033680,-07.400665,-00.245777
+163.115,-060.936,-045.856,+1.336,-1.189,+1.677,-14.5280,+00.6560,-18.8090,-03.907607,-08.057595,+00.237920
+178.963,-064.867,-068.020,+1.420,-1.291,+1.267,-16.5730,+04.8640,-15.4720,-07.681391,-06.216058,+00.633611
-169.032,-065.940,-086.382,+1.452,-1.383,+0.947,-16.0990,+06.6450,-20.0330,-05.630343,-03.382409,-00.412083
-162.534,-066.863,-097.794,+1.456,-1.355,+0.674,-06.9900,+13.3420,-17.2640,-04.108788,-01.558087,-00.903723
-163.776,-068.019,-096.863,+1.461,-1.350,+0.669,-11.6750,+07.8970,-25.6750,+02.203096,+01.883567,-01.504336
-173.308,-070.709,-085.851,+1.508,-1.315,+0.731,-00.1720,-02.1720,-09.8380,+01.645696,+03.315729,-02.629399
+171.685,-073.350,-070.231,+1.592,-1.246,+0.778,+00.5960,-01.7890,-06.6290,+00.735112,+03.539073,-03.282544
+151.305,-074.754,-050.347,+1.686,-1.161,+0.890,-00.4730,+01.6590,-05.6550,-00.012015,+03.667177,-03.507887
+130.005,-073.786,-030.098,+1.785,-1.042,+0.943,-02.6320,+05.3940,-07.0030,-00.330414,+04.035546,-03.088402
+114.723,-070.286,-015.730,+1.889,-1.002,+1.083,-03.3120,+09.6470,-06.6500,+00.044513,+04.560019,-02.250093
+107.182,-065.488,-008.115,+1.931,-0.906,+1.341,-02.8870,+09.0860,-04.7670,+00.754322,+04.568753,-01.137547
+104.626,-060.541,-005.143,+1.903,-0.935,+1.558,-03.0960,+05.1980,-04.4660,+00.356720,+04.293008,-00.178535
+104.293,-055.781,-005.126,+1.739,-0.947,+1.807,-04.6850,+02.5770,-05.0480,-00.623984,+04.079710,+00.383670
+104.346,-051.216,-006.409,+1.500,-0.954,+1.922,-05.9170,+01.8900,-06.6550,-01.261177,+03.886587,+00.409381
+104.191,-046.882,-007.920,+1.308,-0.952,+1.914,-08.0170,+00.7320,-08.8990,-01.496580,+03.728938,+00.363679
+103.816,-042.534,-009.615,+1.182,-0.942,+1.826,-09.1250,+00.1790,-10.6510,-01.833325,+03.825255,+00.329586
+103.141,-038.157,-011.254,+1.167,-1.036,+1.837,-09.9120,+00.4480,-11.7230,-01.743720,+03.837756,+00.191294
+102.217,-033.845,-012.655,+1.153,-1.151,+1.854,-11.2820,+00.7050,-11.9310,-01.669432,+03.793319,+00.126436
+101.305,-029.678,-014.060,+1.097,-1.235,+1.918,-11.7510,+01.9980,-10.8760,-01.615383,+03.601148,+00.241893
+100.862,-025.792,-015.411,+0.914,-1.338,+1.981,-12.2460,+05.8690,-09.9180,-01.111478,+03.199133,+00.778917
+101.502,-022.241,-016.323,+0.736,-1.392,+1.930,-13.0700,+07.2340,-09.1230,-00.265501,+02.609054,+01.700538
+103.340,-018.806,-017.244,+0.572,-1.380,+1.852,-17.6070,+05.7390,-11.2670,-00.277136,+02.450118,+02.655690
+105.781,-015.006,-018.179,+0.478,-1.385,+1.772,-17.5500,+00.2380,-05.7000,-00.192677,+02.510563,+03.018260
+108.072,-011.617,-018.948,+0.422,-1.384,+1.796,-21.2500,-06.0440,+00.4780,-00.179347,+01.943809,+02.544870
+109.511,-009.365,-019.364,+0.370,-1.389,+1.816,-22.8320,-14.0730,+08.5170,-00.138717,+01.041442,+01.284822
+109.601,-009.176,-019.561,+0.379,-1.399,+1.844,-15.7350,-12.7110,+05.0410,-00.037139,-00.292685,-00.665225
+107.806,-010.083,-018.758,+0.440,-1.409,+1.841,-16.6860,-03.5000,-06.7660,+00.639350,-00.002835,-02.201818
+104.820,-011.035,-016.754,+0.548,-1.370,+1.884,-14.7690,+03.3270,-02.2160,+01.796295,-00.081357,-02.843659
+102.154,-012.435,-014.154,+0.666,-1.276,+1.954,-07.2820,+10.3190,-04.2360,+01.368464,-00.788781,-01.881342
+102.217,-013.514,-013.376,+0.703,-1.296,+1.961,+07.1610,+19.9870,-09.7710,+00.934891,-01.225227,+00.583706
+102.801,-016.576,-011.799,+0.806,-1.247,+1.976,-02.8820,-15.7850,-07.9240,+01.117245,-03.462682,-00.688173
+102.363,-019.922,-010.387,+0.942,-1.169,+1.949,-14.5400,-03.2220,-20.9160,+01.341489,-02.122987,-00.897853
+102.626,-021.599,-008.860,+0.994,-1.204,+1.973,-07.8020,+12.0190,-11.4790,+01.930542,-01.137162,+00.309792
+102.271,-022.333,-006.844,+1.036,-1.149,+2.023,-04.2370,-04.4860,-09.8550,+01.266888,-00.476418,-00.825094
+101.581,-022.903,-005.671,+1.069,-1.074,+2.046,-10.4580,+04.7920,-11.1550,+00.387014,-00.193022,-00.367485
+101.161,-022.980,-004.964,+1.069,-1.084,+2.019,-04.1810,+00.4860,-09.0290,+00.338405,+00.051835,-00.377767
+100.766,-022.992,-004.458,+1.079,-1.049,+2.041,-03.6240,-00.8460,-08.8660,+00.247385,-00.041447,-00.273283
+100.544,-023.136,-004.207,+1.097,-1.040,+2.063,-03.6340,+00.3310,-09.0430,+00.096620,-00.127498,-00.137457
+100.419,-023.272,-004.109,+1.107,-1.065,+2.075,-03.5840,-00.3340,-08.8780,+00.008603,-00.108131,-00.084109
+100.405,-023.429,-004.139,+1.111,-1.025,+2.059,-03.7070,+00.5640,-08.6570,-00.054202,-00.154515,+00.007233
+100.426,-023.635,-004.185,+1.121,-1.035,+2.037,-04.1450,+01.1220,-08.6420,-00.013198,-00.181188,-00.002921
+100.398,-023.810,-004.130,+1.116,-1.065,+2.026,-03.9780,+00.5550,-08.6090,+00.060601,-00.129993,-00.038393
+100.351,-023.927,-004.080,+1.116,-1.040,+2.053,-03.9700,+01.0610,-08.8190,+00.005728,-00.074391,-00.057592
+100.274,-024.018,-004.054,+1.126,-1.045,+2.054,-03.9540,+00.7390,-08.6290,-00.002471,-00.080288,-00.066118
+100.183,-024.137,-004.008,+1.121,-1.085,+2.038,-03.7420,+00.1950,-08.4470,+00.009876,-00.105835,-00.081897
+100.116,-024.304,-004.044,+1.135,-1.045,+2.038,-03.9830,+01.1950,-08.8050,-00.101053,-00.158050,-00.019174
+100.171,-024.454,-004.179,+1.144,-1.035,+2.038,-03.0300,+00.8030,-07.9720,-00.132374,-00.055927,+00.251624
+099.769,-024.945,-003.970,+1.168,-1.055,+2.039,-03.9220,+00.2300,-08.1560,-00.079283,-00.338012,-00.315797
+099.616,-025.133,-004.053,+1.168,-1.040,+2.028,-04.1670,+00.7930,-08.5590,-00.095806,-00.143907,-00.149578
+099.382,-025.244,-004.040,+1.182,-1.051,+2.018,-03.9220,+01.1120,-08.5220,-00.053565,-00.096704,-00.226818
+099.021,-025.524,-003.897,+1.196,-1.051,+2.019,-04.0240,+00.8530,-08.3750,+00.004238,-00.278133,-00.342656
+098.569,-025.939,-003.674,+1.229,-1.041,+2.004,-04.0150,+00.9200,-08.4830,+00.027983,-00.355684,-00.384946
+098.091,-026.376,-003.424,+1.243,-1.016,+1.999,-04.4080,+01.5050,-08.4800,+00.043889,-00.367825,-00.417395
+097.481,-026.911,-003.047,+1.252,-1.046,+1.994,-04.1970,+01.2750,-08.3570,+00.127833,-00.502003,-00.568322
+096.659,-027.695,-002.456,+1.290,-0.992,+1.984,-04.2060,+00.7380,-08.5030,+00.229576,-00.749370,-00.709702
+095.869,-028.765,-001.734,+1.332,-0.972,+1.964,-04.1760,-00.0790,-08.7640,+00.360511,-01.010183,-00.563432
+095.321,-030.163,-000.939,+1.369,-0.968,+1.938,-04.2360,+00.4710,-08.7970,+00.525972,-01.343746,-00.389089
+094.824,-032.078,+000.109,+1.421,-0.933,+1.924,-04.9730,+00.6220,-08.5460,+00.794246,-01.901826,-00.414497
+093.965,-034.844,+001.731,+1.510,-0.879,+1.900,-05.0810,+00.5980,-08.7940,+01.153840,-02.793247,-00.710256
+092.362,-038.973,+004.449,+1.585,-0.821,+1.827,-05.4920,+00.3360,-09.8070,+01.847352,-04.259119,-01.054935
+089.331,-044.865,+009.295,+1.726,-0.722,+1.712,-05.2160,+00.5040,-10.5380,+02.838772,-05.975331,-01.524443
+083.492,-052.338,+017.241,+1.918,-0.595,+1.545,-06.8270,+00.5950,-11.1460,+03.137677,-07.765095,-01.888401
+072.945,-060.545,+029.014,+2.030,-0.537,+1.315,-11.9270,-02.7350,-14.5680,+02.185393,-08.869840,-01.749597
+056.196,-067.400,+045.707,+2.147,-0.415,+0.998,-14.4320,-00.9170,-15.5550,+00.887065,-08.364893,-01.436811
+032.690,-070.748,+067.575,+2.208,-0.317,+0.721,-13.7330,-00.9570,-15.9990,-00.681056,-07.148806,-01.692623
+012.810,-070.177,+085.271,+2.208,-0.283,+0.514,-16.0740,+06.9310,-36.1310,-00.885671,-03.835383,-01.598610
+013.106,-069.888,+084.289,+2.203,-0.223,+0.535,-07.4200,+11.6000,-31.8220,-00.728428,+01.868420,+00.406672
+024.776,-070.669,+072.786,+2.217,-0.257,+0.705,+01.0900,+05.0500,-07.3200,-00.504269,+03.502235,+01.709592
+037.414,-071.363,+060.117,+2.213,-0.322,+0.814,+03.9020,+00.6630,-00.1560,-00.672574,+02.673959,+02.056289
+048.442,-071.618,+048.709,+2.185,-0.386,+0.955,+02.2640,-03.3960,-02.8380,-00.968191,+02.280852,+01.838580
+058.042,-070.652,+038.168,+2.147,-0.429,+1.150,-00.9190,-06.3060,-08.3230,-01.448824,+02.665268,+01.046802
+064.969,-067.763,+029.704,+2.058,-0.498,+1.294,-04.6310,-07.1910,-12.0950,-01.906515,+03.733008,-00.017842
+069.161,-063.101,+023.442,+1.899,-0.535,+1.479,-05.4180,-03.4860,-08.9300,-02.183171,+04.558403,-00.638090
+071.757,-057.914,+018.657,+1.702,-0.588,+1.574,-05.4790,-01.1530,-06.7400,-02.216662,+04.603463,-00.471800
+073.951,-052.892,+014.306,+1.608,-0.607,+1.526,-06.2920,-00.5490,-07.3660,-02.201148,+04.447805,-00.053143
+075.925,-048.065,+010.307,+1.557,-0.697,+1.487,-07.0320,-00.9190,-08.4100,-02.130346,+04.286967,+00.295013
+077.668,-043.346,+006.603,+1.627,-0.733,+1.479,-07.7470,-02.2130,-10.2700,-02.178333,+04.205256,+00.508530
+078.987,-038.602,+003.057,+1.753,-0.734,+1.506,-09.2490,-04.0400,-13.1020,-02.469549,+04.212130,+00.495463
+079.722,-033.658,-000.550,+1.913,-0.804,+1.776,-10.2320,-05.5300,-15.1410,-02.934177,+04.399044,+00.377766
+079.846,-028.525,-004.213,+1.824,-1.031,+2.182,-10.8090,-08.1510,-14.5950,-03.252251,+04.493676,+00.183683
+079.028,-023.534,-007.739,+1.575,-1.268,+2.310,-12.0220,-13.8860,-12.3270,-03.499191,+04.326047,-00.504237
+076.633,-019.091,-011.322,+1.289,-1.445,+2.238,-13.3150,-16.6270,-10.3290,-04.075903,+04.048881,-01.775447
+072.644,-015.441,-014.814,+1.176,-1.535,+2.076,-14.5290,-12.5880,-07.5610,-03.917337,+03.736333,-02.932072
+067.726,-012.879,-017.549,+1.181,-1.576,+1.951,-14.8200,-07.3660,-03.1960,-03.205801,+02.977838,-03.538162
+063.022,-011.557,-020.469,+1.232,-1.522,+1.811,-17.1750,-07.1060,-01.2290,-03.643490,+02.090572,-03.255115
+059.108,-010.940,-024.068,+1.302,-1.533,+1.683,-19.3440,-08.4950,+00.2870,-03.718429,+01.579686,-02.663332
+056.109,-011.084,-026.765,+1.359,-1.534,+1.588,-18.1580,-08.1050,+05.7090,-02.153053,+00.525763,-02.342215
+053.628,-013.047,-026.037,+1.452,-1.460,+1.526,-17.5780,-07.1640,+00.3680,+01.048483,-01.126612,-02.895319
+051.654,-015.553,-023.760,+1.565,-1.337,+1.502,-07.4520,+06.9540,-12.6920,+02.171250,-01.095697,-01.597994
+051.819,-016.665,-020.785,+1.574,-1.332,+1.530,+07.8500,+11.3660,-08.8840,+03.158530,-01.252035,-00.051702
+051.357,-019.818,-016.400,+1.654,-1.233,+1.517,-17.2900,-00.4930,-22.8770,+04.002679,-02.605632,-01.288819
+051.061,-021.722,-012.869,+1.697,-1.113,+1.539,-05.8840,-03.1660,-13.6560,+02.743145,-01.090818,-00.509364
+050.695,-023.036,-010.742,+1.715,-1.088,+1.524,-02.8640,-03.8890,-11.7460,+01.311975,-00.899534,-00.614105
+050.273,-023.753,-009.149,+1.739,-1.078,+1.503,-07.8060,+00.9110,-12.1450,+01.060845,-00.286863,-00.358932
+049.907,-023.781,-008.359,+1.744,-1.038,+1.557,-03.8390,+01.3950,-10.1130,+00.430369,+00.035179,-00.217540
+049.680,-023.774,-007.855,+1.748,-1.033,+1.541,-04.6280,+00.6590,-08.8070,+00.355180,-00.000321,-00.199387
+049.406,-023.855,-007.455,+1.753,-0.998,+1.541,-04.4340,+00.7990,-08.4980,+00.207863,-00.063416,-00.199580
+049.289,-023.984,-007.263,+1.767,-1.009,+1.531,-03.6380,+01.3470,-08.1650,+00.085239,-00.123857,-00.052188
+049.242,-024.214,-007.120,+1.772,-1.024,+1.526,-03.7590,+01.1370,-08.5440,+00.123494,-00.254758,-00.066557
+049.218,-024.548,-006.973,+1.772,-1.014,+1.531,-04.1710,+01.2570,-08.5900,+00.121372,-00.299114,-00.056246
+049.169,-024.829,-006.782,+1.781,-0.999,+1.537,-04.3660,+01.3470,-08.3620,+00.164016,-00.204619,-00.084720
+049.057,-025.047,-006.540,+1.776,-1.009,+1.531,-04.3650,+00.9780,-08.4210,+00.174529,-00.154423,-00.140626
+048.900,-025.258,-006.320,+1.781,-0.939,+1.498,-04.2910,+00.8220,-08.3910,+00.103414,-00.172344,-00.133760
+048.766,-025.476,-006.172,+1.800,-0.954,+1.494,-04.1350,+00.8030,-08.2830,+00.072889,-00.184346,-00.126363
+048.636,-025.748,-006.065,+1.805,-0.974,+1.516,-04.1890,+00.8470,-08.2970,+00.040973,-00.273354,-00.142998
+048.448,-026.159,-005.967,+1.814,-0.959,+1.483,-04.2420,+01.1600,-08.2230,-00.001215,-00.377158,-00.217796
+048.039,-026.713,-005.850,+1.833,-0.960,+1.473,-04.6230,+01.3860,-08.4010,-00.065595,-00.450305,-00.461266
+047.499,-027.250,-005.738,+1.842,-0.945,+1.435,-04.8270,+01.4770,-08.2650,-00.121171,-00.343183,-00.438431
+046.843,-028.042,-005.441,+1.861,-0.925,+1.425,-05.1730,+01.3680,-08.3810,+00.078270,-01.063902,-00.850620
+046.423,-028.604,-005.399,+1.880,-0.925,+1.426,-04.8690,+00.4960,-08.3310,-00.177504,-00.134025,-00.112956
+046.388,-028.582,-005.558,+1.894,-0.931,+1.383,-04.6260,+00.6030,-08.2900,-00.128726,+00.032151,-00.015297
+046.446,-028.724,-005.771,+1.875,-0.915,+1.398,-04.5800,+00.6030,-08.1740,-00.196036,-00.248162,+00.079129
+046.710,-029.188,-006.112,+1.884,-0.915,+1.393,-04.8460,+00.7690,-08.1710,-00.178614,-00.483637,+00.170213
+046.958,-029.763,-006.326,+1.893,-0.961,+1.361,-04.8510,+01.3400,-08.1720,-00.045456,-00.538455,+00.110535
+047.160,-030.444,-006.472,+1.898,-0.941,+1.340,-04.9320,+01.4270,-08.0430,-00.028581,-00.681476,+00.073608
+047.338,-031.378,-006.580,+1.917,-0.936,+1.324,-05.1920,+01.3880,-07.9360,-00.015570,-00.920464,+00.026475
+047.462,-032.608,-006.631,+1.922,-0.956,+1.275,-05.2420,+01.5900,-07.9130,+00.028145,-01.159898,-00.071960
+047.547,-034.166,-006.623,+1.945,-0.937,+1.222,-05.3560,+01.2640,-07.7850,+00.055358,-01.488590,-00.097148
+047.732,-036.134,-006.648,+1.968,-0.942,+1.174,-05.4400,+00.9110,-07.7530,+00.076705,-01.862258,-00.033287
+048.160,-038.552,-006.777,+1.987,-0.918,+1.103,-05.6500,+00.6990,-07.7220,+00.141329,-02.308752,+00.097214
+048.905,-041.586,-007.084,+1.996,-0.963,+1.000,-05.8450,+00.9320,-07.4160,+00.150963,-02.953099,+00.222775
+050.145,-045.634,-007.745,+2.024,-0.954,+0.876,-05.9830,+00.8540,-07.7950,+00.189372,-04.057617,+00.398907
+052.251,-051.315,-009.276,+2.038,-0.975,+0.713,-07.1500,+01.0810,-07.0000,-00.152391,-05.776470,+00.478003
+055.825,-058.997,-013.030,+2.010,-0.976,+0.428,-08.5820,+00.2540,-07.2920,-01.199373,-07.617982,+00.450757
+064.472,-067.880,-023.908,+1.944,-0.967,+0.049,-13.8820,+02.0950,-14.4090,-03.692919,-08.609880,+01.080456
+085.642,-074.540,-049.345,+1.835,-0.948,-0.289,-14.0950,-01.6980,-14.5810,-05.226030,-07.768076,+01.236444
+117.594,-076.957,-086.893,+1.685,-0.813,-0.640,-13.9180,+04.0330,-12.1680,-05.815396,-06.652257,+00.404869
+142.212,-075.640,-117.069,+1.554,-0.598,-0.898,-19.6240,+05.5520,-15.8220,-05.229251,-04.102863,-00.081812
+150.852,-074.452,-131.579,+1.535,-0.439,-1.009,-07.6740,+04.0430,-30.9730,-04.446397,-00.304881,-00.288418
+145.555,-076.622,-129.123,+1.629,-0.269,-0.962,-03.9750,+00.2040,-23.6190,-01.314940,+03.191770,-01.276244
+131.717,-081.041,-116.695,+1.822,-0.146,-0.824,-01.9140,-00.6230,-09.4170,-00.763991,+04.291185,-02.249233
+096.169,-084.732,-082.153,+1.982,-0.057,-0.709,-00.8760,-00.1950,-05.5150,-00.675455,+04.179432,-02.446628
+039.733,-084.128,-026.889,+2.156,+0.147,-0.550,-01.3650,+01.6050,-04.6550,-00.893002,+03.912859,-02.121165
+016.568,-080.272,-005.101,+2.325,+0.257,-0.358,-03.7550,+03.1250,-08.3180,-01.130529,+04.014102,-01.431371
+010.403,-075.251,-000.454,+2.475,+0.296,-0.150,-06.0610,+03.8180,-10.3790,-01.182381,+04.711766,-00.625152
+009.328,-069.469,-000.540,+2.630,+0.341,+0.212,-05.9940,+02.6110,-07.8450,-00.842817,+05.165042,-00.053050
+009.534,-063.554,-001.587,+2.687,+0.333,+0.667,-06.1790,+01.1910,-05.6880,-00.702281,+05.091968,+00.259067
+009.936,-057.921,-002.667,+2.612,+0.250,+0.953,-06.7820,+00.8790,-06.8050,-00.635401,+04.800181,+00.406799
+010.497,-052.465,-004.084,+2.481,+0.198,+1.231,-08.3600,+00.3290,-09.6260,-00.984058,+04.747544,+00.653220
+011.075,-046.871,-005.853,+2.355,+0.145,+1.477,-09.1710,+00.1410,-10.0850,-01.235134,+04.874142,+00.770288
+011.302,-041.254,-007.652,+2.252,+0.062,+1.577,-10.5560,-00.8780,-10.6260,-01.600308,+04.805549,+00.680148
+011.234,-035.764,-009.955,+2.153,+0.043,+1.731,-13.7450,-00.7980,-13.6900,-02.307656,+04.752716,+00.718245
+011.081,-030.163,-012.682,+2.046,-0.020,+1.907,-16.0580,+00.8010,-13.7880,-02.426877,+04.813479,+00.946447
+011.057,-024.645,-015.111,+1.943,-0.118,+2.072,-18.2670,+00.9310,-12.2050,-01.917060,+04.583998,+01.263537
+011.162,-019.321,-016.945,+1.774,-0.166,+2.223,-19.2320,+00.8430,-08.9760,-01.361165,+04.364851,+01.386123
+011.105,-014.362,-018.145,+1.572,-0.273,+2.346,-20.3710,-00.0380,-04.2350,-00.936228,+03.968913,+01.169250
+010.738,-010.183,-019.409,+1.450,-0.311,+2.428,-21.6360,-04.2590,+01.4610,-01.384207,+03.278141,+00.664703
+010.050,-007.201,-021.393,+1.314,-0.385,+2.466,-25.2060,-10.1500,+09.8770,-02.063661,+02.181584,+00.184686
+009.631,-006.595,-023.031,+1.277,-0.435,+2.454,-20.7060,-09.1940,+14.2110,-00.670388,-00.290880,-00.429254
+008.633,-008.281,-022.359,+1.310,-0.385,+2.444,-20.5410,-06.0280,-02.0040,+00.790778,-01.191788,-01.887764
+006.599,-010.513,-020.814,+1.375,-0.311,+2.414,-13.5170,+02.5580,-04.4790,+01.443616,-01.124467,-02.311583
+005.583,-011.898,-018.836,+1.413,-0.186,+2.426,+03.6790,+21.7840,-18.1340,+01.509495,-00.770280,-00.688132
+005.367,-013.521,-016.966,+1.446,-0.152,+2.394,-11.3860,-09.6340,-09.6890,+01.469147,-01.667607,-00.530657
+005.124,-015.617,-015.102,+1.507,-0.082,+2.353,-04.9290,-05.8040,-16.3260,+00.852528,-01.482854,-00.795474
+005.108,-017.297,-014.140,+1.559,+0.007,+2.327,-02.7690,+09.8170,-03.5580,+01.049463,-01.590452,-00.129942
+005.268,-018.943,-011.829,+1.601,+0.061,+2.290,-06.9510,-00.8500,-13.9290,+02.383757,-01.210670,-00.366078
+004.879,-020.076,-009.548,+1.638,+0.146,+2.248,-04.1380,+01.9160,-10.9500,+01.534204,-00.890542,-00.487662
+004.701,-021.084,-008.266,+1.662,+0.191,+2.259,-04.4010,+00.0020,-10.5190,+00.844578,-00.764207,-00.242090
+004.553,-021.843,-007.525,+1.685,+0.210,+2.227,-04.3310,+01.5270,-08.9150,+00.478638,-00.568743,-00.165699
+004.531,-022.484,-007.170,+1.681,+0.240,+2.194,-04.8370,+00.1240,-09.6120,+00.205459,-00.495607,-00.067726
+004.482,-023.057,-007.095,+1.714,+0.225,+2.196,-03.6360,+00.1180,-08.9060,+00.002068,-00.511015,-00.087869
+004.507,-023.590,-007.181,+1.732,+0.204,+2.158,-04.9190,+00.6980,-08.8070,-00.092838,-00.409000,-00.012087
+004.545,-023.929,-007.301,+1.728,+0.230,+2.158,-04.5760,+01.5010,-08.7340,-00.083185,-00.240737,-00.030663
+004.473,-024.163,-007.321,+1.723,+0.230,+2.169,-04.3740,+01.3500,-08.5500,-00.021342,-00.188310,-00.104833
+004.350,-024.386,-007.276,+1.742,+0.214,+2.153,-04.3710,+01.0730,-08.5100,+00.003554,-00.170919,-00.122835
+004.222,-024.569,-007.215,+1.737,+0.234,+2.115,-04.2670,+01.1200,-08.4340,+00.004139,-00.126499,-00.122541
+004.074,-024.722,-007.142,+1.737,+0.284,+2.147,-04.0530,+01.2190,-08.4840,+00.018594,-00.120328,-00.141433
+003.892,-024.918,-007.050,+1.756,+0.229,+2.121,-04.2120,+01.2700,-08.3460,+00.010943,-00.179876,-00.186447
+003.774,-025.129,-007.032,+1.742,+0.259,+2.115,-04.2080,+01.1100,-08.3500,-00.052393,-00.128273,-00.063382
+003.694,-025.395,-007.003,+1.765,+0.289,+2.132,-04.3910,+01.3100,-08.4230,-00.003487,-00.183611,-00.098624
+003.484,-025.583,-006.886,+1.774,+0.234,+2.106,-04.0480,+01.2430,-08.2710,+00.024036,-00.153699,-00.213206
+003.225,-025.854,-006.756,+1.765,+0.289,+2.088,-04.3010,+01.4310,-08.2980,+00.017615,-00.244424,-00.238318
+002.926,-026.159,-006.607,+1.765,+0.294,+2.105,-04.2530,+01.5060,-08.4010,+00.015748,-00.229723,-00.271193
+002.618,-026.484,-006.454,+1.779,+0.289,+2.094,-04.5470,+01.1700,-08.2190,+00.013876,-00.282009,-00.269878
+002.324,-026.925,-006.304,+1.779,+0.304,+2.083,-04.6370,+01.0460,-08.2490,+00.019273,-00.390125,-00.257149
+002.083,-027.452,-006.160,+1.812,+0.318,+2.079,-04.5340,+01.1200,-08.2480,+00.035367,-00.474491,-00.228872
+001.874,-028.158,-005.980,+1.807,+0.313,+2.046,-04.5480,+01.0910,-08.2550,+00.099015,-00.689805,-00.224952
+001.722,-029.219,-005.730,+1.835,+0.318,+2.009,-04.6190,+00.9920,-08.3250,+00.193614,-01.055568,-00.189659
+001.732,-030.776,-005.430,+1.868,+0.352,+1.967,-04.9530,+00.6990,-08.2410,+00.316971,-01.550493,-00.083483
+001.923,-033.051,-005.054,+1.934,+0.341,+1.899,-05.1930,+00.6280,-08.0860,+00.463882,-02.276870,-00.031642
+002.109,-036.324,-004.508,+1.990,+0.375,+1.798,-05.3500,+00.7650,-08.2950,+00.650972,-03.265524,-00.168160
+002.048,-041.205,-003.518,+2.069,+0.404,+1.626,-05.4000,+01.3550,-08.5250,+00.934945,-04.915433,-00.484795
+001.170,-048.332,-001.572,+2.163,+0.427,+1.390,-06.2810,+02.4090,-09.3010,+01.273191,-06.966293,-01.058254
-001.431,-057.892,+002.222,+2.252,+0.534,+1.033,-08.0870,+02.3600,-12.2260,+01.543701,-09.079780,-01.459263
-008.508,-068.444,+009.361,+2.265,+0.612,+0.608,-17.5880,-01.7130,-18.0770,+00.051120,-09.258139,-01.876893
-023.291,-076.608,+022.318,+2.218,+0.676,+0.295,-18.0800,+02.8960,-23.8410,-01.782825,-06.707193,-01.823413
-044.735,-080.232,+040.934,+2.134,+0.785,+0.072,-15.0180,+16.9510,-31.9690,-01.280690,-03.202952,-01.091301
-049.423,-080.345,+046.815,+2.120,+0.765,+0.033,-14.1870,+17.1840,-20.4420,+02.077674,+00.283494,-00.125574
-044.833,-080.018,+045.667,+2.120,+0.755,+0.006,+01.5510,+07.5380,-13.0890,+03.127802,+00.940421,+00.520128
-035.462,-079.664,+039.157,+2.143,+0.670,-0.009,+02.9150,+02.4800,-09.8020,+01.843282,+01.375253,+00.997872
-024.050,-078.682,+029.183,+2.180,+0.620,+0.048,+01.5640,+01.9410,-09.4750,+00.759535,+02.003738,+01.058712
-013.676,-076.503,+019.785,+2.227,+0.560,+0.132,-01.6700,+02.3390,-11.4520,+00.651782,+02.889396,+00.922141
-005.837,-072.753,+012.966,+2.279,+0.540,+0.282,-04.4710,+01.7350,-11.4970,+00.601163,+04.114787,+00.754033
-000.791,-067.585,+008.647,+2.331,+0.526,+0.513,-05.5050,+00.6580,-07.5340,+00.210571,+04.958428,+00.556710
+002.348,-061.960,+005.582,+2.336,+0.461,+0.700,-05.2800,+01.0070,-04.8210,-00.418081,+04.978709,+00.559976
+004.583,-056.440,+002.893,+2.251,+0.414,+0.958,-06.9590,+02.0390,-05.9780,-00.785463,+04.832592,+00.709294
+006.602,-050.896,+000.168,+2.177,+0.395,+1.151,-08.5370,+03.2110,-08.7590,-01.063073,+04.915142,+01.065310
+008.747,-044.922,-002.870,+2.106,+0.287,+1.318,-10.3720,+03.3940,-10.7310,-01.362820,+05.350768,+01.555560
+010.738,-038.593,-005.980,+2.027,+0.199,+1.566,-10.6140,+02.5290,-08.4130,-01.654781,+05.306703,+01.774805
+012.538,-033.033,-008.754,+1.910,+0.091,+1.763,-12.2300,+02.6360,-08.0060,-01.333854,+04.199213,+01.957320
+014.516,-028.169,-011.397,+1.839,+0.002,+1.881,-20.2160,+02.6960,-15.8690,-01.538713,+03.926784,+02.430719
+016.829,-022.890,-013.968,+1.736,-0.111,+2.008,-25.7360,+01.6650,-12.3170,-01.173140,+04.169071,+02.917863
+018.737,-017.473,-015.101,+1.591,-0.224,+2.144,-25.2890,+00.2040,-04.0940,+00.077374,+04.095940,+02.484529
+019.752,-012.723,-014.975,+1.488,-0.288,+2.255,-24.8430,-03.4520,+02.0750,+00.376127,+03.537302,+01.448330
+019.524,-009.339,-015.127,+1.380,-0.291,+2.359,-24.3540,-08.3390,+08.5180,-00.704742,+02.422503,+00.073719
+018.556,-007.952,-017.280,+1.347,-0.361,+2.380,-21.1210,-10.4910,+10.8790,-02.689456,+00.728536,-00.719725
+017.302,-008.401,-020.339,+1.356,-0.406,+2.375,-19.7200,-05.1740,+02.2270,-02.578513,-00.270887,-01.386297
+015.343,-009.474,-021.091,+1.389,-0.441,+2.350,-17.5590,+02.7050,-00.4190,+00.542605,-00.385518,-02.249367
+013.167,-011.109,-018.442,+1.446,-0.297,+2.368,-09.3310,+04.8130,-08.4770,+01.787864,-00.748961,-01.784018
+013.079,-012.283,-017.610,+1.497,-0.282,+2.353,+10.1690,+21.3900,-10.6860,+00.985564,-01.357161,+00.324555
+013.582,-015.580,-016.710,+1.596,-0.243,+2.287,-05.4890,-14.1960,-06.3920,+00.838724,-03.783642,-00.986970
+013.165,-019.049,-014.969,+1.708,-0.120,+2.236,-17.4150,+01.1710,-21.5850,+00.802307,-01.971388,-00.982897
+013.451,-020.636,-013.528,+1.755,-0.141,+2.184,-06.1650,+06.8050,-08.7290,+01.527420,-01.178746,+00.109192
+013.312,-021.804,-011.963,+1.793,-0.061,+2.168,-06.1070,-02.2190,-11.7890,+00.839280,-00.806900,-00.531302
+013.177,-022.748,-011.128,+1.826,-0.016,+2.159,-03.8290,+03.4700,-08.7150,+00.688694,-00.778575,-00.123303
+013.035,-023.374,-010.505,+1.840,-0.042,+2.149,-04.5360,+01.9630,-08.7140,+00.353639,-00.395799,-00.268230
+012.928,-023.809,-010.086,+1.844,+0.013,+2.110,-05.2500,+00.9030,-08.8070,+00.255394,-00.320127,-00.102763
+012.855,-024.171,-009.837,+1.863,+0.013,+2.122,-04.6340,+01.3870,-08.8800,+00.164947,-00.283643,-00.112726
+012.777,-024.484,-009.676,+1.863,+0.013,+2.111,-04.3210,+01.0330,-08.6840,+00.061285,-00.239062,-00.087012
+012.765,-024.768,-009.681,+1.882,+0.003,+2.090,-04.0380,+01.5970,-08.4140,-00.025227,-00.247708,-00.038062
+012.738,-025.075,-009.661,+1.877,+0.033,+2.117,-04.3440,+01.2240,-08.4720,+00.026026,-00.279136,-00.085284
+012.680,-025.437,-009.606,+1.886,+0.018,+2.090,-04.4560,+01.7720,-08.2860,+00.024570,-00.301783,-00.093969
+012.608,-025.770,-009.554,+1.896,+0.023,+2.069,-04.4910,+01.6550,-08.2900,+00.021343,-00.256602,-00.115050
+012.468,-026.056,-009.465,+1.896,+0.033,+2.069,-04.4630,+01.6340,-08.3490,+00.022493,-00.225934,-00.180376
+012.266,-026.391,-009.369,+1.924,+0.037,+2.075,-04.5170,+01.4490,-08.2900,-00.013002,-00.275619,-00.192785
+012.059,-026.723,-009.286,+1.933,+0.042,+2.059,-04.6920,+01.4990,-08.2050,-00.009209,-00.232984,-00.204821
+011.826,-027.004,-009.149,+1.938,+0.067,+2.048,-04.4410,+01.5700,-08.0430,+00.027569,-00.198102,-00.210173
+011.535,-027.267,-008.942,+1.947,+0.067,+2.022,-04.7350,+01.5610,-08.2560,+00.069555,-00.142621,-00.307183
+011.160,-027.499,-008.703,+1.943,+0.087,+2.027,-04.5220,+01.4930,-08.0960,+00.048633,-00.165369,-00.345724
+010.710,-027.777,-008.450,+1.952,+0.122,+2.043,-04.7910,+01.4950,-08.1510,+00.044713,-00.212841,-00.404121
+010.198,-028.127,-008.134,+1.957,+0.102,+2.033,-04.7890,+01.4080,-08.0940,+00.094729,-00.258848,-00.440702
+009.696,-028.484,-007.738,+1.966,+0.132,+2.011,-04.8200,+01.5120,-08.0990,+00.160008,-00.259202,-00.413420
+009.253,-028.891,-007.321,+1.980,+0.146,+2.017,-04.7590,+01.4470,-08.1020,+00.189998,-00.346047,-00.365454
+008.898,-029.464,-006.911,+1.999,+0.126,+2.002,-04.8680,+01.0850,-08.1010,+00.215093,-00.554649,-00.309552
+008.661,-030.374,-006.515,+2.004,+0.166,+1.969,-04.7540,+01.0540,-08.1860,+00.269455,-00.908659,-00.242602
+008.595,-031.749,-006.128,+2.046,+0.195,+1.910,-05.0900,+00.6680,-08.1000,+00.343677,-01.394521,-00.121419
+008.848,-033.863,-005.771,+2.074,+0.190,+1.857,-05.1450,+00.9650,-07.9460,+00.477674,-02.167099,+00.039360
+009.118,-037.124,-005.335,+2.135,+0.218,+1.723,-05.1370,+01.5360,-08.3110,+00.537425,-03.319667,-00.199998
+009.003,-042.162,-004.417,+2.238,+0.257,+1.558,-05.7710,+01.9840,-08.1370,+00.856923,-05.080287,-00.638478
+007.937,-049.564,-002.498,+2.322,+0.285,+1.344,-05.9580,+03.2780,-09.4820,+01.133545,-07.217117,-01.286031
+004.960,-059.403,+001.437,+2.392,+0.417,+0.937,-08.9020,+01.7170,-11.1450,+01.360523,-09.279215,-01.776125
-002.814,-070.126,+009.165,+2.387,+0.490,+0.478,-17.8450,-01.7040,-16.7870,+00.047691,-09.275384,-02.018107
-022.488,-078.414,+027.244,+2.316,+0.549,+0.202,-18.5580,+02.0930,-19.5650,-01.333936,-07.463442,-02.397880
-057.896,-081.293,+060.134,+2.194,+0.699,-0.001,-16.8830,+10.8650,-30.2350,-01.542275,-03.974525,-01.758872
-063.526,-080.608,+065.838,+2.138,+0.740,+0.029,-18.8120,+16.6750,-27.9820,+00.619427,+00.879218,-00.519565
-052.903,-079.297,+057.280,+2.101,+0.746,+0.082,+00.8020,+07.8010,-12.4660,+01.858018,+02.281653,+00.006070
-041.925,-078.031,+048.182,+2.035,+0.742,+0.161,+03.1330,+03.2830,-05.7710,+01.085761,+02.034957,+00.413635
-032.566,-076.957,+039.374,+2.003,+0.862,+0.235,+02.5010,+01.9390,-05.5890,-00.157369,+01.871740,+00.740564
-023.186,-075.565,+029.626,+2.003,+0.893,+0.267,+00.2250,+02.4110,-08.2120,-00.688694,+02.299886,+01.005887
-013.907,-073.160,+020.028,+2.064,+1.037,+0.394,-02.5640,+02.4140,-10.3380,-00.451182,+03.161729,+01.144590
-005.989,-069.417,+012.247,+2.149,+1.168,+0.643,-03.8180,+01.9420,-09.1390,-00.149938,+04.042737,+01.290489
+000.251,-064.774,+006.328,+2.206,+1.193,+0.890,-04.7760,+01.3170,-07.6830,-00.194507,+04.469157,+01.533992
+005.178,-059.611,+001.593,+2.234,+1.080,+1.290,-06.3020,+00.9870,-07.7340,-00.398683,+04.702672,+01.776868
+009.078,-054.060,-002.295,+2.098,+0.763,+1.685,-08.1540,+01.0920,-09.4100,-00.603589,+04.927584,+01.941829
+012.013,-048.094,-005.273,+1.835,+0.447,+1.883,-08.7310,+00.5750,-09.2180,-00.614654,+05.167529,+01.919587
+013.925,-042.110,-007.677,+1.474,+0.146,+1.875,-09.3360,-01.6790,-08.1170,-01.217783,+04.888044,+01.638324
+014.982,-036.735,-010.476,+1.249,-0.003,+1.692,-12.5890,-01.7850,-11.2870,-02.208193,+04.346810,+01.334480
+015.430,-031.757,-013.799,+1.276,-0.074,+1.513,-16.4790,-00.1840,-15.5210,-02.904826,+04.155533,+01.181537
+015.480,-026.717,-017.061,+1.407,-0.150,+1.509,-20.9730,+01.3670,-15.0440,-02.656529,+04.282429,+01.232792
+015.199,-021.464,-019.340,+1.496,-0.236,+1.655,-25.4630,+01.5490,-11.8150,-01.725122,+04.529213,+01.206897
+014.476,-016.112,-020.432,+1.497,-0.270,+1.808,-24.3690,-01.0580,-01.9670,-00.902363,+04.511134,+00.865797
+013.281,-011.790,-021.239,+1.450,-0.368,+1.992,-23.6840,-06.0210,+06.4490,-01.150273,+03.408917,+00.113477
+011.998,-009.301,-022.995,+1.412,-0.398,+2.100,-26.5440,-09.6060,+12.4030,-02.034028,+01.773452,-00.350926
+011.247,-009.194,-024.616,+1.422,-0.473,+2.111,-22.2070,-06.1240,+12.7570,-00.733992,-00.524985,-00.783486
+010.401,-011.089,-023.591,+1.487,-0.398,+2.076,-21.6220,-03.9440,+00.0520,+01.454201,-01.399069,-01.679571
+009.070,-013.461,-020.939,+1.577,-0.259,+2.084,-11.5910,+05.8580,-10.4010,+02.147631,-01.339115,-01.413574
+008.750,-014.720,-018.563,+1.619,-0.215,+2.064,+05.2310,+14.2730,-16.6500,+02.346994,-00.940336,-00.558904
+008.049,-017.657,-016.277,+1.703,-0.096,+2.023,-07.6100,-14.2760,-09.1440,+02.194377,-02.967885,-01.491811
+007.343,-020.326,-013.465,+1.783,+0.003,+1.977,-13.4040,+07.3850,-20.2980,+01.805621,-01.355773,-00.629326
+007.411,-021.685,-011.474,+1.825,+0.033,+1.940,-02.8440,+02.4390,-12.0510,+02.120306,-00.944829,-00.194863
+006.922,-022.634,-009.907,+1.839,+0.107,+1.902,-06.4610,+02.0730,-09.6830,+00.833010,-00.687330,-00.521381
+006.822,-023.341,-009.083,+1.872,+0.147,+1.903,-04.6030,-00.0460,-10.6560,+00.615424,-00.462143,-00.131431
+006.612,-023.617,-008.495,+1.882,+0.132,+1.882,-03.9170,+01.4260,-08.7910,+00.390014,-00.133187,-00.195498
+006.453,-023.774,-008.190,+1.882,+0.152,+1.893,-04.7800,+00.2600,-08.7330,+00.122533,-00.130414,-00.092588
+006.378,-023.994,-008.054,+1.896,+0.162,+1.877,-04.2100,+00.4270,-08.6820,+00.064220,-00.215449,-00.100778
+006.315,-024.318,-008.001,+1.896,+0.157,+1.882,-04.1470,+01.1210,-08.5500,-00.007109,-00.294727,-00.067814
+006.314,-024.662,-008.028,+1.900,+0.147,+1.877,-04.4090,+01.5190,-08.5400,-00.025883,-00.283985,-00.046722
+006.255,-024.979,-008.004,+1.905,+0.161,+1.877,-04.4720,+01.5070,-08.3890,+00.011253,-00.266903,-00.105278
+006.149,-025.306,-007.949,+1.924,+0.151,+1.845,-04.3150,+01.1050,-08.4660,-00.003244,-00.273588,-00.131478
+006.030,-025.656,-007.934,+1.924,+0.191,+1.829,-04.4200,+01.0610,-08.3940,-00.052917,-00.294034,-00.136024
+005.917,-026.005,-007.992,+1.938,+0.226,+1.829,-04.5830,+01.3490,-08.2640,-00.108327,-00.280301,-00.120741
+005.813,-026.329,-008.069,+1.929,+0.176,+1.818,-04.4480,+01.3240,-08.1630,-00.127566,-00.244053,-00.107533
+005.714,-026.597,-008.144,+1.943,+0.171,+1.808,-04.6760,+01.5310,-08.2620,-00.081924,-00.224211,-00.138847
+005.515,-026.876,-008.136,+1.952,+0.186,+1.808,-04.4980,+01.2570,-08.1380,-00.061842,-00.266957,-00.214631
+005.210,-027.158,-008.079,+1.961,+0.220,+1.781,-04.5130,+01.5140,-08.1760,-00.073578,-00.170705,-00.291042
+004.830,-027.373,-007.977,+1.957,+0.226,+1.797,-04.7190,+01.4480,-08.0670,-00.047891,-00.147971,-00.322963
+004.418,-027.573,-007.814,+1.966,+0.211,+1.803,-04.7420,+01.3980,-08.1170,-00.014336,-00.117170,-00.344423
+004.020,-027.774,-007.618,+1.971,+0.210,+1.776,-04.5900,+01.6410,-08.0970,+00.020784,-00.154629,-00.319264
+003.654,-028.057,-007.351,+1.961,+0.280,+1.770,-04.6220,+01.2650,-08.1900,+00.110399,-00.248012,-00.302453
+003.346,-028.496,-007.044,+1.975,+0.250,+1.760,-04.6720,+01.0650,-08.1570,+00.148548,-00.432281,-00.270099
+003.134,-029.216,-006.768,+1.989,+0.250,+1.733,-04.6280,+00.8860,-08.2350,+00.170427,-00.713479,-00.208203
+003.101,-030.267,-006.500,+2.018,+0.259,+1.691,-04.7830,+00.8410,-08.1820,+00.256608,-01.049553,-00.077265
+003.337,-031.867,-006.238,+2.041,+0.284,+1.659,-04.8810,+00.9220,-08.1630,+00.390366,-01.667904,+00.073856
+003.734,-034.379,-005.953,+2.078,+0.278,+1.562,-04.9630,+00.9890,-08.1710,+00.454691,-02.577540,+00.000862
+004.017,-038.232,-005.540,+2.130,+0.312,+1.450,-05.2810,+00.9870,-08.4610,+00.579353,-03.930579,-00.221633
+003.988,-044.145,-004.653,+2.200,+0.346,+1.251,-06.1600,+02.5560,-08.3310,+00.875261,-05.916791,-00.698181
+002.604,-052.520,-002.182,+2.261,+0.364,+0.964,-07.8910,+01.4530,-09.0500,+01.427597,-08.085274,-01.578815
-001.729,-063.065,+003.405,+2.274,+0.481,+0.566,-11.7920,+03.9360,-15.5600,+01.648732,-09.630657,-02.111729
-012.065,-073.103,+013.910,+2.218,+0.545,+0.181,-20.7410,-02.0420,-20.0900,+00.188690,-08.493773,-01.760053
-035.115,-079.704,+035.311,+2.143,+0.600,-0.052,-13.2580,+04.4170,-21.3660,-01.206681,-06.271020,-02.161606
-068.526,-081.303,+068.062,+2.068,+0.690,-0.236,-15.1880,+14.5470,-34.2390,+00.739125,-03.098749,-01.517081
-070.953,-080.659,+072.505,+2.077,+0.684,-0.224,-07.0140,+13.3940,-30.8910,+01.746876,+00.960304,-00.137790
-057.438,-080.168,+061.533,+2.161,+0.649,-0.149,+01.3520,+06.7420,-13.4810,+01.974488,+02.301353,+00.618542
-041.570,-079.216,+047.561,+2.246,+0.589,-0.009,+03.1750,+02.4230,-08.7440,+01.041400,+02.580224,+00.814834
-027.613,-077.458,+034.386,+2.311,+0.524,+0.174,+01.6050,+01.8820,-07.7840,+00.132252,+02.901182,+00.864180
-016.665,-074.728,+023.626,+2.344,+0.479,+0.296,-00.7750,+02.4420,-08.2940,-00.188166,+03.371906,+00.845800
-008.449,-070.969,+015.396,+2.335,+0.446,+0.531,-04.5080,+02.7360,-10.6930,-00.440943,+04.118283,+00.975433
-001.920,-065.985,+008.686,+2.326,+0.372,+0.798,-06.1670,+02.6900,-09.2790,-00.574195,+04.951134,+01.211337
+002.799,-060.278,+003.842,+2.279,+0.328,+0.960,-06.2040,+01.7500,-06.7110,-00.538011,+05.208072,+01.359880
+006.187,-054.462,+000.298,+2.237,+0.245,+1.177,-07.1380,+00.7680,-07.0190,-00.674663,+05.061208,+01.429301
+008.722,-048.548,-002.826,+2.204,+0.171,+1.388,-09.6640,+00.8780,-10.1080,-01.164796,+05.215344,+01.529723
+010.650,-042.282,-005.704,+2.162,+0.063,+1.567,-10.3270,+01.1100,-11.0130,-01.375891,+05.424763,+01.608706
+012.148,-035.970,-008.338,+2.078,-0.015,+1.837,-12.0130,+00.6610,-11.9070,-01.554360,+05.258145,+01.750994
+013.591,-029.792,-011.114,+1.910,-0.127,+2.130,-16.1290,+00.5170,-13.8390,-01.795939,+05.088549,+02.075230
+015.059,-023.652,-013.470,+1.685,-0.219,+2.279,-21.7800,+00.5350,-14.2770,-01.185036,+04.899560,+02.377037
+016.471,-017.778,-014.768,+1.431,-0.332,+2.345,-25.6570,-02.7530,-12.0360,-00.420390,+04.568258,+02.286519
+017.301,-012.296,-015.109,+1.239,-0.319,+2.408,-26.6000,-08.7160,-05.4550,-00.084784,+04.432353,+01.634155
+016.409,-007.563,-014.220,+1.146,-0.293,+2.442,-29.4400,-04.6560,+05.5850,+01.233495,+03.843804,-00.458278
+013.879,-004.686,-014.273,+1.057,-0.267,+2.498,-28.1880,-12.9450,+14.7660,-01.641698,+02.255870,-01.967202
+011.773,-004.669,-017.647,+1.080,-0.322,+2.494,-20.0100,-04.7090,+16.7050,-03.207055,-00.566293,-01.515451
+010.729,-006.801,-019.314,+1.141,-0.378,+2.431,-21.2330,+04.6150,+01.5120,-00.286577,-01.734826,-01.545917
+009.754,-009.192,-018.748,+1.221,-0.299,+2.380,-12.0320,+05.3180,-09.5860,-00.041859,-01.484672,-01.168614
+009.962,-010.408,-019.389,+1.272,-0.315,+2.376,+10.8700,+19.8450,-12.5280,-00.208498,-01.183636,+00.087632
+009.886,-013.396,-018.402,+1.357,-0.306,+2.347,-06.8660,-06.3410,+01.4650,+01.610877,-03.403262,-01.368010
+009.504,-017.327,-015.789,+1.493,-0.183,+2.276,-16.7540,-01.6030,-23.9220,+02.411154,-02.469275,-01.233577
+009.426,-019.584,-013.123,+1.582,-0.059,+2.235,-05.9050,+10.1850,-13.6020,+02.725155,-01.664147,-00.191083
+009.095,-021.096,-010.428,+1.615,-0.014,+2.209,-05.9200,-07.8730,-13.2340,+01.556968,-01.095202,-00.817943
+008.765,-022.459,-009.383,+1.657,+0.065,+2.151,-04.8860,+04.9250,-09.1320,+00.604475,-01.124773,-00.129931
+008.855,-023.257,-008.955,+1.676,+0.075,+2.179,-07.0160,+00.1140,-09.3120,+00.264593,-00.367367,-00.124599
+008.727,-023.566,-008.592,+1.690,+0.065,+2.163,-05.0310,+00.7910,-08.8750,+00.189817,-00.234127,-00.123281
+008.660,-023.861,-008.443,+1.699,+0.125,+2.157,-04.8190,+01.1440,-08.7420,+00.068617,-00.260693,-00.077761
+008.588,-024.186,-008.395,+1.718,+0.100,+2.153,-04.1220,+01.4590,-08.5480,-00.011127,-00.286078,-00.101447
+008.532,-024.539,-008.414,+1.723,+0.085,+2.153,-04.3140,+01.2360,-08.4580,-00.046829,-00.308332,-00.090198
+008.477,-024.903,-008.460,+1.718,+0.100,+2.120,-04.5020,+01.1130,-08.5360,-00.078732,-00.302389,-00.088921
+008.424,-025.257,-008.540,+1.741,+0.114,+2.110,-04.4280,+01.2940,-08.3280,-00.106409,-00.298221,-00.084639
+008.365,-025.603,-008.639,+1.741,+0.094,+2.110,-04.3870,+01.3440,-08.3270,-00.103356,-00.289893,-00.096901
+008.266,-025.952,-008.716,+1.751,+0.119,+2.078,-04.3140,+01.4120,-08.2860,-00.105606,-00.293299,-00.146832
+008.139,-026.343,-008.782,+1.760,+0.104,+2.111,-04.5690,+01.3900,-08.2100,-00.127244,-00.309005,-00.112054
+008.046,-026.671,-008.872,+1.774,+0.079,+2.096,-04.7970,+01.6580,-08.2650,-00.074155,-00.333669,-00.094518
+007.900,-026.987,-008.876,+1.779,+0.104,+2.074,-04.6410,+01.6290,-08.2910,-00.002747,-00.251470,-00.186819
+007.600,-027.246,-008.771,+1.774,+0.104,+2.079,-04.6040,+01.4250,-08.0550,-00.042680,-00.171213,-00.230115
+007.318,-027.501,-008.664,+1.793,+0.138,+2.058,-04.6740,+01.5370,-08.1890,-00.011968,-00.170239,-00.249912
+006.988,-027.716,-008.498,+1.802,+0.128,+2.053,-04.5810,+01.5050,-08.1330,+00.031472,-00.147945,-00.290423
+006.642,-027.930,-008.276,+1.797,+0.153,+2.069,-04.7360,+01.3780,-08.1030,+00.059451,-00.146836,-00.296597
+006.308,-028.175,-008.038,+1.802,+0.153,+2.058,-04.7540,+01.4120,-08.1370,+00.085652,-00.203518,-00.278097
+006.011,-028.558,-007.788,+1.802,+0.168,+2.031,-04.7100,+01.2800,-08.1780,+00.100565,-00.366813,-00.267546
+005.785,-029.165,-007.569,+1.830,+0.198,+2.032,-04.7100,+00.9640,-08.1580,+00.097856,-00.589919,-00.214566
+005.737,-030.107,-007.396,+1.849,+0.178,+2.005,-04.7220,+00.9430,-08.1500,+00.165774,-00.977514,-00.096623
+005.919,-031.611,-007.213,+1.886,+0.202,+1.952,-04.7900,+01.1470,-08.1010,+00.277153,-01.551769,-00.002662
+006.246,-033.978,-007.036,+1.933,+0.206,+1.889,-05.0430,+01.3170,-07.9750,+00.299032,-02.428229,-00.053693
+006.553,-037.570,-006.868,+1.999,+0.215,+1.777,-05.3790,+01.2570,-07.9930,+00.321878,-03.630253,-00.227389
+006.869,-043.023,-006.418,+2.097,+0.238,+1.596,-05.6500,+02.3990,-08.4990,+00.745283,-05.509465,-00.446696
+006.551,-050.991,-005.243,+2.205,+0.321,+1.306,-06.5930,+05.4120,-09.4140,+00.870283,-07.741124,-01.196396
+004.374,-061.381,-002.326,+2.270,+0.389,+0.981,-11.5130,+02.7990,-14.5280,+00.789538,-09.621287,-01.978938
-001.767,-071.774,+002.863,+2.279,+0.446,+0.561,-21.6990,+02.7710,-21.5960,-01.066591,-08.316001,-01.888975
-014.398,-078.809,+012.246,+2.251,+0.575,+0.291,-14.5860,+05.5260,-29.0570,-03.364242,-05.051136,-01.802364
-024.000,-081.078,+020.324,+2.227,+0.590,+0.192,-02.4230,+30.9170,-36.9180,+00.753192,-00.556749,-00.362834
-020.276,-080.554,+020.747,+2.251,+0.535,+0.183,+08.0610,+13.0770,-19.9410,+04.343105,+00.768136,+00.617594
-010.635,-079.533,+015.472,+2.307,+0.470,+0.240,+04.9070,+03.9390,-12.8480,+03.029422,+01.523747,+01.301163
-001.071,-077.703,+008.315,+2.349,+0.385,+0.330,+04.7360,+01.1320,-11.4740,+01.374105,+02.181115,+01.196566
+004.982,-074.709,+003.656,+2.382,+0.295,+0.479,+01.4350,+01.6130,-10.9060,+01.012926,+03.065307,+00.833661
+007.844,-070.588,+002.098,+2.363,+0.261,+0.718,-01.6140,+01.1400,-10.8110,+00.997897,+03.950108,+00.401101
+009.097,-065.413,+001.634,+2.274,+0.223,+0.895,-05.2200,+01.3140,-11.0630,+00.313531,+04.873245,+00.230605
+010.059,-059.268,+000.578,+2.153,+0.190,+1.081,-07.6440,+03.4340,-09.0370,-00.372923,+05.612005,+00.319689
+010.999,-052.669,-000.639,+2.036,+0.172,+1.234,-07.7770,+05.7930,-06.8240,-00.348203,+05.766447,+00.576187
+012.269,-046.228,-001.936,+1.951,+0.168,+1.339,-09.5050,+06.6740,-06.2340,-00.291584,+05.476941,+01.031412
+014.065,-040.286,-003.699,+1.928,+0.139,+1.387,-10.7620,+08.4320,-06.4140,-00.591012,+04.866742,+01.643769
+016.838,-034.954,-006.285,+2.003,+0.069,+1.538,-14.6500,+10.7320,-10.9510,-00.948979,+04.301869,+02.816475
+021.037,-029.707,-010.263,+2.017,-0.075,+1.687,-19.6140,+03.7370,-11.7530,-01.872352,+03.945684,+04.123573
+025.153,-024.573,-014.620,+1.989,-0.284,+1.928,-22.1280,-02.3290,-10.2160,-02.192201,+03.514864,+03.921922
+028.030,-019.877,-017.799,+1.886,-0.457,+2.175,-23.3650,-04.2080,-09.4310,-01.486799,+03.239189,+02.985866
+029.105,-015.599,-019.481,+1.745,-0.584,+2.339,-25.1320,-06.0110,-06.0870,-00.993040,+03.347431,+01.316726
+027.337,-011.838,-020.159,+1.530,-0.621,+2.521,-28.1900,-09.8070,+01.6250,-01.148813,+03.683653,-01.293645
+023.248,-009.406,-022.386,+1.370,-0.639,+2.612,-28.2580,-14.5760,+11.9000,-03.687466,+02.829268,-02.976589
+019.313,-009.158,-026.528,+1.309,-0.724,+2.588,-22.7100,-05.3960,+15.5920,-03.670154,+00.792850,-02.950291
+015.846,-010.976,-026.370,+1.333,-0.674,+2.583,-24.0470,+03.0660,+00.8930,+01.472117,-00.243056,-03.579894
+012.469,-012.982,-023.406,+1.399,-0.505,+2.640,-12.4330,+10.8830,-07.7320,+01.639716,-00.331099,-02.610470
+011.946,-013.813,-021.480,+1.413,-0.455,+2.673,+07.3870,+27.4840,-10.8840,+02.126084,-00.768498,+00.149820
+012.001,-016.769,-018.588,+1.502,-0.331,+2.659,-03.2760,-15.8770,-04.6670,+02.594810,-03.505537,-01.534299
+010.968,-020.043,-015.195,+1.615,-0.187,+2.625,-19.3770,+00.9530,-24.3820,+02.454099,-01.559690,-01.325580
+010.754,-021.391,-012.364,+1.652,-0.112,+2.626,-01.9380,+04.9900,-09.0180,+02.561510,-00.982838,-00.361601
+010.030,-022.217,-009.768,+1.681,-0.008,+2.621,-06.2370,-02.4140,-11.0060,+01.444251,-00.436920,-00.914135
+009.651,-022.943,-008.530,+1.685,+0.047,+2.610,-05.4010,+02.2500,-10.3060,+00.790502,-00.593951,-00.130141
+009.458,-023.489,-007.887,+1.714,+0.077,+2.606,-03.6550,+01.0550,-09.3660,+00.374091,-00.384136,-00.261539
+009.238,-023.764,-007.483,+1.728,+0.092,+2.579,-03.4920,+00.4310,-08.5250,+00.198735,-00.157230,-00.139073
+009.163,-023.907,-007.358,+1.723,+0.112,+2.606,-04.5480,+00.6130,-08.7300,+00.041226,-00.114706,-00.077978
+009.086,-024.128,-007.295,+1.728,+0.087,+2.584,-04.7730,+01.1800,-08.5620,+00.022368,-00.229631,-00.073665
+009.032,-024.451,-007.249,+1.742,+0.111,+2.574,-04.4430,+01.2440,-08.5450,+00.019776,-00.281550,-00.087620
+008.943,-024.766,-007.174,+1.746,+0.131,+2.579,-04.5500,+01.0700,-08.4410,+00.039525,-00.253949,-00.107690
+008.834,-025.046,-007.088,+1.751,+0.126,+2.558,-04.3030,+00.9910,-08.4200,+00.031767,-00.221538,-00.122590
+008.693,-025.269,-007.004,+1.765,+0.136,+2.531,-04.3370,+01.3620,-08.4490,+00.018444,-00.156411,-00.136166
+008.507,-025.477,-006.894,+1.765,+0.141,+2.558,-04.3230,+01.2320,-08.5240,+00.012298,-00.172716,-00.172162
+008.252,-025.700,-006.779,+1.760,+0.126,+2.536,-04.2370,+01.2910,-08.2270,+00.000727,-00.180527,-00.234540
+007.964,-025.878,-006.650,+1.779,+0.146,+2.542,-04.3560,+01.0530,-08.2550,+00.007046,-00.097628,-00.264604
+007.605,-026.108,-006.457,+1.784,+0.171,+2.542,-04.3830,+01.1130,-08.2060,+00.026594,-00.150769,-00.328648
+007.178,-026.344,-006.258,+1.793,+0.156,+2.532,-04.4800,+01.4970,-08.2070,+00.003237,-00.204165,-00.378612
+006.690,-026.695,-006.045,+1.798,+0.171,+2.516,-04.5250,+01.2960,-08.2760,+00.001259,-00.293581,-00.439797
+006.149,-027.135,-005.751,+1.803,+0.201,+2.521,-04.4700,+00.9250,-08.2390,+00.073318,-00.366961,-00.451519
+005.696,-027.667,-005.431,+1.831,+0.230,+2.500,-04.5750,+00.7720,-08.2760,+00.114094,-00.478166,-00.352246
+005.391,-028.353,-005.137,+1.845,+0.230,+2.468,-04.6240,+00.8760,-08.3130,+00.152465,-00.640183,-00.258879
+005.169,-029.305,-004.804,+1.873,+0.255,+2.453,-04.5600,+00.9180,-08.3270,+00.228016,-00.944540,-00.236585
+004.984,-030.766,-004.368,+1.915,+0.239,+2.411,-04.7820,+00.8550,-08.1570,+00.339790,-01.469162,-00.251121
+004.796,-032.967,-003.746,+1.957,+0.303,+2.353,-05.0020,+00.5960,-08.2610,+00.542923,-02.198746,-00.295640
+004.544,-036.254,-002.786,+2.070,+0.356,+2.216,-05.1050,+00.7690,-08.4300,+00.819569,-03.307647,-00.384385
+003.948,-041.256,-001.187,+2.173,+0.345,+2.073,-05.6410,+01.8680,-09.0140,+01.287123,-05.061241,-00.702429
+002.051,-048.562,+002.234,+2.313,+0.467,+1.784,-06.1260,+01.3570,-09.8560,+02.077927,-07.218001,-01.395975
-002.809,-058.146,+008.944,+2.449,+0.598,+1.352,-09.3510,+02.3630,-13.5290,+02.680035,-09.251286,-01.867258
-013.845,-067.881,+020.929,+2.486,+0.681,+0.950,-17.1230,-02.0430,-19.2150,+01.193108,-08.942828,-01.890145
-032.380,-074.707,+037.643,+2.439,+0.780,+0.544,-16.0130,+00.5630,-23.1460,-02.057342,-06.788929,-01.769618
-052.067,-076.865,+053.753,+2.340,+0.880,+0.353,-10.4950,+19.2000,-37.8180,-01.584892,-02.413765,-01.094934
-051.083,-076.427,+053.136,+2.279,+0.870,+0.323,-02.0810,+18.2940,-26.7280,+00.713717,+01.175853,+00.254195
-041.627,-075.950,+045.808,+2.256,+0.806,+0.372,+02.3480,+07.9900,-10.6800,+01.738239,+01.885534,+01.297171
-029.943,-075.381,+035.643,+2.223,+0.751,+0.409,+03.7360,+01.8230,-08.7940,+00.497095,+02.143088,+01.721641
-018.142,-074.029,+024.094,+2.246,+0.636,+0.438,+01.5470,+01.0390,-08.4950,-00.390920,+02.529805,+01.756519
-008.450,-071.524,+014.396,+2.260,+0.581,+0.515,-01.8690,+01.0880,-09.8120,-00.267391,+03.131344,+01.555318
-001.635,-067.683,+007.917,+2.345,+0.541,+0.645,-04.8790,+00.8650,-10.8010,+00.006980,+04.044653,+01.297040
+002.983,-062.676,+003.673,+2.410,+0.491,+0.817,-05.9570,+00.3440,-08.3500,-00.112683,+04.714941,+01.216555
+006.136,-057.220,+000.555,+2.425,+0.438,+1.145,-06.3920,+00.0330,-06.5590,-00.484163,+04.814384,+01.189510
+008.356,-051.773,-002.082,+2.336,+0.330,+1.475,-07.3680,+00.4720,-07.1880,-00.861774,+04.681088,+01.186826
+010.011,-046.379,-004.666,+2.177,+0.238,+1.670,-09.1980,+00.5780,-09.5740,-01.373901,+04.648547,+01.242755
+011.202,-040.808,-007.670,+1.980,+0.180,+1.787,-11.3390,-00.1050,-10.9190,-02.225244,+04.807764,+01.254222
+011.805,-035.400,-011.050,+1.867,+0.097,+1.925,-12.5010,+00.0420,-09.2830,-02.813112,+04.351148,+01.105079
+012.091,-030.811,-014.920,+1.802,-0.022,+2.032,-17.1820,-00.0250,-11.3710,-03.516175,+03.625609,+01.157957
+012.555,-026.439,-019.350,+1.652,-0.195,+2.152,-23.8560,+01.5070,-12.1750,-03.630085,+03.546326,+01.682269
+013.155,-021.809,-023.024,+1.445,-0.347,+2.231,-26.7050,+00.2310,-08.1400,-02.489946,+03.635627,+02.021585
+013.376,-017.165,-024.547,+1.309,-0.436,+2.237,-23.9940,-02.0430,-00.5010,-00.552074,+03.588322,+01.569432
+012.725,-013.306,-024.298,+1.159,-0.419,+2.312,-23.6290,-05.8160,+04.5160,+00.226547,+03.065442,+00.526628
+011.709,-010.620,-024.243,+1.066,-0.393,+2.346,-23.2620,-08.1670,+08.4980,-00.465164,+02.059314,+00.039039
+011.070,-009.512,-024.792,+1.033,-0.423,+2.334,-20.3560,-06.6580,+09.9380,-00.352358,+00.504201,-00.210331
+010.498,-009.923,-024.211,+1.028,-0.388,+2.322,-17.9890,-01.0830,+02.4050,+00.988629,-00.409807,-00.881155
+009.564,-011.188,-022.039,+1.066,-0.308,+2.340,-11.6260,+01.6890,-10.7860,+01.707582,-00.563322,-00.914694
+009.467,-011.824,-020.643,+1.080,-0.258,+2.351,+13.9400,+16.3820,-12.4770,+01.587588,-00.792759,-00.265980
+008.792,-014.917,-018.719,+1.141,-0.194,+2.310,-04.5430,-08.9210,+02.2560,+01.382877,-03.602901,-01.935445
+008.292,-018.674,-016.248,+1.263,-0.055,+2.287,-19.4440,-01.4420,-24.0620,+02.206744,-02.199931,-01.048872
+008.285,-020.634,-013.976,+1.310,-0.056,+2.240,-05.2200,+05.3890,-11.9750,+02.270202,-01.495181,-00.216929
+008.198,-022.277,-012.011,+1.343,+0.049,+2.202,-05.5910,-01.8120,-12.0410,+01.200453,-01.281162,-00.478917
+008.070,-023.768,-010.950,+1.390,+0.088,+2.204,-05.6130,+03.1590,-10.1580,+00.779978,-01.158460,-00.279049
+007.796,-024.592,-010.141,+1.413,+0.083,+2.178,-07.5980,+01.5440,-09.2090,+00.514900,-00.344183,-00.344554
+007.472,-024.817,-009.411,+1.413,+0.123,+2.150,-04.7960,+01.3130,-08.8450,+00.469240,-00.079260,-00.225107
+007.281,-024.958,-008.935,+1.427,+0.173,+2.183,-04.5860,+00.9390,-08.5670,+00.283313,-00.144916,-00.140091
+007.172,-025.174,-008.655,+1.432,+0.148,+2.156,-04.3380,+00.8560,-08.5500,+00.133651,-00.193435,-00.098562
+007.149,-025.407,-008.592,+1.418,+0.173,+2.150,-04.2290,+01.2500,-08.5040,+00.008816,-00.204923,-00.032084
+007.106,-025.661,-008.576,+1.441,+0.162,+2.157,-04.5390,+01.2060,-08.3620,+00.000385,-00.230590,-00.088695
+007.029,-025.955,-008.548,+1.446,+0.152,+2.141,-04.5740,+01.1240,-08.3740,-00.008621,-00.246856,-00.100821
+006.928,-026.228,-008.526,+1.451,+0.157,+2.146,-04.6340,+01.2960,-08.2900,-00.019782,-00.204891,-00.120244
+006.791,-026.449,-008.473,+1.446,+0.182,+2.157,-04.5350,+01.4030,-08.2550,-00.001883,-00.159630,-00.143912
+006.590,-026.663,-008.385,+1.469,+0.157,+2.114,-04.5430,+01.4520,-08.2930,+00.013505,-00.186321,-00.218101
+006.384,-026.879,-008.307,+1.469,+0.167,+2.125,-04.7740,+01.4190,-08.2670,+00.004489,-00.147067,-00.203375
+006.117,-027.070,-008.182,+1.455,+0.172,+2.130,-04.6660,+01.4640,-08.1360,-00.007763,-00.153670,-00.211830
+005.821,-027.309,-007.993,+1.479,+0.182,+2.125,-04.6700,+01.4340,-08.2470,+00.057076,-00.135830,-00.292720
+005.471,-027.488,-007.802,+1.474,+0.197,+2.114,-04.5590,+01.3190,-08.0900,+00.007444,-00.154968,-00.286049
+005.154,-027.748,-007.657,+1.493,+0.202,+2.109,-04.8060,+01.4110,-08.1380,+00.001522,-00.188650,-00.271949
+004.821,-027.986,-007.479,+1.488,+0.212,+2.104,-04.6730,+01.4100,-08.1540,+00.026510,-00.172027,-00.282847
+004.513,-028.280,-007.285,+1.488,+0.237,+2.093,-04.7160,+01.3670,-08.1180,+00.052762,-00.259556,-00.258323
+004.251,-028.698,-007.052,+1.502,+0.242,+2.110,-04.7980,+01.2620,-08.1890,+00.116726,-00.383608,-00.238219
+004.029,-029.302,-006.779,+1.521,+0.221,+2.072,-04.7590,+01.0430,-08.1680,+00.163994,-00.588779,-00.228625
+003.901,-030.196,-006.472,+1.526,+0.261,+2.056,-04.7860,+00.7850,-08.1290,+00.250808,-00.877913,-00.148108
+003.993,-031.507,-006.146,+1.563,+0.286,+2.025,-05.0200,+00.9310,-08.0890,+00.372125,-01.350860,-00.003353
+004.220,-033.613,-005.781,+1.610,+0.275,+1.967,-05.3860,+00.9540,-07.9650,+00.443601,-02.174061,-00.084214
+004.229,-036.934,-005.260,+1.676,+0.309,+1.882,-04.8990,+01.3960,-08.4920,+00.488404,-03.363717,-00.382096
+003.949,-042.000,-004.272,+1.788,+0.332,+1.740,-05.5480,+01.4440,-08.4820,+00.859460,-05.102499,-00.675798
+002.932,-049.500,-002.076,+1.886,+0.375,+1.531,-06.1790,+02.1030,-09.7320,+01.592240,-07.380651,-01.200634
-000.293,-059.736,+002.845,+1.998,+0.477,+1.186,-08.6620,+02.2440,-12.5750,+02.215326,-09.800241,-01.788783
-009.968,-071.089,+013.203,+2.054,+0.570,+0.784,-17.5670,+00.7220,-19.8410,+00.675728,-10.083830,-01.943118
-030.421,-079.669,+032.147,+2.035,+0.623,+0.472,-17.8290,-01.5600,-22.2540,-01.910931,-07.598204,-01.243268
-073.666,-082.757,+071.682,+1.960,+0.683,+0.245,-16.5640,+11.0970,-28.4100,-02.570337,-04.541667,-01.281279
-080.001,-083.122,+078.701,+1.918,+0.688,+0.194,-07.5700,+27.0830,-29.6940,+02.557822,+01.231603,+01.042980
-053.877,-083.492,+055.603,+1.922,+0.633,+0.217,+05.4020,+07.6920,-12.3510,+02.951567,+02.560093,+01.449312
-027.153,-082.528,+032.201,+1.913,+0.559,+0.282,+04.0560,+00.0410,-08.5110,+02.265414,+02.548862,+01.385763
-009.907,-080.162,+016.447,+1.927,+0.519,+0.359,+01.9030,-02.1830,-09.4430,+00.475248,+03.013702,+01.095124
-001.103,-076.464,+007.609,+1.913,+0.494,+0.446,-00.8750,-00.6970,-10.2420,-00.385552,+03.749931,+00.676145
+002.305,-071.558,+003.665,+1.927,+0.520,+0.572,-04.9550,-00.6500,-12.5670,-00.760843,+04.769339,+00.270478
+003.651,-065.272,+001.125,+1.951,+0.530,+0.753,-06.9340,-00.0400,-10.4200,-01.300302,+05.872540,+00.189035
+004.103,-058.260,-000.834,+1.965,+0.536,+0.884,-06.9420,+00.8220,-06.9750,-01.340829,+06.160886,+00.154615
+004.109,-051.294,-002.491,+1.984,+0.557,+1.109,-07.7690,+00.8890,-07.0660,-01.571540,+06.032094,+00.216156
+004.052,-044.432,-004.757,+1.989,+0.518,+1.453,-09.9610,+02.2600,-09.3610,-02.286802,+05.944946,+00.418095
+004.142,-037.661,-007.573,+1.914,+0.386,+1.723,-13.5950,+07.9100,-12.5410,-02.265697,+05.798538,+00.939135
+005.198,-031.052,-010.013,+1.708,+0.279,+1.960,-17.3340,+09.7070,-14.0190,-01.329382,+05.426823,+02.184986
+007.840,-024.542,-013.010,+1.497,+0.137,+2.121,-22.4560,+02.0990,-12.8920,-01.782362,+04.974629,+03.622674
+011.139,-018.343,-016.059,+1.375,-0.022,+2.199,-26.5180,-01.1800,-09.6040,-01.254638,+04.301837,+03.968456
+013.779,-012.851,-017.078,+1.230,-0.120,+2.280,-28.2980,-04.0870,-03.6680,+00.274437,+03.791367,+03.137395
+014.768,-008.552,-016.275,+1.127,-0.103,+2.374,-31.2120,-07.6380,+06.1250,+00.990755,+03.073261,+01.023971
+013.791,-006.450,-016.593,+1.061,-0.148,+2.398,-30.6500,-18.3450,+20.0230,-01.575665,+01.058828,-00.957656
+012.926,-007.631,-018.807,+1.094,-0.168,+2.362,-26.4190,-06.5920,+12.5940,-01.445467,-01.673867,-01.058787
+012.146,-010.421,-018.198,+1.179,-0.124,+2.333,-23.2580,-01.7970,+00.4610,+01.405789,-02.146880,-01.607451
+011.992,-012.333,-016.900,+1.240,-0.090,+2.308,+11.6910,+22.0630,-19.6820,+01.206342,-01.506247,-00.085686
+011.988,-015.552,-015.089,+1.329,-0.006,+2.273,-05.4890,-07.5970,-05.1840,+01.201831,-03.602609,-01.019820
+011.677,-019.045,-012.745,+1.441,+0.098,+2.212,-16.0630,-02.9370,-24.7030,+01.460325,-02.055231,-01.060066
+011.612,-020.878,-011.280,+1.488,+0.147,+2.170,-04.2380,+08.2530,-08.9980,+01.428651,-01.415425,-00.183047
+011.395,-022.151,-009.971,+1.530,+0.201,+2.144,-07.1330,-01.7360,-11.7200,+00.655126,-00.890295,-00.526474
+011.345,-023.095,-009.390,+1.563,+0.216,+2.129,-05.1950,+01.8010,-09.8520,+00.470915,-00.670421,-00.017803
+011.325,-023.578,-009.017,+1.577,+0.216,+2.113,-04.9750,+00.9220,-09.1390,+00.264486,-00.294833,-00.085688
+011.243,-023.813,-008.812,+1.573,+0.251,+2.102,-04.6360,+00.9130,-08.5200,+00.075635,-00.165476,-00.067654
+011.207,-024.035,-008.729,+1.591,+0.236,+2.092,-04.8310,+01.2270,-08.6060,+00.054628,-00.195135,-00.079709
+011.104,-024.291,-008.632,+1.601,+0.226,+2.098,-04.2000,+01.1530,-08.5430,+00.035903,-00.216748,-00.116553
+011.042,-024.556,-008.589,+1.587,+0.241,+2.081,-04.2730,+01.4690,-08.5030,+00.008825,-00.217794,-00.068801
+010.984,-024.800,-008.548,+1.605,+0.255,+2.092,-04.2470,+01.4820,-08.4790,+00.023178,-00.199020,-00.091318
+010.891,-025.037,-008.485,+1.610,+0.245,+2.071,-04.3030,+01.3060,-08.4270,+00.011857,-00.192285,-00.108378
+010.772,-025.257,-008.432,+1.605,+0.240,+2.081,-04.3440,+01.2930,-08.5120,-00.008941,-00.167682,-00.128414
+010.619,-025.442,-008.379,+1.619,+0.260,+2.082,-04.4690,+01.2890,-08.3990,-00.007670,-00.124440,-00.150084
+010.430,-025.598,-008.283,+1.619,+0.255,+2.060,-04.4180,+01.4320,-08.2350,+00.016708,-00.114793,-00.170748
+010.234,-025.700,-008.180,+1.615,+0.265,+2.065,-04.2190,+01.6620,-08.2780,+00.030116,-00.040707,-00.181328
+009.995,-025.828,-008.009,+1.629,+0.275,+2.066,-04.2840,+01.4020,-08.3240,+00.081087,-00.076449,-00.230609
+009.711,-025.929,-007.796,+1.629,+0.280,+2.060,-04.5010,+01.1260,-08.2560,+00.060589,-00.046936,-00.209138
+009.488,-026.025,-007.628,+1.624,+0.280,+2.065,-04.3170,+01.4630,-08.2710,+00.069653,-00.058758,-00.185086
+009.218,-026.115,-007.411,+1.619,+0.315,+2.065,-04.4110,+01.3840,-08.2780,+00.097032,-00.059055,-00.240630
+008.910,-026.291,-007.160,+1.638,+0.330,+2.071,-04.4520,+01.1440,-08.2320,+00.101984,-00.167247,-00.269201
+008.609,-026.564,-006.894,+1.629,+0.350,+2.038,-04.4650,+01.1180,-08.2330,+00.121594,-00.222844,-00.256963
+008.303,-026.886,-006.623,+1.643,+0.345,+2.033,-04.4830,+01.3200,-08.2650,+00.116492,-00.279557,-00.278636
+007.965,-027.325,-006.322,+1.657,+0.360,+2.028,-04.4980,+01.2910,-08.2900,+00.135812,-00.406573,-00.325680
+007.611,-027.949,-005.989,+1.671,+0.369,+2.018,-04.5790,+00.9200,-08.3070,+00.157785,-00.579144,-00.322946
+007.383,-028.763,-005.652,+1.690,+0.364,+1.980,-04.5460,+00.5130,-08.2870,+00.229552,-00.755412,-00.184626
+007.384,-029.850,-005.328,+1.713,+0.384,+1.965,-04.6680,+01.0810,-08.2940,+00.330898,-01.099098,-00.052727
+007.362,-031.598,-004.832,+1.746,+0.378,+1.917,-04.8370,+01.7340,-08.2590,+00.483224,-01.820883,-00.261979
+006.944,-034.442,-003.896,+1.802,+0.442,+1.832,-04.9890,+01.4730,-08.8000,+00.718365,-02.863422,-00.598007
+006.078,-038.712,-002.276,+1.872,+0.456,+1.715,-05.6400,+01.4350,-08.6200,+01.133193,-04.236313,-00.970265
+004.057,-044.756,+000.888,+1.961,+0.544,+1.517,-06.0150,+02.2010,-09.4780,+01.935313,-05.899373,-01.644890
-000.410,-052.617,+006.992,+2.045,+0.667,+1.230,-07.0060,+00.9280,-10.4170,+02.592289,-07.652585,-02.330035
-009.344,-061.456,+017.371,+2.087,+0.760,+0.904,-11.3660,+00.5140,-13.2490,+02.070886,-08.724693,-02.540735
-024.268,-068.957,+032.289,+2.078,+0.863,+0.538,-18.1330,-02.5410,-13.9120,+00.362687,-07.941372,-01.969084
-045.363,-073.501,+050.364,+2.003,+0.938,+0.294,-14.5980,-00.0220,-18.4060,-02.747846,-06.031136,-01.855006
-065.449,-074.199,+066.429,+1.928,+0.998,+0.187,-16.4000,+14.0150,-24.7100,-02.400453,-03.226786,-01.820352
-068.176,-073.386,+068.411,+1.904,+1.053,+0.147,-14.1500,+17.6510,-24.5320,-00.265055,+00.839492,-00.311414
-060.654,-072.847,+062.331,+1.937,+1.038,+0.176,-00.4690,+09.9760,-08.2170,+01.301998,+02.179442,+00.842587
-051.037,-072.893,+054.264,+1.984,+0.977,+0.222,+02.4760,+03.3560,-03.1230,+00.554656,+01.966015,+01.597376
-040.996,-073.245,+044.404,+2.040,+0.932,+0.290,+01.9950,+01.9810,-03.2760,-00.647052,+01.644088,+02.043116
-029.681,-073.277,+032.564,+2.092,+0.807,+0.386,-00.7970,+02.1540,-06.8880,-00.874930,+01.876540,+02.332532
-017.398,-072.035,+020.186,+2.115,+0.707,+0.459,-04.0760,+02.3510,-11.7330,-00.309803,+02.768137,+02.398378
-006.246,-068.727,+009.754,+2.148,+0.648,+0.586,-07.0000,+01.3560,-13.1560,+00.269974,+04.121707,+02.415860
+001.989,-063.625,+002.625,+2.171,+0.599,+0.811,-07.5040,+00.1860,-09.4840,+00.404633,+04.976437,+02.396857
+007.562,-057.758,-001.834,+2.167,+0.545,+0.997,-08.3380,-01.1490,-08.4860,+00.293259,+05.185321,+02.293837
+011.098,-051.669,-004.575,+2.083,+0.532,+1.315,-08.8900,-02.5810,-08.6250,+00.037764,+05.187553,+01.896537
+012.834,-045.734,-006.169,+1.900,+0.475,+1.574,-08.9340,-04.0400,-08.5950,-00.454345,+04.960444,+01.204462
+013.124,-040.233,-007.473,+1.708,+0.368,+1.703,-09.2160,-04.4370,-10.1360,-01.314718,+04.617414,+00.483848
+012.344,-035.143,-009.246,+1.450,+0.265,+1.698,-10.9490,-04.6710,-12.7920,-02.377410,+04.413618,-00.101398
+010.696,-030.130,-012.222,+1.384,+0.225,+1.597,-14.2490,-05.9360,-16.8460,-04.038187,+04.685310,-00.517380
+008.233,-024.838,-016.699,+1.403,+0.175,+1.620,-14.8100,-06.7070,-13.4680,-05.259334,+05.007660,-00.843360
+004.883,-020.110,-021.566,+1.417,+0.181,+1.714,-14.2180,-08.0230,-09.0320,-05.360997,+04.586667,-01.435617
+000.910,-016.578,-026.840,+1.417,+0.146,+1.888,-14.6330,-11.1640,-07.5610,-05.925012,+03.922667,-01.924769
-003.676,-014.132,-032.506,+1.431,+0.022,+1.993,-18.6700,-10.7590,-10.0140,-05.916222,+03.813215,-02.589957
-009.515,-012.073,-037.307,+1.366,-0.122,+2.155,-22.3420,-09.9960,-10.8460,-04.843117,+04.690811,-03.257003
-016.212,-010.414,-040.185,+1.263,-0.200,+2.326,-21.7910,-10.4600,+02.0510,-02.815859,+04.470737,-03.733713
-022.368,-010.456,-040.541,+1.193,-0.194,+2.339,-23.6370,-10.1880,+06.6120,-00.391568,+02.758621,-04.266128
-028.039,-012.191,-039.283,+1.155,-0.088,+2.429,-19.3160,-09.0510,+00.6740,+00.126135,+01.585354,-04.881755
-033.453,-014.713,-038.417,+1.151,+0.022,+2.483,-14.7170,-03.3670,-02.0680,-00.596356,+00.932874,-04.966448
-038.029,-016.788,-035.661,+1.146,+0.157,+2.514,-05.9610,+13.5530,-14.4240,+02.153347,+00.993152,-03.414155
-039.285,-015.801,-033.010,+1.095,+0.298,+2.549,-00.3780,+50.5330,+03.3820,+01.493718,+01.143073,+01.415878
-039.004,-016.508,-029.462,+1.128,+0.392,+2.583,+05.0770,-02.0640,-01.5690,+03.152109,-01.529791,-01.516589
-040.596,-018.916,-024.306,+1.175,+0.517,+2.589,-15.8610,-11.5500,-18.7280,+03.810313,-00.937744,-02.046497
-041.835,-020.149,-019.873,+1.180,+0.687,+2.566,-02.1790,+02.3120,-12.4980,+03.241322,-00.476278,-00.741880
-042.060,-021.138,-017.068,+1.227,+0.806,+2.557,-02.2770,-08.1840,-11.8440,+01.915759,-00.883365,-00.433334
-042.148,-022.023,-015.498,+1.260,+0.836,+2.536,-04.1380,+02.5850,-08.9060,+01.217335,-00.633320,-00.116040
-042.008,-022.796,-014.297,+1.274,+0.900,+2.498,-03.8300,+01.9960,-08.6730,+00.982838,-00.688295,-00.131361
-042.167,-023.483,-013.043,+1.293,+0.935,+2.471,-06.0360,+03.8240,-08.7400,+01.052151,-00.474463,-00.294914
-042.515,-024.033,-011.908,+1.312,+0.985,+2.445,-04.7000,+01.1350,-09.4260,+00.742790,-00.386014,-00.409965
-042.813,-024.399,-011.236,+1.326,+1.024,+2.450,-04.6260,+00.3150,-08.9430,+00.330426,-00.201066,-00.234952
-042.938,-024.514,-010.901,+1.326,+1.020,+2.461,-04.2970,+01.1560,-08.4370,+00.229520,-00.039073,-00.083718
-043.004,-024.563,-010.668,+1.307,+1.010,+2.433,-04.2610,+01.4590,-08.4260,+00.157893,-00.032002,-00.046067
-043.035,-024.611,-010.516,+1.326,+1.014,+2.440,-04.1200,+01.3620,-08.3400,+00.102470,-00.023547,-00.025326
-043.051,-024.604,-010.374,+1.321,+1.049,+2.439,-04.2870,+01.3440,-08.4680,+00.144925,+00.025994,-00.019491
-043.139,-024.521,-010.111,+1.312,+1.035,+2.428,-04.2990,+01.5790,-08.5550,+00.204875,+00.128938,-00.082107
-043.335,-024.366,-009.800,+1.316,+1.084,+2.433,-04.3600,+01.2560,-08.3150,+00.183615,+00.175122,-00.154879
-043.571,-024.196,-009.514,+1.307,+1.065,+2.460,-03.8840,+01.2650,-08.1290,+00.150640,+00.174285,-00.153117
-043.719,-024.070,-009.322,+1.298,+1.065,+2.433,-03.8490,+01.7720,-08.2180,+00.097984,+00.101724,-00.075282
-043.846,-024.016,-009.180,+1.288,+1.075,+2.427,-04.1200,+01.3030,-08.3680,+00.066307,+00.066251,-00.112596
-044.024,-024.017,-009.044,+1.284,+1.085,+2.432,-04.0970,+01.4190,-08.3590,+00.052322,+00.004677,-00.159035
-044.205,-024.075,-008.916,+1.298,+1.110,+2.438,-03.8590,+01.0680,-08.1840,+00.055845,-00.049821,-00.144900
-044.404,-024.240,-008.784,+1.279,+1.115,+2.437,-02.6340,+01.4990,-08.4810,+00.037559,-00.167568,-00.225796
-044.729,-024.622,-008.618,+1.302,+1.114,+2.416,-04.4660,+01.3760,-08.2450,+00.032485,-00.365494,-00.345381
-045.148,-025.169,-008.412,+1.312,+1.129,+2.427,-04.7330,+01.5420,-08.2740,+00.022622,-00.426014,-00.422279
-045.718,-025.672,-008.165,+1.317,+1.134,+2.400,-04.6480,+01.1890,-08.4040,+00.001872,-00.328222,-00.553498
-046.281,-026.094,-007.888,+1.321,+1.144,+2.411,-04.2230,+01.2890,-08.4290,+00.041027,-00.297468,-00.429304
-046.675,-026.513,-007.652,+1.331,+1.129,+2.373,-04.5280,+00.5290,-08.3770,+00.064503,-00.335284,-00.303299
-046.932,-026.958,-007.491,+1.321,+1.159,+2.406,-04.7670,+00.6390,-08.1650,+00.016202,-00.374344,-00.228789
-047.140,-027.450,-007.369,+1.345,+1.169,+2.401,-04.6810,+00.8540,-08.2560,+00.024365,-00.421731,-00.204125
-047.311,-028.017,-007.226,+1.349,+1.164,+2.380,-04.5880,+00.8920,-08.2290,+00.073064,-00.519040,-00.189384
-047.484,-028.749,-007.041,+1.363,+1.174,+2.358,-04.8410,+01.1250,-08.1950,+00.091959,-00.686530,-00.232274
-047.703,-029.709,-006.828,+1.396,+1.218,+2.359,-04.9230,+00.9290,-08.1080,+00.093958,-00.896068,-00.282161
-047.899,-030.968,-006.615,+1.424,+1.173,+2.301,-04.9320,+00.9910,-08.2000,+00.106969,-01.203512,-00.261613
-047.998,-032.692,-006.370,+1.466,+1.202,+2.270,-05.3200,+00.6770,-08.1650,+00.218387,-01.694478,-00.221727
-047.958,-035.021,-006.066,+1.532,+1.236,+2.229,-05.2960,+00.7750,-08.1160,+00.332923,-02.229316,-00.157292
-047.740,-038.043,-005.680,+1.593,+1.225,+2.133,-05.3550,+00.7570,-08.1170,+00.531076,-02.921970,-00.085139
-047.263,-042.118,-005.184,+1.686,+1.259,+2.006,-06.0950,+00.5240,-07.8760,+00.816773,-04.006098,+00.010284
-046.630,-047.696,-004.443,+1.836,+1.266,+1.828,-06.8790,+00.5440,-08.2260,+01.178784,-05.471988,-00.052787
-046.021,-055.364,-003.896,+1.948,+1.259,+1.582,-07.7680,+00.0240,-08.6740,+00.508736,-07.426400,-00.220514
-044.861,-064.807,-006.000,+2.084,+1.251,+1.271,-14.3340,+00.2820,-13.7160,-01.857058,-08.401725,-00.174980
-039.290,-073.710,-014.508,+2.158,+1.184,+1.013,-11.5360,-01.9530,-12.8000,-03.881586,-07.732222,+00.449189
-022.990,-080.882,-036.247,+2.163,+1.113,+0.829,-11.1780,+00.1490,-14.0530,-05.585999,-06.353124,-00.001433
+019.120,-084.563,-084.191,+2.144,+1.098,+0.665,-15.1190,+02.1020,-18.0650,-05.405023,-04.585640,-00.641894
+039.339,-085.598,-109.144,+2.097,+1.098,+0.673,-02.1560,+11.0080,-36.4350,-02.766541,+01.137030,-00.784546
-013.492,-086.893,-058.521,+2.064,+1.084,+0.770,+03.5540,+00.8960,-17.5010,-01.533969,+03.530424,-01.649590
-065.570,-084.223,-007.815,+2.022,+1.115,+0.904,+01.2390,+01.9260,-06.1050,-00.863500,+03.406057,-01.644489
-078.061,-080.648,+003.366,+2.013,+1.146,+1.100,+01.1360,+01.7370,-06.0550,-01.272156,+03.044961,-01.072405
-080.351,-077.168,+004.016,+1.980,+1.112,+1.213,-00.6330,+03.1940,-08.2140,-01.393992,+03.039733,-00.275238
-078.636,-073.342,+001.023,+1.943,+1.093,+1.381,-04.1950,+03.3110,-12.3730,-00.981424,+03.618435,+00.539266
-075.603,-068.503,-002.574,+1.901,+1.025,+1.570,-06.0470,+00.9230,-12.1770,-00.475828,+04.533785,+01.105318
-073.064,-062.873,-005.289,+1.845,+0.956,+1.716,-06.1210,-01.6020,-09.1470,-00.270860,+04.931613,+01.276922
-071.629,-057.162,-006.780,+1.686,+0.894,+1.933,-06.8390,-03.8800,-08.4790,-00.213605,+04.846530,+01.029534
-071.422,-051.575,-007.442,+1.498,+0.871,+2.045,-08.3010,-05.7410,-10.0100,-00.625269,+04.831186,+00.482257
-072.378,-045.946,-008.101,+1.400,+0.812,+2.068,-10.2290,-05.7080,-12.1480,-01.607849,+05.064466,-00.089250
-074.152,-040.014,-009.358,+1.325,+0.773,+2.212,-11.7670,-03.8880,-11.0260,-02.372520,+05.350489,-00.468106
-076.296,-034.325,-010.735,+1.255,+0.745,+2.460,-11.4160,-01.4780,-09.7270,-02.234779,+04.947889,-00.654699
-078.212,-029.316,-012.224,+1.100,+0.623,+2.694,-12.7410,+00.5900,-12.6830,-02.261281,+04.386388,-00.353538
-079.159,-024.390,-014.393,+0.744,+0.447,+2.805,-16.3750,+04.8220,-14.2370,-02.070626,+04.368794,+00.734936
-078.916,-019.154,-015.924,+0.477,+0.325,+2.789,-17.8710,+05.2260,-10.1050,-00.710556,+04.305176,+01.680771
-078.126,-014.074,-016.141,+0.327,+0.301,+2.734,-18.6530,+02.5670,-05.4260,+00.269436,+03.903647,+01.940704
-077.070,-009.542,-016.206,+0.158,+0.323,+2.693,-19.1690,-00.7390,-01.9630,-00.035095,+03.328219,+01.924062
-076.276,-005.830,-016.668,+0.032,+0.324,+2.688,-22.3590,-05.6100,+03.0610,-00.492564,+02.623442,+01.279595
-076.097,-003.654,-017.934,-0.025,+0.309,+2.674,-21.2510,-14.0180,+11.8290,-01.550050,+01.104604,+00.358962
-076.446,-003.828,-019.840,-0.043,+0.274,+2.652,-19.8450,-08.7810,+05.8660,-01.346272,-00.561762,-00.896153
-078.161,-005.093,-019.800,-0.029,+0.249,+2.669,-18.8480,-02.2530,-06.1380,+00.494420,-00.324097,-02.163361
-080.830,-006.564,-018.573,-0.034,+0.294,+2.658,-12.2250,+03.4020,-04.6420,+01.126211,-00.561577,-02.651188
-082.784,-007.549,-017.383,-0.025,+0.334,+2.658,+07.0320,+17.4520,-10.6180,+00.264507,-00.367641,-01.347661
-082.948,-009.753,-017.816,+0.036,+0.314,+2.699,+03.4870,+14.8190,+00.0740,-00.536154,-02.864102,-00.483245
-081.550,-013.886,-017.152,+0.163,+0.367,+2.677,-14.6050,-19.0860,-19.3890,+01.074149,-03.614100,-00.030906
-081.900,-016.733,-016.665,+0.271,+0.396,+2.703,-05.6210,+05.7500,-14.8590,+00.143835,-01.748194,-00.993528
-081.354,-019.053,-015.779,+0.355,+0.460,+2.685,-07.6530,+09.3830,-09.4380,+01.682272,-02.238633,+00.058624
-081.194,-021.152,-013.904,+0.426,+0.515,+2.676,-05.9290,-04.5840,-11.5630,+01.143211,-01.629406,-00.691929
-081.308,-022.961,-012.840,+0.472,+0.559,+2.656,-05.7240,+03.9780,-10.0510,+00.820987,-01.424609,-00.233166
-081.354,-024.092,-012.201,+0.510,+0.584,+2.658,-07.3790,+01.7350,-10.3450,+00.392311,-00.640607,-00.260746
-081.476,-024.600,-011.811,+0.533,+0.583,+2.637,-03.6860,+00.6600,-09.2380,+00.301962,-00.359489,-00.160667
-081.559,-024.947,-011.558,+0.547,+0.613,+2.621,-04.6270,+01.4650,-08.7670,+00.162895,-00.266429,-00.093972
-081.580,-025.211,-011.413,+0.557,+0.603,+2.660,-04.2930,+01.2890,-08.7630,+00.086582,-00.194013,-00.041342
-081.607,-025.414,-011.345,+0.576,+0.603,+2.649,-04.1340,+01.7680,-08.4090,+00.044737,-00.157624,-00.074734
-081.723,-025.601,-011.208,+0.566,+0.623,+2.643,-04.2440,+01.3370,-08.2910,+00.092460,-00.136159,-00.138902
-081.916,-025.753,-011.026,+0.571,+0.633,+2.655,-04.4260,+01.5780,-08.4630,+00.091312,-00.095343,-00.180742
-082.144,-025.861,-010.790,+0.576,+0.633,+2.622,-04.5380,+01.4910,-08.4990,+00.129619,-00.031342,-00.208274
-082.426,-025.891,-010.488,+0.576,+0.633,+2.638,-04.6320,+01.6730,-08.2640,+00.169964,+00.034950,-00.226979
-082.693,-025.908,-010.186,+0.562,+0.658,+2.638,-04.4760,+01.0500,-08.1870,+00.146354,-00.001710,-00.188742
-082.871,-025.976,-009.948,+0.557,+0.653,+2.626,-04.3000,+01.2870,-08.3430,+00.134153,-00.051521,-00.127379
-082.998,-026.073,-009.737,+0.566,+0.668,+2.627,-04.4380,+01.4180,-08.3610,+00.135380,-00.073811,-00.104825
-083.114,-026.167,-009.554,+0.571,+0.668,+2.638,-04.4070,+01.3520,-08.2830,+00.108445,-00.065265,-00.104216
-083.264,-026.230,-009.343,+0.562,+0.663,+2.632,-04.4860,+01.2100,-08.4150,+00.137477,-00.016288,-00.130951
-083.467,-026.228,-009.052,+0.562,+0.693,+2.605,-04.5590,+01.4240,-08.4550,+00.199988,+00.060508,-00.171070
-083.720,-026.151,-008.706,+0.548,+0.718,+2.642,-04.2420,+01.3260,-08.0310,+00.179505,+00.097325,-00.184360
-083.961,-026.115,-008.439,+0.548,+0.703,+2.609,-04.1540,+01.1800,-08.2760,+00.130608,+00.024771,-00.193102
-084.199,-026.224,-008.192,+0.557,+0.723,+2.604,-04.1560,+00.9970,-08.3030,+00.120958,-00.118037,-00.191568
-084.389,-026.460,-007.996,+0.557,+0.713,+2.642,-04.2630,+01.0380,-08.2850,+00.086749,-00.220936,-00.165813
-084.540,-026.806,-007.834,+0.562,+0.703,+2.632,-04.4360,+00.9520,-08.2600,+00.080179,-00.326195,-00.154091
-084.654,-027.260,-007.696,+0.576,+0.713,+2.611,-04.4560,+00.8430,-08.2950,+00.068888,-00.402595,-00.125420
-084.707,-027.787,-007.577,+0.604,+0.738,+2.628,-04.3700,+01.0800,-08.3170,+00.096638,-00.484063,-00.094518
-084.732,-028.492,-007.426,+0.627,+0.757,+2.612,-04.4770,+01.1120,-08.3670,+00.141872,-00.713054,-00.111414
-084.794,-029.584,-007.201,+0.646,+0.752,+2.591,-04.6440,+01.1000,-08.3440,+00.171300,-01.098247,-00.210322
-084.938,-031.272,-006.872,+0.702,+0.771,+2.583,-04.7340,+00.8680,-08.3070,+00.275583,-01.680596,-00.314598
-084.999,-033.882,-006.383,+0.773,+0.771,+2.559,-04.8410,+00.8660,-08.5940,+00.479678,-02.646136,-00.296829
-084.991,-037.857,-005.621,+0.899,+0.829,+2.493,-05.2170,+01.6560,-08.3840,+00.767706,-03.975142,-00.455481
-085.529,-043.581,-004.029,+1.068,+0.872,+2.407,-05.7140,+02.8520,-09.1010,+01.323509,-05.531489,-01.023638
-087.402,-051.017,-000.215,+1.232,+0.939,+2.245,-07.7830,+01.5230,-10.5200,+02.664802,-06.979731,-01.494766
-091.586,-059.785,+006.035,+1.447,+1.066,+2.008,-10.2720,-00.9220,-14.2910,+01.755408,-08.032443,-01.692042
-098.760,-068.181,+012.506,+1.620,+1.118,+1.792,-18.0030,+00.8370,-17.4880,-00.963074,-07.197386,-01.457433
-110.980,-074.215,+021.869,+1.690,+1.117,+1.642,-11.4390,-00.5800,-18.0850,-02.403860,-05.253301,-01.882890
-126.327,-077.097,+034.358,+1.723,+1.146,+1.534,-12.6460,+11.5400,-25.9180,-01.613740,-02.568273,-01.511084
-130.650,-076.759,+038.534,+1.686,+1.171,+1.533,-08.5320,+14.0760,-23.8730,+00.213753,+00.581842,-00.478230
-127.095,-075.519,+036.834,+1.648,+1.147,+1.509,+00.9740,+07.0700,-08.4370,+01.766999,+01.487632,+00.231079
-121.454,-074.545,+033.027,+1.639,+1.157,+1.514,+02.4920,+02.8460,-04.8810,+01.086780,+01.374968,+00.752986
-114.383,-073.682,+026.708,+1.615,+1.167,+1.562,+00.9870,+02.3770,-06.6480,+00.090627,+01.634144,+01.274868
-106.083,-072.198,+018.723,+1.601,+1.088,+1.584,-01.4230,+02.6060,-09.2280,-00.019113,+02.287785,+01.521524
-098.163,-069.496,+011.358,+1.550,+1.064,+1.686,-03.4450,+01.6130,-10.3180,+00.146708,+03.219590,+01.620866
-091.542,-065.554,+005.298,+1.475,+1.030,+1.770,-04.0070,+00.6770,-08.8460,+00.000068,+03.963252,+01.713674
-086.668,-060.921,+000.859,+1.390,+0.946,+1.832,-04.6410,-00.2550,-07.1000,-00.099425,+04.200241,+01.659648
-083.386,-056.027,-002.155,+1.301,+0.957,+1.872,-06.0310,-01.0520,-07.1220,-00.239805,+04.276237,+01.465661
-081.303,-051.043,-004.262,+1.236,+0.933,+2.011,-06.6140,-00.7860,-07.0480,-00.463992,+04.260755,+01.242391
-079.934,-046.220,-006.014,+1.166,+0.904,+2.090,-06.8540,-00.0660,-07.1100,-00.730746,+04.009160,+01.121953
-078.868,-041.714,-007.872,+1.053,+0.901,+2.183,-08.7550,+01.1490,-09.6550,-01.137354,+03.732374,+01.177113
-077.633,-037.197,-010.333,+0.922,+0.858,+2.276,-13.1710,+04.5990,-13.3010,-01.572170,+03.826810,+01.686341
-075.714,-032.256,-012.841,+0.838,+0.824,+2.305,-17.7880,+03.5570,-11.4570,-00.964999,+03.977582,+02.464020
-073.656,-027.291,-014.610,+0.744,+0.810,+2.350,-20.8230,-01.6660,-07.5110,-00.489439,+03.703429,+02.476828
-072.158,-022.891,-015.411,+0.688,+0.776,+2.413,-23.0310,-04.2310,-04.4930,+00.069374,+03.217943,+01.914910
-071.493,-019.125,-015.133,+0.636,+0.701,+2.433,-18.3420,-03.5560,-02.6680,+00.671268,+02.954541,+00.985508
-071.872,-016.035,-014.220,+0.529,+0.688,+2.456,-21.6520,-03.1520,+00.3610,+00.635267,+02.543411,-00.019204
-073.162,-013.764,-013.696,+0.440,+0.674,+2.501,-20.5520,-04.7710,+04.4060,-00.315885,+01.885582,-00.798749
-074.366,-013.064,-014.890,+0.407,+0.599,+2.511,-17.5250,-03.0400,+13.9590,-01.545203,-00.065567,-00.793908
-074.614,-014.940,-016.220,+0.449,+0.589,+2.513,-20.3890,-03.5890,+09.8440,-01.155585,-02.331393,-00.600079
-073.688,-017.338,-017.169,+0.543,+0.578,+2.501,-05.5810,+19.2980,-19.6560,-00.431439,-01.683728,+00.777048
-073.006,-018.658,-016.353,+0.571,+0.597,+2.497,+00.6280,+07.3200,+00.5920,+01.015993,-01.741581,-00.576029
-073.647,-021.822,-013.431,+0.660,+0.711,+2.456,-17.6100,-09.6770,-32.0500,+02.579963,-01.852443,-01.388284
-074.654,-023.375,-012.308,+0.688,+0.776,+2.462,-00.2530,+06.1830,-06.6670,+00.819427,-01.077210,-00.579883
-074.589,-024.472,-011.945,+0.730,+0.750,+2.448,-11.9940,-05.1790,-11.6760,+00.132549,-00.529722,-00.107294
-074.378,-024.789,-012.175,+0.740,+0.765,+2.443,-04.2210,+01.9530,-09.5390,-00.138502,-00.258592,+00.221158
-074.146,-025.086,-012.363,+0.758,+0.765,+2.454,-05.9190,+02.9790,-08.4550,+00.027323,-00.315984,+00.067627
-074.144,-025.479,-012.194,+0.758,+0.780,+2.416,-04.5740,+01.8040,-08.5780,+00.189317,-00.325593,-00.130632
-074.299,-025.753,-012.016,+0.763,+0.760,+2.422,-04.6090,+01.5320,-08.5520,+00.057832,-00.133836,-00.166793
-074.431,-025.829,-011.960,+0.772,+0.810,+2.444,-04.5780,+01.1870,-08.3190,-00.035890,-00.025452,-00.074692
-074.445,-025.908,-012.015,+0.772,+0.750,+2.444,-04.3770,+01.6930,-08.3120,-00.058667,-00.095845,-00.018030
-074.438,-026.054,-012.081,+0.768,+0.775,+2.433,-04.4360,+01.5290,-08.3650,-00.062262,-00.119283,-00.017645
-074.422,-026.161,-012.165,+0.768,+0.785,+2.444,-04.5220,+01.6130,-08.3190,-00.071408,-00.064607,-00.003412
-074.413,-026.208,-012.254,+0.782,+0.770,+2.417,-04.4940,+01.7040,-08.2530,-00.067762,-00.031408,-00.005412
-074.447,-026.212,-012.271,+0.772,+0.760,+2.433,-04.3940,+01.7550,-08.2450,-00.014991,+00.028630,-00.040862
-074.532,-026.174,-012.230,+0.768,+0.775,+2.444,-04.4600,+01.6300,-08.2380,+00.007041,+00.056986,-00.062435
-074.629,-026.102,-012.181,+0.768,+0.760,+2.428,-04.3840,+01.6790,-08.2000,+00.009921,+00.087778,-00.058488
-074.704,-025.996,-012.111,+0.772,+0.790,+2.433,-04.2840,+01.7480,-08.2550,+00.060597,+00.113841,-00.028665
-074.800,-025.859,-011.919,+0.754,+0.800,+2.438,-04.2950,+01.7320,-08.2730,+00.151781,+00.139452,-00.061233
-074.914,-025.742,-011.699,+0.754,+0.775,+2.427,-04.4320,+01.6590,-08.2450,+00.140566,+00.106596,-00.061425
-075.011,-025.642,-011.506,+0.744,+0.820,+2.421,-04.4190,+01.5420,-08.2600,+00.124932,+00.108169,-00.057305
-075.114,-025.521,-011.310,+0.740,+0.820,+2.437,-04.3550,+01.5530,-08.3050,+00.136162,+00.121891,-00.056324
-075.193,-025.419,-011.129,+0.730,+0.770,+2.431,-04.2160,+01.5580,-08.2740,+00.122850,+00.086785,-00.037629
-075.260,-025.346,-010.968,+0.730,+0.800,+2.415,-04.3070,+01.5610,-08.3260,+00.115115,+00.070983,-00.040000
-075.349,-025.259,-010.805,+0.740,+0.805,+2.437,-04.2330,+01.6390,-08.3070,+00.104303,+00.094386,-00.065105
-075.463,-025.177,-010.635,+0.721,+0.815,+2.409,-04.2220,+01.5390,-08.3130,+00.102054,+00.071078,-00.072546
-075.552,-025.141,-010.483,+0.726,+0.820,+2.425,-04.2290,+01.4270,-08.3670,+00.097754,+00.034481,-00.059520
-075.629,-025.117,-010.347,+0.726,+0.845,+2.436,-04.2550,+01.3770,-08.3920,+00.085152,+00.033996,-00.056813
-075.735,-025.070,-010.184,+0.726,+0.815,+2.436,-04.3060,+01.5510,-08.4790,+00.125804,+00.074080,-00.090602
-075.912,-024.944,-009.907,+0.716,+0.835,+2.425,-04.2740,+01.6720,-08.5680,+00.205083,+00.170057,-00.137667
-076.159,-024.754,-009.528,+0.712,+0.850,+2.408,-04.2020,+01.6440,-08.4160,+00.254139,+00.196783,-00.180532
-076.438,-024.615,-009.122,+0.707,+0.856,+2.435,-04.1490,+01.2820,-08.3970,+00.246908,+00.121367,-00.205666
-076.707,-024.578,-008.739,+0.693,+0.861,+2.418,-04.2340,+00.9960,-08.4440,+00.230181,+00.034828,-00.205948
-076.962,-024.607,-008.402,+0.693,+0.886,+2.434,-03.9390,+01.0790,-08.1900,+00.177515,-00.008779,-00.205572
-077.249,-024.691,-008.136,+0.679,+0.896,+2.434,-03.9840,+01.0380,-08.3240,+00.108150,-00.068144,-00.258993
-077.556,-024.858,-007.863,+0.674,+0.886,+2.417,-04.1670,+00.8300,-08.3980,+00.133823,-00.131575,-00.250394
-077.802,-025.044,-007.636,+0.698,+0.911,+2.423,-04.2780,+00.6290,-08.4880,+00.085052,-00.125766,-00.183172
-077.945,-025.168,-007.514,+0.693,+0.891,+2.412,-04.3390,+00.7800,-08.5150,+00.038063,-00.066241,-00.090001
-078.004,-025.223,-007.448,+0.684,+0.891,+2.396,-04.3320,+00.8290,-08.4090,+00.036851,-00.031095,-00.041073
-078.044,-025.243,-007.386,+0.688,+0.911,+2.418,-04.2940,+00.9150,-08.4260,+00.036513,-00.004037,-00.029609
-078.077,-025.240,-007.334,+0.702,+0.920,+2.407,-04.2600,+00.8820,-08.4070,+00.029027,+00.012727,-00.021872
-078.096,-025.218,-007.299,+0.698,+0.905,+2.407,-04.2020,+00.8910,-08.4740,+00.023714,+00.022047,-00.008485
-078.107,-025.206,-007.268,+0.698,+0.906,+2.418,-04.1770,+00.9280,-08.3930,+00.020322,+00.004215,-00.005695
-078.117,-025.218,-007.239,+0.688,+0.876,+2.407,-04.2130,+01.0000,-08.4640,+00.023367,-00.016946,-00.011986
-078.135,-025.243,-007.198,+0.702,+0.900,+2.413,-04.2830,+00.8310,-08.4310,+00.032175,-00.017340,-00.016894
-078.159,-025.259,-007.164,+0.688,+0.896,+2.423,-04.1560,+01.1390,-08.4000,+00.011289,-00.007767,-00.019929
-078.189,-025.270,-007.138,+0.688,+0.896,+2.407,-04.2560,+01.0890,-08.4570,+00.011358,-00.009852,-00.032830
-078.240,-025.299,-007.102,+0.688,+0.901,+2.412,-04.2940,+00.9080,-08.4710,+00.008951,-00.023306,-00.045676
-078.295,-025.321,-007.058,+0.702,+0.910,+2.418,-04.1940,+00.9040,-08.4320,+00.023337,-00.004912,-00.042604
-078.334,-025.319,-007.009,+0.693,+0.881,+2.402,-04.2900,+00.8640,-08.4910,+00.027727,+00.010384,-00.023247
-078.358,-025.313,-006.962,+0.688,+0.920,+2.390,-04.2470,+00.8600,-08.4400,+00.033693,+00.005793,-00.013888
-078.379,-025.310,-006.936,+0.684,+0.921,+2.428,-04.1010,+01.3960,-08.3890,+00.001885,+00.005673,-00.018044
-078.399,-025.317,-006.921,+0.693,+0.900,+2.396,-04.2660,+00.9690,-08.3870,+00.005251,-00.007788,-00.016062
-078.414,-025.340,-006.910,+0.684,+0.926,+2.417,-04.2810,+00.8340,-08.4140,+00.001305,-00.024981,-00.009590
-078.417,-025.367,-006.913,+0.679,+0.921,+2.423,-04.2580,+00.8100,-08.4290,-00.006145,-00.020014,-00.002792
-078.415,-025.383,-006.929,+0.693,+0.905,+2.401,-04.2550,+00.8150,-08.4150,-00.016656,-00.013282,+00.002888
-078.407,-025.388,-006.948,+0.688,+0.906,+2.418,-04.1870,+00.9090,-08.3780,-00.011743,-00.001505,+00.007615
-078.404,-025.386,-006.960,+0.688,+0.921,+2.412,-04.2320,+00.9860,-08.4060,-00.010427,+00.002108,-00.000199
-078.415,-025.388,-006.965,+0.693,+0.890,+2.396,-04.2490,+00.9290,-08.4520,-00.008036,-00.003494,-00.012991
-078.434,-025.400,-006.964,+0.684,+0.921,+2.401,-04.2920,+00.9210,-08.4140,-00.006847,-00.008733,-00.016538
-078.455,-025.410,-006.964,+0.702,+0.940,+2.412,-04.2570,+00.9220,-08.4310,-00.008413,-00.007336,-00.015997
-078.475,-025.428,-006.963,+0.693,+0.920,+2.390,-04.2270,+00.8760,-08.4530,-00.006740,-00.016626,-00.017425
-078.495,-025.457,-006.961,+0.684,+0.926,+2.401,-04.3000,+00.8060,-08.3920,-00.005268,-00.026061,-00.016559
-078.506,-025.487,-006.963,+0.684,+0.926,+2.417,-04.2440,+00.9620,-08.3990,-00.005845,-00.023014,-00.009028
-078.515,-025.513,-006.964,+0.698,+0.891,+2.413,-04.2970,+00.9040,-08.3810,-00.002696,-00.021390,-00.008963
-078.520,-025.533,-006.962,+0.688,+0.916,+2.417,-04.3600,+00.9270,-08.3950,+00.001440,-00.011582,-00.004182
-078.527,-025.538,-006.957,+0.698,+0.910,+2.412,-04.2630,+00.9930,-08.4040,+00.001022,-00.000539,-00.009782
-078.546,-025.544,-006.942,+0.684,+0.921,+2.401,-04.3020,+00.8940,-08.3780,+00.006327,-00.006624,-00.017820
-078.567,-025.560,-006.927,+0.698,+0.930,+2.407,-04.2880,+00.8490,-08.3930,+00.003215,-00.012867,-00.015535
-078.579,-025.577,-006.922,+0.698,+0.916,+2.418,-04.2400,+00.8940,-08.3850,-00.002988,-00.012128,-00.006848
-078.582,-025.600,-006.925,+0.688,+0.901,+2.396,-04.2970,+00.8870,-08.3770,-00.003373,-00.022827,-00.002916
-078.583,-025.627,-006.928,+0.684,+0.901,+2.401,-04.3030,+00.9490,-08.4010,-00.003680,-00.020810,-00.003133
-078.587,-025.646,-006.926,+0.693,+0.905,+2.401,-04.2990,+00.9460,-08.3510,+00.000107,-00.010941,-00.005498
-078.599,-025.656,-006.916,+0.698,+0.910,+2.412,-04.3190,+00.8840,-08.4130,+00.004485,-00.005323,-00.009792
-078.611,-025.661,-006.906,+0.693,+0.910,+2.396,-04.3030,+00.9150,-08.4000,+00.000184,-00.001307,-00.009096
-078.623,-025.662,-006.902,+0.688,+0.921,+2.428,-04.3230,+00.9050,-08.4000,-00.002273,+00.003417,-00.009308
-078.636,-025.666,-006.898,+0.688,+0.925,+2.396,-04.2740,+00.8780,-08.4180,-00.003492,-00.005409,-00.010392
-078.649,-025.680,-006.898,+0.688,+0.941,+2.412,-04.2610,+00.9020,-08.3620,-00.008635,-00.012437,-00.010442
-078.659,-025.698,-006.902,+0.684,+0.926,+2.401,-04.3410,+00.9260,-08.3890,-00.008749,-00.014364,-00.008387
-078.666,-025.719,-006.905,+0.698,+0.885,+2.396,-04.3110,+00.9140,-08.4110,-00.005250,-00.016942,-00.008050
-078.676,-025.739,-006.901,+0.688,+0.926,+2.412,-04.3020,+00.8860,-08.4310,-00.000725,-00.015983,-00.010991
-078.687,-025.764,-006.896,+0.698,+0.920,+2.407,-04.2780,+00.8750,-08.4130,-00.002611,-00.022945,-00.009336
-078.699,-025.797,-006.896,+0.698,+0.930,+2.401,-04.2950,+00.8650,-08.3630,-00.009563,-00.031331,-00.012643
-078.717,-025.841,-006.900,+0.688,+0.921,+2.412,-04.3120,+00.8930,-08.4030,-00.012704,-00.036822,-00.020650
-078.737,-025.891,-006.900,+0.693,+0.926,+2.418,-04.3570,+00.8770,-08.3770,-00.011105,-00.041671,-00.018930
-078.752,-025.938,-006.904,+0.693,+0.900,+2.380,-04.3270,+00.8670,-08.3610,-00.013153,-00.037280,-00.013273
-078.765,-025.984,-006.910,+0.702,+0.900,+2.407,-04.3630,+00.9150,-08.3550,-00.012627,-00.037604,-00.011295
-078.777,-026.034,-006.914,+0.702,+0.910,+2.424,-04.3630,+00.8860,-08.3750,-00.008533,-00.040089,-00.012546
-078.789,-026.083,-006.914,+0.702,+0.885,+2.407,-04.3410,+00.9180,-08.3700,-00.005415,-00.037599,-00.011363
-078.803,-026.130,-006.908,+0.702,+0.940,+2.391,-04.3680,+00.9020,-08.3800,-00.000644,-00.036837,-00.014654
-078.820,-026.177,-006.900,+0.698,+0.910,+2.412,-04.3970,+00.8960,-08.3470,-00.004067,-00.038465,-00.016326
-078.837,-026.227,-006.897,+0.716,+0.905,+2.402,-04.4010,+00.8640,-08.3240,-00.008504,-00.041424,-00.016577
-078.852,-026.283,-006.896,+0.712,+0.905,+2.386,-04.3710,+00.8820,-08.4020,-00.009959,-00.047164,-00.013657
-078.862,-026.338,-006.900,+0.698,+0.925,+2.418,-04.3880,+00.8510,-08.3370,-00.012464,-00.042050,-00.009898
-078.867,-026.385,-006.909,+0.721,+0.890,+2.397,-04.4140,+00.9150,-08.3610,-00.014438,-00.036783,-00.004196
-078.872,-026.430,-006.915,+0.716,+0.910,+2.397,-04.4120,+00.9040,-08.3670,-00.009398,-00.035398,-00.007689
-078.881,-026.473,-006.912,+0.716,+0.945,+2.402,-04.4250,+00.8880,-08.3410,-00.003672,-00.033531,-00.009209
-078.893,-026.512,-006.900,+0.707,+0.905,+2.397,-04.4230,+00.9540,-08.3900,+00.007713,-00.025826,-00.013225
-078.911,-026.548,-006.878,+0.716,+0.915,+2.402,-04.4780,+00.8500,-08.2960,+00.004428,-00.028882,-00.015270
-078.930,-026.588,-006.862,+0.712,+0.910,+2.413,-04.4510,+00.8290,-08.3040,-00.001737,-00.031214,-00.014672
-078.945,-026.633,-006.851,+0.726,+0.885,+2.392,-04.4930,+00.8760,-08.3390,-00.003462,-00.036385,-00.013211
-078.959,-026.677,-006.841,+0.721,+0.920,+2.397,-04.4790,+00.8710,-08.3320,-00.002793,-00.030666,-00.010384
-078.974,-026.711,-006.829,+0.730,+0.915,+2.425,-04.4520,+00.8810,-08.3140,-00.002615,-00.020200,-00.009097
-078.984,-026.733,-006.818,+0.716,+0.915,+2.402,-04.4620,+00.8790,-08.3380,-00.000520,-00.011462,-00.003866
-078.991,-026.750,-006.804,+0.721,+0.910,+2.381,-04.4790,+00.8590,-08.3120,+00.001663,-00.008475,-00.002529
-078.996,-026.762,-006.789,+0.716,+0.925,+2.386,-04.4690,+00.8800,-08.3000,+00.003137,-00.001960,-00.000115
-079.003,-026.766,-006.773,+0.712,+0.890,+2.391,-04.4460,+00.9030,-08.3170,+00.001894,+00.002663,-00.001557
-079.010,-026.768,-006.755,+0.716,+0.915,+2.397,-04.4920,+00.8910,-08.3440,+00.004057,+00.004668,+00.000984
-079.018,-026.772,-006.735,+0.712,+0.920,+2.402,-04.4450,+00.8590,-08.3210,+00.003908,+00.003243,-00.002658
-079.028,-026.781,-006.714,+0.716,+0.920,+2.397,-04.4390,+00.8580,-08.3210,+00.002514,-00.003705,-00.000927
