sep=,
DeviceTag:,A,,,,,,,,,,,,,,,,,
FirmwareVersion:,2.2.1,,,,,,,,,,,,,,,,,
AppVersion:,2022.0.1,,,,,,,,,,,,,,,,,
SyncStatus:,Synced,,,,,,,,,,,,,,,,,
OutputRate:,60Hz,,,,,,,,,,,,,,,,,
FilterProfile:,General,,,,,,,,,,,,,,,,,
Measurement Mode:,Inertial Mode - Rate quantities (with mag),,,,,,,,,,,,,,,,,
StartTime:,2022-08-05 15:05:44.656 +0300,,,,,,,,,,,,,,,,,
© Xsens Technologies B. V. 2005-2022,,,,,,,,,,,,,,,,,,,

PacketCounter,SampleTimeFine,Acc_X,Acc_Y,Acc_Z,Gyr_X,Gyr_Y,Gyr_Z,Mag_X,Mag_Y,Mag_Z
1, 1686707249, -5.030330657958984, 1.4187425374984741, 8.318087577819824, -2.861475944519043, -1.4334914684295654, -2.696287155151367, 0.04150390625, -0.154052734375, -0.83154296875
2, 1686723916, -5.05803918838501, 1.42624831199646, 8.324568748474121, -2.808624505996704, -1.4031404256820679, -2.613084554672241, 0.04248046875, -0.153564453125, -0.830810546875
3, 1686740583, -5.0460638999938965, 1.41701078414917, 8.309234619140625, -2.6969408988952637, -1.4538154602050781, -2.594285011291504, 0.0419921875, -0.15576171875, -0.833984375
4, 1686757250, -5.051319122314453, 1.4187562465667725, 8.313239097595215, -2.5762152671813965, -1.320322036743164, -2.589867115020752, 0.04248046875, -0.152099609375, -0.8310546875
5, 1686773917, -5.055098533630371, 1.4353569746017456, 8.29415512084961, -2.593503952026367, -1.3470488786697388, -2.4588706493377686, 0.041015625, -0.1552734375, -0.83349609375
6, 1686790584, -5.054589748382568, 1.42644202709198, 8.328340530395508, -2.606463670730591, -1.3355486392974854, -2.5281529426574707, 0.0419921875, -0.154541015625, -0.830810546875
7, 1686807251, -5.058385848999023, 1.4184925556182861, 8.301003456115723, -2.668292999267578, -1.382368803024292, -2.554521322250366, 0.04345703125, -0.15576171875, -0.831298828125
8, 1686823918, -5.056550979614258, 1.4406166076660156, 8.313963890075684, -2.665360450744629, -1.2810578346252441, -2.5771119594573975, 0.04345703125, -0.15576171875, -0.831298828125
9, 1686840585, -5.05380392074585, 1.4409815073013306, 8.31252384185791, -2.7006418704986572, -1.2868590354919434, -2.6237525939941406, 0.04248046875, -0.153564453125, -0.8330078125
10, 1686857252, -5.058279514312744, 1.4169880151748657, 8.324544906616211, -2.7601397037506104, -1.2678413391113281, -2.750535011291504, 0.04248046875, -0.153076171875, -0.829833984375
11, 1686873919, -5.062926769256592, 1.4182456731796265, 8.32616138458252, -2.80096697807312, -1.2875378131866455, -2.6272614002227783, 0.04345703125, -0.153564453125, -0.83349609375
12, 1686890586, -5.066231727600098, 1.41136634349823, 8.290650367736816, -2.7132177352905273, -1.352466106414795, -2.5098910331726074, 0.04248046875, -0.1552734375, -0.829345703125
13, 1686907253, -5.049759864807129, 1.4380004405975342, 8.316012382507324, -2.682162046432495, -1.293979287147522, -2.4969308376312256, 0.0439453125, -0.1552734375, -0.831298828125
14, 1686923920, -5.055257320404053, 1.4127192497253418, 8.318452835083008, -2.6621077060699463, -1.3229986429214478, -2.5397427082061768, 0.04345703125, -0.154052734375, -0.8330078125
15, 1686940587, -5.0619683265686035, 1.4202693700790405, 8.320234298706055, -2.603966236114502, -1.4185210466384888, -2.5371813774108887, 0.040283203125, -0.153564453125, -0.83349609375
16, 1686957254, -5.055271148681641, 1.4186846017837524, 8.321768760681152, -2.521775245666504, -1.3194894790649414, -2.4183642864227295, 0.041259765625, -0.153076171875, -0.828857421875
17, 1686973921, -5.05574893951416, 1.4273165464401245, 8.310687065124512, -2.5494751930236816, -1.388938307762146, -2.40836238861084, 0.04345703125, -0.15380859375, -0.83447265625
18, 1686990588, -5.065237522125244, 1.4214777946472168, 8.32366943359375, -2.5726678371429443, -1.4851268529891968, -2.5177669525146484, 0.0439453125, -0.15576171875, -0.830322265625
19, 1687007255, -5.043905735015869, 1.4291406869888306, 8.292189598083496, -2.552370071411133, -1.5592118501663208, -2.521544933319092, 0.0419921875, -0.154541015625, -0.83203125
20, 1687023922, -5.059078693389893, 1.4222261905670166, 8.316566467285156, -2.610344409942627, -1.5690853595733643, -2.4580512046813965, 0.04296875, -0.153076171875, -0.83154296875
21, 1687040589, -5.061725616455078, 1.4306896924972534, 8.309959411621094, -2.5236454010009766, -1.558878779411316, -2.431209087371826, 0.04150390625, -0.154541015625, -0.8330078125
22, 1687057256, -5.044900894165039, 1.4218459129333496, 8.306239128112793, -2.4040467739105225, -1.4001567363739014, -2.426560163497925, 0.04345703125, -0.154296875, -0.8330078125
23, 1687073923, -5.05088472366333, 1.4200934171676636, 8.329940795898438, -2.359595537185669, -1.3416188955307007, -2.36909818649292, 0.0419921875, -0.152587890625, -0.83251953125
24, 1687090590, -5.08613920211792, 1.433281660079956, 8.320380210876465, -2.493985652923584, -1.276511311531067, -2.344740629196167, 0.0419921875, -0.15478515625, -0.83203125
25, 1687107257, -5.054806232452393, 1.4254391193389893, 8.320128440856934, -2.565124988555908, -1.4149866104125977, -2.5052425861358643, 0.04248046875, -0.15576171875, -0.830810546875
26, 1687123924, -5.055685997009277, 1.4049047231674194, 8.306381225585938, -2.5845394134521484, -1.567702293395996, -2.4336678981781006, 0.0439453125, -0.154296875, -0.832763671875
27, 1687140591, -5.064484119415283, 1.4256640672683716, 8.320873260498047, -2.567366123199463, -1.4446589946746826, -2.468411445617676, 0.04248046875, -0.1552734375, -0.833984375
28, 1687157258, -5.056281566619873, 1.4332950115203857, 8.313133239746094, -2.488952875137329, -1.426883578300476, -2.4141123294830322, 0.04345703125, -0.153564453125, -0.83447265625
29, 1687173925, -5.054300785064697, 1.420491099357605, 8.328624725341797, -2.5342483520507812, -1.3562051057815552, -2.4544904232025146, 0.04248046875, -0.154541015625, -0.830810546875
30, 1687190592, -5.065052509307861, 1.420620083808899, 8.296767234802246, -2.533762216567993, -1.385391116142273, -2.4643898010253906, 0.04296875, -0.154052734375, -0.830810546875
31, 1687207259, -5.057565689086914, 1.4121904373168945, 8.30469799041748, -2.4560914039611816, -1.2953110933303833, -2.4423372745513916, 0.0419921875, -0.153564453125, -0.83154296875
32, 1687223926, -5.042783737182617, 1.4179356098175049, 8.309473037719727, -2.4741742610931396, -1.181347370147705, -2.4303507804870605, 0.04150390625, -0.154296875, -0.833984375
33, 1687240593, -5.075531482696533, 1.4166405200958252, 8.315983772277832, -2.2382233142852783, -1.0078788995742798, -2.3654160499572754, 0.04150390625, -0.153076171875, -0.83349609375
34, 1687257260, -5.070634841918945, 1.4251391887664795, 8.309947967529297, -2.2954227924346924, -1.111591100692749, -2.374783754348755, 0.04345703125, -0.152587890625, -0.83203125
35, 1687273927, -5.046333312988281, 1.4301544427871704, 8.322525978088379, -2.4242420196533203, -1.3038913011550903, -2.397822618484497, 0.04296875, -0.154052734375, -0.830322265625
36, 1687290594, -5.068454742431641, 1.4298207759857178, 8.30068588256836, -2.428839683532715, -1.2085096836090088, -2.359851837158203, 0.04443359375, -0.1552734375, -0.831298828125
37, 1687307261, -5.067101955413818, 1.427608847618103, 8.315258979797363, -2.367048740386963, -1.0574458837509155, -2.392956256866455, 0.0439453125, -0.15576171875, -0.830810546875
38, 1687323928, -5.072589874267578, 1.4377855062484741, 8.297479629516602, -2.4509687423706055, -1.1280601024627686, -2.4390461444854736, 0.041259765625, -0.1552734375, -0.8310546875
39, 1687340595, -5.067107200622559, 1.431991457939148, 8.32209300994873, -2.669611930847168, -1.2976675033569336, -2.5241446495056152, 0.0419921875, -0.15576171875, -0.831787109375
40, 1687357262, -5.0646162033081055, 1.428201675415039, 8.30203628540039, -2.67565655708313, -1.3358560800552368, -2.5888168811798096, 0.04150390625, -0.154052734375, -0.83349609375
41, 1687373929, -5.071868896484375, 1.406720519065857, 8.309556007385254, -2.562896490097046, -1.3294401168823242, -2.538628578186035, 0.044921875, -0.1552734375, -0.832763671875
42, 1687390596, -5.078789234161377, 1.427698016166687, 8.308135032653809, -2.5434563159942627, -1.392536997795105, -2.426649808883667, 0.044921875, -0.154296875, -0.832763671875
43, 1687407263, -5.068070411682129, 1.4157826900482178, 8.309630393981934, -2.5753188133239746, -1.4814387559890747, -2.3986425399780273, 0.041259765625, -0.155029296875, -0.829345703125
44, 1687423930, -5.065149784088135, 1.4223400354385376, 8.30766487121582, -2.621678113937378, -1.5884486436843872, -2.4217705726623535, 0.04296875, -0.153564453125, -0.830810546875
45, 1687440597, -5.070529460906982, 1.4417948722839355, 8.325494766235352, -2.6079366207122803, -1.4435319900512695, -2.4025866985321045, 0.04345703125, -0.154052734375, -0.831298828125
46, 1687457264, -5.06355094909668, 1.4320263862609863, 8.290721893310547, -2.5312328338623047, -1.3917365074157715, -2.4740140438079834, 0.041748046875, -0.154541015625, -0.830322265625
47, 1687473931, -5.0690717697143555, 1.4304815530776978, 8.29271125793457, -2.5977044105529785, -1.485088586807251, -2.468475580215454, 0.04443359375, -0.152587890625, -0.832275390625
48, 1687490598, -5.063749313354492, 1.4453532695770264, 8.314038276672363, -2.643141508102417, -1.53420090675354, -2.4518401622772217, 0.044921875, -0.15478515625, -0.831298828125
49, 1687507265, -5.071596145629883, 1.4235998392105103, 8.328892707824707, -2.625173807144165, -1.4797483682632446, -2.513003349304199, 0.04296875, -0.15478515625, -0.831298828125
50, 1687523932, -5.0739593505859375, 1.4260313510894775, 8.312651634216309, -2.5407161712646484, -1.4446078538894653, -2.52734637260437, 0.0439453125, -0.15625, -0.830810546875
51, 1687540599, -5.0715765953063965, 1.4243876934051514, 8.297175407409668, -2.508469343185425, -1.4800684452056885, -2.4101040363311768, 0.0419921875, -0.154541015625, -0.83154296875
52, 1687557266, -5.054752826690674, 1.416886568069458, 8.294353485107422, -2.4734439849853516, -1.4867274761199951, -2.4395456314086914, 0.04443359375, -0.15478515625, -0.832763671875
53, 1687573933, -5.074575901031494, 1.4106824398040771, 8.307438850402832, -2.467963218688965, -1.4876625537872314, -2.3824422359466553, 0.04638671875, -0.154296875, -0.830810546875
54, 1687590600, -5.0524773597717285, 1.4213277101516724, 8.311445236206055, -2.4091053009033203, -1.4063037633895874, -2.4378809928894043, 0.04443359375, -0.154296875, -0.833251953125
55, 1687607267, -5.069458961486816, 1.4343456029891968, 8.29377555847168, -2.3979508876800537, -1.2770107984542847, -2.3612987995147705, 0.0439453125, -0.152587890625, -0.831298828125
56, 1687623934, -5.05081844329834, 1.4445825815200806, 8.30350112915039, -2.4621875286102295, -1.3245352506637573, -2.4217705726623535, 0.04248046875, -0.15576171875, -0.830322265625
57, 1687640601, -5.0620269775390625, 1.4200687408447266, 8.29896068572998, -2.3089847564697266, -1.2187674045562744, -2.406005620956421, 0.04248046875, -0.154296875, -0.83251953125
58, 1687657268, -5.0650529861450195, 1.4356157779693604, 8.33151912689209, -2.326094150543213, -1.2349932193756104, -2.357123851776123, 0.0439453125, -0.15478515625, -0.832763671875
59, 1687673935, -5.0699944496154785, 1.4180994033813477, 8.31954288482666, -2.3027868270874023, -1.1814241409301758, -2.3027737140655518, 0.04296875, -0.153564453125, -0.830810546875
60, 1687690602, -5.080155849456787, 1.4435887336730957, 8.301775932312012, -2.4295058250427246, -1.3281465768814087, -2.386309862136841, 0.0439453125, -0.154541015625, -0.830322265625
61, 1687707269, -5.067005634307861, 1.431450366973877, 8.302472114562988, -2.466080665588379, -1.478762149810791, -2.457756280899048, 0.0439453125, -0.154296875, -0.832763671875
62, 1687723936, -5.065410137176514, 1.4149619340896606, 8.316275596618652, -2.4775166511535645, -1.4226831197738647, -2.4707419872283936, 0.04296875, -0.153564453125, -0.831787109375
63, 1687740603, -5.066540718078613, 1.4370285272598267, 8.315485000610352, -2.472752571105957, -1.4341448545455933, -2.439366579055786, 0.0439453125, -0.15478515625, -0.831298828125
64, 1687757270, -5.065622806549072, 1.4324955940246582, 8.28829288482666, -2.499863862991333, -1.3778223991394043, -2.4316952228546143, 0.04443359375, -0.15380859375, -0.833984375
65, 1687773937, -5.0715227127075195, 1.4451247453689575, 8.338813781738281, -2.579122543334961, -1.4664424657821655, -2.4944725036621094, 0.0439453125, -0.1552734375, -0.832763671875
66, 1687790604, -5.063560485839844, 1.434145450592041, 8.302366256713867, -2.5593490600585938, -1.5017367601394653, -2.455732822418213, 0.04345703125, -0.15478515625, -0.829833984375
67, 1687807271, -5.067598819732666, 1.4341884851455688, 8.311236381530762, -2.5946948528289795, -1.4911844730377197, -2.457218885421753, 0.044921875, -0.154541015625, -0.828857421875
68, 1687823938, -5.077310085296631, 1.4284950494766235, 8.312341690063477, -2.54719614982605, -1.5714033842086792, -2.4266374111175537, 0.0419921875, -0.15478515625, -0.83154296875
69, 1687840605, -5.068185329437256, 1.4295552968978882, 8.31345272064209, -2.5363106727600098, -1.5530645847320557, -2.3562533855438232, 0.04296875, -0.154296875, -0.831787109375
70, 1687857272, -5.061898708343506, 1.4266263246536255, 8.310637474060059, -2.4860196113586426, -1.3668344020843506, -2.437509059906006, 0.0458984375, -0.154296875, -0.834228515625
71, 1687873939, -5.068165302276611, 1.4398655891418457, 8.305834770202637, -2.412050485610962, -1.4256798028945923, -2.3925464153289795, 0.04345703125, -0.154296875, -0.831787109375
72, 1687890606, -5.062754154205322, 1.4168208837509155, 8.28664493560791, -2.464505195617676, -1.3525426387786865, -2.4061338901519775, 0.04345703125, -0.1552734375, -0.830810546875
73, 1687907273, -5.05487585067749, 1.4220274686813354, 8.306037902832031, -2.4792709350585938, -1.3956360816955566, -2.480436325073242, 0.0458984375, -0.15625, -0.832763671875
74, 1687923940, -5.076545238494873, 1.4141418933868408, 8.304619789123535, -2.5615131855010986, -1.3685122728347778, -2.4042131900787354, 0.04541015625, -0.1552734375, -0.829833984375
75, 1687940607, -5.069771766662598, 1.4334810972213745, 8.329109191894531, -2.5458900928497314, -1.5303975343704224, -2.402061700820923, 0.04296875, -0.154052734375, -0.83251953125
76, 1687957274, -5.068632125854492, 1.4286020994186401, 8.294570922851562, -2.4653375148773193, -1.4902108907699585, -2.4169936180114746, 0.04248046875, -0.154052734375, -0.83251953125
77, 1687973941, -5.087873458862305, 1.4174468517303467, 8.305410385131836, -2.443720579147339, -1.4931435585021973, -2.3992698192596436, 0.0439453125, -0.154052734375, -0.831298828125
78, 1687990608, -5.069504261016846, 1.4166128635406494, 8.289973258972168, -2.4429779052734375, -1.4574650526046753, -2.3900108337402344, 0.04345703125, -0.15576171875, -0.828369140625
79, 1688007275, -5.062195777893066, 1.4224708080291748, 8.275752067565918, -2.387744188308716, -1.3674620389938354, -2.379176378250122, 0.04443359375, -0.15478515625, -0.832763671875
80, 1688023942, -5.061570644378662, 1.4378732442855835, 8.301324844360352, -2.3892934322357178, -1.3246761560440063, -2.3516175746917725, 0.04248046875, -0.153564453125, -0.83154296875
81, 1688040609, -5.072469234466553, 1.4412734508514404, 8.303611755371094, -2.4352939128875732, -1.2516286373138428, -2.4394688606262207, 0.04443359375, -0.154052734375, -0.831298828125
82, 1688057276, -5.071206092834473, 1.4280359745025635, 8.29901123046875, -2.418966054916382, -1.360546588897705, -2.458768129348755, 0.04345703125, -0.154296875, -0.833984375
83, 1688073943, -5.065067291259766, 1.4311962127685547, 8.305246353149414, -2.4040207862854004, -1.3543485403060913, -2.3798811435699463, 0.0439453125, -0.154296875, -0.830810546875
84, 1688090610, -5.060391902923584, 1.439628005027771, 8.313159942626953, -2.2877774238586426, -1.2567510604858398, -2.2832822799682617, 0.04638671875, -0.15380859375, -0.830810546875
85, 1688107277, -5.062914848327637, 1.4193071126937866, 8.294593811035156, -2.1738908290863037, -1.1568105220794678, -2.2822067737579346, 0.04296875, -0.154541015625, -0.831298828125
86, 1688123944, -5.076870441436768, 1.4254589080810547, 8.305768966674805, -2.2852416038513184, -1.1427873373031616, -2.2855231761932373, 0.04296875, -0.1552734375, -0.832275390625
87, 1688140611, -5.075652122497559, 1.4366378784179688, 8.30284595489502, -2.3448681831359863, -1.2327648401260376, -2.2411751747131348, 0.04296875, -0.15478515625, -0.83251953125
88, 1688157278, -5.073968410491943, 1.4303934574127197, 8.302655220031738, -2.4358768463134766, -1.3742303848266602, -2.3656342029571533, 0.044921875, -0.1552734375, -0.833251953125
89, 1688173945, -5.083366870880127, 1.4492231607437134, 8.310916900634766, -2.405916213989258, -1.4520351886749268, -2.322636842727661, 0.04443359375, -0.15625, -0.833251953125
90, 1688190612, -5.066974639892578, 1.4357562065124512, 8.291451454162598, -2.5736284255981445, -1.483500599861145, -2.385272741317749, 0.04443359375, -0.1552734375, -0.829833984375
91, 1688207279, -5.065975666046143, 1.4439246654510498, 8.290946960449219, -2.5179717540740967, -1.454250693321228, -2.3924570083618164, 0.0458984375, -0.1552734375, -0.830810546875
92, 1688223946, -5.076779365539551, 1.4480400085449219, 8.304807662963867, -2.502040386199951, -1.4581819772720337, -2.4340131282806396, 0.04541015625, -0.15576171875, -0.831787109375
93, 1688240613, -5.0885748863220215, 1.4381741285324097, 8.292301177978516, -2.4629557132720947, -1.4302643537521362, -2.3280792236328125, 0.0439453125, -0.15576171875, -0.83349609375
94, 1688257280, -5.084871768951416, 1.4405629634857178, 8.301602363586426, -2.4493937492370605, -1.4680559635162354, -2.3974127769470215, 0.04443359375, -0.154296875, -0.830322265625
95, 1688273947, -5.072407245635986, 1.438254714012146, 8.280203819274902, -2.5399091243743896, -1.6116665601730347, -2.358520030975342, 0.0458984375, -0.1552734375, -0.832763671875
96, 1688290614, -5.083125591278076, 1.4366942644119263, 8.300687789916992, -2.6423730850219727, -1.5745538473129272, -2.4132161140441895, 0.04541015625, -0.15380859375, -0.831298828125
97, 1688307281, -5.082370281219482, 1.4306453466415405, 8.321087837219238, -2.5071375370025635, -1.6011137962341309, -2.333188772201538, 0.04443359375, -0.15478515625, -0.828857421875
98, 1688323948, -5.076751708984375, 1.437606930732727, 8.312957763671875, -2.5004782676696777, -1.6040849685668945, -2.3255817890167236, 0.04345703125, -0.154541015625, -0.830322265625
99, 1688340615, -5.071437835693359, 1.4390050172805786, 8.31982707977295, -2.4721763134002686, -1.607862949371338, -2.3847858905792236, 0.04443359375, -0.1552734375, -0.831787109375
100, 1688357282, -5.065602779388428, 1.4327188730239868, 8.29421615600586, -2.431119203567505, -1.6224493980407715, -2.3611578941345215, 0.04248046875, -0.153564453125, -0.83251953125
101, 1688373949, -5.074910640716553, 1.436550498008728, 8.29601764678955, -2.4855332374572754, -1.6125372648239136, -2.35247540473938, 0.044921875, -0.15625, -0.831298828125
102, 1688390616, -5.0635457038879395, 1.4440892934799194, 8.314143180847168, -2.497084379196167, -1.5847985744476318, -2.381199598312378, 0.044921875, -0.15576171875, -0.830810546875
103, 1688407283, -5.068048000335693, 1.4537996053695679, 8.30077838897705, -2.574064016342163, -1.5850422382354736, -2.37469482421875, 0.044921875, -0.15478515625, -0.832275390625
104, 1688423950, -5.060531139373779, 1.4218194484710693, 8.306649208068848, -2.4231410026550293, -1.3812801837921143, -2.3487741947174072, 0.04345703125, -0.1552734375, -0.830322265625
105, 1688440617, -5.078617095947266, 1.4401670694351196, 8.282559394836426, -2.4121785163879395, -1.4182265996932983, -2.392674684524536, 0.04345703125, -0.15478515625, -0.831787109375
106, 1688457284, -5.0690107345581055, 1.4308240413665771, 8.296854972839355, -2.4236655235290527, -1.440624713897705, -2.338900327682495, 0.0458984375, -0.1552734375, -0.830322265625
107, 1688473951, -5.068122386932373, 1.4296075105667114, 8.297597885131836, -2.4817683696746826, -1.5470967292785645, -2.3341495990753174, 0.04248046875, -0.154541015625, -0.831787109375
108, 1688490618, -5.0776801109313965, 1.4383940696716309, 8.31615924835205, -2.462712526321411, -1.4254363775253296, -2.290800094604492, 0.044921875, -0.15576171875, -0.829833984375
109, 1688507285, -5.081292152404785, 1.4283465147018433, 8.30686092376709, -2.3851826190948486, -1.411157250404358, -2.1873884201049805, 0.04443359375, -0.15478515625, -0.831298828125
110, 1688523952, -5.062145709991455, 1.4402642250061035, 8.306190490722656, -2.3894855976104736, -1.3536441326141357, -2.1976208686828613, 0.041259765625, -0.155029296875, -0.83154296875
111, 1688540619, -5.079808235168457, 1.4545472860336304, 8.305843353271484, -2.493345260620117, -1.4931180477142334, -2.283961534500122, 0.044921875, -0.1552734375, -0.833740234375
112, 1688557286, -5.075954914093018, 1.4306907653808594, 8.294650077819824, -2.529062032699585, -1.5905358791351318, -2.3322925567626953, 0.044921875, -0.153076171875, -0.830322265625
113, 1688573953, -5.072800636291504, 1.4508143663406372, 8.280122756958008, -2.5643436908721924, -1.557687759399414, -2.3947367668151855, 0.04541015625, -0.15576171875, -0.832275390625
114, 1688590620, -5.075387001037598, 1.444745659828186, 8.293218612670898, -2.6389150619506836, -1.6456800699234009, -2.4900286197662354, 0.04541015625, -0.15625, -0.832275390625
115, 1688607287, -5.0661797523498535, 1.4420976638793945, 8.299041748046875, -2.681957483291626, -1.5510157346725464, -2.4599592685699463, 0.04296875, -0.1552734375, -0.830810546875
116, 1688623954, -5.066351890563965, 1.4561690092086792, 8.30743408203125, -2.6391713619232178, -1.575322151184082, -2.526475429534912, 0.04541015625, -0.15673828125, -0.832275390625
117, 1688640621, -5.0756731033325195, 1.445826530456543, 8.317404747009277, -2.543123483657837, -1.5018390417099, -2.3879106044769287, 0.04150390625, -0.154052734375, -0.83251953125
118, 1688657288, -5.079583168029785, 1.4523942470550537, 8.31788158416748, -2.512951374053955, -1.5157338380813599, -2.308318853378296, 0.04541015625, -0.154296875, -0.832763671875
119, 1688673955, -5.082882404327393, 1.4450123310089111, 8.310135841369629, -2.6144168376922607, -1.4667370319366455, -2.4302616119384766, 0.04345703125, -0.154541015625, -0.830810546875
120, 1688690622, -5.060572624206543, 1.4502298831939697, 8.30808162689209, -2.5360677242279053, -1.5714162588119507, -2.403521776199341, 0.04345703125, -0.15478515625, -0.831787109375
121, 1688707289, -5.074709415435791, 1.4390491247177124, 8.302268981933594, -2.5946688652038574, -1.5433189868927002, -2.4329886436462402, 0.04443359375, -0.15625, -0.832275390625
122, 1688723956, -5.071373462677002, 1.4406278133392334, 8.294705390930176, -2.5328915119171143, -1.4679665565490723, -2.5127599239349365, 0.04296875, -0.1552734375, -0.829833984375
123, 1688740623, -5.051064968109131, 1.440980315208435, 8.29794979095459, -2.5914547443389893, -1.4769309759140015, -2.455451488494873, 0.04443359375, -0.15478515625, -0.831298828125
124, 1688757290, -5.052682399749756, 1.437849760055542, 8.303705215454102, -2.5525872707366943, -1.398581624031067, -2.4338340759277344, 0.04248046875, -0.15478515625, -0.83447265625
125, 1688773957, -5.071211814880371, 1.4405697584152222, 8.299530982971191, -2.5956549644470215, -1.379320740699768, -2.4158411026000977, 0.04248046875, -0.15576171875, -0.829833984375
126, 1688790624, -5.08292818069458, 1.4368727207183838, 8.30836296081543, -2.5341076850891113, -1.4386013746261597, -2.4673867225646973, 0.04541015625, -0.15625, -0.831787109375
127, 1688807291, -5.073171138763428, 1.4386192560195923, 8.317056655883789, -2.564612865447998, -1.4736268520355225, -2.4177496433258057, 0.04443359375, -0.15576171875, -0.830322265625
128, 1688823958, -5.065588474273682, 1.4404462575912476, 8.310511589050293, -2.564215660095215, -1.4141156673431396, -2.5194833278656006, 0.04345703125, -0.154296875, -0.832275390625
129, 1688840625, -5.049632549285889, 1.4445748329162598, 8.292732238769531, -2.5052809715270996, -1.3872735500335693, -2.5024635791778564, 0.04296875, -0.154052734375, -0.830810546875
130, 1688857292, -5.072083950042725, 1.4468193054199219, 8.305624961853027, -2.5281527042388916, -1.2456225156784058, -2.5129776000976562, 0.0419921875, -0.154541015625, -0.83154296875
131, 1688873959, -5.0725884437561035, 1.4287575483322144, 8.308615684509277, -2.520994186401367, -1.3274166584014893, -2.4905407428741455, 0.0439453125, -0.1552734375, -0.83544921875
132, 1688890626, -5.081581115722656, 1.4378814697265625, 8.314800262451172, -2.5550589561462402, -1.4176887273788452, -2.423640251159668, 0.0458984375, -0.15478515625, -0.832763671875
133, 1688907293, -5.069757461547852, 1.4453697204589844, 8.30259895324707, -2.5875234603881836, -1.482053518295288, -2.486135482788086, 0.0439453125, -0.15576171875, -0.831298828125
134, 1688923960, -5.063255786895752, 1.4453078508377075, 8.320693969726562, -2.5823240280151367, -1.486971139907837, -2.4759161472320557, 0.04296875, -0.15478515625, -0.831298828125
135, 1688940627, -5.078479290008545, 1.4445422887802124, 8.276984214782715, -2.5463123321533203, -1.4818613529205322, -2.409463882446289, 0.04296875, -0.1552734375, -0.831298828125
136, 1688957294, -5.07708740234375, 1.4410914182662964, 8.289958953857422, -2.5453388690948486, -1.4295600652694702, -2.394608497619629, 0.04541015625, -0.15478515625, -0.831298828125
137, 1688973961, -5.071173667907715, 1.4380041360855103, 8.310895919799805, -2.6263651847839355, -1.5174885988235474, -2.4096176624298096, 0.04345703125, -0.15478515625, -0.830322265625
138, 1688990628, -5.076373100280762, 1.4401533603668213, 8.292768478393555, -2.5348892211914062, -1.4570810794830322, -2.510467529296875, 0.04296875, -0.155029296875, -0.828857421875
139, 1689007295, -5.061350345611572, 1.4416248798370361, 8.287017822265625, -2.538538932800293, -1.3864667415618896, -2.4691412448883057, 0.0458984375, -0.15576171875, -0.832275390625
140, 1689023962, -5.070047855377197, 1.444550633430481, 8.285228729248047, -2.495586395263672, -1.4703867435455322, -2.4673993587493896, 0.044921875, -0.15478515625, -0.830322265625
141, 1689040629, -5.070664882659912, 1.4453976154327393, 8.31529712677002, -2.599625587463379, -1.4342089891433716, -2.5195088386535645, 0.04345703125, -0.1552734375, -0.833984375
142, 1689057296, -5.061641216278076, 1.4407442808151245, 8.306638717651367, -2.652310609817505, -1.5117385387420654, -2.521545171737671, 0.04443359375, -0.15478515625, -0.832763671875
143, 1689073963, -5.071834564208984, 1.4343379735946655, 8.315325736999512, -2.569876194000244, -1.5627846717834473, -2.4912962913513184, 0.04443359375, -0.1552734375, -0.831787109375
144, 1689090630, -5.073435306549072, 1.4492474794387817, 8.306450843811035, -2.5803134441375732, -1.5808929204940796, -2.416635513305664, 0.04443359375, -0.15625, -0.832275390625
145, 1689107297, -5.081695556640625, 1.4453908205032349, 8.298442840576172, -2.644882917404175, -1.6552722454071045, -2.446026086807251, 0.04541015625, -0.1552734375, -0.831787109375
146, 1689123964, -5.061283111572266, 1.442199468612671, 8.305373191833496, -2.6449341773986816, -1.574912428855896, -2.4776833057403564, 0.044921875, -0.1572265625, -0.829345703125
147, 1689140631, -5.061308860778809, 1.4319813251495361, 8.290931701660156, -2.5055370330810547, -1.5453808307647705, -2.4659016132354736, 0.04541015625, -0.15478515625, -0.832763671875
148, 1689157298, -5.075212001800537, 1.4427310228347778, 8.314995765686035, -2.602301597595215, -1.4974595308303833, -2.4576539993286133, 0.04541015625, -0.15576171875, -0.832275390625
149, 1689173965, -5.082919120788574, 1.4443227052688599, 8.310626029968262, -2.5258607864379883, -1.4926955699920654, -2.539102554321289, 0.0439453125, -0.15380859375, -0.8330078125
150, 1689190632, -5.078217506408691, 1.4267158508300781, 8.32172679901123, -2.678333044052124, -1.5603643655776978, -2.432271718978882, 0.0439453125, -0.15625, -0.830322265625
151, 1689207299, -5.067699909210205, 1.4388622045516968, 8.307122230529785, -2.643256664276123, -1.5376843214035034, -2.5117228031158447, 0.04248046875, -0.15576171875, -0.830810546875
152, 1689223966, -5.068666934967041, 1.431302547454834, 8.291952133178711, -2.6068482398986816, -1.5614017248153687, -2.4746994972229004, 0.04443359375, -0.154052734375, -0.830810546875
153, 1689240633, -5.071173191070557, 1.4312995672225952, 8.314566612243652, -2.570772647857666, -1.6042389869689941, -2.4753522872924805, 0.04638671875, -0.1552734375, -0.832275390625
154, 1689257300, -5.0679802894592285, 1.446289300918579, 8.293957710266113, -2.6313722133636475, -1.5721334218978882, -2.388115644454956, 0.04248046875, -0.154052734375, -0.83349609375
155, 1689273967, -5.076614856719971, 1.4448145627975464, 8.316338539123535, -2.5984342098236084, -1.4468616247177124, -2.426111936569214, 0.044921875, -0.154296875, -0.833740234375
156, 1689290634, -5.067165374755859, 1.4454206228256226, 8.31743335723877, -2.6927406787872314, -1.579010248184204, -2.507266044616699, 0.04833984375, -0.15576171875, -0.832275390625
157, 1689307301, -5.078392028808594, 1.43910813331604, 8.325494766235352, -2.740264892578125, -1.4857417345046997, -2.4978787899017334, 0.04443359375, -0.154541015625, -0.828857421875
158, 1689323968, -5.079667091369629, 1.431378722190857, 8.296060562133789, -2.9943935871124268, -1.6146118640899658, -2.544724225997925, 0.0439453125, -0.154296875, -0.8330078125
159, 1689340635, -5.080687999725342, 1.4298486709594727, 8.296384811401367, -2.8693268299102783, -1.7872799634933472, -2.7081079483032227, 0.04443359375, -0.154052734375, -0.830322265625
160, 1689357302, -5.071094036102295, 1.4113293886184692, 8.310677528381348, -2.822916030883789, -1.724810242652893, -2.5422396659851074, 0.04296875, -0.1552734375, -0.83251953125
161, 1689373969, -5.060709476470947, 1.420507788658142, 8.337800979614258, -2.6688051223754883, -1.6302614212036133, -2.394301176071167, 0.0439453125, -0.154296875, -0.832275390625
162, 1689390636, -5.075169086456299, 1.4356459379196167, 8.318487167358398, -2.620896577835083, -1.7261680364608765, -2.444962978363037, 0.04443359375, -0.15478515625, -0.830810546875
163, 1689407303, -5.0572004318237305, 1.4198886156082153, 8.30966854095459, -2.6632089614868164, -1.7036290168762207, -2.452493190765381, 0.044921875, -0.15380859375, -0.832275390625
164, 1689423970, -5.078277111053467, 1.429070234298706, 8.307534217834473, -2.6376471519470215, -1.7057418823242188, -2.3505160808563232, 0.04345703125, -0.15576171875, -0.832275390625
165, 1689440637, -5.065433025360107, 1.4116017818450928, 8.298940658569336, -2.714536666870117, -1.765381097793579, -2.446781635284424, 0.04248046875, -0.15576171875, -0.832275390625
166, 1689457304, -5.0542755126953125, 1.4302884340286255, 8.305453300476074, -2.786968946456909, -1.8011491298675537, -2.4280965328216553, 0.04345703125, -0.153564453125, -0.83203125
167, 1689473971, -5.051063537597656, 1.415472388267517, 8.324252128601074, -2.582759380340576, -1.6680786609649658, -2.38057279586792, 0.04443359375, -0.15478515625, -0.833251953125
168, 1689490638, -5.071834564208984, 1.4310619831085205, 8.305983543395996, -2.543097496032715, -1.5947107076644897, -2.330345630645752, 0.0439453125, -0.154296875, -0.832763671875
169, 1689507305, -5.060013771057129, 1.4419788122177124, 8.303616523742676, -2.5055623054504395, -1.4703609943389893, -2.247731924057007, 0.04296875, -0.152587890625, -0.83349609375
170, 1689523972, -5.069234848022461, 1.4308408498764038, 8.302124977111816, -2.5202767848968506, -1.5846065282821655, -2.358506917953491, 0.04248046875, -0.154541015625, -0.831787109375
171, 1689540639, -5.049382209777832, 1.4408892393112183, 8.291458129882812, -2.565253257751465, -1.6442714929580688, -2.5081493854522705, 0.04443359375, -0.1552734375, -0.832275390625
172, 1689557306, -5.068765640258789, 1.4291861057281494, 8.304048538208008, -2.621742010116577, -1.5616450309753418, -2.4349100589752197, 0.04248046875, -0.154296875, -0.83251953125
173, 1689573973, -5.0702996253967285, 1.4213556051254272, 8.3040189743042, -2.541074514389038, -1.4948983192443848, -2.453709840774536, 0.04443359375, -0.154296875, -0.83349609375
174, 1689590640, -5.062503337860107, 1.424546241760254, 8.332983016967773, -2.5835535526275635, -1.5256078243255615, -2.466592788696289, 0.04345703125, -0.15478515625, -0.832763671875
175, 1689607307, -5.067030429840088, 1.438105583190918, 8.30911636352539, -2.495112419128418, -1.4926698207855225, -2.4221549034118652, 0.0439453125, -0.15478515625, -0.832763671875
176, 1689623974, -5.051710605621338, 1.4288073778152466, 8.32371997833252, -2.5709774494171143, -1.5209335088729858, -2.4157135486602783, 0.04345703125, -0.153076171875, -0.831787109375
177, 1689640641, -5.051177978515625, 1.429904818534851, 8.310391426086426, -2.5422143936157227, -1.5202932357788086, -2.430223226547241, 0.041015625, -0.15576171875, -0.8349609375
178, 1689657308, -5.059296131134033, 1.4274426698684692, 8.295029640197754, -2.509711742401123, -1.5532567501068115, -2.4379706382751465, 0.04248046875, -0.15380859375, -0.83447265625
179, 1689673975, -5.060004234313965, 1.4310319423675537, 8.313626289367676, -2.6363024711608887, -1.5743101835250854, -2.44968843460083, 0.04443359375, -0.154052734375, -0.832275390625
180, 1689690642, -5.047845363616943, 1.4329326152801514, 8.31737232208252, -2.5961036682128906, -1.621297001838684, -2.443349599838257, 0.04296875, -0.153076171875, -0.83154296875
181, 1689707309, -5.060941219329834, 1.4257123470306396, 8.320280075073242, -2.5345559120178223, -1.5691620111465454, -2.499671459197998, 0.04248046875, -0.152099609375, -0.829833984375
182, 1689723976, -5.057971000671387, 1.4255421161651611, 8.298294067382812, -2.611957550048828, -1.5688804388046265, -2.4333090782165527, 0.0419921875, -0.1552734375, -0.830322265625
183, 1689740643, -5.066217422485352, 1.4333915710449219, 8.311039924621582, -2.5605783462524414, -1.527016282081604, -2.427187442779541, 0.0419921875, -0.154541015625, -0.83251953125
184, 1689757310, -5.071299076080322, 1.4179133176803589, 8.322153091430664, -2.5579659938812256, -1.5134161710739136, -2.433424472808838, 0.04345703125, -0.153564453125, -0.8349609375
185, 1689773977, -5.06249475479126, 1.4220560789108276, 8.300689697265625, -2.472330093383789, -1.5278873443603516, -2.372145891189575, 0.04296875, -0.154052734375, -0.83251953125
186, 1689790644, -5.067443370819092, 1.4355661869049072, 8.325052261352539, -2.411038637161255, -1.494052767753601, -2.35754656791687, 0.0419921875, -0.152587890625, -0.83154296875
187, 1689807311, -5.064979076385498, 1.4249719381332397, 8.333405494689941, -2.363142967224121, -1.4464772939682007, -2.293271780014038, 0.04248046875, -0.154541015625, -0.831787109375
188, 1689823978, -5.069032192230225, 1.4339518547058105, 8.317326545715332, -2.4612784385681152, -1.4497557878494263, -2.40130615234375, 0.04345703125, -0.15478515625, -0.829833984375
189, 1689840645, -5.054951190948486, 1.4343799352645874, 8.309404373168945, -2.590776205062866, -1.488661527633667, -2.4586400985717773, 0.04296875, -0.15380859375, -0.833984375
190, 1689857312, -5.0536603927612305, 1.4271962642669678, 8.300192832946777, -2.587279796600342, -1.610244870185852, -2.473226547241211, 0.0439453125, -0.154296875, -0.83349609375
191, 1689873979, -5.063994884490967, 1.42469322681427, 8.307653427124023, -2.5040130615234375, -1.5749635696411133, -2.4015495777130127, 0.04443359375, -0.15673828125, -0.830810546875
192, 1689890646, -5.069237232208252, 1.4233564138412476, 8.336395263671875, -2.512695789337158, -1.5368517637252808, -2.368124485015869, 0.04345703125, -0.154052734375, -0.832275390625
193, 1689907313, -5.050156116485596, 1.4204894304275513, 8.308252334594727, -2.543354034423828, -1.5623747110366821, -2.3966317176818848, 0.041259765625, -0.154052734375, -0.830322265625
194, 1689923980, -5.051853656768799, 1.4257596731185913, 8.308053016662598, -2.5483486652374268, -1.606646180152893, -2.263432741165161, 0.0439453125, -0.15478515625, -0.830322265625
195, 1689940647, -5.055227279663086, 1.4275853633880615, 8.325023651123047, -2.5825417041778564, -1.7185996770858765, -2.398488759994507, 0.04345703125, -0.153076171875, -0.831787109375
196, 1689957314, -5.062221050262451, 1.4344075918197632, 8.320630073547363, -2.5411128997802734, -1.6065053939819336, -2.279453754425049, 0.040771484375, -0.15478515625, -0.8330078125
197, 1689973981, -5.053704261779785, 1.428878664970398, 8.34140682220459, -2.5470168590545654, -1.6372407674789429, -2.295295238494873, 0.04248046875, -0.154296875, -0.8330078125
198, 1689990648, -5.054518699645996, 1.4151825904846191, 8.302414894104004, -2.5265395641326904, -1.677324652671814, -2.4071714878082275, 0.0419921875, -0.153564453125, -0.8310546875
199, 1690007315, -5.067592144012451, 1.418081521987915, 8.313797950744629, -2.524451971054077, -1.753099799156189, -2.387526512145996, 0.04443359375, -0.1552734375, -0.829345703125
200, 1690023982, -5.067883491516113, 1.423052430152893, 8.301990509033203, -2.579775333404541, -1.6594724655151367, -2.306666851043701, 0.0419921875, -0.153564453125, -0.83349609375
201, 1690040649, -5.053491115570068, 1.4463753700256348, 8.293828010559082, -2.6618258953094482, -1.7292544841766357, -2.405941963195801, 0.04150390625, -0.153564453125, -0.83349609375
202, 1690057316, -5.053961277008057, 1.4366693496704102, 8.304935455322266, -2.6612367630004883, -1.8016616106033325, -2.394390821456909, 0.0419921875, -0.1552734375, -0.831787109375
203, 1690073983, -5.051674842834473, 1.4129843711853027, 8.319539070129395, -2.664015769958496, -1.8065662384033203, -2.4284555912017822, 0.04248046875, -0.1552734375, -0.83349609375
204, 1690090650, -5.039035797119141, 1.4152898788452148, 8.317294120788574, -2.6872336864471436, -1.6640700101852417, -2.4449503421783447, 0.0419921875, -0.15478515625, -0.831298828125
205, 1690107317, -5.053926944732666, 1.4324184656143188, 8.333402633666992, -2.690729856491089, -1.65957510471344, -2.496060371398926, 0.04345703125, -0.153564453125, -0.831298828125
206, 1690123984, -5.055271625518799, 1.4419184923171997, 8.309266090393066, -2.961263656616211, -1.8139426708221436, -2.6681132316589355, 0.04248046875, -0.153564453125, -0.83251953125
207, 1690140651, -5.048782825469971, 1.4248015880584717, 8.323339462280273, -2.9795639514923096, -1.9922840595245361, -2.701345920562744, 0.041015625, -0.153564453125, -0.83251953125
208, 1690157318, -5.0494489669799805, 1.4505531787872314, 8.306816101074219, -3.19193172454834, -1.919671893119812, -2.910038709640503, 0.0439453125, -0.152587890625, -0.8330078125
209, 1690173985, -5.044200897216797, 1.3985580205917358, 8.319779396057129, -2.774232864379883, -1.7590864896774292, -2.612706422805786, 0.0419921875, -0.153564453125, -0.83203125
210, 1690190652, -5.054930210113525, 1.407089114189148, 8.314821243286133, -2.5518574714660645, -1.5928285121917725, -2.4438743591308594, 0.0419921875, -0.154052734375, -0.830322265625
211, 1690207319, -5.055680274963379, 1.4296618700027466, 8.32236385345459, -2.5751140117645264, -1.5816997289657593, -2.411397695541382, 0.04296875, -0.153076171875, -0.830322265625
212, 1690223986, -5.0518479347229, 1.4347623586654663, 8.290793418884277, -2.71020770072937, -1.6923078298568726, -2.59204363822937, 0.041015625, -0.154541015625, -0.8330078125
213, 1690240653, -5.059413433074951, 1.4150580167770386, 8.327735900878906, -2.8336992263793945, -1.8004190921783447, -2.547067642211914, 0.04150390625, -0.1552734375, -0.83544921875
214, 1690257320, -5.060831546783447, 1.4203715324401855, 8.330124855041504, -2.8156421184539795, -1.8047475814819336, -2.596884250640869, 0.04150390625, -0.153076171875, -0.8330078125
215, 1690273987, -5.045871257781982, 1.408637523651123, 8.31868839263916, -2.6451776027679443, -1.6798604726791382, -2.5101985931396484, 0.04150390625, -0.153564453125, -0.833984375
216, 1690290654, -5.044305324554443, 1.4008979797363281, 8.302096366882324, -2.5295355319976807, -1.479056477546692, -2.3602488040924072, 0.04248046875, -0.152587890625, -0.8310546875
217, 1690307321, -5.05248498916626, 1.4201732873916626, 8.330597877502441, -2.462315559387207, -1.4905567169189453, -2.3218555450439453, 0.04248046875, -0.154541015625, -0.83203125
218, 1690323988, -5.05206298828125, 1.4340070486068726, 8.288922309875488, -2.514065980911255, -1.5530900955200195, -2.333522081375122, 0.04150390625, -0.151611328125, -0.83203125
219, 1690340655, -5.047794342041016, 1.4101157188415527, 8.318044662475586, -2.603147029876709, -1.6444635391235352, -2.3135316371917725, 0.039794921875, -0.154052734375, -0.833984375
220, 1690357322, -5.030128002166748, 1.4101988077163696, 8.312694549560547, -2.5278072357177734, -1.6635451316833496, -2.449829339981079, 0.04248046875, -0.153076171875, -0.83349609375
221, 1690373989, -5.032474040985107, 1.4055838584899902, 8.31615924835205, -2.5801212787628174, -1.5919959545135498, -2.4375481605529785, 0.0419921875, -0.153564453125, -0.8330078125
222, 1690390656, -5.050079345703125, 1.408165454864502, 8.30300521850586, -2.548553705215454, -1.5168994665145874, -2.388960599899292, 0.04150390625, -0.153564453125, -0.83154296875
223, 1690407323, -5.036702632904053, 1.4198850393295288, 8.311668395996094, -2.5346460342407227, -1.6634427309036255, -2.358469009399414, 0.0419921875, -0.153564453125, -0.8330078125
224, 1690423990, -5.038877964019775, 1.4293612241744995, 8.298476219177246, -2.5129387378692627, -1.5055911540985107, -2.4233198165893555, 0.040771484375, -0.154052734375, -0.83154296875
225, 1690440657, -5.06009578704834, 1.4008126258850098, 8.30602741241455, -2.583092212677002, -1.5555362701416016, -2.4574875831604004, 0.04052734375, -0.1552734375, -0.83447265625
226, 1690457324, -5.03405237197876, 1.4059051275253296, 8.321930885314941, -2.445462465286255, -1.4471176862716675, -2.410001516342163, 0.0439453125, -0.152587890625, -0.83447265625
227, 1690473991, -5.039932727813721, 1.3980917930603027, 8.325858116149902, -2.519188404083252, -1.5393489599227905, -2.36373233795166, 0.04296875, -0.152587890625, -0.83203125
228, 1690490658, -5.043585300445557, 1.4229806661605835, 8.3372802734375, -2.375654935836792, -1.4063549041748047, -2.342460870742798, 0.04248046875, -0.15625, -0.8330078125
229, 1690507325, -5.041733264923096, 1.4210302829742432, 8.326671600341797, -2.313556671142578, -1.3323085308074951, -2.3459439277648926, 0.04248046875, -0.154541015625, -0.83203125
230, 1690523992, -5.049352169036865, 1.4089086055755615, 8.325864791870117, -2.3541147708892822, -1.3913332223892212, -2.367471694946289, 0.0419921875, -0.153076171875, -0.83203125
231, 1690540659, -5.04074239730835, 1.4363325834274292, 8.330071449279785, -2.3422558307647705, -1.461012363433838, -2.358084201812744, 0.04248046875, -0.1533203125, -0.83740234375
232, 1690557326, -5.038297176361084, 1.4189660549163818, 8.324356079101562, -2.4526209831237793, -1.4902621507644653, -2.3451244831085205, 0.04150390625, -0.152587890625, -0.83251953125
233, 1690573993, -5.055164813995361, 1.415224552154541, 8.329032897949219, -2.50011944770813, -1.4178550243377686, -2.321406841278076, 0.04248046875, -0.154541015625, -0.831787109375
234, 1690590660, -5.046000003814697, 1.4139835834503174, 8.311874389648438, -2.561218738555908, -1.4745231866836548, -2.3306024074554443, 0.041259765625, -0.154541015625, -0.83154296875
235, 1690607327, -5.045270919799805, 1.422371506690979, 8.3180513381958, -2.6645920276641846, -1.4983559846878052, -2.480756998062134, 0.04150390625, -0.153076171875, -0.83154296875
236, 1690623994, -5.040366172790527, 1.4122282266616821, 8.336623191833496, -2.686689615249634, -1.5367045402526855, -2.4702236652374268, 0.041015625, -0.153076171875, -0.83251953125
237, 1690640661, -5.034348964691162, 1.4086015224456787, 8.348367691040039, -2.5509612560272217, -1.446976900100708, -2.43704891204834, 0.041259765625, -0.154052734375, -0.829833984375
238, 1690657328, -5.037285327911377, 1.4239188432693481, 8.31621265411377, -2.5235040187835693, -1.54750657081604, -2.358506917953491, 0.041259765625, -0.153564453125, -0.83056640625
239, 1690673995, -5.036739826202393, 1.4150781631469727, 8.336933135986328, -2.561436653137207, -1.464278221130371, -2.3543708324432373, 0.040771484375, -0.154541015625, -0.83251953125
240, 1690690662, -5.041428565979004, 1.417797327041626, 8.303594589233398, -2.5115299224853516, -1.4725253582000732, -2.35084867477417, 0.0419921875, -0.154541015625, -0.83203125
241, 1690707329, -5.043747901916504, 1.4250640869140625, 8.327810287475586, -2.5099036693573, -1.4669418334960938, -2.4544777870178223, 0.041259765625, -0.154052734375, -0.8310546875
242, 1690723996, -5.048878192901611, 1.421435832977295, 8.320439338684082, -2.531444549560547, -1.4309945106506348, -2.4742000102996826, 0.040771484375, -0.154541015625, -0.83203125
243, 1690740663, -5.03377628326416, 1.4378176927566528, 8.322908401489258, -2.551025152206421, -1.3642734289169312, -2.4307608604431152, 0.041015625, -0.15478515625, -0.8330078125
244, 1690757330, -5.03961706161499, 1.4152315855026245, 8.311269760131836, -2.4014854431152344, -1.357844591140747, -2.382045030593872, 0.04052734375, -0.153564453125, -0.83447265625
245, 1690773997, -5.037693500518799, 1.4118139743804932, 8.315945625305176, -2.420092821121216, -1.3854037523269653, -2.4785537719726562, 0.0419921875, -0.154052734375, -0.8330078125
246, 1690790664, -5.055434226989746, 1.414908528327942, 8.323596954345703, -2.5252206325531006, -1.467851161956787, -2.4657094478607178, 0.040771484375, -0.155029296875, -0.829833984375
247, 1690807331, -5.039546012878418, 1.4288296699523926, 8.314128875732422, -2.5935165882110596, -1.5178214311599731, -2.3937885761260986, 0.041748046875, -0.152587890625, -0.829345703125
248, 1690823998, -5.054973125457764, 1.4169952869415283, 8.305595397949219, -2.518803834915161, -1.5389389991760254, -2.357034206390381, 0.040283203125, -0.15625, -0.8330078125
249, 1690840665, -5.057417392730713, 1.4236948490142822, 8.308577537536621, -2.5179975032806396, -1.6231666803359985, -2.3609275817871094, 0.040283203125, -0.153076171875, -0.8330078125
250, 1690857332, -5.056197166442871, 1.4093925952911377, 8.33105754852295, -2.4873132705688477, -1.5808926820755005, -2.3430755138397217, 0.041015625, -0.153564453125, -0.833984375
251, 1690873999, -5.039532661437988, 1.428449034690857, 8.335551261901855, -2.4770045280456543, -1.655515432357788, -2.3911378383636475, 0.040771484375, -0.154541015625, -0.8310546875
252, 1690890666, -5.050373554229736, 1.4180355072021484, 8.32475757598877, -2.5129778385162354, -1.6292753219604492, -2.362182855606079, 0.04248046875, -0.153564453125, -0.833984375
253, 1690907333, -5.031477451324463, 1.4152048826217651, 8.330934524536133, -2.500452995300293, -1.557841420173645, -2.449317455291748, 0.04248046875, -0.15625, -0.830322265625
254, 1690924000, -5.030543327331543, 1.420559048652649, 8.319746017456055, -2.45751953125, -1.6375287771224976, -2.3543131351470947, 0.04150390625, -0.154541015625, -0.830810546875
255, 1690940667, -5.0372843742370605, 1.4308650493621826, 8.325117111206055, -2.502706527709961, -1.5252234935760498, -2.4018564224243164, 0.039794921875, -0.154541015625, -0.83349609375
256, 1690957334, -5.040597915649414, 1.4200674295425415, 8.327672958374023, -2.5462610721588135, -1.529321551322937, -2.352539300918579, 0.04345703125, -0.15478515625, -0.831787109375
257, 1690974001, -5.041851997375488, 1.4200528860092163, 8.316107749938965, -2.5136687755584717, -1.536313772201538, -2.392059803009033, 0.040771484375, -0.154052734375, -0.83056640625
258, 1690990668, -5.0364227294921875, 1.4185477495193481, 8.310096740722656, -2.523145914077759, -1.6083881855010986, -2.381610155105591, 0.040771484375, -0.152587890625, -0.83154296875
259, 1691007335, -5.030847072601318, 1.4290986061096191, 8.33131217956543, -2.68691349029541, -1.5957098007202148, -2.4557459354400635, 0.0419921875, -0.153564453125, -0.830322265625
260, 1691024002, -5.036849498748779, 1.421089768409729, 8.331636428833008, -2.6270694732666016, -1.6462053060531616, -2.3713650703430176, 0.041259765625, -0.152099609375, -0.8310546875
261, 1691040669, -5.050750732421875, 1.4296940565109253, 8.338029861450195, -2.5288445949554443, -1.6239222288131714, -2.375872850418091, 0.040771484375, -0.154052734375, -0.83349609375
262, 1691057336, -5.0297627449035645, 1.426559329032898, 8.324752807617188, -2.555187225341797, -1.7575565576553345, -2.374271869659424, 0.04052734375, -0.153076171875, -0.83544921875
263, 1691074003, -5.044190406799316, 1.4179831743240356, 8.323217391967773, -2.4806160926818848, -1.7002097368240356, -2.3455088138580322, 0.04150390625, -0.152587890625, -0.833984375
264, 1691090670, -5.030109405517578, 1.424622654914856, 8.318556785583496, -2.472989559173584, -1.6011587381362915, -2.4071905612945557, 0.037841796875, -0.154541015625, -0.83154296875
265, 1691107337, -5.04006290435791, 1.400874376296997, 8.311726570129395, -2.376128673553467, -1.5560356378555298, -2.3081398010253906, 0.04150390625, -0.153564453125, -0.83349609375
266, 1691124004, -5.042200088500977, 1.450406789779663, 8.311110496520996, -2.445526361465454, -1.5185770988464355, -2.2685298919677734, 0.04296875, -0.15478515625, -0.830810546875
267, 1691140671, -5.04789400100708, 1.4382318258285522, 8.320183753967285, -2.586742401123047, -1.6523268222808838, -2.353205680847168, 0.04248046875, -0.151123046875, -0.8349609375
268, 1691157338, -5.036220550537109, 1.4464012384414673, 8.332633018493652, -2.6575355529785156, -1.6461029052734375, -2.40521240234375, 0.039306640625, -0.152587890625, -0.83349609375
269, 1691174005, -5.052757740020752, 1.4310314655303955, 8.327166557312012, -2.7956390380859375, -1.673841118812561, -2.531482219696045, 0.04150390625, -0.154052734375, -0.83251953125
270, 1691190672, -5.038243770599365, 1.4350239038467407, 8.311589241027832, -2.6619153022766113, -1.65597665309906, -2.5305352210998535, 0.039794921875, -0.154541015625, -0.8330078125
271, 1691207339, -5.020712375640869, 1.411896824836731, 8.323525428771973, -2.7682204246520996, -1.7122985124588013, -2.484982490539551, 0.041259765625, -0.152099609375, -0.8310546875
272, 1691224006, -5.040510654449463, 1.420564889907837, 8.32223129272461, -2.7682979106903076, -1.641966462135315, -2.4911301136016846, 0.040771484375, -0.15478515625, -0.83251953125
273, 1691240673, -5.039416790008545, 1.4086331129074097, 8.343807220458984, -2.6582913398742676, -1.7428034543991089, -2.427828073501587, 0.040771484375, -0.154052734375, -0.83251953125
274, 1691257340, -5.037625789642334, 1.414138913154602, 8.344834327697754, -2.472099781036377, -1.7037184238433838, -2.4032273292541504, 0.04150390625, -0.153564453125, -0.83251953125
275, 1691274007, -5.050434589385986, 1.4192569255828857, 8.316058158874512, -2.4196321964263916, -1.6942930221557617, -2.360556125640869, 0.040283203125, -0.154541015625, -0.833984375
276, 1691290674, -5.0169267654418945, 1.4225754737854004, 8.31710147857666, -2.4206178188323975, -1.7403956651687622, -2.284614324569702, 0.04150390625, -0.15478515625, -0.833984375
277, 1691307341, -5.0229034423828125, 1.4271178245544434, 8.316937446594238, -2.337658166885376, -1.679860234260559, -2.3390283584594727, 0.039794921875, -0.154052734375, -0.83154296875
278, 1691324008, -5.021395683288574, 1.4230226278305054, 8.341912269592285, -2.2630739212036133, -1.7422782182693481, -2.3319337368011475, 0.038330078125, -0.153564453125, -0.83349609375
279, 1691340675, -5.0170464515686035, 1.4124761819839478, 8.352593421936035, -2.327925443649292, -1.6203619241714478, -2.377959966659546, 0.038818359375, -0.154541015625, -0.8330078125
280, 1691357342, -5.029054164886475, 1.4324437379837036, 8.31281852722168, -2.3904073238372803, -1.6002302169799805, -2.384427070617676, 0.039794921875, -0.154541015625, -0.83447265625
281, 1691374009, -5.023822784423828, 1.436780333518982, 8.328997611999512, -2.68809175491333, -1.7023099660873413, -2.489170789718628, 0.039306640625, -0.153564453125, -0.833984375
282, 1691390676, -5.037330627441406, 1.4285688400268555, 8.344325065612793, -2.6659107208251953, -1.7720273733139038, -2.5507047176361084, 0.040771484375, -0.154541015625, -0.8330078125
283, 1691407343, -5.042452335357666, 1.4231539964675903, 8.307303428649902, -2.70147442817688, -1.7446733713150024, -2.477900981903076, 0.039306640625, -0.1552734375, -0.83251953125
284, 1691424010, -5.02405309677124, 1.4234920740127563, 8.326520919799805, -2.6041717529296875, -1.8065152168273926, -2.474609613418579, 0.038330078125, -0.155029296875, -0.8310546875
285, 1691440677, -5.022258281707764, 1.4252948760986328, 8.349583625793457, -2.466522693634033, -1.7864925861358643, -2.4564437866210938, 0.038330078125, -0.155517578125, -0.83154296875
286, 1691457344, -5.036468982696533, 1.4443618059158325, 8.342936515808105, -2.195277690887451, -1.7884708642959595, -2.277737617492676, 0.039794921875, -0.152099609375, -0.83056640625
287, 1691474011, -5.02072811126709, 1.4437745809555054, 8.3368501663208, -1.9209010601043701, -1.853924036026001, -2.2781982421875, 0.038330078125, -0.1552734375, -0.8330078125
288, 1691490678, -5.021219253540039, 1.4077346324920654, 8.339351654052734, -1.6662085056304932, -1.779314398765564, -2.206252336502075, 0.04150390625, -0.15576171875, -0.83349609375
289, 1691507345, -5.0153656005859375, 1.4177446365356445, 8.353621482849121, -1.6272772550582886, -1.788585901260376, -2.086320638656616, 0.039794921875, -0.154052734375, -0.8330078125
290, 1691524012, -5.0227251052856445, 1.4323235750198364, 8.352909088134766, -1.5413211584091187, -1.8072576522827148, -2.106593370437622, 0.038818359375, -0.155029296875, -0.83349609375
291, 1691540679, -5.02147912979126, 1.424321174621582, 8.328325271606445, -1.6691412925720215, -1.8471111059188843, -2.0621423721313477, 0.039306640625, -0.154052734375, -0.8310546875
292, 1691557346, -5.031425952911377, 1.4452232122421265, 8.336928367614746, -1.708943247795105, -1.8775644302368164, -2.0976030826568604, 0.037841796875, -0.155029296875, -0.8330078125
293, 1691574013, -5.016871929168701, 1.4391968250274658, 8.327012062072754, -1.9048676490783691, -1.9386379718780518, -2.200425386428833, 0.039306640625, -0.154541015625, -0.83447265625
294, 1691590680, -5.037199974060059, 1.4270857572555542, 8.338972091674805, -1.5659475326538086, -1.8679468631744385, -2.150019645690918, 0.039306640625, -0.15673828125, -0.833984375
295, 1691607347, -5.026866436004639, 1.4416539669036865, 8.361154556274414, -1.161305546760559, -2.0533573627471924, -1.966543436050415, 0.040283203125, -0.15771484375, -0.8310546875
296, 1691624014, -5.005478858947754, 1.4466878175735474, 8.352012634277344, -1.1398420333862305, -2.154911518096924, -1.9033564329147339, 0.038330078125, -0.155029296875, -0.8310546875
297, 1691640681, -4.9939751625061035, 1.452720046043396, 8.324485778808594, -1.386479377746582, -2.2303922176361084, -2.070107936859131, 0.039794921875, -0.15625, -0.833984375
298, 1691657348, -4.997776985168457, 1.4590957164764404, 8.31149673461914, -1.766840934753418, -2.194995880126953, -2.213897943496704, 0.037353515625, -0.158203125, -0.83203125
299, 1691674015, -5.004118919372559, 1.4649757146835327, 8.328004837036133, -2.2045366764068604, -2.1587538719177246, -2.4412364959716797, 0.035888671875, -0.15869140625, -0.830078125
300, 1691690682, -5.007968425750732, 1.4559261798858643, 8.331531524658203, -2.567852258682251, -2.2715134620666504, -2.5086612701416016, 0.036865234375, -0.15771484375, -0.830078125
301, 1691707349, -5.020755767822266, 1.45541512966156, 8.365160942077637, -2.340270757675171, -2.2629714012145996, -2.4991204738616943, 0.036376953125, -0.1572265625, -0.83154296875
302, 1691724016, -5.000298023223877, 1.4591281414031982, 8.325712203979492, -2.312084436416626, -2.2038962841033936, -2.4215915203094482, 0.036376953125, -0.15673828125, -0.83154296875
303, 1691740683, -4.990599155426025, 1.4659470319747925, 8.336803436279297, -2.476632833480835, -2.1154935359954834, -2.482510805130005, 0.035888671875, -0.155029296875, -0.83203125
304, 1691757350, -5.014740943908691, 1.4455184936523438, 8.351432800292969, -2.573974132537842, -2.338439464569092, -2.558260917663574, 0.038330078125, -0.15576171875, -0.8310546875
305, 1691774017, -5.010523319244385, 1.4717313051223755, 8.35284423828125, -2.4996325969696045, -2.1703429222106934, -2.5145392417907715, 0.036865234375, -0.15625, -0.83251953125
306, 1691790684, -5.015000343322754, 1.443207025527954, 8.364397048950195, -2.1945223808288574, -2.2642781734466553, -2.3579182624816895, 0.036376953125, -0.15966796875, -0.83251953125
307, 1691807351, -5.010887622833252, 1.4723929166793823, 8.350761413574219, -2.0209574699401855, -2.300699234008789, -2.1622371673583984, 0.036865234375, -0.1572265625, -0.83154296875
308, 1691824018, -4.998734474182129, 1.4737136363983154, 8.345702171325684, -2.107297897338867, -2.4367284774780273, -2.274305582046509, 0.032958984375, -0.1572265625, -0.83154296875
309, 1691840685, -4.995388984680176, 1.4725044965744019, 8.344773292541504, -2.436497688293457, -2.7341301441192627, -2.3409368991851807, 0.034912109375, -0.15869140625, -0.83251953125
310, 1691857352, -5.010570049285889, 1.4901705980300903, 8.328289985656738, -2.4396865367889404, -2.801722288131714, -2.3789846897125244, 0.034912109375, -0.158203125, -0.83251953125
311, 1691874019, -4.997676372528076, 1.464098334312439, 8.348206520080566, -2.318103075027466, -2.9877853393554688, -2.361055612564087, 0.034423828125, -0.155517578125, -0.832275390625
312, 1691890686, -4.964605331420898, 1.4766438007354736, 8.329024314880371, -2.527704954147339, -3.013091564178467, -2.5621285438537598, 0.034912109375, -0.1572265625, -0.83251953125
313, 1691907353, -4.969734191894531, 1.4700943231582642, 8.3692626953125, -2.8563663959503174, -2.9912939071655273, -2.6023523807525635, 0.035400390625, -0.156005859375, -0.833251953125
314, 1691924020, -4.982029438018799, 1.4503337144851685, 8.346966743469238, -2.749741315841675, -3.0371415615081787, -2.5421500205993652, 0.034912109375, -0.158203125, -0.83349609375
315, 1691940687, -5.002236843109131, 1.4394680261611938, 8.354730606079102, -1.765368103981018, -3.1669206619262695, -2.0352234840393066, 0.03173828125, -0.156005859375, -0.833251953125
316, 1691957354, -4.980375289916992, 1.4807589054107666, 8.331745147705078, -1.2162702083587646, -3.0363218784332275, -1.71567964553833, 0.033447265625, -0.15869140625, -0.83154296875
317, 1691974021, -4.930185794830322, 1.4699180126190186, 8.339683532714844, -1.1737914085388184, -2.7082865238189697, -1.5584814548492432, 0.032958984375, -0.15771484375, -0.832763671875
318, 1691990688, -4.9309234619140625, 1.537840485572815, 8.323756217956543, -1.871686577796936, -2.5616543292999268, -1.7654451131820679, 0.034912109375, -0.158203125, -0.83056640625
319, 1692007355, -4.9205708503723145, 1.5381579399108887, 8.306363105773926, -2.401959180831909, -2.568121910095215, -2.0339818000793457, 0.0322265625, -0.158203125, -0.83056640625
320, 1692024022, -4.872631072998047, 1.4714888334274292, 8.27521800994873, -1.0576764345169067, -1.691603660583496, -1.4632792472839355, 0.03173828125, -0.15869140625, -0.831298828125
321, 1692040689, -4.912078380584717, 1.441253900527954, 8.346989631652832, -0.08319005370140076, -0.592037558555603, -0.6537896990776062, 0.032470703125, -0.15966796875, -0.832275390625
322, 1692057356, -4.848048210144043, 1.5467463731765747, 8.30235767364502, -1.8826488256454468, -0.9533559083938599, -1.521855354309082, 0.03173828125, -0.1591796875, -0.832275390625
323, 1692074023, -4.944223403930664, 1.4116506576538086, 8.393566131591797, -2.88948392868042, -0.8334500193595886, -2.107860803604126, 0.031494140625, -0.1591796875, -0.833251953125
324, 1692090690, -4.930692672729492, 1.3581721782684326, 8.390475273132324, -3.546462297439575, -1.045151710510254, -2.0857574939727783, 0.03173828125, -0.16015625, -0.83056640625
325, 1692107357, -4.947865009307861, 1.3386600017547607, 8.384625434875488, -3.4008545875549316, -0.8761337995529175, -1.8479950428009033, 0.032470703125, -0.16015625, -0.83154296875
326, 1692124024, -4.936444282531738, 1.524709701538086, 8.313023567199707, -4.043323993682861, -0.9811201691627502, -1.9432998895645142, 0.0322265625, -0.15966796875, -0.83154296875
327, 1692140691, -4.982828140258789, 1.4973225593566895, 8.330256462097168, -5.95510721206665, -2.5269110202789307, -2.8669707775115967, 0.0322265625, -0.16015625, -0.8310546875
328, 1692157358, -4.985751628875732, 1.5825284719467163, 8.334474563598633, -7.923291206359863, -4.4465837478637695, -3.58565092086792, 0.031982421875, -0.158203125, -0.833740234375
329, 1692174025, -4.89909553527832, 1.497612476348877, 8.376503944396973, -7.543417453765869, -5.048841953277588, -3.6775245666503906, 0.031982421875, -0.156494140625, -0.834716796875
330, 1692190692, -4.9566264152526855, 1.455322027206421, 8.40670108795166, -6.9859299659729, -5.1137309074401855, -3.484058141708374, 0.03076171875, -0.155029296875, -0.832763671875
331, 1692207359, -4.909533500671387, 1.3786134719848633, 8.438563346862793, -6.191307067871094, -4.619404315948486, -3.326744318008423, 0.02880859375, -0.154052734375, -0.83544921875
332, 1692224026, -4.94070291519165, 1.4177522659301758, 8.443055152893066, -5.2686357498168945, -3.416069269180298, -3.1039655208587646, 0.02880859375, -0.152099609375, -0.8330078125
333, 1692240693, -4.94277811050415, 1.4672563076019287, 8.415106773376465, -4.529490947723389, -2.353013277053833, -2.9223709106445312, 0.0283203125, -0.152587890625, -0.83544921875
334, 1692257360, -4.903109550476074, 1.3865967988967896, 8.418791770935059, -2.9641575813293457, -1.5428448915481567, -2.4968667030334473, 0.02880859375, -0.153076171875, -0.833251953125
335, 1692274027, -4.884896278381348, 1.344399333000183, 8.408967018127441, -0.053965963423252106, 0.2901599109172821, -1.332193374633789, 0.02880859375, -0.151123046875, -0.8330078125
336, 1692290694, -4.868238925933838, 1.376160979270935, 8.42634105682373, 1.7260589599609375, 1.9410005807876587, -0.5104226469993591, 0.03076171875, -0.152587890625, -0.832763671875
337, 1692307361, -4.983797550201416, 1.4355958700180054, 8.355565071105957, 1.658018946647644, 2.2775516510009766, -0.6978819966316223, 0.02978515625, -0.153564453125, -0.832275390625
338, 1692324028, -4.935615062713623, 1.4405573606491089, 8.343379020690918, 0.5602585673332214, 1.568182349205017, -0.9694150686264038, 0.029296875, -0.155029296875, -0.832275390625
339, 1692340695, -4.869658946990967, 1.4738712310791016, 8.36476993560791, 0.46672096848487854, 1.3477593660354614, -1.123936414718628, 0.03076171875, -0.156005859375, -0.834716796875
340, 1692357362, -4.913658142089844, 1.4429030418395996, 8.357446670532227, 0.07174757122993469, 1.413673758506775, -1.3193740844726562, 0.0302734375, -0.1572265625, -0.833740234375
341, 1692374029, -4.935981273651123, 1.4771493673324585, 8.367140769958496, -0.4030029773712158, 1.1422045230865479, -1.518436074256897, 0.032958984375, -0.15771484375, -0.832763671875
342, 1692390696, -4.911877632141113, 1.4367269277572632, 8.360577583312988, 0.5297666192054749, 1.5417498350143433, -1.0944304466247559, 0.033935546875, -0.1591796875, -0.8330078125
343, 1692407363, -4.8697590827941895, 1.5571346282958984, 8.377267837524414, 1.1638346910476685, 2.539736270904541, -0.8134722113609314, 0.033935546875, -0.1572265625, -0.83154296875
344, 1692424030, -5.027669429779053, 1.5123116970062256, 8.351902961730957, 0.9344984889030457, 2.8201053142547607, -1.0710846185684204, 0.035400390625, -0.16015625, -0.83203125
345, 1692440697, -5.029358863830566, 1.4980072975158691, 8.353666305541992, 0.8628086447715759, 2.5866332054138184, -0.9100449085235596, 0.036376953125, -0.16064453125, -0.83349609375
346, 1692457364, -4.944771766662598, 1.5767394304275513, 8.323028564453125, 0.8030669689178467, 2.493940830230713, -0.9584912657737732, 0.036376953125, -0.1611328125, -0.83349609375
347, 1692474031, -4.97775411605835, 1.62932550907135, 8.323063850402832, -0.3385486602783203, 2.3439652919769287, -1.8146981000900269, 0.037841796875, -0.15966796875, -0.83154296875
348, 1692490698, -4.991357326507568, 1.5906357765197754, 8.312914848327637, -1.7868061065673828, 1.7513900995254517, -2.6952502727508545, 0.0400390625, -0.16259765625, -0.832275390625
349, 1692507365, -4.919479846954346, 1.6030710935592651, 8.297591209411621, -2.499786853790283, 1.3837968111038208, -3.5029215812683105, 0.038818359375, -0.16162109375, -0.831298828125
350, 1692524032, -5.006849765777588, 1.6143922805786133, 8.314355850219727, -2.6798312664031982, 1.254337191581726, -4.843207836151123, 0.040283203125, -0.1611328125, -0.830810546875
351, 1692540699, -5.056235313415527, 1.5380398035049438, 8.313375473022461, -2.2893147468566895, 1.6879346370697021, -5.17498254776001, 0.041015625, -0.1630859375, -0.829345703125
352, 1692557366, -5.002763748168945, 1.5971723794937134, 8.316926002502441, -2.022033452987671, 2.401376485824585, -5.408134937286377, 0.0419921875, -0.164794921875, -0.831787109375
353, 1692574033, -4.901832580566406, 1.647096037864685, 8.282323837280273, -3.3467862606048584, 3.319783926010132, -7.397166728973389, 0.04248046875, -0.16162109375, -0.831787109375
354, 1692590700, -5.041967868804932, 1.5699608325958252, 8.30294132232666, -3.8094940185546875, 4.969730377197266, -9.435428619384766, 0.0478515625, -0.162841796875, -0.82958984375
355, 1692607367, -5.05595064163208, 1.5127613544464111, 8.344280242919922, -0.23389531672000885, 9.617504119873047, -9.543220520019531, 0.0478515625, -0.1611328125, -0.82958984375
356, 1692624034, -4.965516090393066, 1.3389039039611816, 8.381463050842285, 4.000715255737305, 16.87430191040039, -7.8008317947387695, 0.050537109375, -0.162353515625, -0.82861328125
357, 1692640701, -4.663895606994629, 1.1827188730239868, 8.447283744812012, 9.041740417480469, 28.200037002563477, -6.094010353088379, 0.0595703125, -0.164306640625, -0.828125
358, 1692657368, -4.578741550445557, 1.354134202003479, 8.430316925048828, 10.564870834350586, 50.59500503540039, -4.838656425476074, 0.067626953125, -0.166748046875, -0.826416015625
359, 1692674035, -5.091910362243652, 1.3186630010604858, 8.21657943725586, 15.816129684448242, 65.72203063964844, -5.180431842803955, 0.08203125, -0.1708984375, -0.824462890625
360, 1692690702, -5.199626922607422, 1.5999759435653687, 8.18253231048584, 19.253557205200195, 83.17953491210938, -6.663200378417969, 0.103759765625, -0.174560546875, -0.819091796875
361, 1692707369, -5.267753601074219, 1.509787917137146, 8.2005033493042, 21.52513885498047, 103.89348602294922, -8.826386451721191, 0.126708984375, -0.18212890625, -0.812744140625
362, 1692724036, -5.38328218460083, 1.6532940864562988, 8.217841148376465, 21.376739501953125, 126.89385223388672, -11.734740257263184, 0.15478515625, -0.184326171875, -0.806640625
363, 1692740703, -5.5731096267700195, 1.7706449031829834, 7.944392681121826, 16.66015625, 152.2354736328125, -16.937572479248047, 0.19140625, -0.189697265625, -0.800048828125
364, 1692757370, -5.83407735824585, 1.7590644359588623, 7.806830406188965, 15.960165977478027, 180.38914489746094, -22.67493438720703, 0.231201171875, -0.18994140625, -0.787109375
365, 1692774037, -6.263479232788086, 1.7552350759506226, 7.509985446929932, 13.21973705291748, 211.57728576660156, -28.093271255493164, 0.2802734375, -0.18896484375, -0.77001953125
366, 1692790704, -6.67597770690918, 1.921464204788208, 7.249305248260498, 1.2618582248687744, 251.14523315429688, -33.85874938964844, 0.333251953125, -0.187744140625, -0.7431640625
367, 1692807371, -6.800329208374023, 2.3781518936157227, 7.388336658477783, -12.60252857208252, 309.318603515625, -44.677364349365234, 0.397705078125, -0.179443359375, -0.708740234375
368, 1692824038, -7.682502269744873, 2.704073667526245, 7.648952960968018, -15.966455459594727, 383.8851013183594, -60.37103271484375, 0.472412109375, -0.170654296875, -0.6591796875
369, 1692840705, -11.45040512084961, 2.907463550567627, 8.995912551879883, -16.112239837646484, 433.30328369140625, -83.51815032958984, 0.5546875, -0.15234375, -0.59375
370, 1692857372, -15.482392311096191, 2.9551284313201904, 9.711503982543945, -6.510280609130859, 424.2622985839844, -102.55551147460938, 0.630126953125, -0.13427734375, -0.516357421875
371, 1692874039, -16.15212631225586, 3.7140166759490967, 9.176541328430176, 5.843534469604492, 415.251220703125, -115.29713439941406, 0.689453125, -0.111083984375, -0.4267578125
372, 1692890706, -15.733370780944824, 4.7050251960754395, 9.785796165466309, -1.7906337976455688, 416.6727600097656, -137.60292053222656, 0.735595703125, -0.086181640625, -0.328369140625
373, 1692907373, -13.486466407775879, 4.100533962249756, 12.033092498779297, -26.649629592895508, 393.88836669921875, -151.77798461914062, 0.770751953125, -0.05322265625, -0.228515625
374, 1692924040, -10.34962272644043, 3.4682576656341553, 15.850257873535156, 6.536666393280029, 297.6957092285156, -101.01898193359375, 0.78662109375, -0.025146484375, -0.14013671875
375, 1692940707, -21.38007354736328, 3.023716449737549, 20.784175872802734, 44.564186096191406, 121.74002075195312, -92.81519317626953, 0.79150390625, -0.0107421875, -0.087646484375
376, 1692957374, -18.54234504699707, 6.343054294586182, 27.362512588500977, 110.24036407470703, -132.33248901367188, -44.496551513671875, 0.78857421875, 0.00244140625, -0.087890625
377, 1692974041, -3.1739401817321777, 7.853859901428223, 11.925899505615234, 48.60276412963867, -242.28500366210938, -47.413570404052734, 0.787841796875, 0.0107421875, -0.12646484375
378, 1692990708, -1.499407172203064, 5.064490795135498, 7.429495334625244, -24.12335205078125, -231.36976623535156, -52.479434967041016, 0.790771484375, 0.02197265625, -0.16650390625
379, 1693007375, -3.1623644828796387, 5.7299723625183105, 7.875067234039307, -68.4288330078125, -228.5056610107422, -32.7738151550293, 0.785888671875, 0.03125, -0.21484375
380, 1693024042, -4.043103218078613, 4.300722122192383, 8.723220825195312, -80.5587387084961, -265.8243408203125, -11.953296661376953, 0.77978515625, 0.0419921875, -0.269287109375
381, 1693040709, -4.434179306030273, 2.640247344970703, 8.154485702514648, -52.5859489440918, -301.68017578125, 24.73349380493164, 0.766357421875, 0.0419921875, -0.33740234375
382, 1693057376, -5.5216264724731445, 2.5766632556915283, 7.82358980178833, -11.89560317993164, -328.6004638671875, 60.95927429199219, 0.746826171875, 0.03076171875, -0.42431640625
383, 1693074043, -6.777828216552734, 3.266180992126465, 8.045072555541992, 4.118774890899658, -354.4810485839844, 85.18254852294922, 0.70068359375, 0.0107421875, -0.517333984375
384, 1693090710, -7.641626834869385, 3.208824396133423, 7.716732501983643, -4.003110408782959, -372.3555603027344, 96.0456771850586, 0.629638671875, -0.00732421875, -0.60107421875
385, 1693107377, -7.886971473693848, 1.765442132949829, 7.5805253982543945, -7.354969024658203, -378.9286193847656, 99.90879821777344, 0.5478515625, -0.01416015625, -0.665771484375
386, 1693124044, -8.555127143859863, -0.0022185025736689568, 7.825658321380615, 15.922698974609375, -378.0078430175781, 98.72747039794922, 0.466064453125, -0.02001953125, -0.7197265625
387, 1693140711, -9.369976997375488, -2.2025842666625977, 7.097372531890869, 67.47476959228516, -358.6867370605469, 89.12942504882812, 0.385498046875, -0.03515625, -0.760498046875
388, 1693157378, -12.785670280456543, -2.85398006439209, 7.867916584014893, 123.0037841796875, -309.7089538574219, 74.3336410522461, 0.307373046875, -0.06494140625, -0.775390625
389, 1693174045, -17.530019760131836, 0.6798014640808105, 12.918320655822754, 118.64422607421875, -280.0623779296875, 38.181339263916016, 0.253662109375, -0.092529296875, -0.767578125
390, 1693190712, -18.889619827270508, 0.6433538794517517, 12.635416984558105, 108.01505279541016, -280.8391418457031, 22.55413055419922, 0.216552734375, -0.11474609375, -0.761474609375
391, 1693207379, -20.652286529541016, 1.9106297492980957, 10.872159004211426, 115.54064178466797, -267.4410095214844, 49.79844284057617, 0.201171875, -0.140380859375, -0.776123046875
392, 1693224046, -22.468185424804688, 2.2969372272491455, 8.788240432739258, 94.68694305419922, -253.40414428710938, 79.24436950683594, 0.170654296875, -0.175537109375, -0.821044921875
393, 1693240713, -21.700767517089844, -0.17340105772018433, 2.49356746673584, 66.60286712646484, -231.79574584960938, 92.4319839477539, 0.113037109375, -0.209716796875, -0.872802734375
394, 1693257380, -22.374065399169922, -2.044013500213623, -1.8221325874328613, 58.08295822143555, -183.62545776367188, 93.69718170166016, 0.04052734375, -0.24853515625, -0.907470703125
395, 1693274047, -20.85704803466797, -1.9560569524765015, -3.127490997314453, 47.696380615234375, -136.75482177734375, 88.86265563964844, -0.024658203125, -0.275634765625, -0.922119140625
396, 1693290714, -19.304370880126953, -1.5306906700134277, -3.48915958404541, 33.32128143310547, -91.84842681884766, 102.51185607910156, -0.082763671875, -0.29931640625, -0.919921875
397, 1693307381, -18.25648307800293, -1.2298808097839355, -4.465322494506836, 7.27327823638916, -47.25267791748047, 118.2394027709961, -0.128173828125, -0.3095703125, -0.917724609375
398, 1693324048, -16.750986099243164, -2.32126784324646, -4.83932638168335, -24.133403778076172, -4.227629661560059, 113.87638854980469, -0.15673828125, -0.308349609375, -0.916015625
399, 1693340715, -15.761133193969727, -4.018606662750244, -3.1559557914733887, -36.10054397583008, 39.22647476196289, 92.21202087402344, -0.170654296875, -0.29833984375, -0.9248046875
400, 1693357382, -17.823862075805664, -3.215486764907837, 0.3286089599132538, -25.16277313232422, 71.31389617919922, 59.45054244995117, -0.169189453125, -0.2939453125, -0.931884765625
401, 1693374049, -5.13924503326416, 0.14631018042564392, 7.780567646026611, -90.31388092041016, 92.21723937988281, -27.346424102783203, -0.1494140625, -0.280029296875, -0.94970703125
402, 1693390716, 4.828137397766113, 4.587241172790527, 14.83222770690918, -36.29701614379883, 110.1323471069336, -30.381235122680664, -0.129638671875, -0.273193359375, -0.96533203125
403, 1693407383, -5.974334716796875, -4.8249688148498535, 10.530406951904297, -0.18245954811573029, 164.4641571044922, -67.22869110107422, -0.093017578125, -0.279052734375, -0.97412109375
404, 1693424050, -9.808483123779297, -2.951564311981201, 11.392306327819824, 14.075135231018066, 170.52622985839844, -44.999610900878906, -0.050537109375, -0.28955078125, -0.9853515625
405, 1693440717, -8.749711036682129, 3.5146429538726807, 11.18420124053955, 15.257952690124512, 150.2700958251953, -32.29921340942383, -0.01025390625, -0.2958984375, -0.99072265625
406, 1693457384, -9.431334495544434, 9.225288391113281, 11.235589981079102, -5.081938743591309, 134.7032470703125, -29.003944396972656, 0.024169921875, -0.30419921875, -0.99658203125
407, 1693474051, -9.787874221801758, 4.895033359527588, 8.793469429016113, -48.7183837890625, 102.10372924804688, -46.546234130859375, 0.056640625, -0.29248046875, -1.001220703125
408, 1693490718, -7.950551509857178, -1.1142945289611816, 12.254344940185547, -58.047340393066406, 70.7581558227539, -32.59722900390625, 0.079345703125, -0.281982421875, -1.0068359375
409, 1693507385, -6.411657810211182, 1.6295669078826904, 9.496078491210938, -49.29549789428711, 40.85466766357422, -20.304765701293945, 0.093994140625, -0.265625, -1.011474609375
410, 1693524052, -5.904146671295166, 1.3352097272872925, 9.076242446899414, -29.107650756835938, 14.168396949768066, -12.874124526977539, 0.10107421875, -0.256591796875, -1.015625
411, 1693540719, -5.325743675231934, 1.8444746732711792, 8.699228286743164, -19.69598388671875, 5.785964488983154, -11.298626899719238, 0.10205078125, -0.253173828125, -1.0166015625
412, 1693557386, -5.063982009887695, 1.8393890857696533, 8.40495491027832, -16.511377334594727, 0.16274970769882202, -11.7183256149292, 0.10400390625, -0.24951171875, -1.01806640625
413, 1693574053, -5.231773376464844, 1.3132563829421997, 8.527644157409668, -15.828195571899414, -0.765641450881958, -10.7052001953125, 0.10498046875, -0.24365234375, -1.0185546875
414, 1693590720, -5.160305500030518, 1.62759530544281, 8.389897346496582, -12.546055793762207, 1.025706171989441, -8.128336906433105, 0.1044921875, -0.2412109375, -1.019775390625
415, 1693607387, -5.115392208099365, 1.6192175149917603, 8.289873123168945, -9.735776901245117, 2.468892812728882, -6.82956600189209, 0.103515625, -0.239990234375, -1.020751953125
416, 1693624054, -5.113522052764893, 1.6004704236984253, 8.27938175201416, -8.030416488647461, 4.505627632141113, -5.162535667419434, 0.107421875, -0.237060546875, -1.020263671875
417, 1693640721, -5.089362144470215, 1.6763875484466553, 8.265311241149902, -8.352073669433594, 4.599563121795654, -4.853519439697266, 0.108642578125, -0.236572265625, -1.024658203125
418, 1693657388, -5.19971227645874, 1.6761635541915894, 8.256689071655273, -8.849780082702637, 2.9176268577575684, -5.115434169769287, 0.109619140625, -0.234130859375, -1.023193359375
419, 1693674055, -5.115074634552002, 1.5868003368377686, 8.277487754821777, -9.142045974731445, 0.8178713917732239, -5.3824591636657715, 0.109619140625, -0.231689453125, -1.023193359375
420, 1693690722, -5.106292724609375, 1.7041397094726562, 8.287163734436035, -10.567139625549316, -1.4059971570968628, -6.505603790283203, 0.107666015625, -0.22900390625, -1.022705078125
421, 1693707389, -5.23616361618042, 1.8992944955825806, 8.216443061828613, -13.631657600402832, -5.207797527313232, -9.575754165649414, 0.107666015625, -0.22705078125, -1.02587890625
422, 1693724056, -5.1410746574401855, 1.650316834449768, 8.253787994384766, -11.515007972717285, -5.108932018280029, -10.666471481323242, 0.107177734375, -0.22509765625, -1.02734375
423, 1693740723, -5.108316421508789, 1.4224756956100464, 8.30595874786377, -7.869043827056885, -1.2375292778015137, -9.688942909240723, 0.107421875, -0.219482421875, -1.026611328125
424, 1693757390, -5.118177890777588, 1.4652947187423706, 8.262345314025879, -5.883303165435791, 2.1977431774139404, -8.550636291503906, 0.108154296875, -0.218994140625, -1.026611328125
425, 1693774057, -5.171677112579346, 1.5561503171920776, 8.270052909851074, -5.5528740882873535, 3.484769344329834, -8.801295280456543, 0.109619140625, -0.218505859375, -1.029052734375
426, 1693790724, -5.218546390533447, 1.615636944770813, 8.210725784301758, -4.817366600036621, 3.8681726455688477, -9.849687576293945, 0.113037109375, -0.21875, -1.02685546875
427, 1693807391, -5.151613712310791, 1.5715022087097168, 8.314903259277344, -3.5691957473754883, 5.844111442565918, -11.515028953552246, 0.114990234375, -0.217529296875, -1.0283203125
428, 1693824058, -5.009637832641602, 1.4106122255325317, 8.423212051391602, -2.9651596546173096, 11.003487586975098, -11.4895601272583, 0.114501953125, -0.216064453125, -1.025390625
429, 1693840725, -5.063570499420166, 1.186224102973938, 8.31928539276123, 0.3302570879459381, 20.195037841796875, -9.437898635864258, 0.12109375, -0.2177734375, -1.025634765625
430, 1693857392, -4.865386009216309, 0.954239547252655, 8.297649383544922, 7.834364414215088, 34.25189208984375, -6.033713340759277, 0.131103515625, -0.2197265625, -1.02587890625
431, 1693874059, -5.021446704864502, 1.1378540992736816, 8.290163040161133, 13.420205116271973, 47.78227233886719, -3.425830841064453, 0.142333984375, -0.222900390625, -1.0224609375
432, 1693890726, -5.01980447769165, 1.417834758758545, 8.168486595153809, 17.152706146240234, 64.87297058105469, -3.4422857761383057, 0.16015625, -0.2275390625, -1.01611328125
433, 1693907393, -5.252537727355957, 1.6913421154022217, 8.173821449279785, 17.35051918029785, 82.28919219970703, -5.776652812957764, 0.184814453125, -0.234619140625, -1.01171875
434, 1693924060, -5.380969047546387, 1.7424296140670776, 8.140422821044922, 13.604814529418945, 101.2745361328125, -11.847288131713867, 0.208984375, -0.2392578125, -1.00439453125
435, 1693940727, -5.666808128356934, 1.4982661008834839, 7.851707458496094, 15.491379737854004, 120.94883728027344, -16.27397346496582, 0.241455078125, -0.240478515625, -0.995849609375
436, 1693957394, -5.7171196937561035, 1.4624618291854858, 7.7297563552856445, 18.369609832763672, 142.3667755126953, -20.005760192871094, 0.28076171875, -0.2451171875, -0.9833984375
437, 1693974061, -5.761119365692139, 1.259116530418396, 7.734917163848877, 20.064157485961914, 170.48643493652344, -22.829553604125977, 0.32373046875, -0.248291015625, -0.96533203125
438, 1693990728, -5.874652862548828, 1.3177732229232788, 7.718042373657227, 20.058584213256836, 209.77212524414062, -21.757526397705078, 0.378662109375, -0.25, -0.943359375
439, 1694007395, -6.265153884887695, 1.732524037361145, 7.593146800994873, 12.897106170654297, 264.51458740234375, -25.63315773010254, 0.441162109375, -0.25146484375, -0.91064453125
440, 1694024062, -6.723495006561279, 2.0555801391601562, 7.321839332580566, -1.767043113708496, 340.2002258300781, -32.47299575805664, 0.518798828125, -0.24658203125, -0.86572265625
441, 1694040729, -7.772697925567627, 2.997642755508423, 9.340327262878418, -4.010914325714111, 435.4163513183594, -42.33955001831055, 0.614501953125, -0.2353515625, -0.7978515625
442, 1694057396, -13.532684326171875, 2.8322436809539795, 11.368671417236328, 16.89909553527832, 483.7749938964844, -65.35089874267578, 0.71240234375, -0.21923828125, -0.696533203125
443, 1694074063, -18.7742977142334, 1.734283447265625, 10.82055950164795, 38.36074447631836, 465.7320251464844, -73.28309631347656, 0.7919921875, -0.2021484375, -0.58203125
444, 1694090730, -17.88822364807129, 5.325026988983154, 10.592031478881836, 36.03479766845703, 460.7569580078125, -90.3024673461914, 0.848876953125, -0.178466796875, -0.453369140625
445, 1694107397, -14.438323020935059, 5.016181945800781, 12.356436729431152, 13.245214462280273, 442.92901611328125, -120.68355560302734, 0.88916015625, -0.142333984375, -0.318115234375
446, 1694124064, -7.158358097076416, 3.9060885906219482, 11.837410926818848, 31.29618263244629, 399.5247802734375, -99.19930267333984, 0.90576171875, -0.10498046875, -0.1923828125
447, 1694140731, -17.212543487548828, 1.610156774520874, 18.325403213500977, 69.2740707397461, 279.4652404785156, -84.35005187988281, 0.907958984375, -0.076904296875, -0.092529296875
448, 1694157398, -26.747344970703125, 6.760109901428223, 26.275325775146484, 91.90057373046875, 95.48209381103516, -95.23148345947266, 0.900146484375, -0.045166015625, -0.03271484375
449, 1694174065, -11.679671287536621, 8.232102394104004, 22.317060470581055, 83.86852264404297, -169.5222625732422, -25.462228775024414, 0.90234375, -0.03076171875, -0.047607421875
450, 1694190732, -4.027266979217529, 5.4954142570495605, 11.148354530334473, 16.857723236083984, -255.88206481933594, -18.203611373901367, 0.91162109375, -0.02880859375, -0.1123046875
451, 1694207399, -2.241011142730713, 3.1339774131774902, 6.8634114265441895, -26.29416275024414, -277.3187561035156, -28.451133728027344, 0.91259765625, -0.02880859375, -0.202392578125
452, 1694224066, -2.8793225288391113, 2.6331968307495117, 7.017663955688477, -53.092830657958984, -293.1822204589844, -28.83819007873535, 0.888916015625, -0.02880859375, -0.297607421875
453, 1694240733, -5.5716233253479, 2.325457811355591, 8.173715591430664, -57.23417663574219, -335.3312683105469, -26.113754272460938, 0.834228515625, -0.025634765625, -0.3984375
454, 1694257400, -5.601604461669922, 1.3622702360153198, 6.793821334838867, -34.01032638549805, -376.9601745605469, -11.629613876342773, 0.76171875, -0.021484375, -0.485595703125
455, 1694274067, -4.876141548156738, 1.7068835496902466, 5.390719413757324, -0.9779949188232422, -389.9208679199219, 11.995207786560059, 0.680908203125, -0.025390625, -0.556396484375
456, 1694290734, -5.482946872711182, 2.908889055252075, 5.4055609703063965, 12.245542526245117, -388.1073303222656, 37.86134338378906, 0.59619140625, -0.0341796875, -0.6142578125
457, 1694307401, -6.813350200653076, 3.4531335830688477, 6.678299427032471, 1.7493715286254883, -388.8200378417969, 57.58810043334961, 0.514892578125, -0.04443359375, -0.65966796875
458, 1694324068, -8.520658493041992, 1.2516347169876099, 7.919025421142578, 7.060973644256592, -389.7044982910156, 69.11226654052734, 0.43310546875, -0.0537109375, -0.69287109375
459, 1694340735, -9.353951454162598, -1.3929226398468018, 7.504427909851074, 49.677364349365234, -385.6285095214844, 70.28630828857422, 0.361572265625, -0.0703125, -0.71826171875
460, 1694357402, -10.032261848449707, -3.5185227394104004, 6.165963649749756, 106.47099304199219, -337.75628662109375, 55.74366760253906, 0.29296875, -0.10009765625, -0.728515625
461, 1694374069, -13.65625286102295, -1.9501559734344482, 11.025676727294922, 136.64332580566406, -281.5893859863281, 31.502471923828125, 0.246337890625, -0.13330078125, -0.73388671875
462, 1694390736, -20.204195022583008, -0.3678552508354187, 13.91439151763916, 142.0628204345703, -280.0072937011719, 11.76905345916748, 0.21044921875, -0.165771484375, -0.74072265625
463, 1694407403, -22.170312881469727, 0.38883116841316223, 11.37726879119873, 145.9080810546875, -275.93267822265625, 27.206409454345703, 0.1640625, -0.206298828125, -0.76123046875
464, 1694424070, -26.061246871948242, 3.59272837638855, 8.994254112243652, 110.0383529663086, -266.5632019042969, 59.758689880371094, 0.098388671875, -0.2470703125, -0.779296875
465, 1694440737, -23.82332992553711, 1.4915823936462402, 2.8959782123565674, 33.272186279296875, -245.6360321044922, 80.71347045898438, 0.020751953125, -0.271240234375, -0.790283203125
466, 1694457404, -25.00225257873535, -3.4931657314300537, -0.45121973752975464, 18.666772842407227, -206.7837677001953, 104.2994613647461, -0.0517578125, -0.28076171875, -0.787353515625
467, 1694474071, -23.83458137512207, -4.037502288818359, -3.317365884780884, 19.164499282836914, -172.60101318359375, 107.24051666259766, -0.112060546875, -0.289794921875, -0.7724609375
468, 1694490738, -21.48891830444336, -4.002363204956055, -6.370363235473633, -20.014995574951172, -119.55257415771484, 95.57014465332031, -0.158935546875, -0.286865234375, -0.76025390625
469, 1694507405, -20.730192184448242, -5.8719096183776855, -6.941368103027344, -47.25484848022461, -60.693115234375, 94.96439361572266, -0.187255859375, -0.27197265625, -0.7509765625
470, 1694524072, -19.90909194946289, -7.233823776245117, -6.480800151824951, -33.73603439331055, -14.555130004882812, 89.81997680664062, -0.2041015625, -0.259765625, -0.74658203125
471, 1694540739, -16.616260528564453, -10.419547080993652, -11.0485200881958, -0.8898497819900513, 99.44380950927734, 50.787452697753906, -0.200439453125, -0.25390625, -0.744384765625
472, 1694557406, 1.4661742448806763, -3.9522650241851807, 11.928943634033203, 15.08997631072998, 138.3905029296875, -28.25426483154297, -0.17578125, -0.258056640625, -0.749267578125
473, 1694574073, -6.772018909454346, 8.853158950805664, 15.977500915527344, 50.59414291381836, 182.3120574951172, -52.62421798706055, -0.137451171875, -0.269775390625, -0.748779296875
474, 1694590740, -10.472607612609863, 2.5960938930511475, 8.208012580871582, 29.315980911254883, 196.94032287597656, -35.58622741699219, -0.096923828125, -0.28076171875, -0.747802734375
475, 1694607407, -10.572999000549316, 1.5383952856063843, 12.458829879760742, 16.42344093322754, 160.62203979492188, -25.08922004699707, -0.06201171875, -0.285400390625, -0.749267578125
476, 1694624074, -10.869112014770508, 9.2728271484375, 12.251386642456055, -4.291146278381348, 135.4137725830078, -28.28131103515625, -0.031982421875, -0.28955078125, -0.748291015625
477, 1694640741, -8.187309265136719, 0.1293565332889557, 10.657788276672363, -50.656402587890625, 75.91647338867188, -42.765113830566406, -0.009765625, -0.2802734375, -0.752685546875
478, 1694657408, -6.721311569213867, 0.6835805177688599, 10.700498580932617, -57.42875671386719, 39.14847946166992, -28.56409454345703, 0.002197265625, -0.267822265625, -0.757568359375
479, 1694674075, -6.4904398918151855, 1.368530511856079, 9.377338409423828, -40.64848709106445, 20.314577102661133, -20.022748947143555, 0.00732421875, -0.2578125, -0.76025390625
480, 1694690742, -5.726406574249268, 1.7967541217803955, 8.831400871276855, -25.3646297454834, 11.269796371459961, -12.107929229736328, 0.01171875, -0.25146484375, -0.76025390625
481, 1694707409, -5.259151458740234, 1.7173311710357666, 8.703786849975586, -12.479530334472656, 5.100754737854004, -7.485330581665039, 0.015869140625, -0.2490234375, -0.761474609375
482, 1694724076, -4.964240074157715, 1.7735004425048828, 8.492448806762695, -13.42367935180664, 2.2505195140838623, -8.384260177612305, 0.015380859375, -0.247802734375, -0.7626953125
483, 1694740743, -4.979911804199219, 1.7915233373641968, 8.411787033081055, -14.041434288024902, 0.16154585778713226, -9.051794052124023, 0.014892578125, -0.243408203125, -0.76318359375
484, 1694757410, -4.779938220977783, 1.6151217222213745, 8.382929801940918, -13.81684684753418, -1.129341721534729, -9.044453620910645, 0.015869140625, -0.2392578125, -0.76318359375
485, 1694774077, -4.889396667480469, 1.5871224403381348, 8.452726364135742, -12.928393363952637, 0.5321619510650635, -8.46577262878418, 0.014892578125, -0.2392578125, -0.764892578125
486, 1694790744, -5.056712627410889, 1.765973448753357, 8.412311553955078, -12.186978340148926, 2.5764918327331543, -7.651095867156982, 0.017333984375, -0.23828125, -0.766845703125
487, 1694807411, -5.015737056732178, 1.7905235290527344, 8.361706733703613, -12.294041633605957, 1.9856582880020142, -8.340858459472656, 0.017333984375, -0.23583984375, -0.7646484375
488, 1694824078, -4.883036136627197, 1.7172352075576782, 8.360246658325195, -11.902179718017578, 0.2586308419704437, -9.370656967163086, 0.017822265625, -0.232421875, -0.76318359375
489, 1694840745, -4.983057022094727, 1.6667028665542603, 8.409928321838379, -11.438936233520508, -2.1229617595672607, -10.813485145568848, 0.020751953125, -0.23095703125, -0.765869140625
490, 1694857412, -5.0932722091674805, 1.5128825902938843, 8.356176376342773, -11.251629829406738, -4.155561923980713, -11.395612716674805, 0.018310546875, -0.2294921875, -0.766845703125
491, 1694874079, -5.0921630859375, 1.417213797569275, 8.319661140441895, -10.297491073608398, -3.3683154582977295, -10.751039505004883, 0.019287109375, -0.226806640625, -0.768310546875
492, 1694890746, -5.029565811157227, 1.4497230052947998, 8.331684112548828, -8.942115783691406, -1.1815273761749268, -9.797041893005371, 0.019287109375, -0.222900390625, -0.767822265625
493, 1694907413, -4.99782133102417, 1.428821325302124, 8.360198974609375, -7.21574068069458, 0.8873587846755981, -9.090129852294922, 0.019775390625, -0.223876953125, -0.768310546875
494, 1694924080, -4.994856357574463, 1.564685344696045, 8.37368106842041, -9.22640609741211, 1.566672444343567, -10.543936729431152, 0.0224609375, -0.222900390625, -0.768798828125
495, 1694940747, -5.10584020614624, 1.6348716020584106, 8.341975212097168, -11.407280921936035, 1.0214931964874268, -13.544587135314941, 0.022705078125, -0.221435546875, -0.765869140625
496, 1694957414, -4.918970584869385, 1.4800325632095337, 8.417584419250488, -11.25149154663086, 2.7107419967651367, -14.496163368225098, 0.02197265625, -0.218505859375, -0.771484375
497, 1694974081, -4.975398063659668, 1.4119462966918945, 8.443344116210938, -10.790030479431152, 8.40027904510498, -14.99537181854248, 0.0263671875, -0.219482421875, -0.769287109375
498, 1694990748, -4.9888739585876465, 1.33940589427948, 8.436001777648926, -7.698614597320557, 13.098464965820312, -16.417293548583984, 0.031005859375, -0.216552734375, -0.770751953125
499, 1695007415, -4.8240966796875, 1.2043259143829346, 8.392030715942383, -4.600476264953613, 21.24249267578125, -18.172361373901367, 0.032958984375, -0.2158203125, -0.7685546875
500, 1695024082, -4.7692155838012695, 1.30388605594635, 8.496771812438965, 0.8317066431045532, 35.289512634277344, -19.974830627441406, 0.04345703125, -0.216552734375, -0.767822265625
501, 1695040749, -4.887539863586426, 1.0438034534454346, 8.539905548095703, 0.7514523267745972, 49.90522003173828, -20.991117477416992, 0.054443359375, -0.214599609375, -0.7685546875
502, 1695057416, -5.00230073928833, 0.8267673850059509, 8.393022537231445, 3.3647024631500244, 67.10011291503906, -19.700284957885742, 0.069580078125, -0.215087890625, -0.76708984375
503, 1695074083, -5.152065753936768, 0.7568537592887878, 8.247328758239746, 8.264641761779785, 85.5228042602539, -16.49148941040039, 0.087646484375, -0.216796875, -0.764404296875
504, 1695090750, -5.403522491455078, 0.8324738144874573, 8.07618522644043, 13.717666625976562, 103.73463439941406, -12.375643730163574, 0.11181640625, -0.220458984375, -0.757080078125
505, 1695107417, -5.50770378112793, 1.1182012557983398, 8.09880256652832, 15.838274955749512, 121.52946472167969, -12.503506660461426, 0.13623046875, -0.22314453125, -0.750244140625
506, 1695124084, -5.696871757507324, 1.3669276237487793, 7.947516918182373, 14.324262619018555, 142.4061737060547, -16.859703063964844, 0.16845703125, -0.226318359375, -0.74365234375
507, 1695140751, -5.781418323516846, 1.032395601272583, 7.814885139465332, 12.845462799072266, 167.8280792236328, -21.560997009277344, 0.2041015625, -0.228515625, -0.732177734375
508, 1695157418, -5.845252990722656, 1.3149787187576294, 7.891369819641113, 8.46533203125, 207.06544494628906, -26.2717227935791, 0.24609375, -0.230712890625, -0.71923828125
509, 1695174085, -6.258904457092285, 1.643807291984558, 7.550778865814209, -4.368942737579346, 256.9815368652344, -40.69281005859375, 0.296142578125, -0.227783203125, -0.696044921875
510, 1695190752, -6.611209869384766, 1.558537483215332, 7.629580020904541, -20.23584747314453, 325.74249267578125, -51.135433197021484, 0.360107421875, -0.22021484375, -0.66552734375
511, 1695207419, -7.7436203956604, 2.5192971229553223, 9.031292915344238, -30.32216453552246, 413.8292236328125, -63.53791809082031, 0.43505859375, -0.209716796875, -0.619140625
512, 1695224086, -12.65821361541748, 2.7665867805480957, 10.64283561706543, -24.959623336791992, 478.6250305175781, -85.8414077758789, 0.517578125, -0.1943359375, -0.5517578125
513, 1695240753, -19.09003257751465, 2.6096694469451904, 11.47724437713623, -0.6281492114067078, 462.3650817871094, -103.78031158447266, 0.59521484375, -0.17578125, -0.4697265625
514, 1695257420, -17.66839599609375, 3.1304404735565186, 10.961318969726562, 6.499145030975342, 446.0203552246094, -117.03622436523438, 0.654052734375, -0.154541015625, -0.3828125
515, 1695274087, -14.320772171020508, 5.306005477905273, 12.374245643615723, -3.0618345737457275, 425.190673828125, -132.74996948242188, 0.69873046875, -0.128662109375, -0.285888671875
516, 1695290754, -6.70004940032959, 3.5400283336639404, 11.603282928466797, -3.7303764820098877, 391.7351379394531, -130.92779541015625, 0.728271484375, -0.0947265625, -0.19287109375
517, 1695307421, -11.577842712402344, 1.2862287759780884, 16.225576400756836, 42.09503936767578, 295.71160888671875, -98.22834014892578, 0.741455078125, -0.0732421875, -0.113037109375
518, 1695324088, -29.71590232849121, 5.378069877624512, 28.426523208618164, 124.3007583618164, 90.78207397460938, -70.86345672607422, 0.733642578125, -0.052734375, -0.0615234375
519, 1695340755, -11.464556694030762, 11.245034217834473, 21.746559143066406, 117.32535552978516, -181.97531127929688, 22.31660270690918, 0.72119140625, -0.044677734375, -0.0615234375
520, 1695357422, -2.156233310699463, 7.039886474609375, 9.117705345153809, 28.893455505371094, -251.82919311523438, 27.376680374145508, 0.70361328125, -0.03466796875, -0.07177734375
521, 1695374089, -0.27160823345184326, 3.8016319274902344, 5.431342601776123, -25.4417667388916, -236.82408142089844, 29.715248107910156, 0.705078125, -0.012939453125, -0.072021484375
522, 1695390756, -2.830463409423828, 3.141549587249756, 6.52879524230957, -52.80646514892578, -230.0740203857422, 42.77646255493164, 0.73095703125, 0.012451171875, -0.067138671875
523, 1695407423, -6.280483722686768, 2.926815986633301, 9.19795036315918, -62.81320571899414, -278.0132141113281, 49.71253204345703, 0.79296875, 0.04150390625, -0.09033203125
524, 1695424090, -6.554330825805664, 1.1282721757888794, 8.298660278320312, -53.560943603515625, -333.30377197265625, 61.171974182128906, 0.8759765625, 0.061279296875, -0.188232421875
525, 1695440757, -5.785611629486084, -0.25705525279045105, 6.323904514312744, -26.918363571166992, -358.11956787109375, 70.86019897460938, 0.922607421875, 0.064453125, -0.362060546875
526, 1695457424, -6.804525852203369, -0.7450350522994995, 6.369041442871094, 7.374382019042969, -364.1813049316406, 80.28890991210938, 0.880859375, 0.0478515625, -0.55517578125
527, 1695474091, -8.0735502243042, -0.11538970470428467, 8.083353996276855, 26.706729888916016, -383.20208740234375, 83.89891052246094, 0.765380859375, 0.0263671875, -0.70263671875
528, 1695490758, -9.693692207336426, -0.30478405952453613, 8.739459037780762, 30.342060089111328, -401.0765686035156, 77.52448272705078, 0.626220703125, 0.010986328125, -0.79248046875
529, 1695507425, -9.405746459960938, -2.272195339202881, 7.058751583099365, 46.31424331665039, -404.21697998046875, 61.41212463378906, 0.49951171875, 0.001708984375, -0.851806640625
530, 1695524092, -9.920493125915527, -4.666806697845459, 4.800650119781494, 92.58499908447266, -348.69921875, 46.80692672729492, 0.388916015625, -0.01953125, -0.889892578125
531, 1695540759, -14.2511625289917, -2.3786160945892334, 9.606732368469238, 125.05841827392578, -278.169921875, 35.35765075683594, 0.30224609375, -0.05615234375, -0.916748046875
532, 1695557426, -20.608003616333008, -0.10698112845420837, 15.537461280822754, 117.36804962158203, -282.66015625, 16.078744888305664, 0.207275390625, -0.0927734375, -0.935302734375
533, 1695574093, -19.711347579956055, -0.036344945430755615, 10.488495826721191, 116.52212524414062, -289.72625732421875, 23.121580123901367, 0.10205078125, -0.119140625, -0.9287109375
534, 1695590760, -20.7939395904541, 2.5477333068847656, 8.18123722076416, 107.93754577636719, -259.6220397949219, 50.87559509277344, 0.0205078125, -0.14990234375, -0.907958984375
535, 1695607427, -21.705015182495117, 4.120057582855225, 6.791205883026123, 54.43756103515625, -236.77133178710938, 76.71159362792969, -0.04736328125, -0.174560546875, -0.886474609375
536, 1695624094, -21.460500717163086, 1.0023231506347656, 2.883164644241333, 12.475831031799316, -217.2086639404297, 91.9652328491211, -0.107421875, -0.1884765625, -0.876953125
537, 1695640761, -21.088157653808594, -1.7093610763549805, -0.7717256546020508, 3.1340105533599854, -183.49032592773438, 94.04369354248047, -0.164794921875, -0.196044921875, -0.860595703125
538, 1695657428, -20.183584213256836, -3.0102288722991943, -3.5196292400360107, -1.5696507692337036, -137.23873901367188, 96.55245971679688, -0.208740234375, -0.19677734375, -0.851318359375
539, 1695674095, -20.54768180847168, -4.468225002288818, -6.559571743011475, -15.131174087524414, -91.05194091796875, 97.30567932128906, -0.239990234375, -0.1904296875, -0.839111328125
540, 1695690762, -20.321924209594727, -5.531524181365967, -8.98291301727295, -28.452390670776367, -33.897361755371094, 87.97853088378906, -0.256103515625, -0.1845703125, -0.833740234375
541, 1695707429, -20.856088638305664, -6.466662406921387, -6.820924758911133, -38.41932678222656, 17.470598220825195, 82.33802032470703, -0.263671875, -0.169189453125, -0.834228515625
542, 1695724096, -9.830108642578125, -9.572308540344238, -4.835071563720703, -37.23384475708008, 91.98053741455078, 23.979663848876953, -0.255126953125, -0.152099609375, -0.841796875
543, 1695740763, 3.1106927394866943, 0.6300345063209534, 17.75725746154785, -23.319589614868164, 120.99021911621094, -45.464534759521484, -0.22998046875, -0.143798828125, -0.84814453125
544, 1695757430, -10.691756248474121, 10.485649108886719, 15.80787467956543, 13.607970237731934, 169.19801330566406, -61.585670471191406, -0.187255859375, -0.145263671875, -0.854248046875
545, 1695774097, -6.806103706359863, -1.826650619506836, 5.803740978240967, -28.296579360961914, 175.0262908935547, -49.97576141357422, -0.143798828125, -0.138427734375, -0.86279296875
546, 1695790764, -10.62874984741211, -1.000991940498352, 14.464740753173828, -15.290144920349121, 141.1016387939453, -36.745941162109375, -0.106689453125, -0.130126953125, -0.8671875
547, 1695807431, -4.116793155670166, 3.2492194175720215, 7.883681297302246, 2.598811626434326, 138.77430725097656, -17.6854190826416, -0.072509765625, -0.126953125, -0.869873046875
548, 1695824098, -6.861161708831787, 6.269169807434082, 10.03804874420166, 1.5349750518798828, 136.5596466064453, -13.296550750732422, -0.039794921875, -0.127685546875, -0.873291015625
549, 1695840765, -13.017040252685547, 4.7600483894348145, 11.158112525939941, -24.156923294067383, 105.89846801757812, -31.89207649230957, -0.010498046875, -0.119873046875, -0.87255859375
550, 1695857432, -6.902889251708984, -2.2818071842193604, 12.143428802490234, -19.79376983642578, 56.53082275390625, -18.461978912353516, 0.006591796875, -0.113525390625, -0.87353515625
551, 1695874099, -6.132856369018555, 2.350179433822632, 8.920855522155762, -15.370379447937012, 22.003938674926758, -8.374197959899902, 0.01708984375, -0.109619140625, -0.875244140625
552, 1695890766, -6.027912139892578, 1.3290343284606934, 8.931153297424316, -7.135163307189941, 8.23118782043457, -4.455343246459961, 0.01904296875, -0.108154296875, -0.872802734375
553, 1695907433, -5.537418365478516, 1.878022313117981, 8.560254096984863, -1.3431169986724854, 3.389385938644409, -2.2788515090942383, 0.02197265625, -0.107666015625, -0.875244140625
554, 1695924100, -5.167322635650635, 1.875429391860962, 8.340849876403809, -2.5090842247009277, 1.961273431777954, -2.537040948867798, 0.0224609375, -0.105224609375, -0.875244140625
555, 1695940767, -5.106842041015625, 1.686403512954712, 8.381406784057617, -4.34743595123291, 1.4481228590011597, -3.276043653488159, 0.02197265625, -0.107666015625, -0.876220703125
556, 1695957434, -5.113684177398682, 1.7481311559677124, 8.345319747924805, -3.531914710998535, 2.4741804599761963, -2.359262704849243, 0.0234375, -0.106201171875, -0.874267578125
557, 1695974101, -5.035688400268555, 1.8508292436599731, 8.262176513671875, -2.7578351497650146, 3.3486626148223877, -1.8957371711730957, 0.02294921875, -0.107666015625, -0.874267578125
558, 1695990768, -4.853652000427246, 1.7000651359558105, 8.195272445678711, -2.7212982177734375, 4.618668079376221, -1.4944626092910767, 0.027099609375, -0.105224609375, -0.875
559, 1696007435, -4.955045700073242, 1.8209726810455322, 8.224637031555176, -3.578721761703491, 6.153995513916016, -1.4872270822525024, 0.027099609375, -0.105224609375, -0.879638671875
560, 1696024102, -5.082089900970459, 1.9689702987670898, 8.136632919311523, -6.0163469314575195, 5.904400825500488, -2.649890422821045, 0.030517578125, -0.104736328125, -0.87646484375
561, 1696040769, -5.028731346130371, 2.0391998291015625, 8.083977699279785, -8.101478576660156, 3.207767963409424, -5.181386947631836, 0.029541015625, -0.10302734375, -0.873046875
562, 1696057436, -5.054807186126709, 1.9930177927017212, 8.123650550842285, -9.44138240814209, 0.6868880391120911, -7.551459789276123, 0.03369140625, -0.1005859375, -0.8798828125
563, 1696074103, -5.232831001281738, 1.755569577217102, 8.228771209716797, -8.715826034545898, -0.14501917362213135, -7.8958611488342285, 0.032470703125, -0.09912109375, -0.87451171875
564, 1696090770, -5.2840704917907715, 1.717933177947998, 8.245086669921875, -6.459934711456299, 1.059617042541504, -6.326351642608643, 0.031494140625, -0.099609375, -0.87451171875
565, 1696107437, -5.25373649597168, 1.7559568881988525, 8.253515243530273, -4.9939656257629395, 1.3539067506790161, -5.368167400360107, 0.033203125, -0.09814453125, -0.87548828125
566, 1696124104, -5.109409809112549, 1.8496637344360352, 8.23742389678955, -4.283532619476318, 1.3503082990646362, -5.423465251922607, 0.03515625, -0.09619140625, -0.873046875
567, 1696140771, -4.980691432952881, 1.961154580116272, 8.226807594299316, -4.937579154968262, 0.6461894512176514, -7.58837890625, 0.0341796875, -0.09619140625, -0.8759765625
568, 1696157438, -5.150406837463379, 1.8929725885391235, 8.221117973327637, -8.139631271362305, -1.34090256690979, -11.65874195098877, 0.0341796875, -0.09375, -0.87255859375
569, 1696174105, -5.340583801269531, 1.7798784971237183, 8.196711540222168, -7.626303195953369, -2.3933167457580566, -13.394749641418457, 0.03515625, -0.092529296875, -0.8720703125
570, 1696190772, -5.317270278930664, 1.499178171157837, 8.20479679107666, -3.3145534992218018, 0.7294948697090149, -11.27033519744873, 0.03515625, -0.091064453125, -0.879150390625
571, 1696207439, -5.149852275848389, 1.616025447845459, 8.20295524597168, -0.4158095419406891, 5.732630252838135, -9.722636222839355, 0.0361328125, -0.092529296875, -0.87451171875
572, 1696224106, -5.072693347930908, 1.822412133216858, 8.222115516662598, -0.8763137459754944, 11.952247619628906, -10.569090843200684, 0.041015625, -0.09326171875, -0.8759765625
573, 1696240773, -4.831506252288818, 1.8214235305786133, 8.299213409423828, -1.2661789655685425, 19.597036361694336, -12.247373580932617, 0.044189453125, -0.091796875, -0.871337890625
574, 1696257440, -4.811717510223389, 1.3388400077819824, 8.233484268188477, 2.4940314292907715, 37.56550598144531, -12.316704750061035, 0.05419921875, -0.0927734375, -0.871826171875
575, 1696274107, -5.071505069732666, 1.2348299026489258, 8.18600845336914, 9.882455825805664, 54.11940002441406, -9.229316711425781, 0.065185546875, -0.09375, -0.87060546875
576, 1696290774, -5.165480136871338, 1.435450792312622, 8.159732818603516, 16.989770889282227, 74.30297088623047, -6.088379859924316, 0.085205078125, -0.099365234375, -0.868408203125
577, 1696307441, -5.270937919616699, 1.7136211395263672, 8.157395362854004, 19.875673294067383, 95.79872131347656, -6.829281806945801, 0.1083984375, -0.104248046875, -0.865966796875
578, 1696324108, -5.36995792388916, 1.6969103813171387, 8.134262084960938, 19.261892318725586, 119.72991180419922, -11.18629264831543, 0.135009765625, -0.111328125, -0.859130859375
579, 1696340775, -5.312065124511719, 1.6360703706741333, 8.005419731140137, 20.05153465270996, 148.32855224609375, -15.082383155822754, 0.172119140625, -0.113037109375, -0.853271484375
580, 1696357442, -5.429180145263672, 1.4662379026412964, 7.974416732788086, 22.412769317626953, 183.6411895751953, -17.909502029418945, 0.21337890625, -0.117919921875, -0.841796875
581, 1696374109, -5.2299652099609375, 2.2553815841674805, 7.909122467041016, 23.65785026550293, 234.39854431152344, -25.234298706054688, 0.2685546875, -0.1201171875, -0.825927734375
582, 1696390776, -6.113595962524414, 2.341233491897583, 7.59627628326416, 11.648180961608887, 297.45294189453125, -36.40510177612305, 0.33349609375, -0.122802734375, -0.797607421875
583, 1696407443, -7.17122745513916, 2.7113029956817627, 8.31515884399414, -6.847241401672363, 385.13916015625, -44.932647705078125, 0.41796875, -0.11572265625, -0.753173828125
584, 1696424110, -9.502026557922363, 3.076643466949463, 11.330498695373535, 1.9396858215332031, 468.6134948730469, -62.587860107421875, 0.512451171875, -0.107421875, -0.691650390625
585, 1696440777, -16.779983520507812, 2.5152742862701416, 11.885085105895996, 21.726116180419922, 482.3101501464844, -84.66615295410156, 0.6044921875, -0.09814453125, -0.611572265625
586, 1696457444, -18.350637435913086, 4.937703609466553, 11.28978443145752, 36.119380950927734, 471.1199035644531, -98.4962387084961, 0.686767578125, -0.091064453125, -0.51220703125
587, 1696474111, -15.98252010345459, 5.693399906158447, 11.313423156738281, 15.664048194885254, 453.6434631347656, -129.45301818847656, 0.75146484375, -0.072265625, -0.412841796875
588, 1696490778, -8.12990665435791, 3.8003604412078857, 10.8975191116333, 16.324520111083984, 417.8262939453125, -130.50958251953125, 0.798583984375, -0.052734375, -0.30859375
589, 1696507445, -4.484776496887207, 1.3035671710968018, 13.909750938415527, 39.85169219970703, 368.817138671875, -110.09003448486328, 0.82568359375, -0.033447265625, -0.2099609375
590, 1696524112, -29.176063537597656, 6.8745622634887695, 23.258583068847656, 46.074588775634766, 235.400390625, -137.280517578125, 0.83642578125, -0.012939453125, -0.1376953125
591, 1696540779, -18.19996452331543, 6.395745754241943, 28.478771209716797, 52.7780647277832, -58.33711242675781, -76.96914672851562, 0.826171875, 0.001708984375, -0.126220703125
592, 1696557446, -6.3727874755859375, 7.2122039794921875, 15.354119300842285, 21.263341903686523, -234.48809814453125, -23.127899169921875, 0.805419921875, 7.32421875E-4, -0.1611328125
593, 1696574113, -2.2070369720458984, 4.471149444580078, 7.741132736206055, -26.51304054260254, -271.670654296875, -24.66091537475586, 0.77783203125, -7.32421875E-4, -0.205322265625
594, 1696590780, -1.5856963396072388, 3.7623238563537598, 5.264027118682861, -62.74479675292969, -277.9290771484375, -28.898683547973633, 0.75146484375, 0.003662109375, -0.24365234375
595, 1696607447, -3.326840400695801, 4.196952819824219, 6.2357707023620605, -85.91184997558594, -290.2240905761719, -29.292102813720703, 0.732177734375, 0.011474609375, -0.2783203125
596, 1696624114, -7.049765586853027, 3.943786382675171, 8.146021842956543, -92.28955841064453, -329.5768737792969, -20.790390014648438, 0.71142578125, 0.02099609375, -0.322021484375
597, 1696640781, -7.431930065155029, 2.9686856269836426, 7.543532848358154, -65.60066223144531, -378.6748352050781, 8.04192066192627, 0.68408203125, 0.022216796875, -0.37744140625
598, 1696657448, -6.649561882019043, 2.9954335689544678, 5.9561967849731445, -31.831642150878906, -401.2497253417969, 40.87433624267578, 0.655517578125, 0.013671875, -0.430419921875
599, 1696674115, -7.764009475708008, 3.3334758281707764, 6.1568779945373535, -15.2059326171875, -405.829345703125, 67.35578918457031, 0.6396484375, -0.003173828125, -0.4921875
600, 1696690782, -9.255072593688965, 2.8818585872650146, 6.876132011413574, -8.18924617767334, -409.89654541015625, 80.95175170898438, 0.613525390625, -0.03076171875, -0.583984375
601, 1696707449, -8.678304672241211, 0.8788578510284424, 6.004395961761475, 7.822880268096924, -405.04217529296875, 79.45233917236328, 0.5498046875, -0.054443359375, -0.6826171875
602, 1696724116, -8.442178726196289, -2.151047706604004, 3.7320430278778076, 60.702972412109375, -352.5727233886719, 71.38456726074219, 0.462158203125, -0.079833984375, -0.761474609375
603, 1696740783, -14.498336791992188, -1.364061951637268, 8.927778244018555, 116.26998138427734, -286.93560791015625, 66.10501861572266, 0.369873046875, -0.11669921875, -0.80810546875
604, 1696757450, -19.328481674194336, 1.622983694076538, 14.60948371887207, 92.39881134033203, -285.8127746582031, 31.5363712310791, 0.279052734375, -0.148681640625, -0.820556640625
605, 1696774117, -19.550350189208984, 0.03279464691877365, 12.163384437561035, 70.61959838867188, -296.95062255859375, 7.120635032653809, 0.200439453125, -0.166015625, -0.802490234375
606, 1696790784, -19.61857032775879, 0.9509420990943909, 10.144055366516113, 91.20732879638672, -280.2454833984375, 17.512910842895508, 0.146484375, -0.186767578125, -0.779052734375
607, 1696807451, -20.078332901000977, 3.0602564811706543, 8.295269966125488, 88.47942352294922, -259.3668212890625, 36.737789154052734, 0.111328125, -0.20751953125, -0.770751953125
608, 1696824118, -20.88744354248047, 0.08008920401334763, 4.936985015869141, 77.81095123291016, -227.1168670654297, 52.96761703491211, 0.080322265625, -0.23095703125, -0.76904296875
609, 1696840785, -22.53897476196289, -1.7599190473556519, 2.6871421337127686, 92.51840209960938, -205.9047088623047, 71.19668579101562, 0.043212890625, -0.254150390625, -0.77587890625
610, 1696857452, -19.99150848388672, -1.904173493385315, -1.9159879684448242, 76.9260025024414, -172.15184020996094, 83.23332977294922, 0.002197265625, -0.278076171875, -0.7841796875
611, 1696874119, -20.662357330322266, -2.6285958290100098, -5.032276153564453, 36.19056701660156, -121.39523315429688, 83.66655731201172, -0.031494140625, -0.29296875, -0.790283203125
612, 1696890786, -20.446565628051758, -3.3069283962249756, -9.019763946533203, 1.3592045307159424, -66.67120361328125, 74.07263946533203, -0.056884765625, -0.298828125, -0.801025390625
613, 1696907453, -20.10205841064453, -4.27150297164917, -8.852832794189453, -20.95708465576172, -1.7504128217697144, 78.78507232666016, -0.070068359375, -0.294677734375, -0.81005859375
614, 1696924120, -20.952537536621094, -4.44731330871582, -5.7267937660217285, -52.993896484375, 46.255428314208984, 86.96913146972656, -0.06884765625, -0.290771484375, -0.819580078125
615, 1696940787, -0.0636032223701477, -9.347494125366211, 4.966166019439697, -74.78231811523438, 97.0902328491211, 15.16454029083252, -0.042724609375, -0.27392578125, -0.828125
616, 1696957454, 4.384371757507324, 1.0995550155639648, 19.551895141601562, 0.8727784752845764, 176.94793701171875, -45.35393524169922, 0.002685546875, -0.27099609375, -0.8388671875
617, 1696974121, -8.409284591674805, 0.6752009987831116, 8.111974716186523, 45.116851806640625, 213.41107177734375, -52.957401275634766, 0.065185546875, -0.286865234375, -0.841796875
618, 1696990788, -13.216632843017578, -2.1613006591796875, 13.926895141601562, 34.81385803222656, 196.05313110351562, -28.069568634033203, 0.12353515625, -0.2998046875, -0.8388671875
619, 1697007455, -8.94919204711914, 4.895236968994141, 10.790999412536621, 32.320289611816406, 149.2078399658203, -20.484228134155273, 0.171630859375, -0.309814453125, -0.834716796875
620, 1697024122, -8.971599578857422, 7.886303424835205, 10.835648536682129, 12.16276741027832, 136.1986541748047, -17.31923484802246, 0.21142578125, -0.31884765625, -0.828857421875
621, 1697040789, -10.638172149658203, 4.972427845001221, 10.154328346252441, -37.55442428588867, 98.75970458984375, -41.860694885253906, 0.24462890625, -0.3095703125, -0.827880859375
622, 1697057456, -6.6079888343811035, -1.0084898471832275, 11.312549591064453, -49.724937438964844, 65.14466094970703, -33.15003967285156, 0.271484375, -0.29931640625, -0.82373046875
623, 1697074123, -5.737266540527344, 2.149052858352661, 8.874479293823242, -49.391414642333984, 42.73696517944336, -22.933027267456055, 0.2822265625, -0.284423828125, -0.824462890625
624, 1697090790, -6.482289791107178, 0.9349534511566162, 9.640847206115723, -30.467145919799805, 22.10877227783203, -14.385802268981934, 0.293212890625, -0.27734375, -0.82568359375
625, 1697107457, -5.6888017654418945, 1.6538119316101074, 8.966307640075684, -18.53024673461914, 11.590070724487305, -9.947595596313477, 0.30029296875, -0.2724609375, -0.82568359375
626, 1697124124, -5.212715148925781, 1.7677582502365112, 8.564492225646973, -11.75967025756836, 7.214629650115967, -7.675760746002197, 0.30322265625, -0.27099609375, -0.826171875
627, 1697140791, -5.233492374420166, 1.5096805095672607, 8.47620677947998, -11.489441871643066, 4.269991874694824, -7.008023262023926, 0.3037109375, -0.267822265625, -0.82666015625
628, 1697157458, -5.062839031219482, 1.5027210712432861, 8.487850189208984, -7.738495826721191, 5.120723247528076, -3.943793535232544, 0.3076171875, -0.264892578125, -0.826171875
629, 1697174125, -4.930415630340576, 1.7169606685638428, 8.341715812683105, -6.101368427276611, 6.770404815673828, -2.9060301780700684, 0.310791015625, -0.262939453125, -0.826904296875
630, 1697190792, -5.184361934661865, 1.8018947839736938, 8.303930282592773, -4.404040336608887, 6.487025737762451, -2.3580846786499023, 0.311279296875, -0.265869140625, -0.824951171875
631, 1697207459, -5.172848701477051, 1.9632116556167603, 8.164207458496094, -4.87385368347168, 4.727438449859619, -2.8108913898468018, 0.314697265625, -0.265380859375, -0.82373046875
632, 1697224126, -5.023184299468994, 1.872353434562683, 8.13443374633789, -6.779363632202148, 2.95395827293396, -4.9235687255859375, 0.314208984375, -0.263427734375, -0.824462890625
633, 1697240793, -5.031459331512451, 1.7202361822128296, 8.192204475402832, -7.923431873321533, 2.33333683013916, -6.340042591094971, 0.317626953125, -0.260498046875, -0.82421875
634, 1697257460, -5.1602301597595215, 1.7494596242904663, 8.244656562805176, -7.648825168609619, 1.845760464668274, -6.501747131347656, 0.317138671875, -0.259033203125, -0.82421875
635, 1697274127, -5.1323442459106445, 1.7546225786209106, 8.226374626159668, -7.600749969482422, 0.7428261637687683, -6.9893107414245605, 0.3193359375, -0.257568359375, -0.826171875
636, 1697290794, -5.157445907592773, 1.760541319847107, 8.202259063720703, -7.600200176239014, -1.4273067712783813, -8.134391784667969, 0.3203125, -0.257568359375, -0.826904296875
637, 1697307461, -5.265697956085205, 1.6465448141098022, 8.281377792358398, -7.87908411026001, -2.6595981121063232, -9.00308609008789, 0.3203125, -0.25341796875, -0.8251953125
638, 1697324128, -5.272711753845215, 1.6115481853485107, 8.258105278015137, -9.724100112915039, -2.322471857070923, -9.798133850097656, 0.3203125, -0.25341796875, -0.826904296875
639, 1697340795, -5.213921070098877, 1.7402517795562744, 8.194818496704102, -12.120927810668945, -2.091778516769409, -11.58800220489502, 0.3232421875, -0.24853515625, -0.828857421875
640, 1697357462, -5.215627670288086, 1.618754506111145, 8.229469299316406, -9.317765235900879, -0.8038679361343384, -11.164633750915527, 0.32470703125, -0.24560546875, -0.829833984375
641, 1697374129, -5.189560890197754, 1.4536129236221313, 8.268438339233398, -5.737464904785156, 1.2229173183441162, -10.167606353759766, 0.322265625, -0.24853515625, -0.829345703125
642, 1697390796, -5.187045097351074, 1.5441409349441528, 8.234063148498535, -5.353979587554932, 4.343320846557617, -10.272452354431152, 0.32666015625, -0.24658203125, -0.829345703125
643, 1697407463, -5.177042484283447, 1.5755817890167236, 8.266018867492676, -3.672248601913452, 7.4201765060424805, -10.30571174621582, 0.328369140625, -0.243896484375, -0.830810546875
644, 1697424130, -4.948738098144531, 1.4767283201217651, 8.37993049621582, -2.326813220977783, 13.448246955871582, -9.829239845275879, 0.330810546875, -0.241455078125, -0.831787109375
645, 1697440797, -4.751739501953125, 1.194366693496704, 8.312665939331055, -0.36466163396835327, 24.825334548950195, -9.2031888961792, 0.33935546875, -0.24169921875, -0.827880859375
646, 1697457464, -4.910733222961426, 1.378204345703125, 8.24461555480957, 8.279329299926758, 42.316532135009766, -8.928685188293457, 0.349365234375, -0.24462890625, -0.824462890625
647, 1697474131, -4.927538871765137, 1.3353900909423828, 8.2454195022583, 15.084319114685059, 62.5214958190918, -9.18793773651123, 0.361328125, -0.24755859375, -0.8154296875
648, 1697490798, -5.205524921417236, 1.373362421989441, 8.25193977355957, 18.79533576965332, 84.23719024658203, -9.649226188659668, 0.3828125, -0.251708984375, -0.80712890625
649, 1697507465, -5.348993301391602, 1.5342495441436768, 8.309355735778809, 17.48383331298828, 105.78112030029297, -11.474035263061523, 0.408935546875, -0.25634765625, -0.794677734375
650, 1697524132, -5.352173328399658, 1.3585952520370483, 8.068894386291504, 16.069089889526367, 129.8576202392578, -14.278619766235352, 0.43896484375, -0.259521484375, -0.779052734375
651, 1697540799, -5.523154258728027, 1.2533516883850098, 7.892805576324463, 19.417001724243164, 157.79811096191406, -16.366043090820312, 0.474365234375, -0.26171875, -0.759765625
652, 1697557466, -5.4511027336120605, 1.415914535522461, 7.9366936683654785, 21.078460693359375, 196.30442810058594, -17.090351104736328, 0.516357421875, -0.264892578125, -0.732177734375
653, 1697574133, -5.596031665802002, 2.046144485473633, 7.858813762664795, 17.239702224731445, 246.3081817626953, -24.888063430786133, 0.5673828125, -0.266845703125, -0.69677734375
654, 1697590800, -6.634976387023926, 1.9876552820205688, 7.48185920715332, -0.22094736993312836, 311.3559265136719, -31.230083465576172, 0.629638671875, -0.262451171875, -0.647705078125
655, 1697607467, -7.135701656341553, 2.59834361076355, 8.297539710998535, -12.613988876342773, 400.79437255859375, -41.872615814208984, 0.70263671875, -0.257568359375, -0.575439453125
