sep=,
DeviceTag:,A,,,,,,,,,,,,,,,,,
FirmwareVersion:,2.2.1,,,,,,,,,,,,,,,,,
AppVersion:,2022.0.1,,,,,,,,,,,,,,,,,
SyncStatus:,Synced,,,,,,,,,,,,,,,,,
OutputRate:,60Hz,,,,,,,,,,,,,,,,,
FilterProfile:,General,,,,,,,,,,,,,,,,,
Measurement Mode:,Inertial Mode - Rate quantities (with mag),,,,,,,,,,,,,,,,,
StartTime:,2022-08-05 15:23:07.113 +0300,,,,,,,,,,,,,,,,,
© Xsens Technologies B. V. 2005-2022,,,,,,,,,,,,,,,,,,,

PacketCounter,SampleTimeFine,Acc_X,Acc_Y,Acc_Z,Gyr_X,Gyr_Y,Gyr_Z,Mag_X,Mag_Y,Mag_Z
1, 2729144764, -5.036695957183838, 1.3330845832824707, 8.332308769226074, -2.6440248489379883, -1.5965677499771118, -2.358609676361084, 0.039306640625, -0.134521484375, -0.8349609375
2, 2729161431, -5.029343605041504, 1.3110970258712769, 8.342263221740723, -2.734193801879883, -1.7928760051727295, -2.4803590774536133, 0.037353515625, -0.135498046875, -0.8349609375
3, 2729178098, -5.029122352600098, 1.3070926666259766, 8.353340148925781, -2.629899740219116, -1.684906244277954, -2.3620803356170654, 0.041748046875, -0.13623046875, -0.836669921875
4, 2729194765, -5.015858173370361, 1.2998963594436646, 8.365166664123535, -2.6096017360687256, -1.5717108249664307, -2.3660888671875, 0.039794921875, -0.135986328125, -0.83740234375
5, 2729211432, -5.008132457733154, 1.3169703483581543, 8.346580505371094, -2.4839584827423096, -1.4775327444076538, -2.3135313987731934, 0.039306640625, -0.132568359375, -0.837890625
6, 2729228099, -5.017570495605469, 1.294605016708374, 8.345619201660156, -2.46873140335083, -1.5143126249313354, -2.318474769592285, 0.040771484375, -0.13623046875, -0.836181640625
7, 2729244766, -5.039149761199951, 1.3125834465026855, 8.362997055053711, -2.6300148963928223, -1.5799195766448975, -2.4549646377563477, 0.039306640625, -0.136962890625, -0.834228515625
8, 2729261433, -5.033444881439209, 1.3259080648422241, 8.35802936553955, -2.6301045417785645, -1.605711579322815, -2.4270212650299072, 0.038330078125, -0.135009765625, -0.8349609375
9, 2729278100, -5.037573337554932, 1.300728678703308, 8.351302146911621, -2.710822820663452, -1.6981607675552368, -2.4236018657684326, 0.039794921875, -0.133544921875, -0.837890625
10, 2729294767, -5.027121067047119, 1.30942702293396, 8.356813430786133, -2.5879204273223877, -1.6247674226760864, -2.3964529037475586, 0.038330078125, -0.135009765625, -0.83837890625
11, 2729311434, -5.01262092590332, 1.323554515838623, 8.364983558654785, -2.510775089263916, -1.6947286128997803, -2.326145648956299, 0.038330078125, -0.135498046875, -0.84033203125
12, 2729328101, -5.010532379150391, 1.3225229978561401, 8.337571144104004, -2.5323920249938965, -1.5526676177978516, -2.415367603302002, 0.038818359375, -0.135986328125, -0.83544921875
13, 2729344768, -5.0181989669799805, 1.324616551399231, 8.339969635009766, -2.6451902389526367, -1.5540379285812378, -2.444847583770752, 0.038330078125, -0.135498046875, -0.83544921875
14, 2729361435, -5.0278401374816895, 1.3244572877883911, 8.32278823852539, -2.6211915016174316, -1.5716979503631592, -2.4979043006896973, 0.039794921875, -0.134033203125, -0.8349609375
15, 2729378102, -5.032636642456055, 1.3131887912750244, 8.344257354736328, -2.717149257659912, -1.5935072898864746, -2.509263753890991, 0.038330078125, -0.133544921875, -0.8369140625
16, 2729394769, -5.015974521636963, 1.3142367601394653, 8.359498977661133, -2.6870415210723877, -1.5748867988586426, -2.4559638500213623, 0.038818359375, -0.135986328125, -0.8369140625
17, 2729411436, -5.024079322814941, 1.3250309228897095, 8.347501754760742, -2.692958354949951, -1.5675232410430908, -2.4259586334228516, 0.039306640625, -0.134521484375, -0.83642578125
18, 2729428103, -5.026890277862549, 1.3099623918533325, 8.34717845916748, -2.6341512203216553, -1.6024459600448608, -2.5062155723571777, 0.039306640625, -0.13623046875, -0.83642578125
19, 2729444770, -5.014382362365723, 1.3097326755523682, 8.347185134887695, -2.701000452041626, -1.5564072132110596, -2.5116841793060303, 0.038818359375, -0.135498046875, -0.833740234375
20, 2729461437, -5.007172107696533, 1.3123328685760498, 8.357422828674316, -2.7082359790802, -1.6037266254425049, -2.5443787574768066, 0.038330078125, -0.134521484375, -0.83544921875
21, 2729478104, -5.002965450286865, 1.3160477876663208, 8.353203773498535, -2.6519651412963867, -1.4817333221435547, -2.4769275188446045, 0.037353515625, -0.135009765625, -0.8369140625
22, 2729494771, -5.025774955749512, 1.32838773727417, 8.341045379638672, -2.6511709690093994, -1.346575140953064, -2.5025148391723633, 0.037353515625, -0.133056640625, -0.8388671875
23, 2729511438, -5.029299736022949, 1.3152987957000732, 8.344544410705566, -2.634420156478882, -1.3238693475723267, -2.5361826419830322, 0.037353515625, -0.135009765625, -0.83544921875
24, 2729528105, -5.0358967781066895, 1.3173344135284424, 8.357915878295898, -2.5963854789733887, -1.4042547941207886, -2.5702476501464844, 0.037841796875, -0.133544921875, -0.83642578125
25, 2729544772, -5.036428928375244, 1.3098140954971313, 8.342924118041992, -2.6833789348602295, -1.4471946954727173, -2.5237607955932617, 0.038330078125, -0.135498046875, -0.83447265625
26, 2729561439, -5.020948886871338, 1.3126987218856812, 8.364762306213379, -2.609639883041382, -1.4740110635757446, -2.58064603805542, 0.038330078125, -0.133544921875, -0.8359375
27, 2729578106, -5.020983695983887, 1.3130742311477661, 8.332866668701172, -2.7099521160125732, -1.4722180366516113, -2.5829899311065674, 0.038330078125, -0.134521484375, -0.8369140625
28, 2729594773, -5.021831035614014, 1.305139183998108, 8.352521896362305, -2.693854570388794, -1.5132113695144653, -2.5336599349975586, 0.037353515625, -0.134033203125, -0.83837890625
29, 2729611440, -5.01608943939209, 1.3078211545944214, 8.353184700012207, -2.545031785964966, -1.303404688835144, -2.4773757457733154, 0.038818359375, -0.135986328125, -0.8359375
30, 2729628107, -5.017083644866943, 1.297457218170166, 8.361239433288574, -2.5461843013763428, -1.3006001710891724, -2.456270694732666, 0.038330078125, -0.135498046875, -0.8359375
31, 2729644774, -5.032375335693359, 1.3027093410491943, 8.35122299194336, -2.465043306350708, -1.3940353393554688, -2.473252058029175, 0.036865234375, -0.135009765625, -0.83447265625
32, 2729661441, -5.024766445159912, 1.296703815460205, 8.369280815124512, -2.490899085998535, -1.3175684213638306, -2.4368436336517334, 0.038818359375, -0.135498046875, -0.834228515625
33, 2729678108, -5.022060871124268, 1.3050646781921387, 8.33602523803711, -2.5201871395111084, -1.277484655380249, -2.400358200073242, 0.039794921875, -0.135009765625, -0.83740234375
34, 2729694775, -5.022474765777588, 1.3022079467773438, 8.346302032470703, -2.550692081451416, -1.4538154602050781, -2.4430930614471436, 0.037841796875, -0.134033203125, -0.83837890625
35, 2729711442, -5.032675743103027, 1.2930153608322144, 8.364453315734863, -2.5955913066864014, -1.5219963788986206, -2.5109667778015137, 0.038330078125, -0.133544921875, -0.8359375
36, 2729728109, -5.027993679046631, 1.3046215772628784, 8.357956886291504, -2.5096347332000732, -1.424757719039917, -2.4184794425964355, 0.039306640625, -0.135498046875, -0.83837890625
37, 2729744776, -5.017862796783447, 1.3014922142028809, 8.352660179138184, -2.414393901824951, -1.277920126914978, -2.311354160308838, 0.039306640625, -0.134033203125, -0.8359375
38, 2729761443, -5.025275707244873, 1.3066068887710571, 8.347105979919434, -2.3307812213897705, -1.2131966352462769, -2.26275372505188, 0.039794921875, -0.133544921875, -0.834716796875
39, 2729778110, -5.018222332000732, 1.3072718381881714, 8.350358009338379, -2.3867833614349365, -1.3120232820510864, -2.400498867034912, 0.038818359375, -0.133544921875, -0.83544921875
40, 2729794777, -5.028902053833008, 1.3237025737762451, 8.344356536865234, -2.550717830657959, -1.3895530700683594, -2.3780369758605957, 0.037841796875, -0.133544921875, -0.83984375
41, 2729811444, -5.023860454559326, 1.3157286643981934, 8.341448783874512, -2.462879180908203, -1.3285436630249023, -2.411269187927246, 0.039306640625, -0.135498046875, -0.83935546875
42, 2729828111, -5.0300703048706055, 1.3065204620361328, 8.362457275390625, -2.496328830718994, -1.409812569618225, -2.404904365539551, 0.037841796875, -0.133056640625, -0.8349609375
43, 2729844778, -5.0419487953186035, 1.3243111371994019, 8.351167678833008, -2.468104124069214, -1.2611054182052612, -2.283986806869507, 0.038330078125, -0.135986328125, -0.83544921875
44, 2729861445, -5.028463840484619, 1.3152543306350708, 8.346220970153809, -2.420515537261963, -1.3290302753448486, -2.2659173011779785, 0.040283203125, -0.135498046875, -0.835205078125
45, 2729878112, -5.020286560058594, 1.3245090246200562, 8.337602615356445, -2.467604398727417, -1.4554290771484375, -2.3334579467773438, 0.039306640625, -0.135498046875, -0.8359375
46, 2729894779, -5.0283522605896, 1.3055628538131714, 8.354469299316406, -2.4685137271881104, -1.5334068536758423, -2.3907406330108643, 0.038818359375, -0.134521484375, -0.83740234375
47, 2729911446, -5.029021263122559, 1.3149347305297852, 8.331955909729004, -2.610126256942749, -1.613228678703308, -2.464172124862671, 0.038330078125, -0.134521484375, -0.8388671875
48, 2729928113, -5.026554584503174, 1.3157752752304077, 8.369002342224121, -2.6267876625061035, -1.6980711221694946, -2.481806993484497, 0.038818359375, -0.135009765625, -0.833251953125
49, 2729944780, -5.020206928253174, 1.3127357959747314, 8.319665908813477, -2.5827081203460693, -1.5923289060592651, -2.3256590366363525, 0.038818359375, -0.136474609375, -0.83544921875
50, 2729961447, -5.015922546386719, 1.3117166757583618, 8.340770721435547, -2.5720529556274414, -1.563258409500122, -2.35858416557312, 0.038330078125, -0.135986328125, -0.83544921875
51, 2729978114, -5.02307653427124, 1.3176473379135132, 8.339377403259277, -2.5500645637512207, -1.6714593172073364, -2.3744897842407227, 0.040283203125, -0.134521484375, -0.835205078125
52, 2729994781, -5.019003868103027, 1.3182488679885864, 8.34174919128418, -2.6990411281585693, -1.692116141319275, -2.393763303756714, 0.038818359375, -0.134521484375, -0.83642578125
53, 2730011448, -5.019890785217285, 1.3100546598434448, 8.348146438598633, -2.7620222568511963, -1.7171907424926758, -2.5044610500335693, 0.038330078125, -0.135498046875, -0.8369140625
54, 2730028115, -5.00961971282959, 1.2979837656021118, 8.34583568572998, -2.7320430278778076, -1.5830187797546387, -2.512824058532715, 0.038330078125, -0.135498046875, -0.8359375
55, 2730044782, -5.021090984344482, 1.317111849784851, 8.360759735107422, -2.5909554958343506, -1.4402406215667725, -2.4943315982818604, 0.039306640625, -0.132568359375, -0.83544921875
56, 2730061449, -5.001769542694092, 1.3045952320098877, 8.342168807983398, -2.4603819847106934, -1.2303061485290527, -2.413766622543335, 0.038330078125, -0.134033203125, -0.832763671875
57, 2730078116, -5.0152506828308105, 1.3149141073226929, 8.371735572814941, -2.3249032497406006, -0.962653398513794, -2.3821089267730713, 0.038330078125, -0.135498046875, -0.83642578125
58, 2730094783, -5.024725914001465, 1.3044692277908325, 8.37099552154541, -2.277353048324585, -1.0455102920532227, -2.3978993892669678, 0.039794921875, -0.134033203125, -0.83740234375
59, 2730111450, -5.015087127685547, 1.3234479427337646, 8.344535827636719, -2.36637020111084, -1.1280601024627686, -2.4089512825012207, 0.037841796875, -0.135498046875, -0.8359375
60, 2730128117, -5.027144908905029, 1.3276854753494263, 8.357168197631836, -2.5602965354919434, -1.1775951385498047, -2.5798778533935547, 0.039794921875, -0.13623046875, -0.83642578125
61, 2730144784, -5.033325672149658, 1.3060636520385742, 8.357927322387695, -2.6377367973327637, -1.2280393838882446, -2.6325759887695312, 0.040771484375, -0.136474609375, -0.834716796875
62, 2730161451, -5.0237298011779785, 1.3056764602661133, 8.36608600616455, -2.5397558212280273, -1.3352926969528198, -2.5656886100769043, 0.039306640625, -0.135498046875, -0.83544921875
63, 2730178118, -5.037815093994141, 1.3157974481582642, 8.347407341003418, -2.495880603790283, -1.2931082248687744, -2.5231964588165283, 0.037353515625, -0.135498046875, -0.8359375
64, 2730194785, -5.02826452255249, 1.332886815071106, 8.351456642150879, -2.418492078781128, -1.3944451808929443, -2.479706287384033, 0.039306640625, -0.134521484375, -0.837890625
65, 2730211452, -5.026528835296631, 1.328011393547058, 8.342423439025879, -2.547452449798584, -1.3419007062911987, -2.495676279067993, 0.037841796875, -0.133544921875, -0.8359375
66, 2730228119, -5.022860527038574, 1.320196509361267, 8.342996597290039, -2.578251838684082, -1.456709623336792, -2.513502836227417, 0.037841796875, -0.135986328125, -0.83837890625
67, 2730244786, -5.028292179107666, 1.3127342462539673, 8.354350090026855, -2.5424065589904785, -1.4825785160064697, -2.542675495147705, 0.038818359375, -0.135009765625, -0.8359375
68, 2730261453, -5.025535583496094, 1.3186311721801758, 8.331424713134766, -2.5088021755218506, -1.4507031440734863, -2.453120231628418, 0.038330078125, -0.135498046875, -0.833740234375
69, 2730278120, -5.035365104675293, 1.3199833631515503, 8.331361770629883, -2.631897211074829, -1.3546557426452637, -2.426060676574707, 0.039794921875, -0.135498046875, -0.834228515625
70, 2730294787, -5.030099868774414, 1.3096710443496704, 8.352999687194824, -2.4718174934387207, -1.3963916301727295, -2.408848762512207, 0.038330078125, -0.135986328125, -0.837890625
71, 2730311454, -5.025725841522217, 1.2990684509277344, 8.354713439941406, -2.493704080581665, -1.3481117486953735, -2.4385597705841064, 0.038330078125, -0.135009765625, -0.837890625
72, 2730328121, -5.024654388427734, 1.3178164958953857, 8.369834899902344, -2.415405750274658, -1.4156395196914673, -2.3479931354522705, 0.037353515625, -0.135009765625, -0.8359375
73, 2730344788, -5.033272743225098, 1.317030668258667, 8.345184326171875, -2.5563905239105225, -1.4316474199295044, -2.4096810817718506, 0.037353515625, -0.135498046875, -0.83740234375
74, 2730361455, -5.0416998863220215, 1.3169834613800049, 8.340537071228027, -2.6549360752105713, -1.4731146097183228, -2.4575133323669434, 0.039794921875, -0.135009765625, -0.833251953125
75, 2730378122, -5.03659200668335, 1.3002033233642578, 8.366593360900879, -2.5474140644073486, -1.49713933467865, -2.4212839603424072, 0.038330078125, -0.135498046875, -0.833740234375
76, 2730394789, -5.0251946449279785, 1.3051583766937256, 8.352871894836426, -2.635944128036499, -1.56670343875885, -2.430927276611328, 0.038330078125, -0.134033203125, -0.83740234375
77, 2730411456, -5.033515453338623, 1.3114979267120361, 8.350983619689941, -2.637096881866455, -1.6395971775054932, -2.417954444885254, 0.039794921875, -0.13623046875, -0.837890625
78, 2730428123, -5.016067981719971, 1.3125615119934082, 8.34778118133545, -2.6327555179595947, -1.65281343460083, -2.4747121334075928, 0.039794921875, -0.133544921875, -0.8349609375
79, 2730444790, -5.022928237915039, 1.3200994729995728, 8.346514701843262, -2.68412184715271, -1.6504825353622437, -2.4186716079711914, 0.036865234375, -0.135009765625, -0.8359375
80, 2730461457, -5.026088237762451, 1.320056676864624, 8.3378324508667, -2.6835455894470215, -1.6810129880905151, -2.4719972610473633, 0.039794921875, -0.134033203125, -0.833740234375
81, 2730478124, -5.023921489715576, 1.3032246828079224, 8.359951972961426, -2.681368112564087, -1.6737133264541626, -2.366396188735962, 0.038818359375, -0.135498046875, -0.8359375
82, 2730494791, -5.0197672843933105, 1.3087745904922485, 8.336804389953613, -2.742518424987793, -1.6918597221374512, -2.4175446033477783, 0.037353515625, -0.136474609375, -0.83642578125
83, 2730511458, -5.014449596405029, 1.3076136112213135, 8.349061012268066, -2.6824822425842285, -1.6080296039581299, -2.4863531589508057, 0.037841796875, -0.133056640625, -0.83740234375
84, 2730528125, -5.0279316902160645, 1.3069353103637695, 8.342354774475098, -2.6306681632995605, -1.6009860038757324, -2.36225962638855, 0.037353515625, -0.134033203125, -0.83984375
85, 2730544792, -5.022307395935059, 1.2732491493225098, 8.351115226745605, -2.4745068550109863, -1.5862585306167603, -2.379906415939331, 0.037841796875, -0.134521484375, -0.83544921875
86, 2730561459, -5.027060031890869, 1.3029921054840088, 8.353775978088379, -2.2774810791015625, -1.509228229522705, -2.216907262802124, 0.036865234375, -0.135009765625, -0.83447265625
87, 2730578126, -4.989843368530273, 1.3069862127304077, 8.341864585876465, -2.0373620986938477, -1.5529874563217163, -2.0164237022399902, 0.038818359375, -0.134521484375, -0.83544921875
88, 2730594793, -5.014219284057617, 1.3163596391677856, 8.343745231628418, -2.0695443153381348, -1.5194733142852783, -2.114494800567627, 0.036865234375, -0.134033203125, -0.83740234375
89, 2730611460, -4.991096496582031, 1.3411074876785278, 8.336840629577637, -2.3343288898468018, -1.4963836669921875, -2.2689268589019775, 0.038330078125, -0.135498046875, -0.8369140625
90, 2730628127, -4.994263172149658, 1.3226478099822998, 8.348116874694824, -2.567404270172119, -1.558699369430542, -2.288968563079834, 0.038330078125, -0.135986328125, -0.834228515625
91, 2730644794, -5.003514766693115, 1.3241832256317139, 8.360635757446289, -2.7066609859466553, -1.5620547533035278, -2.4725992679595947, 0.038818359375, -0.135498046875, -0.833251953125
92, 2730661461, -5.009056091308594, 1.321254014968872, 8.356781005859375, -2.7178409099578857, -1.505015254020691, -2.5619747638702393, 0.037841796875, -0.135498046875, -0.83447265625
93, 2730678128, -5.023249626159668, 1.3153272867202759, 8.351223945617676, -2.9408628940582275, -1.6174033880233765, -2.616913318634033, 0.038330078125, -0.134521484375, -0.8369140625
94, 2730694795, -4.9963698387146, 1.3050051927566528, 8.34553050994873, -2.943911075592041, -1.6359728574752808, -2.7683231830596924, 0.035888671875, -0.134521484375, -0.837890625
95, 2730711462, -5.018160820007324, 1.306483507156372, 8.343786239624023, -2.799813747406006, -1.5218937397003174, -2.577943801879883, 0.036865234375, -0.134521484375, -0.83935546875
96, 2730728129, -5.023913860321045, 1.305274248123169, 8.359663963317871, -2.778273344039917, -1.4621264934539795, -2.6796517372131348, 0.037841796875, -0.135009765625, -0.8359375
97, 2730744796, -5.023187637329102, 1.3005033731460571, 8.362492561340332, -2.7131662368774414, -1.3769901990890503, -2.5727574825286865, 0.039794921875, -0.135498046875, -0.834228515625
98, 2730761463, -5.022888660430908, 1.3020148277282715, 8.341897010803223, -2.712308168411255, -1.4558004140853882, -2.6301941871643066, 0.039794921875, -0.135498046875, -0.833251953125
99, 2730778130, -5.033614635467529, 1.2951390743255615, 8.360930442810059, -2.8088552951812744, -1.4463876485824585, -2.5317771434783936, 0.037841796875, -0.133056640625, -0.83544921875
100, 2730794797, -5.004348278045654, 1.307780146598816, 8.340188980102539, -2.6358418464660645, -1.424591302871704, -2.5069327354431152, 0.036376953125, -0.133544921875, -0.839111328125
101, 2730811464, -5.030642986297607, 1.293907880783081, 8.360296249389648, -2.6541802883148193, -1.4593991041183472, -2.423640251159668, 0.039306640625, -0.134521484375, -0.83837890625
102, 2730828131, -5.027774333953857, 1.2997981309890747, 8.345560073852539, -2.5937981605529785, -1.455544114112854, -2.464197874069214, 0.037841796875, -0.133056640625, -0.83447265625
103, 2730844798, -5.020211696624756, 1.3135900497436523, 8.340211868286133, -2.6198339462280273, -1.5178345441818237, -2.4161360263824463, 0.040771484375, -0.135009765625, -0.835693359375
104, 2730861465, -5.0170416831970215, 1.312685251235962, 8.36030387878418, -2.5679805278778076, -1.473332166671753, -2.3517324924468994, 0.036865234375, -0.133544921875, -0.8359375
105, 2730878132, -5.020236015319824, 1.302706241607666, 8.360004425048828, -2.478822708129883, -1.4390881061553955, -2.418915033340454, 0.039306640625, -0.133544921875, -0.83642578125
106, 2730894799, -5.019134044647217, 1.3054074048995972, 8.338454246520996, -2.567621946334839, -1.4830650091171265, -2.3527956008911133, 0.037841796875, -0.134033203125, -0.83740234375
107, 2730911466, -5.024740219116211, 1.3110198974609375, 8.346451759338379, -2.5393707752227783, -1.5328431129455566, -2.3518476486206055, 0.038330078125, -0.135986328125, -0.83837890625
108, 2730928133, -5.021289825439453, 1.3117607831954956, 8.359776496887207, -2.5747170448303223, -1.5020955801010132, -2.394634246826172, 0.038818359375, -0.135986328125, -0.8369140625
109, 2730944800, -5.024113655090332, 1.3162809610366821, 8.356093406677246, -2.616696357727051, -1.604699969291687, -2.3804702758789062, 0.038818359375, -0.133056640625, -0.832763671875
110, 2730961467, -5.022830963134766, 1.2943814992904663, 8.361309051513672, -2.685671091079712, -1.638085961341858, -2.353999614715576, 0.037841796875, -0.135009765625, -0.83642578125
111, 2730978134, -5.025986194610596, 1.2954745292663574, 8.339282989501953, -2.704765558242798, -1.7649585008621216, -2.4413132667541504, 0.039794921875, -0.133544921875, -0.8359375
112, 2730994801, -5.0109758377075195, 1.305808663368225, 8.333393096923828, -2.5420353412628174, -1.5961452722549438, -2.373964786529541, 0.035888671875, -0.133544921875, -0.83740234375
113, 2731011468, -5.011763572692871, 1.321963906288147, 8.343377113342285, -2.2634196281433105, -1.5281304121017456, -2.1511337757110596, 0.037841796875, -0.134033203125, -0.83544921875
114, 2731028135, -5.018452167510986, 1.307738184928894, 8.359761238098145, -2.1773483753204346, -1.5052201747894287, -2.1639275550842285, 0.038818359375, -0.135009765625, -0.8369140625
115, 2731044802, -5.002876281738281, 1.3267244100570679, 8.37039566040039, -2.1988627910614014, -1.4230672121047974, -2.13517689704895, 0.038330078125, -0.134521484375, -0.83544921875
116, 2731061469, -5.0145463943481445, 1.315892219543457, 8.340394973754883, -2.1879775524139404, -1.4495251178741455, -2.0039119720458984, 0.039306640625, -0.135009765625, -0.8349609375
117, 2731078136, -5.01702880859375, 1.3071656227111816, 8.35369873046875, -2.1652209758758545, -1.512699007987976, -2.129171133041382, 0.037353515625, -0.134521484375, -0.8369140625
118, 2731094803, -4.996701240539551, 1.334739327430725, 8.338313102722168, -2.0598628520965576, -1.4384219646453857, -2.101701021194458, 0.037841796875, -0.134033203125, -0.8388671875
119, 2731111470, -5.013450622558594, 1.3376436233520508, 8.345090866088867, -2.2305073738098145, -1.493809461593628, -2.1164028644561768, 0.037841796875, -0.134033203125, -0.8388671875
120, 2731128137, -4.999170303344727, 1.3130688667297363, 8.33388900756836, -1.9898377656936646, -1.4089930057525635, -2.1214101314544678, 0.036865234375, -0.135009765625, -0.837890625
121, 2731144804, -5.007739543914795, 1.3348034620285034, 8.343453407287598, -2.0668935775756836, -1.3454222679138184, -2.164875030517578, 0.037353515625, -0.135498046875, -0.83447265625
122, 2731161471, -5.005980968475342, 1.3336868286132812, 8.364933013916016, -2.236820936203003, -1.3077971935272217, -2.15010929107666, 0.037841796875, -0.135009765625, -0.83642578125
123, 2731178138, -5.0050482749938965, 1.3306376934051514, 8.346882820129395, -2.4104881286621094, -1.3383150100708008, -2.27577805519104, 0.040283203125, -0.134033203125, -0.8388671875
124, 2731194805, -4.98990535736084, 1.3133807182312012, 8.348432540893555, -2.4957656860351562, -1.4736781120300293, -2.2775583267211914, 0.036376953125, -0.135498046875, -0.83935546875
125, 2731211472, -5.01401424407959, 1.3346513509750366, 8.356964111328125, -2.5074703693389893, -1.371188759803772, -2.230072259902954, 0.036376953125, -0.135986328125, -0.83544921875
126, 2731228139, -5.015066623687744, 1.331390142440796, 8.331092834472656, -2.4668614864349365, -1.405829906463623, -2.3268754482269287, 0.037353515625, -0.135009765625, -0.83642578125
127, 2731244806, -5.017764091491699, 1.3394347429275513, 8.33405876159668, -2.5901105403900146, -1.4376155138015747, -2.417083501815796, 0.036865234375, -0.134521484375, -0.833984375
128, 2731261473, -5.014507293701172, 1.3263849020004272, 8.363662719726562, -2.522569417953491, -1.4998669624328613, -2.347212076187134, 0.038818359375, -0.135498046875, -0.834716796875
129, 2731278140, -5.028026580810547, 1.3043239116668701, 8.347315788269043, -2.484585762023926, -1.3615070581436157, -2.301967144012451, 0.036376953125, -0.1376953125, -0.83740234375
130, 2731294807, -4.999387741088867, 1.3172454833984375, 8.358441352844238, -2.395568609237671, -1.383073091506958, -2.274958372116089, 0.037841796875, -0.136474609375, -0.837890625
131, 2731311474, -5.0041184425354, 1.3245774507522583, 8.346277236938477, -2.1569607257843018, -1.257903814315796, -2.2141025066375732, 0.036376953125, -0.135986328125, -0.83837890625
132, 2731328141, -5.0104827880859375, 1.3408379554748535, 8.364144325256348, -1.991310954093933, -1.1701163053512573, -2.141631841659546, 0.036865234375, -0.135498046875, -0.83642578125
133, 2731344808, -5.007170677185059, 1.3281656503677368, 8.368782043457031, -2.0675978660583496, -1.1237828731536865, -2.199490547180176, 0.036865234375, -0.136962890625, -0.83544921875
134, 2731361475, -5.02197790145874, 1.307705283164978, 8.348284721374512, -2.052537679672241, -1.2077668905258179, -2.1981587409973145, 0.036865234375, -0.136474609375, -0.83544921875
135, 2731378142, -4.998713970184326, 1.3443790674209595, 8.34664535522461, -2.0300493240356445, -1.0629397630691528, -2.1847245693206787, 0.039794921875, -0.136474609375, -0.835693359375
136, 2731394809, -5.008476734161377, 1.3351225852966309, 8.347661972045898, -1.8998991250991821, -0.9027581810951233, -2.2489874362945557, 0.035888671875, -0.136474609375, -0.8369140625
137, 2731411476, -5.013951301574707, 1.3093396425247192, 8.332412719726562, -1.796154499053955, -0.7879490852355957, -2.178232192993164, 0.036376953125, -0.1376953125, -0.837890625
138, 2731428143, -5.000810146331787, 1.3522875308990479, 8.339527130126953, -1.8486735820770264, -0.7448045611381531, -2.2811696529388428, 0.037353515625, -0.1376953125, -0.8359375
139, 2731444810, -5.035585880279541, 1.3391785621643066, 8.345038414001465, -1.9869178533554077, -0.7234434485435486, -2.395824670791626, 0.039306640625, -0.135986328125, -0.835205078125
140, 2731461477, -5.039365768432617, 1.340835690498352, 8.359087944030762, -2.1400692462921143, -0.8803597092628479, -2.350374937057495, 0.037353515625, -0.136962890625, -0.83447265625
141, 2731478144, -5.023386478424072, 1.3529361486434937, 8.351876258850098, -2.3899080753326416, -1.044127345085144, -2.396862030029297, 0.037841796875, -0.134521484375, -0.8369140625
142, 2731494811, -5.021764755249023, 1.348868727684021, 8.360026359558105, -2.358891487121582, -1.1394963264465332, -2.4642107486724854, 0.037841796875, -0.1376953125, -0.83837890625
143, 2731511478, -5.028199195861816, 1.3461260795593262, 8.34173583984375, -2.3684446811676025, -1.220086693763733, -2.3669209480285645, 0.039306640625, -0.1357421875, -0.8388671875
144, 2731528145, -5.033843517303467, 1.3404645919799805, 8.340412139892578, -2.267082929611206, -1.180963158607483, -2.210683584213257, 0.039306640625, -0.13671875, -0.83837890625
145, 2731544812, -5.029252529144287, 1.3449246883392334, 8.347929000854492, -2.3653459548950195, -1.3824454545974731, -2.3220221996307373, 0.039306640625, -0.136474609375, -0.834228515625
146, 2731561479, -5.020419597625732, 1.3550269603729248, 8.354308128356934, -2.449381113052368, -1.414448618888855, -2.412537097930908, 0.041259765625, -0.1376953125, -0.833251953125
147, 2731578146, -5.033031463623047, 1.351617693901062, 8.365859985351562, -2.4969818592071533, -1.4386141300201416, -2.401087999343872, 0.038818359375, -0.13916015625, -0.834716796875
148, 2731594813, -5.04351806640625, 1.347745418548584, 8.345864295959473, -2.595834732055664, -1.5126094818115234, -2.4149067401885986, 0.038330078125, -0.135986328125, -0.83740234375
149, 2731611480, -5.027092933654785, 1.3512710332870483, 8.319879531860352, -2.60652756690979, -1.5083703994750977, -2.4068896770477295, 0.039306640625, -0.13720703125, -0.83837890625
150, 2731628147, -5.026341915130615, 1.342696189880371, 8.338937759399414, -2.5639212131500244, -1.4122332334518433, -2.47623610496521, 0.039794921875, -0.13916015625, -0.837890625
151, 2731644814, -5.01869010925293, 1.3350145816802979, 8.34766674041748, -2.5909042358398438, -1.4977794885635376, -2.4184024333953857, 0.040283203125, -0.138671875, -0.834228515625
152, 2731661481, -5.033429145812988, 1.3359981775283813, 8.34286117553711, -2.4607529640197754, -1.4403302669525146, -2.437906503677368, 0.037841796875, -0.1376953125, -0.832763671875
153, 2731678148, -5.007561206817627, 1.338912844657898, 8.338813781738281, -2.5394606590270996, -1.3443721532821655, -2.4480488300323486, 0.038818359375, -0.135986328125, -0.8369140625
154, 2731694815, -5.001486301422119, 1.3433167934417725, 8.331018447875977, -2.615300178527832, -1.3867484331130981, -2.4540297985076904, 0.041259765625, -0.135986328125, -0.835693359375
155, 2731711482, -5.023146152496338, 1.3469631671905518, 8.330591201782227, -2.5812480449676514, -1.3165568113327026, -2.496662139892578, 0.038330078125, -0.135498046875, -0.8369140625
156, 2731728149, -5.02793025970459, 1.342014193534851, 8.350625038146973, -2.576676607131958, -1.2721701860427856, -2.499979257583618, 0.037353515625, -0.13671875, -0.8369140625
157, 2731744816, -5.015344142913818, 1.3399099111557007, 8.354689598083496, -2.6222028732299805, -1.2748080492019653, -2.532020330429077, 0.040771484375, -0.138671875, -0.836181640625
158, 2731761483, -5.032006740570068, 1.3476098775863647, 8.349250793457031, -2.629579544067383, -1.3288512229919434, -2.4866220951080322, 0.039306640625, -0.136474609375, -0.8359375
159, 2731778150, -5.035373687744141, 1.3387300968170166, 8.338586807250977, -2.687335729598999, -1.355257511138916, -2.5354397296905518, 0.038818359375, -0.1376953125, -0.835205078125
160, 2731794817, -5.023747444152832, 1.3444892168045044, 8.340834617614746, -2.72257924079895, -1.3940354585647583, -2.544276237487793, 0.038818359375, -0.13623046875, -0.837890625
161, 2731811484, -5.033942222595215, 1.336810827255249, 8.337640762329102, -2.7340409755706787, -1.4371672868728638, -2.5604636669158936, 0.038818359375, -0.13671875, -0.83837890625
162, 2731828151, -5.046015739440918, 1.3361586332321167, 8.351767539978027, -2.7185065746307373, -1.4669803380966187, -2.5773425102233887, 0.040283203125, -0.13720703125, -0.83935546875
163, 2731844818, -5.021673679351807, 1.3382290601730347, 8.352362632751465, -2.72102952003479, -1.4629591703414917, -2.5943362712860107, 0.038330078125, -0.1376953125, -0.8359375
164, 2731861485, -5.029517650604248, 1.3281654119491577, 8.334901809692383, -2.6051831245422363, -1.3836877346038818, -2.498634099960327, 0.039794921875, -0.13720703125, -0.834716796875
165, 2731878152, -5.031001567840576, 1.3366789817810059, 8.356329917907715, -2.6308341026306152, -1.3499046564102173, -2.4659268856048584, 0.039306640625, -0.135498046875, -0.8349609375
166, 2731894819, -5.025375843048096, 1.33624267578125, 8.365742683410645, -2.564779043197632, -1.2738733291625977, -2.5104928016662598, 0.040283203125, -0.13818359375, -0.837158203125
167, 2731911486, -5.019297122955322, 1.3331385850906372, 8.347506523132324, -2.516550302505493, -1.329811453819275, -2.487351894378662, 0.038330078125, -0.13671875, -0.837890625
168, 2731928153, -5.025022983551025, 1.3508806228637695, 8.34459114074707, -2.5866525173187256, -1.2985255718231201, -2.567955493927002, 0.040771484375, -0.13720703125, -0.83740234375
169, 2731944820, -5.027070045471191, 1.347044825553894, 8.355395317077637, -2.609562873840332, -1.3075282573699951, -2.5033726692199707, 0.038330078125, -0.136474609375, -0.83740234375
170, 2731961487, -5.019257545471191, 1.3390583992004395, 8.343132972717285, -2.586946487426758, -1.28866446018219, -2.4749293327331543, 0.039306640625, -0.135986328125, -0.835205078125
171, 2731978154, -5.033872127532959, 1.3469802141189575, 8.34852409362793, -2.6089096069335938, -1.3057098388671875, -2.4466404914855957, 0.038818359375, -0.13818359375, -0.83642578125
172, 2731994821, -5.021679878234863, 1.3414077758789062, 8.352109909057617, -2.466848850250244, -1.3002287149429321, -2.459446668624878, 0.040771484375, -0.1357421875, -0.837890625
173, 2732011488, -5.025537967681885, 1.3457690477371216, 8.337090492248535, -2.4837915897369385, -1.2985767126083374, -2.391637086868286, 0.040283203125, -0.135498046875, -0.83837890625
174, 2732028155, -5.018376350402832, 1.3349908590316772, 8.352173805236816, -2.277890682220459, -1.1424670219421387, -2.358020067214966, 0.037353515625, -0.13720703125, -0.83544921875
175, 2732044822, -5.031739234924316, 1.3572125434875488, 8.340829849243164, -2.291785955429077, -1.2186009883880615, -2.3745532035827637, 0.039306640625, -0.135498046875, -0.8349609375
176, 2732061489, -5.012245178222656, 1.358507752418518, 8.344982147216797, -2.4364593029022217, -1.2920199632644653, -2.4355885982513428, 0.04150390625, -0.1396484375, -0.836669921875
177, 2732078156, -5.041952133178711, 1.3429328203201294, 8.354857444763184, -2.615325689315796, -1.4558900594711304, -2.474801540374756, 0.039306640625, -0.13720703125, -0.8359375
178, 2732094823, -5.037353992462158, 1.3457286357879639, 8.350896835327148, -2.657036304473877, -1.482911467552185, -2.491654872894287, 0.038818359375, -0.135986328125, -0.83642578125
179, 2732111490, -5.024802207946777, 1.356890320777893, 8.326254844665527, -2.5688772201538086, -1.4343370199203491, -2.5037314891815186, 0.038818359375, -0.13623046875, -0.8369140625
180, 2732128157, -5.0338568687438965, 1.351275086402893, 8.323561668395996, -2.1212308406829834, -1.4514333009719849, -2.1289145946502686, 0.038818359375, -0.13818359375, -0.83642578125
181, 2732144824, -5.01904296875, 1.3585678339004517, 8.324512481689453, -1.9485501050949097, -1.5087672472000122, -2.1233181953430176, 0.041748046875, -0.13818359375, -0.833740234375
182, 2732161491, -5.060809135437012, 1.3391504287719727, 8.40326976776123, -1.433760404586792, -1.563232660293579, -2.0270659923553467, 0.037353515625, -0.135986328125, -0.83447265625
183, 2732178158, -4.991756439208984, 1.3759957551956177, 8.286029815673828, -1.8549613952636719, -1.7280503511428833, -2.0177299976348877, 0.039794921875, -0.134033203125, -0.8349609375
184, 2732194825, -5.002699851989746, 1.336379051208496, 8.318916320800781, -1.72986900806427, -1.6199008226394653, -2.1739931106567383, 0.037841796875, -0.13720703125, -0.8369140625
185, 2732211492, -4.967751502990723, 1.3426684141159058, 8.316835403442383, -1.082828164100647, -1.1049190759658813, -1.9952421188354492, 0.038818359375, -0.138671875, -0.83642578125
186, 2732228159, -5.02842903137207, 1.326838493347168, 8.3339262008667, -0.8331811428070068, -0.88585364818573, -1.8035820722579956, 0.039794921875, -0.14013671875, -0.837158203125
187, 2732244826, -5.011167526245117, 1.2560979127883911, 8.299577713012695, -1.103702425956726, -1.4955767393112183, -1.6754035949707031, 0.038818359375, -0.14013671875, -0.835693359375
188, 2732261493, -4.983048439025879, 1.2608819007873535, 8.308459281921387, 0.04938768595457077, -1.0913827419281006, -0.7540122866630554, 0.040771484375, -0.140625, -0.835693359375
189, 2732278160, -4.983827114105225, 1.4273831844329834, 8.308731079101562, 0.788634181022644, -0.7801628112792969, -0.3511628806591034, 0.038818359375, -0.1396484375, -0.835693359375
190, 2732294827, -5.0513834953308105, 1.4848415851593018, 8.31351375579834, -0.2875537574291229, -1.6648510694503784, -1.1698087453842163, 0.037841796875, -0.14111328125, -0.83642578125
191, 2732311494, -5.093965530395508, 1.3804508447647095, 8.294133186340332, -2.2074692249298096, -4.121262550354004, -1.9232707023620605, 0.038818359375, -0.1416015625, -0.837158203125
192, 2732328161, -5.028705596923828, 1.3619884252548218, 8.315940856933594, -1.752894639968872, -4.945492267608643, -1.501109004020691, 0.036865234375, -0.14306640625, -0.835693359375
193, 2732344828, -5.021453857421875, 1.4108495712280273, 8.363447189331055, -0.1381036937236786, -3.974015951156616, -0.45846739411354065, 0.039306640625, -0.1416015625, -0.833251953125
194, 2732361495, -4.987354278564453, 1.4304406642913818, 8.371613502502441, 0.5880227088928223, -3.243438482284546, -0.36977052688598633, 0.036376953125, -0.1435546875, -0.835205078125
195, 2732378162, -4.952630996704102, 1.4380559921264648, 8.3899507522583, 1.0555570125579834, -1.741202473640442, -0.3061741888523102, 0.035400390625, -0.14453125, -0.834716796875
196, 2732394829, -4.942624568939209, 1.4209377765655518, 8.391984939575195, 1.7402613162994385, -0.11194031685590744, -0.1438281238079071, 0.035400390625, -0.14599609375, -0.8369140625
197, 2732411496, -4.991517066955566, 1.4796192646026611, 8.379051208496094, 1.7981072664260864, 0.7521616816520691, -0.37499547004699707, 0.035888671875, -0.14599609375, -0.835205078125
198, 2732428163, -4.968296527862549, 1.4574722051620483, 8.357669830322266, 1.6953239440917969, 1.3868829011917114, -0.6426354646682739, 0.038330078125, -0.146240234375, -0.834228515625
199, 2732444830, -4.997253894805908, 1.4548763036727905, 8.356537818908691, 2.0723042488098145, 2.7210865020751953, -0.42148256301879883, 0.037841796875, -0.147705078125, -0.832275390625
200, 2732461497, -5.0325164794921875, 1.4717375040054321, 8.312678337097168, 1.9877827167510986, 3.3544511795043945, -0.3172133266925812, 0.039794921875, -0.151611328125, -0.835205078125
201, 2732478164, -5.020003318786621, 1.451842188835144, 8.310903549194336, 1.6143749952316284, 3.310755491256714, -0.44162699580192566, 0.040283203125, -0.150146484375, -0.8349609375
202, 2732494831, -5.023539066314697, 1.5169346332550049, 8.299178123474121, 1.4928425550460815, 3.3654253482818604, -0.41568130254745483, 0.040283203125, -0.149169921875, -0.83349609375
203, 2732511498, -5.070181369781494, 1.5480098724365234, 8.282221794128418, 0.8497846126556396, 2.9701316356658936, -0.8090795278549194, 0.041015625, -0.152099609375, -0.8330078125
204, 2732528165, -5.095852851867676, 1.5718961954116821, 8.274359703063965, -0.2734540104866028, 1.567503809928894, -1.4118232727050781, 0.04248046875, -0.151611328125, -0.833984375
205, 2732544832, -5.050628185272217, 1.5916235446929932, 8.255439758300781, -1.5009554624557495, 0.5813890099525452, -2.139582395553589, 0.0439453125, -0.152587890625, -0.83203125
206, 2732561499, -5.023233890533447, 1.5815305709838867, 8.245783805847168, -4.081204414367676, -0.35528653860092163, -3.707822799682617, 0.04345703125, -0.152587890625, -0.83251953125
207, 2732578166, -5.009510517120361, 1.6225640773773193, 8.262593269348145, -7.0208024978637695, -1.7946442365646362, -5.4703755378723145, 0.04296875, -0.151611328125, -0.83154296875
208, 2732594833, -5.022051811218262, 1.5816583633422852, 8.291522979736328, -9.665879249572754, -3.209311008453369, -7.38559103012085, 0.041015625, -0.151611328125, -0.8330078125
209, 2732611500, -5.08010721206665, 1.5614217519760132, 8.28026294708252, -11.919456481933594, -4.467550754547119, -9.276633262634277, 0.04443359375, -0.146240234375, -0.8359375
210, 2732628167, -5.077124118804932, 1.4764083623886108, 8.264511108398438, -11.725491523742676, -4.8399977684021, -9.518853187561035, 0.04248046875, -0.14453125, -0.835205078125
211, 2732644834, -5.050944805145264, 1.4441856145858765, 8.299894332885742, -8.751133918762207, -3.182084560394287, -8.48751449584961, 0.041259765625, -0.14501953125, -0.834228515625
212, 2732661501, -4.945587158203125, 1.4238256216049194, 8.320125579833984, -7.3451361656188965, -1.4107224941253662, -8.458904266357422, 0.0439453125, -0.1416015625, -0.833984375
213, 2732678168, -5.0050835609436035, 1.469967246055603, 8.267768859863281, -6.354156017303467, 0.6389411687850952, -9.636399269104004, 0.04248046875, -0.14111328125, -0.833251953125
214, 2732694835, -5.062790870666504, 1.3795604705810547, 8.300179481506348, -5.042105674743652, 2.8493053913116455, -10.321897506713867, 0.046875, -0.14013671875, -0.83642578125
215, 2732711502, -5.035406112670898, 1.4062623977661133, 8.298860549926758, -3.581374406814575, 5.847017288208008, -10.129341125488281, 0.04638671875, -0.138671875, -0.836181640625
216, 2732728169, -4.97434139251709, 1.2828021049499512, 8.314888954162598, -1.6950753927230835, 10.30586051940918, -9.700201988220215, 0.050537109375, -0.14013671875, -0.83740234375
217, 2732744836, -4.82045841217041, 1.3321800231933594, 8.371513366699219, -0.01970900222659111, 17.56490135192871, -9.105277061462402, 0.052001953125, -0.140625, -0.834228515625
218, 2732761503, -4.682567596435547, 1.1759885549545288, 8.362078666687012, 3.733915090560913, 29.288612365722656, -9.160847663879395, 0.058349609375, -0.141357421875, -0.834228515625
219, 2732778170, -5.055222034454346, 1.1421526670455933, 8.33709716796875, 10.30048656463623, 43.76511764526367, -8.585478782653809, 0.069580078125, -0.143798828125, -0.831787109375
220, 2732794837, -5.05633020401001, 1.0217220783233643, 8.380193710327148, 15.352612495422363, 58.640533447265625, -6.761380195617676, 0.08251953125, -0.1484375, -0.833251953125
221, 2732811504, -5.218458652496338, 1.1512748003005981, 8.30996322631836, 19.424449920654297, 75.06116485595703, -4.614891529083252, 0.102294921875, -0.150634765625, -0.828125
222, 2732828171, -5.125219821929932, 1.212419033050537, 8.339550971984863, 21.250638961791992, 94.16447448730469, -3.5885465145111084, 0.121337890625, -0.15673828125, -0.82177734375
223, 2732844838, -5.466818332672119, 1.568950891494751, 8.11532974243164, 17.857566833496094, 117.09467315673828, -6.879579544067383, 0.14990234375, -0.161865234375, -0.813232421875
224, 2732861505, -5.699883937835693, 1.5742501020431519, 7.938611030578613, 14.974397659301758, 139.81703186035156, -13.551133155822754, 0.183349609375, -0.1640625, -0.8046875
225, 2732878172, -5.9397501945495605, 1.4593719244003296, 7.762025833129883, 13.69534969329834, 163.0850372314453, -18.440500259399414, 0.218994140625, -0.164794921875, -0.798583984375
226, 2732894839, -6.1744704246521, 1.732545256614685, 7.525444984436035, 12.070992469787598, 187.7513427734375, -22.481075286865234, 0.263671875, -0.16845703125, -0.782470703125
227, 2732911506, -6.695816993713379, 1.836866855621338, 7.2161173820495605, 5.086960315704346, 214.98712158203125, -31.905101776123047, 0.312255859375, -0.164794921875, -0.76416015625
228, 2732928173, -6.996276378631592, 1.7457451820373535, 7.072973728179932, -2.8691864013671875, 253.34352111816406, -41.26018142700195, 0.36474609375, -0.162353515625, -0.73486328125
229, 2732944840, -7.262665271759033, 2.1368725299835205, 6.710841655731201, -9.886801719665527, 309.0901794433594, -51.57042694091797, 0.42822265625, -0.155029296875, -0.6982421875
230, 2732961507, -8.187190055847168, 2.5765724182128906, 7.383035659790039, -12.085904121398926, 368.8428039550781, -64.84476470947266, 0.5009765625, -0.145263671875, -0.64990234375
231, 2732978174, -12.086127281188965, 2.226823329925537, 8.424762725830078, -10.148183822631836, 405.8775634765625, -81.13452911376953, 0.575439453125, -0.129150390625, -0.579345703125
232, 2732994841, -15.022303581237793, 1.6807491779327393, 8.594788551330566, -0.7679420709609985, 395.6579895019531, -88.08187866210938, 0.642578125, -0.11181640625, -0.506103515625
233, 2733011508, -15.059335708618164, 3.1814231872558594, 8.235447883605957, 9.959980964660645, 391.88604736328125, -93.36248779296875, 0.698486328125, -0.097900390625, -0.422119140625
234, 2733028175, -13.68284797668457, 2.889254093170166, 8.825276374816895, 10.566239356994629, 409.0517578125, -106.14836883544922, 0.739501953125, -0.07568359375, -0.32421875
235, 2733044842, -14.855622291564941, 3.226196527481079, 11.031455993652344, 16.069597244262695, 394.5233459472656, -108.21284484863281, 0.772216796875, -0.05322265625, -0.22509765625
236, 2733061509, -12.969217300415039, 2.435831069946289, 13.6243257522583, 52.82419967651367, 318.2564697265625, -74.4241943359375, 0.789794921875, -0.0361328125, -0.1337890625
237, 2733078176, -15.706707954406738, 4.259089469909668, 18.011350631713867, 93.49114227294922, 155.63465881347656, -37.388885498046875, 0.794189453125, -0.02783203125, -0.078125
238, 2733094843, -23.198341369628906, 9.908529281616211, 29.57832145690918, 82.62306213378906, -80.78597259521484, -11.10349178314209, 0.79541015625, -0.026611328125, -0.064453125
239, 2733111510, -5.253939628601074, 5.669366359710693, 14.37436580657959, 1.9893882274627686, -209.1856231689453, -27.99985694885254, 0.792724609375, -0.022216796875, -0.093505859375
240, 2733128177, -2.668450117111206, 2.6383938789367676, 9.011441230773926, -36.73297882080078, -217.11407470703125, -36.3120002746582, 0.792236328125, -0.013427734375, -0.132568359375
241, 2733144844, -6.504199504852295, 3.0556445121765137, 11.060510635375977, -36.94795227050781, -239.61207580566406, -32.09938049316406, 0.796142578125, -0.00439453125, -0.179443359375
242, 2733161511, -7.638586044311523, 3.784182071685791, 11.791544914245605, -22.675079345703125, -324.797119140625, -7.932632923126221, 0.787353515625, 7.32421875E-4, -0.24609375
243, 2733178178, -4.6211700439453125, 3.718719959259033, 7.380296230316162, -30.12534523010254, -382.2738952636719, 2.6762688159942627, 0.77001953125, 0.00341796875, -0.337158203125
244, 2733194845, -2.578418016433716, 2.802722454071045, 3.5849449634552, -40.618717193603516, -373.709228515625, 1.37655508518219, 0.743408203125, 0.007080078125, -0.43310546875
245, 2733211512, -3.1818580627441406, 2.5256402492523193, 4.028404235839844, -28.94707679748535, -345.5345764160156, 12.304765701293945, 0.693115234375, 0.00634765625, -0.526611328125
246, 2733228179, -7.056619644165039, 3.7009148597717285, 8.263639450073242, -2.656963348388672, -348.6901550292969, 44.223873138427734, 0.628662109375, 0.001708984375, -0.605224609375
247, 2733244846, -9.434273719787598, 4.197483539581299, 9.889453887939453, 8.118578910827637, -383.1919860839844, 78.22715759277344, 0.548828125, -0.005126953125, -0.666259765625
248, 2733261513, -7.9019060134887695, 1.863889217376709, 7.085047721862793, 10.28288459777832, -392.3748779296875, 87.14149475097656, 0.464111328125, -0.010986328125, -0.72607421875
249, 2733278180, -7.706552505493164, -1.2882637977600098, 5.095547676086426, 42.14350509643555, -348.65826416015625, 77.96854400634766, 0.382568359375, -0.020751953125, -0.76416015625
250, 2733294847, -10.989852905273438, -1.6236075162887573, 7.358041763305664, 82.65624237060547, -272.65118408203125, 57.46284103393555, 0.3134765625, -0.039306640625, -0.7822265625
251, 2733311514, -17.405317306518555, 0.4372452199459076, 14.67502212524414, 90.18700408935547, -263.7630615234375, 38.25758361816406, 0.259033203125, -0.058837890625, -0.774658203125
252, 2733328181, -17.770828247070312, 0.0020922422409057617, 12.77099895477295, 83.65511322021484, -274.95477294921875, 19.097003936767578, 0.224365234375, -0.076171875, -0.765869140625
253, 2733344848, -18.772872924804688, -0.8634381294250488, 10.050698280334473, 106.65528106689453, -253.46499633789062, 18.436853408813477, 0.212158203125, -0.096435546875, -0.780029296875
254, 2733361515, -20.712080001831055, 0.6692696809768677, 9.304179191589355, 127.7298812866211, -231.44183349609375, 43.89569091796875, 0.193115234375, -0.127197265625, -0.82763671875
255, 2733378182, -20.42745590209961, -0.022547833621501923, 6.440306186676025, 109.14911651611328, -218.24021911621094, 68.3141098022461, 0.147705078125, -0.173828125, -0.887451171875
256, 2733394849, -20.583881378173828, -3.237400531768799, 4.8406877517700195, 91.11762237548828, -195.60906982421875, 84.98085021972656, 0.075927734375, -0.22021484375, -0.926025390625
257, 2733411516, -21.4631290435791, -2.7693283557891846, 3.444685697555542, 88.0810317993164, -188.58567810058594, 108.33475494384766, -0.012451171875, -0.2705078125, -0.939453125
258, 2733428183, -19.585073471069336, -2.1715548038482666, -0.7663426399230957, 34.18115234375, -162.05638122558594, 112.14363098144531, -0.09521484375, -0.2978515625, -0.93310546875
259, 2733444850, -20.00797462463379, -3.1468505859375, -4.636940002441406, -26.653287887573242, -118.2585220336914, 104.95430755615234, -0.159912109375, -0.298828125, -0.91748046875
260, 2733461517, -19.682754516601562, -4.876193046569824, -8.106025695800781, -47.38819122314453, -62.126644134521484, 104.91839599609375, -0.203125, -0.285400390625, -0.908935546875
261, 2733478184, -20.003829956054688, -5.191891193389893, -8.087059020996094, -44.30772018432617, 0.2764826714992523, 105.73942565917969, -0.227294921875, -0.268798828125, -0.908935546875
262, 2733494851, -21.19142723083496, -4.8796916007995605, -4.099328517913818, -45.880123138427734, 48.03596115112305, 101.47322082519531, -0.234375, -0.253662109375, -0.913818359375
263, 2733511518, -2.325460433959961, -6.1934027671813965, 5.7995734214782715, -44.40132522583008, 50.23906707763672, 47.50192642211914, -0.2333984375, -0.2421875, -0.922119140625
264, 2733528185, 6.886780261993408, 6.799944877624512, 19.66908836364746, 3.8947014808654785, 125.58320617675781, -16.524368286132812, -0.215087890625, -0.2392578125, -0.935546875
265, 2733544852, -3.68214750289917, 3.9240472316741943, 5.870205402374268, 39.52402114868164, 182.12939453125, -42.93458938598633, -0.173828125, -0.25830078125, -0.939697265625
266, 2733561519, -10.88509750366211, -3.089409828186035, 12.602383613586426, 11.152973175048828, 180.82875061035156, -50.45322799682617, -0.12939453125, -0.265625, -0.94677734375
267, 2733578186, -9.604561805725098, 2.5945324897766113, 13.426674842834473, -1.161212682723999, 140.3979949951172, -38.48172378540039, -0.091064453125, -0.266357421875, -0.9541015625
268, 2733594853, -6.9880852699279785, 3.056537389755249, 9.93514347076416, 10.495716094970703, 133.33306884765625, -19.599037170410156, -0.06103515625, -0.269287109375, -0.957763671875
269, 2733611520, -5.255069255828857, 2.669306516647339, 8.890961647033691, 4.953274250030518, 119.44857788085938, -21.746944427490234, -0.03076171875, -0.2744140625, -0.959228515625
270, 2733628187, -7.271666049957275, 5.513195514678955, 9.92894458770752, -5.893088340759277, 117.25493621826172, -23.948471069335938, -0.0029296875, -0.276611328125, -0.96044921875
271, 2733644854, -10.119210243225098, 3.897341728210449, 10.465024948120117, -34.11626434326172, 86.6085433959961, -37.53095245361328, 0.021484375, -0.267333984375, -0.961669921875
272, 2733661521, -6.3945536613464355, 0.3572132885456085, 10.50313663482666, -35.20243453979492, 56.712425231933594, -27.70608901977539, 0.04052734375, -0.2587890625, -0.9638671875
273, 2733678188, -5.620234966278076, 1.9535192251205444, 8.944745063781738, -36.99704360961914, 34.673797607421875, -20.794479370117188, 0.0498046875, -0.247314453125, -0.96826171875
274, 2733694855, -5.446115493774414, 1.0177769660949707, 9.15941333770752, -29.713680267333984, 21.970373153686523, -15.991765022277832, 0.058837890625, -0.238525390625, -0.97021484375
275, 2733711522, -5.707164764404297, 1.762542486190796, 8.636754989624023, -22.347190856933594, 12.60567569732666, -12.28990364074707, 0.060791015625, -0.23486328125, -0.97119140625
276, 2733728189, -5.338563442230225, 1.2832553386688232, 8.692865371704102, -12.317351341247559, 8.627128601074219, -8.04814624786377, 0.063232421875, -0.23095703125, -0.970703125
277, 2733744856, -5.142672061920166, 1.5961229801177979, 8.50008773803711, -5.22150993347168, 9.02988338470459, -3.4820868968963623, 0.0673828125, -0.2294921875, -0.972412109375
278, 2733761523, -5.129553318023682, 1.724892258644104, 8.358941078186035, -5.779149532318115, 10.092092514038086, -2.2689785957336426, 0.06640625, -0.22900390625, -0.97265625
279, 2733778190, -5.196216106414795, 1.968748688697815, 8.256669998168945, -6.015631675720215, 9.473098754882812, -1.6645572185516357, 0.07177734375, -0.2294921875, -0.971923828125
280, 2733794857, -5.1441969871521, 1.9222443103790283, 8.195652961730957, -7.946689605712891, 7.1151275634765625, -4.004662036895752, 0.072265625, -0.2275390625, -0.974365234375
281, 2733811524, -5.155074119567871, 1.744858741760254, 8.198700904846191, -10.658743858337402, 4.550258636474609, -6.613279819488525, 0.07373046875, -0.224609375, -0.973876953125
282, 2733828191, -5.268190860748291, 1.7224082946777344, 8.185709953308105, -11.034212112426758, 3.0266475677490234, -6.868369102478027, 0.075927734375, -0.22216796875, -0.972900390625
283, 2733844858, -5.2286810874938965, 1.7453620433807373, 8.238960266113281, -9.956660270690918, 2.642777442932129, -6.272514820098877, 0.0732421875, -0.219482421875, -0.97412109375
284, 2733861525, -5.200030326843262, 1.785255789756775, 8.223990440368652, -9.30595588684082, 2.2860817909240723, -7.081645965576172, 0.07568359375, -0.218505859375, -0.973388671875
285, 2733878192, -5.176874160766602, 1.7640728950500488, 8.267054557800293, -9.446084022521973, 1.5876872539520264, -8.385372161865234, 0.075927734375, -0.216552734375, -0.97509765625
286, 2733894859, -5.388625144958496, 1.7287883758544922, 8.181326866149902, -8.658096313476562, 1.2362040281295776, -9.414387702941895, 0.076904296875, -0.212646484375, -0.97509765625
287, 2733911526, -5.378496170043945, 1.6298511028289795, 8.215534210205078, -6.4455156326293945, 0.9743139147758484, -9.434941291809082, 0.077880859375, -0.21142578125, -0.97509765625
288, 2733928193, -5.323543548583984, 1.5402716398239136, 8.252039909362793, -3.9151456356048584, 3.491953134536743, -8.54014778137207, 0.079833984375, -0.21044921875, -0.9755859375
289, 2733944860, -5.260469913482666, 1.60104501247406, 8.223152160644531, -1.1171751022338867, 6.0023064613342285, -7.903877258300781, 0.083740234375, -0.2109375, -0.972412109375
290, 2733961527, -5.252933979034424, 1.5195802450180054, 8.23084545135498, 1.6849515438079834, 10.894822120666504, -7.244108200073242, 0.084716796875, -0.21044921875, -0.970703125
291, 2733978194, -5.043883800506592, 1.4915698766708374, 8.22842025756836, 3.553644895553589, 17.56461524963379, -5.843173503875732, 0.09130859375, -0.214599609375, -0.972900390625
292, 2733994861, -4.573892593383789, 1.4724857807159424, 8.264671325683594, 3.4619483947753906, 33.5218505859375, -6.429658889770508, 0.096923828125, -0.212646484375, -0.970947265625
293, 2734011528, -5.2114763259887695, 1.4959437847137451, 8.0775728225708, 5.151494979858398, 48.71104049682617, -7.796854019165039, 0.10986328125, -0.21484375, -0.968505859375
294, 2734028195, -5.277624607086182, 1.609476089477539, 8.007964134216309, 10.723881721496582, 63.42704391479492, -7.517361640930176, 0.12841796875, -0.2158203125, -0.96484375
295, 2734044862, -5.355541706085205, 1.7432594299316406, 8.059266090393066, 16.07487678527832, 79.79957580566406, -8.721470832824707, 0.1474609375, -0.221923828125, -0.95849609375
296, 2734061529, -5.543519496917725, 1.5939499139785767, 8.007280349731445, 16.273033142089844, 97.01051330566406, -10.775762557983398, 0.172607421875, -0.224609375, -0.95263671875
297, 2734078196, -5.376323699951172, 1.6840705871582031, 8.08991527557373, 15.623950004577637, 121.59217834472656, -14.140363693237305, 0.203125, -0.227783203125, -0.945068359375
298, 2734094863, -5.706190586090088, 1.44832181930542, 7.801044464111328, 16.941747665405273, 148.3880157470703, -17.412975311279297, 0.241943359375, -0.23046875, -0.934326171875
299, 2734111530, -5.783756256103516, 1.3935126066207886, 7.584013938903809, 19.397666931152344, 177.3338623046875, -19.07223892211914, 0.284423828125, -0.232177734375, -0.916748046875
300, 2734128197, -5.940455913543701, 1.2326611280441284, 7.584918022155762, 20.41706085205078, 216.23361206054688, -15.694066047668457, 0.3349609375, -0.23486328125, -0.89501953125
301, 2734144864, -6.150177478790283, 1.8274178504943848, 7.158056259155273, 13.49242115020752, 272.1706237792969, -11.575479507446289, 0.3974609375, -0.2373046875, -0.862060546875
302, 2734161531, -7.390037536621094, 2.210526704788208, 7.1519975662231445, 3.028127908706665, 352.33551025390625, -16.79719352722168, 0.472412109375, -0.232421875, -0.813232421875
303, 2734178198, -8.116838455200195, 2.386383056640625, 10.023529052734375, 26.926288604736328, 447.96160888671875, -21.45108985900879, 0.565673828125, -0.2265625, -0.744873046875
304, 2734194865, -14.43355941772461, 2.3240420818328857, 11.214211463928223, 56.40641784667969, 490.621337890625, -34.820865631103516, 0.6591796875, -0.228759765625, -0.64697265625
305, 2734211532, -17.487112045288086, 2.384032964706421, 11.003129959106445, 59.021446228027344, 479.4886169433594, -52.22123718261719, 0.7421875, -0.220947265625, -0.52978515625
306, 2734228199, -18.42142105102539, 6.524448394775391, 10.772499084472656, 38.5059928894043, 487.61334228515625, -82.96465301513672, 0.80615234375, -0.205078125, -0.399169921875
307, 2734244866, -16.077606201171875, 5.3168864250183105, 13.06566047668457, 15.697589874267578, 454.8440856933594, -112.62934112548828, 0.85595703125, -0.17333984375, -0.262451171875
308, 2734261533, -6.958576679229736, 3.890590190887451, 13.750568389892578, 43.68014907836914, 391.1364440917969, -84.86988067626953, 0.878662109375, -0.14306640625, -0.137939453125
309, 2734278200, -21.300546646118164, 1.6607314348220825, 20.372970581054688, 82.93539428710938, 242.5645294189453, -86.39869689941406, 0.886474609375, -0.1220703125, -0.044677734375
310, 2734294867, -25.95755958557129, 6.186730861663818, 29.790403366088867, 91.91461181640625, 9.987829208374023, -110.14695739746094, 0.89599609375, -0.09033203125, -0.0048828125
311, 2734311534, -8.106639862060547, 7.250622749328613, 18.81717872619629, 64.24407196044922, -226.05877685546875, -65.93466186523438, 0.9130859375, -0.07568359375, -0.049560546875
312, 2734328201, -2.678670644760132, 5.522058486938477, 8.677485466003418, -3.7171995639801025, -270.4410095214844, -84.89192962646484, 0.924072265625, -0.064208984375, -0.1357421875
313, 2734344868, -1.3323088884353638, 3.9133594036102295, 5.61400842666626, -51.225826263427734, -267.2528381347656, -90.45706176757812, 0.910888671875, -0.045166015625, -0.2314453125
314, 2734361535, -3.145406723022461, 5.205466270446777, 6.743574142456055, -76.88671112060547, -280.7071228027344, -73.66695404052734, 0.87109375, -0.0283203125, -0.322509765625
315, 2734378202, -6.240589141845703, 5.690884113311768, 8.21413516998291, -101.33450317382812, -326.68280029296875, -55.45914077758789, 0.813232421875, -0.0087890625, -0.407958984375
316, 2734394869, -6.351369857788086, 4.18557071685791, 7.063286781311035, -91.03355407714844, -373.2699279785156, -19.50096321105957, 0.742431640625, 0.004150390625, -0.486572265625
317, 2734411536, -6.583133697509766, 3.547258138656616, 6.217087745666504, -57.31924057006836, -396.2797546386719, 21.78004264831543, 0.664306640625, 0.0107421875, -0.552734375
318, 2734428203, -7.647846221923828, 3.761436939239502, 6.325894832611084, -29.442466735839844, -407.6405029296875, 59.02982711791992, 0.58056640625, 0.003662109375, -0.6103515625
319, 2734444870, -9.08214282989502, 3.338228702545166, 6.88691520690918, -18.00032615661621, -419.6665954589844, 77.86373138427734, 0.495849609375, -0.003173828125, -0.65087890625
320, 2734461537, -10.071627616882324, 1.8004229068756104, 7.442196369171143, -4.599725246429443, -424.61676025390625, 79.84003448486328, 0.41748046875, -0.012451171875, -0.68994140625
321, 2734478204, -10.182148933410645, -0.46309664845466614, 6.19296932220459, 23.4868106842041, -412.93133544921875, 61.937721252441406, 0.343505859375, -0.028564453125, -0.71728515625
322, 2734494871, -11.681015968322754, -2.507906436920166, 5.4144697189331055, 72.91963958740234, -355.234375, 34.51405334472656, 0.27880859375, -0.0498046875, -0.736328125
323, 2734511538, -15.999244689941406, -0.8053852319717407, 9.957490921020508, 116.8299789428711, -291.39556884765625, 11.31023120880127, 0.236328125, -0.080322265625, -0.752197265625
324, 2734528205, -21.251440048217773, 1.8850822448730469, 13.156111717224121, 127.89473724365234, -290.18218994140625, -0.27206486463546753, 0.192626953125, -0.11572265625, -0.77880859375
325, 2734544872, -21.454456329345703, 2.907285690307617, 9.216136932373047, 129.1102294921875, -276.7781982421875, 23.178085327148438, 0.12353515625, -0.156494140625, -0.802490234375
326, 2734561539, -24.089454650878906, 3.937056541442871, 7.7626142501831055, 114.69242858886719, -254.6219482421875, 66.05155181884766, 0.0458984375, -0.19677734375, -0.81396484375
327, 2734578206, -23.14253044128418, 1.338500738143921, 3.816372871398926, 75.30072021484375, -238.93255615234375, 91.2562026977539, -0.034423828125, -0.224365234375, -0.810546875
328, 2734594873, -23.358369827270508, -3.7736711502075195, -0.1994839310646057, 74.55037689208984, -204.7306671142578, 101.48725128173828, -0.1064453125, -0.2431640625, -0.791259765625
329, 2734611540, -23.27189064025879, -3.5113906860351562, -2.248462677001953, 72.16010284423828, -167.038818359375, 99.96405792236328, -0.158447265625, -0.25732421875, -0.767822265625
330, 2734628207, -22.931764602661133, -2.9155116081237793, -4.250999450683594, 14.386685371398926, -130.2377166748047, 89.8906021118164, -0.19580078125, -0.264404296875, -0.750244140625
331, 2734644874, -21.7960205078125, -5.625375747680664, -7.763058185577393, -26.8392276763916, -86.47872924804688, 80.16470336914062, -0.22314453125, -0.251953125, -0.734619140625
332, 2734661541, -20.088239669799805, -6.529648780822754, -10.6019287109375, -9.106027603149414, -23.005109786987305, 66.78144073486328, -0.2353515625, -0.243896484375, -0.72607421875
333, 2734678208, -11.91983413696289, -3.1551578044891357, -10.652527809143066, -28.841110229492188, 108.46337127685547, 43.635040283203125, -0.2294921875, -0.2373046875, -0.72705078125
334, 2734694875, -0.4538924992084503, -4.689247131347656, 18.538759231567383, -19.92220687866211, 124.81915283203125, -4.481719493865967, -0.211181640625, -0.22998046875, -0.73046875
335, 2734711542, -7.145360946655273, -3.867635488510132, 16.471208572387695, 40.78081130981445, 163.31983947753906, -53.40049362182617, -0.174072265625, -0.23974609375, -0.732666015625
336, 2734728209, -9.065053939819336, -0.2783885598182678, 9.302594184875488, 38.955604553222656, 174.07041931152344, -44.26251983642578, -0.1376953125, -0.253173828125, -0.72998046875
337, 2734744876, -9.416367530822754, 8.624733924865723, 10.912202835083008, 27.69105339050293, 157.67710876464844, -17.809417724609375, -0.10400390625, -0.260009765625, -0.728759765625
338, 2734761543, -6.082645416259766, 3.0054500102996826, 9.254512786865234, 22.94951057434082, 148.07664489746094, -8.480602264404297, -0.072509765625, -0.267578125, -0.72705078125
339, 2734778210, -9.223155975341797, 8.415489196777344, 11.201119422912598, -8.228819847106934, 126.44512176513672, -25.17702293395996, -0.043701171875, -0.267822265625, -0.728759765625
340, 2734794877, -8.493355751037598, 2.620176315307617, 9.694050788879395, -42.30964660644531, 95.86389923095703, -47.070526123046875, -0.021728515625, -0.260009765625, -0.729736328125
341, 2734811544, -6.888485908508301, -0.7696644067764282, 11.362221717834473, -47.11903762817383, 55.81379699707031, -29.95014762878418, -0.005615234375, -0.2490234375, -0.7333984375
342, 2734828211, -5.749717712402344, 2.5147762298583984, 8.640008926391602, -43.32829284667969, 34.58262634277344, -22.741657257080078, 0.00244140625, -0.2451171875, -0.73681640625
343, 2734844878, -5.320066452026367, 1.1586058139801025, 9.10707950592041, -31.13095474243164, 19.398319244384766, -17.890445709228516, 0.009033203125, -0.238525390625, -0.734130859375
344, 2734861545, -5.639618873596191, 1.7069904804229736, 8.810315132141113, -21.445493698120117, 9.762530326843262, -15.6817626953125, 0.011962890625, -0.232177734375, -0.736572265625
345, 2734878212, -5.481907367706299, 1.4591106176376343, 8.669038772583008, -13.007973670959473, 3.9833741188049316, -10.86592960357666, 0.012939453125, -0.228759765625, -0.736083984375
346, 2734894879, -5.072352409362793, 1.3955762386322021, 8.597824096679688, -14.214078903198242, 4.973921298980713, -9.314067840576172, 0.01416015625, -0.227783203125, -0.7412109375
347, 2734911546, -5.016663551330566, 1.7906179428100586, 8.441174507141113, -11.730240821838379, 6.26768159866333, -6.8740315437316895, 0.0166015625, -0.2255859375, -0.73828125
348, 2734928213, -5.1562819480896, 1.8187516927719116, 8.388004302978516, -10.042631149291992, 5.66241455078125, -6.464803695678711, 0.01806640625, -0.22607421875, -0.739013671875
349, 2734944880, -5.148088455200195, 1.9377275705337524, 8.272966384887695, -10.66696548461914, 3.9237332344055176, -7.3776655197143555, 0.01806640625, -0.22314453125, -0.73974609375
350, 2734961547, -5.013858795166016, 1.872600793838501, 8.270027160644531, -13.053550720214844, 0.7420454025268555, -9.478654861450195, 0.021484375, -0.21923828125, -0.739501953125
351, 2734978214, -4.913915157318115, 1.6510517597198486, 8.319478988647461, -12.668758392333984, -1.0135979652404785, -10.806635856628418, 0.02099609375, -0.2197265625, -0.738525390625
352, 2734994881, -5.16888427734375, 1.7198245525360107, 8.326953887939453, -10.893486976623535, -2.036339282989502, -11.003992080688477, 0.01904296875, -0.216064453125, -0.7421875
353, 2735011548, -5.234344005584717, 1.6257375478744507, 8.305107116699219, -9.758316993713379, -2.1518523693084717, -10.779163360595703, 0.0224609375, -0.21728515625, -0.740234375
354, 2735028215, -5.242707252502441, 1.5241113901138306, 8.254643440246582, -8.10273551940918, -0.7380303144454956, -9.639243125915527, 0.02197265625, -0.212646484375, -0.73974609375
355, 2735044882, -5.124802112579346, 1.5339505672454834, 8.2835054397583, -6.9766716957092285, 0.9573454856872559, -8.415862083435059, 0.02197265625, -0.212646484375, -0.74072265625
356, 2735061549, -5.051599979400635, 1.6482535600662231, 8.290305137634277, -6.97052526473999, 1.964859962463379, -8.76239013671875, 0.024658203125, -0.212646484375, -0.7412109375
357, 2735078216, -5.12378454208374, 1.6365402936935425, 8.294541358947754, -7.169012069702148, 3.6432101726531982, -10.498895645141602, 0.026123046875, -0.210205078125, -0.740234375
358, 2735094883, -5.060403823852539, 1.6016484498977661, 8.33419132232666, -8.699143409729004, 7.2170562744140625, -11.923336029052734, 0.027099609375, -0.207275390625, -0.74267578125
359, 2735111550, -4.98037052154541, 1.5517159700393677, 8.353367805480957, -8.349942207336426, 13.389189720153809, -12.15025806427002, 0.028076171875, -0.206298828125, -0.7412109375
360, 2735128217, -5.031637668609619, 1.1938306093215942, 8.345008850097656, -5.341885566711426, 21.19881248474121, -10.466767311096191, 0.03466796875, -0.207763671875, -0.741455078125
361, 2735144884, -4.847615718841553, 1.156760573387146, 8.31800365447998, 6.790426254272461, 34.88404083251953, -8.495862007141113, 0.043212890625, -0.207275390625, -0.738037109375
362, 2735161551, -5.1838226318359375, 1.0676742792129517, 8.273443222045898, 12.67460823059082, 47.02189636230469, -5.732797145843506, 0.05419921875, -0.2138671875, -0.73828125
363, 2735178218, -5.143552303314209, 1.2728550434112549, 8.205256462097168, 16.515710830688477, 60.192867279052734, -3.1462302207946777, 0.063720703125, -0.21533203125, -0.73486328125
364, 2735194885, -5.291800022125244, 1.613067388534546, 8.187644958496094, 16.48785972595215, 75.26920318603516, -4.720494270324707, 0.079345703125, -0.219970703125, -0.733154296875
365, 2735211552, -5.387185096740723, 1.8117396831512451, 8.143442153930664, 12.388806343078613, 92.5940170288086, -10.743901252746582, 0.097900390625, -0.2216796875, -0.728515625
366, 2735228219, -5.6244707107543945, 1.444822072982788, 7.872442245483398, 11.879340171813965, 111.2262954711914, -15.963424682617188, 0.122802734375, -0.224365234375, -0.7216796875
367, 2735244886, -5.758382320404053, 1.39199960231781, 7.742776393890381, 13.679510116577148, 128.72824096679688, -17.429147720336914, 0.150146484375, -0.2275390625, -0.71630859375
368, 2735261553, -5.731293678283691, 1.4778027534484863, 7.646424293518066, 15.33399486541748, 151.2245635986328, -19.365686416625977, 0.181640625, -0.231689453125, -0.707275390625
369, 2735278220, -5.94371223449707, 1.5392521619796753, 7.523871421813965, 15.37414836883545, 178.68856811523438, -23.254671096801758, 0.21826171875, -0.23193359375, -0.69482421875
370, 2735294887, -6.051153182983398, 1.45863676071167, 7.546268463134766, 14.099332809448242, 219.38328552246094, -23.96539878845215, 0.26025390625, -0.233154296875, -0.677978515625
371, 2735311554, -6.686773777008057, 1.9023184776306152, 6.872551918029785, 3.6675190925598145, 275.1011962890625, -30.55648422241211, 0.313232421875, -0.233642578125, -0.652587890625
372, 2735328221, -6.998762607574463, 2.1886260509490967, 7.945672988891602, -9.563895225524902, 356.35821533203125, -35.888553619384766, 0.376220703125, -0.22900390625, -0.6162109375
373, 2735344888, -8.619852066040039, 2.639671802520752, 10.124053001403809, 0.15173085033893585, 451.74810791015625, -41.40430450439453, 0.448486328125, -0.22314453125, -0.56103515625
374, 2735361555, -16.28966522216797, 2.0518460273742676, 11.455090522766113, 28.13954734802246, 487.3115539550781, -58.02691650390625, 0.529052734375, -0.21875, -0.48583984375
375, 2735378222, -16.876890182495117, 1.7344467639923096, 10.678717613220215, 41.04548645019531, 477.2376708984375, -63.85389709472656, 0.593994140625, -0.21044921875, -0.399658203125
376, 2735394889, -17.911821365356445, 5.660520076751709, 11.3944730758667, 24.902484893798828, 483.7396240234375, -85.10255432128906, 0.649169921875, -0.1962890625, -0.301025390625
377, 2735411556, -15.37289810180664, 4.170022964477539, 13.887173652648926, 16.44091033935547, 450.9532470703125, -99.09119415283203, 0.6904296875, -0.17236328125, -0.198974609375
378, 2735428223, -8.497580528259277, 2.4335296154022217, 17.198293685913086, 55.078731536865234, 353.9332580566406, -58.42610168457031, 0.70947265625, -0.15478515625, -0.10205078125
379, 2735444890, -25.45730972290039, 5.856930255889893, 22.552196502685547, 63.13927459716797, 181.85423278808594, -60.040855407714844, 0.70458984375, -0.138916015625, -0.036376953125
380, 2735461557, -19.72507667541504, 6.07161808013916, 30.561830520629883, 63.40430450439453, -105.26896667480469, -35.251312255859375, 0.69970703125, -0.112548828125, -0.007568359375
381, 2735478224, -3.6770827770233154, 5.490935802459717, 13.859699249267578, 21.416475296020508, -246.78799438476562, -13.785748481750488, 0.699462890625, -0.08935546875, -0.00537109375
382, 2735494891, -0.6008062362670898, 2.8848328590393066, 6.437315940856934, -18.306669235229492, -253.11561584472656, -23.751075744628906, 0.72705078125, -0.059326171875, -0.00244140625
383, 2735511558, -1.2541295289993286, 2.7241721153259277, 6.1603569984436035, -56.597660064697266, -244.16854858398438, -27.533613204956055, 0.78125, -0.02734375, -0.012939453125
384, 2735528225, -4.609657287597656, 3.154233694076538, 8.775864601135254, -85.41246032714844, -275.6994323730469, -33.43214416503906, 0.85986328125, 0.00439453125, -0.068115234375
385, 2735544892, -6.67941427230835, 2.1489644050598145, 9.440838813781738, -91.24281311035156, -337.20391845703125, -33.05415344238281, 0.929931640625, 0.03662109375, -0.203857421875
386, 2735561559, -6.609036922454834, 1.3400959968566895, 7.97713565826416, -55.066436767578125, -390.1055908203125, -15.676301956176758, 0.931884765625, 0.06201171875, -0.39453125
387, 2735578226, -6.471436977386475, 2.2508041858673096, 6.550235271453857, -17.06395721435547, -414.2940673828125, 7.859058380126953, 0.849365234375, 0.072998046875, -0.57568359375
388, 2735594893, -7.003996849060059, 3.0852291584014893, 6.323705673217773, -6.1527323722839355, -418.54730224609375, 26.003694534301758, 0.721923828125, 0.0771484375, -0.70166015625
389, 2735611560, -7.927217483520508, 2.3219571113586426, 7.072250843048096, -6.304086685180664, -418.8792724609375, 34.93832778930664, 0.594482421875, 0.087158203125, -0.7724609375
390, 2735628227, -7.827517509460449, -0.10115858912467957, 6.268420696258545, 16.83788299560547, -401.6483154296875, 35.89103317260742, 0.4814453125, 0.085205078125, -0.828369140625
391, 2735644894, -10.309814453125, -2.340294599533081, 6.339895248413086, 82.44718933105469, -351.3310241699219, 43.73091506958008, 0.388916015625, 0.06884765625, -0.878662109375
392, 2735661561, -15.358530044555664, -0.7223405838012695, 10.430097579956055, 129.58056640625, -307.765625, 40.01529312133789, 0.286865234375, 0.02880859375, -0.91748046875
393, 2735678228, -20.097667694091797, 1.1443486213684082, 13.053112983703613, 118.64861297607422, -300.34771728515625, 13.75627613067627, 0.177001953125, -0.001708984375, -0.924072265625
394, 2735694895, -20.761432647705078, 0.32003355026245117, 8.6433687210083, 130.4101104736328, -288.9179992675781, 23.2283935546875, 0.0849609375, -0.035888671875, -0.904541015625
395, 2735711562, -23.178783416748047, 2.833184003829956, 7.169631004333496, 134.56678771972656, -253.9813995361328, 57.68215560913086, 0.01611328125, -0.08203125, -0.89599609375
396, 2735728229, -24.649301528930664, 2.653555393218994, 4.988994121551514, 72.7137680053711, -234.08016967773438, 78.63816833496094, -0.050048828125, -0.1162109375, -0.886474609375
397, 2735744896, -24.156286239624023, -3.003297805786133, 0.9133158922195435, 42.67755889892578, -207.75613403320312, 87.43209838867188, -0.108642578125, -0.13623046875, -0.876708984375
398, 2735761563, -23.759254455566406, -3.2016184329986572, -2.9180264472961426, 52.312747955322266, -169.3071746826172, 89.29730224609375, -0.161376953125, -0.15234375, -0.859130859375
399, 2735778230, -23.15048599243164, -1.6474908590316772, -5.241220474243164, 17.16910171508789, -126.06294250488281, 80.89588165283203, -0.20166015625, -0.16015625, -0.8486328125
400, 2735794897, -21.81851577758789, -3.5594820976257324, -7.789284706115723, -24.641433715820312, -78.35930633544922, 76.91136932373047, -0.22509765625, -0.15185546875, -0.83984375
401, 2735811564, -21.135147094726562, -5.684926986694336, -8.50866413116455, -19.992979049682617, -31.51443862915039, 71.58495330810547, -0.23876953125, -0.143798828125, -0.836669921875
402, 2735828231, -20.8303165435791, -5.923497676849365, -7.114676475524902, -13.553589820861816, 29.581802368164062, 49.97445297241211, -0.2421875, -0.13720703125, -0.83447265625
403, 2735844898, -3.588948965072632, -4.98726749420166, 3.491663694381714, -22.13838005065918, 89.21046447753906, -11.619118690490723, -0.22216796875, -0.127685546875, -0.838134765625
404, 2735861565, 1.7186424732208252, 7.210050582885742, 18.902114868164062, 37.40237045288086, 135.34217834472656, -29.004053115844727, -0.197509765625, -0.12890625, -0.84228515625
405, 2735878232, -4.069821357727051, 2.6909501552581787, 4.457225799560547, 38.215023040771484, 207.13095092773438, -49.11581039428711, -0.150634765625, -0.138916015625, -0.848388671875
406, 2735894899, -14.848038673400879, -1.1306180953979492, 15.449634552001953, 33.56998062133789, 187.29898071289062, -24.14043426513672, -0.100830078125, -0.143798828125, -0.853271484375
407, 2735911566, -7.221542835235596, 2.667207956314087, 10.233099937438965, 35.31523513793945, 133.1524200439453, -18.86322021484375, -0.06640625, -0.14892578125, -0.85400390625
408, 2735928233, -11.483285903930664, 13.00163459777832, 10.733353614807129, -12.017752647399902, 115.19571685791016, -29.863134384155273, -0.038330078125, -0.148681640625, -0.853759765625
409, 2735944900, -7.127087593078613, 0.8986220955848694, 9.318593978881836, -45.382755279541016, 90.39083862304688, -45.31600570678711, -0.0107421875, -0.137451171875, -0.85546875
410, 2735961567, -6.434704303741455, 0.866821825504303, 10.258745193481445, -53.18608474731445, 59.670528411865234, -31.656991958618164, 0.00439453125, -0.123046875, -0.85693359375
411, 2735978234, -6.119372844696045, 1.2248278856277466, 9.385350227355957, -50.402923583984375, 39.24867630004883, -23.643775939941406, 0.015869140625, -0.10986328125, -0.860107421875
412, 2735994901, -5.36422061920166, 1.9985946416854858, 8.733811378479004, -32.13193130493164, 22.781326293945312, -15.304798126220703, 0.02392578125, -0.09912109375, -0.862060546875
413, 2736011568, -5.878983497619629, 1.6235365867614746, 8.805617332458496, -17.64226531982422, 10.261945724487305, -12.655553817749023, 0.02880859375, -0.095458984375, -0.862060546875
414, 2736028235, -5.329636096954346, 1.5787477493286133, 8.489299774169922, -10.321565628051758, 6.622033596038818, -9.14521312713623, 0.02783203125, -0.092529296875, -0.862548828125
415, 2736044902, -5.345094203948975, 1.787689208984375, 8.405806541442871, -9.337422370910645, 5.589533805847168, -7.567802906036377, 0.029296875, -0.088623046875, -0.861572265625
416, 2736061569, -5.229008674621582, 1.8592833280563354, 8.286323547363281, -8.511847496032715, 5.746859073638916, -6.57028865814209, 0.034423828125, -0.090087890625, -0.862060546875
417, 2736078236, -5.255131721496582, 1.879482388496399, 8.237363815307617, -8.116976737976074, 6.005675792694092, -6.341579437255859, 0.034423828125, -0.087646484375, -0.862548828125
418, 2736094903, -5.270726203918457, 2.0230460166931152, 8.206035614013672, -6.189361095428467, 5.638515949249268, -6.392739295959473, 0.037841796875, -0.083984375, -0.865478515625
419, 2736111570, -5.400136470794678, 1.9577076435089111, 8.243104934692383, -2.7839090824127197, 4.865422248840332, -6.174314975738525, 0.041015625, -0.08447265625, -0.86376953125
420, 2736128237, -5.403976917266846, 1.8623627424240112, 8.189603805541992, -1.4500632286071777, 4.644576072692871, -5.216680526733398, 0.04150390625, -0.0849609375, -0.85986328125
421, 2736144904, -5.412370681762695, 1.8430637121200562, 8.094405174255371, -0.5743264555931091, 4.807511329650879, -3.9572396278381348, 0.04150390625, -0.0830078125, -0.86181640625
422, 2736161571, -5.384942531585693, 1.9287941455841064, 8.042217254638672, -0.1979861855506897, 4.40459680557251, -3.213433265686035, 0.041015625, -0.0849609375, -0.86279296875
423, 2736178238, -5.2716383934021, 1.9902644157409668, 8.07754898071289, -0.3651602864265442, 3.556368350982666, -4.109187126159668, 0.04638671875, -0.085693359375, -0.861083984375
424, 2736194905, -5.32729434967041, 1.9054620265960693, 8.116226196289062, -0.2206406444311142, 4.227716445922852, -5.675134658813477, 0.0458984375, -0.085693359375, -0.86279296875
425, 2736211572, -5.441824913024902, 1.8871901035308838, 8.173550605773926, -0.810808539390564, 4.990410804748535, -6.263138771057129, 0.049072265625, -0.085693359375, -0.864013671875
426, 2736228239, -5.376952648162842, 1.8030035495758057, 8.075669288635254, -2.6865806579589844, 5.92264986038208, -7.0167927742004395, 0.048095703125, -0.085693359375, -0.861083984375
427, 2736244906, -5.392858505249023, 1.851223111152649, 8.073453903198242, -3.424726724624634, 7.767970085144043, -7.054162979125977, 0.052490234375, -0.086669921875, -0.862060546875
428, 2736261573, -5.311260223388672, 1.851048469543457, 8.112528800964355, -2.3661279678344727, 9.609357833862305, -6.998110294342041, 0.054443359375, -0.087158203125, -0.85986328125
429, 2736278240, -4.966282367706299, 1.8727024793624878, 8.08421802520752, 2.3135786056518555, 16.12751007080078, -7.522970199584961, 0.05712890625, -0.084716796875, -0.85888671875
430, 2736294907, -5.015256881713867, 1.8105812072753906, 8.0313138961792, 1.3814700841903687, 28.01905632019043, -8.841492652893066, 0.06396484375, -0.087646484375, -0.861572265625
431, 2736311574, -5.308917045593262, 1.8346976041793823, 7.929615497589111, 1.7952228784561157, 38.09791946411133, -9.485994338989258, 0.07373046875, -0.0888671875, -0.860107421875
432, 2736328241, -5.519107341766357, 1.7271604537963867, 7.88685417175293, 6.562087059020996, 47.999446868896484, -7.914148807525635, 0.085693359375, -0.08837890625, -0.8564453125
433, 2736344908, -5.470287322998047, 1.8764488697052002, 7.867615699768066, 9.665739059448242, 59.78569030761719, -6.6613993644714355, 0.100341796875, -0.092529296875, -0.854736328125
434, 2736361575, -5.660455703735352, 1.966086745262146, 7.857144355773926, 10.829569816589355, 74.74006652832031, -8.870037078857422, 0.1181640625, -0.094970703125, -0.84814453125
435, 2736378242, -5.45005989074707, 1.9120818376541138, 7.85196590423584, 11.899758338928223, 92.92849731445312, -12.15214729309082, 0.139892578125, -0.09765625, -0.848388671875
436, 2736394909, -5.699033260345459, 1.860726237297058, 7.8319525718688965, 13.28538703918457, 114.92948913574219, -15.576148986816406, 0.166015625, -0.101318359375, -0.843505859375
437, 2736411576, -5.7613091468811035, 1.8215134143829346, 7.565077304840088, 12.873969078063965, 139.29623413085938, -19.327369689941406, 0.19970703125, -0.10302734375, -0.83447265625
438, 2736428243, -5.894778251647949, 1.753208041191101, 7.446113586425781, 14.566001892089844, 167.33241271972656, -22.11621856689453, 0.23828125, -0.105712890625, -0.821533203125
439, 2736444910, -6.074099540710449, 1.5637069940567017, 7.486410140991211, 13.912690162658691, 205.7611083984375, -19.851654052734375, 0.2841796875, -0.107421875, -0.805419921875
440, 2736461577, -6.503642559051514, 2.29597544670105, 7.218750476837158, 6.294581413269043, 263.2825622558594, -18.981727600097656, 0.3408203125, -0.103759765625, -0.781494140625
441, 2736478244, -7.21494722366333, 2.1970202922821045, 7.692117691040039, -1.1385526657104492, 339.4671936035156, -25.69455337524414, 0.410400390625, -0.103515625, -0.744384765625
442, 2736494911, -8.046830177307129, 2.6327478885650635, 9.075227737426758, 17.294570922851562, 427.7546081542969, -39.533870697021484, 0.49609375, -0.101318359375, -0.686767578125
443, 2736511578, -13.48475456237793, 3.2661733627319336, 10.572494506835938, 41.06349182128906, 475.98321533203125, -57.69336700439453, 0.584228515625, -0.100830078125, -0.607177734375
444, 2736528245, -17.24213409423828, 2.7494165897369385, 10.616965293884277, 50.859683990478516, 474.12994384765625, -74.16499328613281, 0.665283203125, -0.098388671875, -0.516357421875
445, 2736544912, -17.687002182006836, 4.954035758972168, 10.323163986206055, 48.13127517700195, 486.034912109375, -91.47169494628906, 0.732421875, -0.091552734375, -0.4130859375
446, 2736561579, -17.158432006835938, 5.52355432510376, 13.227651596069336, 29.449037551879883, 453.05810546875, -116.98167419433594, 0.782958984375, -0.076171875, -0.3017578125
447, 2736578246, -7.215305805206299, 3.720454692840576, 11.967889785766602, 48.437381744384766, 396.22076416015625, -93.44698333740234, 0.814208984375, -0.062255859375, -0.19921875
448, 2736594913, -15.380049705505371, 3.6427066326141357, 17.903547286987305, 64.75221252441406, 276.1055908203125, -77.81414794921875, 0.82373046875, -0.054931640625, -0.117919921875
449, 2736611580, -28.407461166381836, 7.213198184967041, 29.682924270629883, 41.81961441040039, 81.80777740478516, -102.06671142578125, 0.82080078125, -0.037353515625, -0.07373046875
450, 2736628247, -10.517496109008789, 6.388389587402344, 21.241609573364258, 33.30747604370117, -176.78968811035156, -36.44646072387695, 0.806396484375, -0.031494140625, -0.08837890625
451, 2736644914, -3.7982335090637207, 4.2131733894348145, 10.970986366271973, 0.34383028745651245, -248.61517333984375, -27.758056640625, 0.78662109375, -0.032958984375, -0.122802734375
452, 2736661581, -2.8571035861968994, 3.3278369903564453, 6.912741661071777, -29.47052574157715, -264.9778747558594, -40.992191314697266, 0.771728515625, -0.028076171875, -0.15869140625
453, 2736678248, -3.241635322570801, 3.263566255569458, 6.3133063316345215, -57.52031707763672, -283.4595642089844, -54.13774490356445, 0.76318359375, -0.0166015625, -0.195068359375
454, 2736694915, -5.8874311447143555, 3.50423002243042, 7.440284252166748, -65.37932586669922, -321.6067810058594, -55.86688232421875, 0.75, -0.00244140625, -0.24267578125
455, 2736711582, -7.572211265563965, 3.6163430213928223, 7.491316318511963, -50.76082992553711, -369.4981994628906, -40.576908111572266, 0.734375, 0.00634765625, -0.294921875
456, 2736728249, -8.419118881225586, 4.29461669921875, 6.979552268981934, -29.20680809020996, -411.1983642578125, -12.688492774963379, 0.72509765625, 0.01025390625, -0.351318359375
457, 2736744916, -8.093475341796875, 5.0596923828125, 6.049418926239014, -20.189043045043945, -435.66546630859375, 19.29222297668457, 0.721435546875, -9.765625E-4, -0.440673828125
458, 2736761583, -8.684723854064941, 4.968481540679932, 6.060722351074219, -23.337400436401367, -443.2583923339844, 46.29328155517578, 0.6884765625, -0.01806640625, -0.561279296875
459, 2736778250, -9.756680488586426, 3.133246898651123, 5.81138801574707, -17.406702041625977, -434.98760986328125, 65.20199584960938, 0.609375, -0.03173828125, -0.672607421875
460, 2736794917, -9.852907180786133, 0.4746110439300537, 5.435511112213135, 15.597550392150879, -410.82861328125, 65.57637023925781, 0.500732421875, -0.04443359375, -0.76025390625
461, 2736811584, -11.486661911010742, -2.165743589401245, 5.586740970611572, 79.9875717163086, -355.46685791015625, 57.96522903442383, 0.39111328125, -0.068603515625, -0.80224609375
462, 2736828251, -16.95444107055664, -0.9141026735305786, 10.256335258483887, 138.9265594482422, -314.2867736816406, 53.17283630371094, 0.295166015625, -0.109130859375, -0.800537109375
463, 2736844918, -21.19046974182129, 3.2305853366851807, 12.971101760864258, 109.91360473632812, -305.10491943359375, 21.295202255249023, 0.23291015625, -0.138671875, -0.77978515625
464, 2736861585, -22.197933197021484, 2.5677754878997803, 9.424294471740723, 76.94342803955078, -296.992431640625, 24.59699821472168, 0.191162109375, -0.160400390625, -0.772705078125
465, 2736878252, -22.797306060791016, 2.330939531326294, 6.122429370880127, 81.53330993652344, -261.439453125, 64.50157165527344, 0.155517578125, -0.187744140625, -0.77978515625
466, 2736894919, -25.179698944091797, 0.7384795546531677, 4.625443458557129, 76.92741394042969, -236.5893096923828, 92.4980697631836, 0.1162109375, -0.214599609375, -0.79736328125
467, 2736911586, -24.0290470123291, -2.664496421813965, -0.583406925201416, 65.9708023071289, -211.08154296875, 92.04639434814453, 0.070068359375, -0.239990234375, -0.815673828125
468, 2736928253, -22.399991989135742, -3.2257087230682373, -3.996516227722168, 56.14714813232422, -158.1323699951172, 90.43984985351562, 0.022216796875, -0.260986328125, -0.827392578125
469, 2736944920, -21.834030151367188, -2.2346465587615967, -5.3548665046691895, 24.348182678222656, -100.82704162597656, 109.8382568359375, -0.017822265625, -0.275634765625, -0.839111328125
470, 2736961587, -21.572662353515625, -3.244194269180298, -7.259615898132324, -17.642728805541992, -49.962547302246094, 128.34901428222656, -0.049560546875, -0.274169921875, -0.84765625
471, 2736978254, -20.1487979888916, -4.7999796867370605, -9.729207038879395, -28.329675674438477, 5.523920059204102, 129.434814453125, -0.068115234375, -0.27099609375, -0.8564453125
472, 2736994921, -15.527559280395508, -3.4605751037597656, -8.866710662841797, -31.534765243530273, 103.9647216796875, 107.63610076904297, -0.060791015625, -0.26513671875, -0.868408203125
473, 2737011588, 1.6066920757293701, -4.649995803833008, 13.815888404846191, -14.928001403808594, 131.59417724609375, 37.289451599121094, -0.028564453125, -0.263916015625, -0.87744140625
474, 2737028255, -2.278773784637451, -8.208281517028809, 16.491836547851562, 47.038639068603516, 195.26963806152344, -37.614959716796875, 0.02392578125, -0.27490234375, -0.88818359375
475, 2737044922, -9.914352416992188, -0.12665876746177673, 8.963822364807129, 65.72920227050781, 224.41143798828125, -40.30231857299805, 0.08837890625, -0.301025390625, -0.888427734375
476, 2737061589, -12.645384788513184, 5.1995463371276855, 12.611873626708984, 50.15751266479492, 184.0747833251953, -28.60787582397461, 0.148193359375, -0.31884765625, -0.888427734375
477, 2737078256, -10.656914710998535, 10.052303314208984, 12.348306655883789, 12.764533042907715, 139.4089813232422, -30.499418258666992, 0.19580078125, -0.330810546875, -0.884521484375
478, 2737094923, -10.0169677734375, 6.585424423217773, 9.176106452941895, -54.38536834716797, 96.08102416992188, -54.892921447753906, 0.2294921875, -0.318603515625, -0.888916015625
479, 2737111590, -6.728532314300537, -1.3865598440170288, 11.020447731018066, -70.47969055175781, 61.92811584472656, -46.02225875854492, 0.252197265625, -0.300048828125, -0.891357421875
480, 2737128257, -6.562597274780273, 1.618155598640442, 9.460968017578125, -65.46571350097656, 40.61838912963867, -30.69752311706543, 0.269775390625, -0.28271484375, -0.894775390625
481, 2737144924, -6.3375701904296875, 1.269023060798645, 9.266432762145996, -44.22072219848633, 18.625789642333984, -20.514020919799805, 0.27978515625, -0.268798828125, -0.897216796875
482, 2737161591, -5.7162394523620605, 2.038141965866089, 8.634419441223145, -28.13542366027832, 10.783958435058594, -15.521589279174805, 0.286376953125, -0.26171875, -0.89697265625
483, 2737178258, -5.309818267822266, 1.6759449243545532, 8.568535804748535, -17.904537200927734, 6.2717604637146, -12.274894714355469, 0.289306640625, -0.254638671875, -0.904052734375
484, 2737194925, -5.339291572570801, 1.4617161750793457, 8.561738014221191, -17.166284561157227, 4.333476543426514, -10.773921012878418, 0.2919921875, -0.250732421875, -0.906494140625
485, 2737211592, -5.216274261474609, 1.545257329940796, 8.464022636413574, -13.118208885192871, 3.697587490081787, -7.518205165863037, 0.293212890625, -0.247314453125, -0.900146484375
486, 2737228259, -5.104994773864746, 1.7040995359420776, 8.357702255249023, -9.89627742767334, 4.009202480316162, -6.003235340118408, 0.29736328125, -0.24365234375, -0.902099609375
487, 2737244926, -5.1908135414123535, 1.7292147874832153, 8.317368507385254, -8.025922775268555, 4.454748630523682, -5.443469047546387, 0.29833984375, -0.245849609375, -0.904052734375
488, 2737261593, -5.219507217407227, 1.787798285484314, 8.259882926940918, -7.716878414154053, 3.2465195655822754, -5.509550094604492, 0.29931640625, -0.243408203125, -0.905517578125
489, 2737278260, -5.164712905883789, 1.7206568717956543, 8.257468223571777, -7.869043827056885, 1.6634749174118042, -6.174826622009277, 0.30078125, -0.2412109375, -0.900390625
490, 2737294927, -5.023312568664551, 1.5977615118026733, 8.214292526245117, -7.759997367858887, 0.7426213622093201, -6.782129287719727, 0.30078125, -0.23779296875, -0.904052734375
491, 2737311594, -5.131211280822754, 1.5596922636032104, 8.224750518798828, -7.414353847503662, 0.6385568380355835, -6.893416881561279, 0.303466796875, -0.23681640625, -0.905029296875
492, 2737328261, -5.176584720611572, 1.6628679037094116, 8.203404426574707, -7.8986639976501465, -0.15458549559116364, -6.976184844970703, 0.301513671875, -0.23681640625, -0.904541015625
493, 2737344928, -5.20125675201416, 1.7447313070297241, 8.187228202819824, -8.783878326416016, -2.0422680377960205, -7.990692138671875, 0.305419921875, -0.234375, -0.906005859375
494, 2737361595, -5.157284259796143, 1.666200041770935, 8.215902328491211, -8.82601261138916, -2.735220193862915, -9.011282920837402, 0.304443359375, -0.233154296875, -0.904052734375
495, 2737378262, -5.092948913574219, 1.687204360961914, 8.222970962524414, -10.239158630371094, -2.7323780059814453, -11.28405475616455, 0.304931640625, -0.230224609375, -0.906494140625
496, 2737394929, -5.214888095855713, 1.6774344444274902, 8.231942176818848, -12.624208450317383, -1.7845799922943115, -13.765946388244629, 0.304931640625, -0.226318359375, -0.908203125
497, 2737411596, -5.271957874298096, 1.5682114362716675, 8.263699531555176, -10.364508628845215, 0.0902528315782547, -14.04998779296875, 0.304443359375, -0.22216796875, -0.9111328125
498, 2737428263, -5.213160037994385, 1.4421164989471436, 8.328032493591309, -6.127241134643555, 3.7067301273345947, -12.673582077026367, 0.307861328125, -0.220703125, -0.908203125
499, 2737444930, -5.012737274169922, 1.411780834197998, 8.436071395874023, -3.5794801712036133, 9.874171257019043, -11.222163200378418, 0.3115234375, -0.2216796875, -0.906982421875
500, 2737461597, -5.017537593841553, 1.3807215690612793, 8.305767059326172, -1.2846711874008179, 18.869041442871094, -10.927945137023926, 0.3154296875, -0.2177734375, -0.906982421875
501, 2737478264, -4.730136871337891, 1.145371675491333, 8.248790740966797, 4.711329936981201, 34.58689498901367, -10.35111141204834, 0.323974609375, -0.219970703125, -0.905517578125
502, 2737494931, -5.19961404800415, 1.119964599609375, 8.263317108154297, 11.908544540405273, 50.85165786743164, -10.014920234680176, 0.339599609375, -0.224365234375, -0.89990234375
503, 2737511598, -5.125607967376709, 1.1474603414535522, 8.309839248657227, 16.33444595336914, 68.03633117675781, -7.375357151031494, 0.35546875, -0.2275390625, -0.892333984375
504, 2737528265, -5.320779800415039, 1.3411893844604492, 8.327805519104004, 16.484390258789062, 87.34600067138672, -7.902520656585693, 0.376708984375, -0.229248046875, -0.888671875
505, 2737544932, -5.5238823890686035, 1.2221838235855103, 8.00561809539795, 16.555416107177734, 106.30609893798828, -7.571667671203613, 0.403564453125, -0.23681640625, -0.87158203125
506, 2737561599, -5.678380012512207, 1.56898832321167, 7.834690093994141, 17.51207160949707, 124.67302703857422, -9.658656120300293, 0.43359375, -0.238525390625, -0.85791015625
507, 2737578266, -5.702478408813477, 1.6111072301864624, 7.67818546295166, 15.90036678314209, 146.16073608398438, -16.155956268310547, 0.46875, -0.24365234375, -0.838134765625
508, 2737594933, -6.004166126251221, 1.4369677305221558, 7.466536521911621, 15.73598575592041, 167.8481903076172, -19.896800994873047, 0.50927734375, -0.2451171875, -0.819091796875
509, 2737611600, -6.116456508636475, 1.3774449825286865, 7.489898204803467, 14.639888763427734, 198.25082397460938, -18.41629981994629, 0.55712890625, -0.247314453125, -0.790283203125
510, 2737628267, -6.444376468658447, 1.8252135515213013, 7.200246334075928, 8.738450050354004, 240.58384704589844, -21.46255874633789, 0.610107421875, -0.24853515625, -0.751708984375
511, 2737644934, -7.02129602432251, 1.6093426942825317, 7.117281436920166, -4.474093914031982, 298.2865295410156, -24.684913635253906, 0.6708984375, -0.24365234375, -0.700927734375
512, 2737661601, -7.4175543785095215, 2.3309521675109863, 7.849741458892822, -6.6575398445129395, 379.54620361328125, -26.67328643798828, 0.742919921875, -0.23828125, -0.637451171875
513, 2737678268, -11.092657089233398, 2.5318918228149414, 9.583139419555664, 14.0796537399292, 443.44873046875, -40.32012939453125, 0.8203125, -0.235595703125, -0.542236328125
514, 2737694935, -16.998559951782227, 1.9328776597976685, 10.509859085083008, 36.37007141113281, 445.2652282714844, -54.37963104248047, 0.88720703125, -0.22705078125, -0.440185546875
515, 2737711602, -15.717777252197266, 2.8567440509796143, 9.657376289367676, 46.1743049621582, 445.3467712402344, -60.531150817871094, 0.9306640625, -0.215576171875, -0.33447265625
516, 2737728269, -16.063276290893555, 4.718486309051514, 10.415810585021973, 26.19032096862793, 452.7555236816406, -82.76679992675781, 0.960205078125, -0.196044921875, -0.22216796875
517, 2737744936, -12.757200241088867, 3.380707263946533, 11.177448272705078, 29.325393676757812, 416.4792175292969, -87.654296875, 0.97216796875, -0.1689453125, -0.126220703125
518, 2737761603, -7.936605930328369, 2.0689196586608887, 14.469586372375488, 74.84074401855469, 346.5223083496094, -50.150875091552734, 0.968505859375, -0.15185546875, -0.04248046875
519, 2737778270, -25.07625389099121, 6.138439655303955, 21.29729461669922, 92.77194213867188, 187.24961853027344, -55.85163116455078, 0.946533203125, -0.138916015625, -0.01025390625
520, 2737794937, -19.433345794677734, 6.169337749481201, 28.412208557128906, 91.39556884765625, -84.21136474609375, -24.71649742126465, 0.91259765625, -0.125732421875, -0.040771484375
521, 2737811604, -4.330783367156982, 6.134133338928223, 14.012798309326172, 41.9869384765625, -231.34815979003906, -9.445871353149414, 0.854248046875, -0.124267578125, -0.1103515625
522, 2737828271, -1.7717870473861694, 3.4809534549713135, 7.260270595550537, -14.228987693786621, -238.15353393554688, -38.046051025390625, 0.794189453125, -0.109619140625, -0.15576171875
523, 2737844938, -2.31501841545105, 2.9097161293029785, 6.720697402954102, -47.54610061645508, -238.79664611816406, -46.5776252746582, 0.741455078125, -0.087646484375, -0.175537109375
524, 2737861605, -5.32936429977417, 3.6296346187591553, 8.746504783630371, -57.75259017944336, -274.7312927246094, -41.992820739746094, 0.715576171875, -0.066162109375, -0.189697265625
525, 2737878272, -8.020390510559082, 3.5056326389312744, 9.736680030822754, -57.14714813232422, -338.6905822753906, -28.90265655517578, 0.713623046875, -0.049072265625, -0.219482421875
526, 2737894939, -7.456945419311523, 3.1640102863311768, 7.556116104125977, -39.45100021362305, -394.50634765625, -4.92118501663208, 0.71728515625, -0.0419921875, -0.279052734375
527, 2737911606, -6.712520122528076, 3.3512325286865234, 5.662731647491455, -25.870405197143555, -411.331298828125, 14.28852367401123, 0.716796875, -0.04248046875, -0.361328125
528, 2737928273, -8.034441947937012, 3.4703378677368164, 5.92916202545166, -17.16455078125, -413.2485046386719, 33.50141525268555, 0.706298828125, -0.05517578125, -0.4541015625
529, 2737944940, -8.634227752685547, 3.0430212020874023, 6.738460540771484, -10.983182907104492, -420.40313720703125, 48.378326416015625, 0.689453125, -0.0751953125, -0.564453125
530, 2737961607, -8.927139282226562, 1.3805830478668213, 6.300713062286377, 6.615990161895752, -413.65557861328125, 56.1446418762207, 0.6396484375, -0.11328125, -0.69775390625
531, 2737978274, -9.657194137573242, -0.902522087097168, 5.806543350219727, 47.411949157714844, -374.63092041015625, 55.68335723876953, 0.530517578125, -0.1650390625, -0.82470703125
532, 2737994941, -12.70467758178711, -1.1700750589370728, 8.064878463745117, 96.40731048583984, -313.6722717285156, 50.093753814697266, 0.384521484375, -0.215087890625, -0.88818359375
533, 2738011608, -18.601062774658203, 0.5237815380096436, 14.125458717346191, 111.30277252197266, -287.62939453125, 34.05464553833008, 0.243408203125, -0.253173828125, -0.8828125
534, 2738028275, -20.280357360839844, 1.018250823020935, 11.666461944580078, 109.36102294921875, -294.9356689453125, 21.822595596313477, 0.135986328125, -0.27587890625, -0.849853515625
535, 2738044942, -19.990327835083008, 0.5555380582809448, 7.229580879211426, 113.29412841796875, -254.91424560546875, 26.24530601501465, 0.062744140625, -0.296142578125, -0.81640625
536, 2738061609, -24.06624984741211, 2.920447826385498, 7.745205879211426, 92.00231170654297, -230.8322296142578, 43.59437942504883, 0.003173828125, -0.314697265625, -0.78564453125
537, 2738078276, -23.827810287475586, -0.2431769073009491, 4.44619607925415, 32.254512786865234, -228.3737030029297, 46.95478439331055, -0.05419921875, -0.314208984375, -0.759765625
538, 2738094943, -22.22157096862793, -4.009143352508545, -0.39990007877349854, 40.066612243652344, -211.2268829345703, 66.49585723876953, -0.09521484375, -0.311279296875, -0.73388671875
539, 2738111610, -21.69011688232422, -3.1533119678497314, -3.8966922760009766, 38.28512954711914, -168.5621795654297, 78.35954284667969, -0.123291015625, -0.314453125, -0.71142578125
540, 2738128277, -21.69523811340332, -4.0090107917785645, -6.308839797973633, -12.052178382873535, -120.47340393066406, 71.37770080566406, -0.137451171875, -0.30810546875, -0.702880859375
541, 2738144944, -20.382612228393555, -6.578975200653076, -9.462713241577148, -42.94685363769531, -66.84374237060547, 55.63235092163086, -0.14794921875, -0.295654296875, -0.701171875
542, 2738161611, -19.805450439453125, -8.213112831115723, -8.20765209197998, -26.950786590576172, 0.0468013696372509, 51.843868255615234, -0.148193359375, -0.284912109375, -0.701416015625
543, 2738178278, -10.662949562072754, -8.958234786987305, -5.015965938568115, -10.618376731872559, 90.169921875, 42.701873779296875, -0.130615234375, -0.275146484375, -0.703125
544, 2738194945, 2.246835470199585, -3.3442018032073975, 20.767000198364258, 15.827584266662598, 113.1427993774414, -27.520780563354492, -0.10986328125, -0.271240234375, -0.697021484375
545, 2738211612, -4.085535049438477, 5.242834568023682, 7.716527938842773, 34.03730392456055, 179.5782470703125, -76.1328125, -0.064697265625, -0.2744140625, -0.69140625
546, 2738228279, -10.450721740722656, 3.362457275390625, 9.646282196044922, 34.48457717895508, 216.4901580810547, -27.501401901245117, -0.012451171875, -0.2763671875, -0.68017578125
547, 2738244946, -10.460582733154297, 1.4322681427001953, 12.892802238464355, 24.43035316467285, 168.83273315429688, -20.756092071533203, 0.031005859375, -0.279541015625, -0.671630859375
548, 2738261613, -6.590640544891357, 5.345843315124512, 8.883736610412598, 19.033437728881836, 150.05287170410156, -18.73350715637207, 0.065673828125, -0.27880859375, -0.660400390625
549, 2738278280, -13.175915718078613, 8.46142292022705, 12.082073211669922, -36.33131790161133, 118.52867126464844, -46.96643829345703, 0.095703125, -0.269287109375, -0.65625
550, 2738294947, -7.156181335449219, -2.7441070079803467, 11.861737251281738, -54.398860931396484, 66.16519165039062, -39.433204650878906, 0.118896484375, -0.2548828125, -0.6572265625
551, 2738311614, -6.289916515350342, 2.450143337249756, 9.07320785522461, -53.49101638793945, 29.905393600463867, -24.814376831054688, 0.12744140625, -0.240966796875, -0.65625
552, 2738328281, -6.213642597198486, 0.6725611686706543, 9.412428855895996, -37.961055755615234, 14.448705673217773, -19.01074981689453, 0.1337890625, -0.23388671875, -0.656005859375
553, 2738344948, -5.393912315368652, 1.7798246145248413, 8.645750045776367, -22.94724464416504, 6.510733604431152, -13.882312774658203, 0.13720703125, -0.2265625, -0.656005859375
554, 2738361615, -5.253348350524902, 1.701283574104309, 8.5623197555542, -16.185306549072266, -0.11027564853429794, -13.14608383178711, 0.137451171875, -0.22607421875, -0.656982421875
555, 2738378282, -5.329447269439697, 1.545812964439392, 8.462312698364258, -18.254987716674805, -1.9476318359375, -13.906927108764648, 0.1376953125, -0.220458984375, -0.65625
556, 2738394949, -5.157358169555664, 1.1805163621902466, 8.544793128967285, -14.389432907104492, -0.053863558918237686, -9.627541542053223, 0.138427734375, -0.217529296875, -0.66064453125
557, 2738411616, -5.003993034362793, 1.4494181871414185, 8.424917221069336, -9.725722312927246, 2.5341789722442627, -5.770312786102295, 0.138916015625, -0.216552734375, -0.66015625
558, 2738428283, -4.993701934814453, 1.6928304433822632, 8.286030769348145, -8.81902027130127, 2.0447587966918945, -5.685446262359619, 0.142822265625, -0.216064453125, -0.658447265625
559, 2738444950, -5.10371208190918, 1.7394460439682007, 8.288980484008789, -11.22227668762207, -0.39602383971214294, -8.350476264953613, 0.140380859375, -0.214111328125, -0.66015625
560, 2738461617, -5.130237579345703, 1.5505411624908447, 8.346364974975586, -14.556314468383789, -3.499210834503174, -10.959789276123047, 0.143310546875, -0.21044921875, -0.65966796875
561, 2738478284, -5.1850266456604, 1.3630146980285645, 8.378110885620117, -14.375016212463379, -5.288221836090088, -11.038727760314941, 0.143798828125, -0.20849609375, -0.6611328125
562, 2738494951, -5.167487621307373, 1.3542026281356812, 8.356471061706543, -12.881025314331055, -5.164666175842285, -9.808959007263184, 0.141845703125, -0.20458984375, -0.662841796875
563, 2738511618, -5.061322212219238, 1.332167148590088, 8.340895652770996, -10.35299301147461, -3.3396549224853516, -8.217109680175781, 0.143798828125, -0.202880859375, -0.662353515625
564, 2738528285, -5.01247501373291, 1.461856722831726, 8.34514045715332, -10.339584350585938, -1.9094024896621704, -8.612557411193848, 0.143310546875, -0.203125, -0.661865234375
565, 2738544952, -5.0880045890808105, 1.4864503145217896, 8.339154243469238, -11.213274002075195, -1.8908718824386597, -10.640995979309082, 0.142822265625, -0.198974609375, -0.661865234375
566, 2738561619, -5.08168888092041, 1.306349515914917, 8.327285766601562, -10.330928802490234, -0.7278366088867188, -10.930291175842285, 0.144287109375, -0.197509765625, -0.661865234375
567, 2738578286, -5.093936920166016, 1.214971899986267, 8.347840309143066, -7.731428623199463, 2.4613242149353027, -10.196831703186035, 0.145263671875, -0.195556640625, -0.662841796875
568, 2738594953, -5.025139331817627, 1.2571523189544678, 8.36187744140625, -4.687574863433838, 5.975491046905518, -9.495567321777344, 0.146728515625, -0.19140625, -0.662841796875
569, 2738611620, -4.998203754425049, 1.307055115699768, 8.393097877502441, -2.860159158706665, 9.310445785522461, -8.962145805358887, 0.14892578125, -0.192626953125, -0.663818359375
570, 2738628287, -5.0263166427612305, 1.3254424333572388, 8.402178764343262, -2.4003608226776123, 14.681107521057129, -9.812466621398926, 0.1552734375, -0.193603515625, -0.6611328125
571, 2738644954, -5.014877796173096, 1.2999550104141235, 8.422330856323242, -1.149833083152771, 21.296981811523438, -11.040464401245117, 0.160400390625, -0.192626953125, -0.658935546875
572, 2738661621, -4.727174282073975, 0.8594739437103271, 8.352126121520996, 3.1345410346984863, 34.022735595703125, -11.262595176696777, 0.166748046875, -0.191162109375, -0.6572265625
573, 2738678288, -5.03761625289917, 0.9382199645042419, 8.424873352050781, 11.08006763458252, 50.99567794799805, -10.808141708374023, 0.17529296875, -0.193603515625, -0.65380859375
574, 2738694955, -5.001820087432861, 0.9020185470581055, 8.544210433959961, 13.131529808044434, 67.92472839355469, -7.957797050476074, 0.18994140625, -0.194580078125, -0.647705078125
575, 2738711622, -5.218082904815674, 1.0626639127731323, 8.282231330871582, 15.714479446411133, 87.51994323730469, -6.803077697753906, 0.20751953125, -0.19921875, -0.642578125
576, 2738728289, -5.516590118408203, 1.3496012687683105, 8.042887687683105, 15.161992073059082, 105.65006256103516, -8.717366218566895, 0.2255859375, -0.200927734375, -0.635498046875
577, 2738744956, -5.652851104736328, 1.5186448097229004, 7.942582607269287, 13.522600173950195, 122.955810546875, -14.86939525604248, 0.251953125, -0.205078125, -0.6259765625
578, 2738761623, -5.7111735343933105, 1.5051965713500977, 7.85245418548584, 11.882620811462402, 144.07725524902344, -23.092805862426758, 0.279052734375, -0.20263671875, -0.612548828125
579, 2738778290, -5.958242416381836, 1.1777926683425903, 7.685662269592285, 10.773606300354004, 167.85838317871094, -27.632823944091797, 0.30908203125, -0.20068359375, -0.59765625
580, 2738794957, -6.136419296264648, 1.0471651554107666, 7.757846832275391, 7.7109479904174805, 201.05950927734375, -28.57172966003418, 0.345458984375, -0.201416015625, -0.57666015625
581, 2738811624, -6.513521194458008, 1.4422882795333862, 7.231489658355713, -0.7271608114242554, 245.0577850341797, -35.405364990234375, 0.387939453125, -0.196044921875, -0.549560546875
582, 2738828291, -6.714692115783691, 1.3936423063278198, 7.248536586761475, -10.899391174316406, 303.2801208496094, -42.45524215698242, 0.437255859375, -0.189697265625, -0.511962890625
583, 2738844958, -7.555147171020508, 2.342993974685669, 8.042872428894043, -18.271041870117188, 384.02105712890625, -50.94051742553711, 0.49658203125, -0.181640625, -0.462158203125
584, 2738861625, -11.233473777770996, 2.6973769664764404, 9.594352722167969, -12.408147811889648, 452.1469421386719, -64.5895004272461, 0.55712890625, -0.171142578125, -0.392578125
585, 2738878292, -17.49925422668457, 1.5445579290390015, 11.04369831085205, 7.979407787322998, 451.6951904296875, -80.93112182617188, 0.619140625, -0.156005859375, -0.313232421875
586, 2738894959, -17.235891342163086, 2.6823575496673584, 10.576261520385742, 12.236421585083008, 438.0359802246094, -89.61489868164062, 0.66748046875, -0.145751953125, -0.22998046875
587, 2738911626, -15.813983917236328, 4.591709136962891, 11.472414016723633, -5.188682556152344, 430.0479736328125, -111.06599426269531, 0.711181640625, -0.12939453125, -0.143310546875
588, 2738928293, -10.838713645935059, 4.0694661140441895, 12.088296890258789, -23.51576805114746, 396.8545227050781, -121.3963851928711, 0.747314453125, -0.109619140625, -0.0556640625
589, 2738944960, -6.206349849700928, 1.086361050605774, 16.66486358642578, -12.02884292602539, 321.5641174316406, -94.56143951416016, 0.7705078125, -0.089111328125, 0.025146484375
590, 2738961627, -28.728837966918945, 1.9919052124023438, 24.345243453979492, 53.907691955566406, 156.55078125, -93.91835021972656, 0.791015625, -0.071533203125, 0.076904296875
591, 2738978294, -16.537837982177734, 6.560898303985596, 26.34181785583496, 97.11798858642578, -140.15032958984375, -32.10252380371094, 0.822021484375, -0.061279296875, 0.0595703125
592, 2738994961, -2.699807643890381, 5.6784491539001465, 11.486653327941895, 43.178611755371094, -241.04721069335938, -25.008508682250977, 0.84912109375, -0.061279296875, -0.002685546875
593, 2739011628, -1.4166940450668335, 3.531886339187622, 7.019388675689697, 0.14404287934303284, -238.18569946289062, -22.938880920410156, 0.86865234375, -0.059326171875, -0.0712890625
594, 2739028295, -3.2312674522399902, 3.340743064880371, 7.5721588134765625, -26.11603355407715, -240.9208526611328, -6.575706481933594, 0.88330078125, -0.059814453125, -0.1435546875
595, 2739044962, -5.321997165679932, 4.011454105377197, 8.700796127319336, -42.41285705566406, -286.6533508300781, 8.950648307800293, 0.891357421875, -0.064208984375, -0.23828125
596, 2739061629, -5.6480560302734375, 2.8585689067840576, 7.662694931030273, -48.853233337402344, -328.0361022949219, 25.166637420654297, 0.877197265625, -0.068115234375, -0.3564453125
597, 2739078296, -7.5942277908325195, 2.280822515487671, 7.877347946166992, -32.25248336791992, -358.8158874511719, 47.003257751464844, 0.8212890625, -0.0791015625, -0.4853515625
598, 2739094963, -8.771679878234863, 2.4500625133514404, 7.729763984680176, -8.706995010375977, -396.5705261230469, 69.45381164550781, 0.716552734375, -0.09326171875, -0.6015625
599, 2739111630, -7.750866889953613, 2.605621337890625, 6.967894077301025, 0.10707203298807144, -419.1469421386719, 77.61639404296875, 0.58349609375, -0.100341796875, -0.6689453125
600, 2739128297, -8.548812866210938, 1.4716322422027588, 6.73006534576416, 11.113629341125488, -425.2214050292969, 82.24150848388672, 0.4609375, -0.091552734375, -0.69140625
601, 2739144964, -9.599893569946289, 0.6353957056999207, 5.908544540405273, 36.57114028930664, -413.1703186035156, 82.01043701171875, 0.3720703125, -0.0849609375, -0.697509765625
602, 2739161631, -11.024614334106445, -1.0728087425231934, 5.173917770385742, 56.34517288208008, -352.8695373535156, 65.46546173095703, 0.3203125, -0.07958984375, -0.705078125
603, 2739178298, -13.947604179382324, -1.7144825458526611, 8.949463844299316, 96.53644561767578, -292.1612548828125, 52.87540817260742, 0.302001953125, -0.090087890625, -0.71875
604, 2739194965, -17.125131607055664, 0.7296220660209656, 12.41965389251709, 114.59325408935547, -275.1114501953125, 40.4255485534668, 0.290283203125, -0.12841796875, -0.759033203125
605, 2739211632, -18.334972381591797, 1.196726679801941, 10.461067199707031, 116.78085327148438, -268.1642761230469, 36.37382888793945, 0.2529296875, -0.185302734375, -0.81787109375
606, 2739228299, -18.664579391479492, 1.8796930313110352, 8.591520309448242, 123.99589538574219, -237.49806213378906, 50.48219680786133, 0.1787109375, -0.2470703125, -0.8642578125
607, 2739244966, -21.73577117919922, 3.096811532974243, 8.711020469665527, 92.45170593261719, -222.56826782226562, 61.622806549072266, 0.0849609375, -0.29833984375, -0.873291015625
608, 2739261633, -21.427371978759766, -0.7729827761650085, 5.17708158493042, 40.42573928833008, -219.8604278564453, 57.85920333862305, -0.010009765625, -0.318603515625, -0.85888671875
609, 2739278300, -20.058277130126953, -3.5401506423950195, 1.072741985321045, 26.5718994140625, -190.95779418945312, 50.78654861450195, -0.078125, -0.328125, -0.838134765625
610, 2739294967, -19.961124420166016, -3.0575759410858154, -0.9092671871185303, 21.812992095947266, -150.2296600341797, 46.914573669433594, -0.12353515625, -0.330078125, -0.81787109375
611, 2739311634, -19.27764320373535, -3.8522047996520996, -4.388189315795898, 13.332048416137695, -108.38900756835938, 51.15300750732422, -0.154296875, -0.335205078125, -0.79833984375
612, 2739328301, -18.732669830322266, -5.635830402374268, -8.389955520629883, 13.807944297790527, -46.39384460449219, 52.512088775634766, -0.171630859375, -0.336181640625, -0.786865234375
613, 2739344968, -20.539478302001953, -5.981665134429932, -6.447649002075195, 18.93174171447754, 12.833600997924805, 54.872066497802734, -0.170654296875, -0.3349609375, -0.77978515625
614, 2739361635, -20.843948364257812, -4.445041656494141, -2.857147693634033, -1.8355339765548706, 37.51337432861328, 50.464473724365234, -0.169189453125, -0.3349609375, -0.779052734375
615, 2739378302, -6.2148895263671875, -4.140016555786133, 3.969869375228882, -71.44631958007812, 53.90938186645508, -2.5981359481811523, -0.162109375, -0.31494140625, -0.784912109375
616, 2739394969, 5.920470714569092, 1.8154888153076172, 17.383089065551758, 6.685824871063232, 104.2544174194336, -16.074190139770508, -0.14501953125, -0.30810546875, -0.788330078125
617, 2739411636, -2.256762742996216, 5.954843997955322, 5.640264987945557, 42.363014221191406, 202.61505126953125, -42.611358642578125, -0.100341796875, -0.318359375, -0.7822265625
618, 2739428303, -14.818138122558594, -3.367943048477173, 14.238991737365723, 32.91392517089844, 214.2296905517578, -31.907888412475586, -0.04345703125, -0.3193359375, -0.787109375
619, 2739444970, -9.644417762756348, 2.6012966632843018, 12.298182487487793, 24.646455764770508, 137.05165100097656, -26.084304809570312, -0.00634765625, -0.321533203125, -0.77783203125
620, 2739461637, -6.709318161010742, 6.9231085777282715, 8.753501892089844, 19.138404846191406, 129.0003662109375, -16.49215316772461, 0.024169921875, -0.32470703125, -0.771240234375
621, 2739478304, -10.796148300170898, 5.997703552246094, 11.389528274536133, -28.89470672607422, 100.41558074951172, -37.48819351196289, 0.0498046875, -0.318603515625, -0.772216796875
622, 2739494971, -6.717189311981201, 0.8273552060127258, 9.92714786529541, -42.2501106262207, 64.77212524414062, -35.335227966308594, 0.069091796875, -0.306640625, -0.77734375
623, 2739511638, -6.378346920013428, 1.281449794769287, 9.82425594329834, -44.48647689819336, 35.051124572753906, -25.268985748291016, 0.08203125, -0.294189453125, -0.776611328125
624, 2739528305, -5.841862678527832, 1.4325307607650757, 9.296809196472168, -39.36079025268555, 20.75278663635254, -18.452064514160156, 0.091064453125, -0.28515625, -0.779541015625
625, 2739544972, -5.575689315795898, 1.6816271543502808, 8.867875099182129, -28.075721740722656, 10.795811653137207, -12.586627006530762, 0.093017578125, -0.279296875, -0.782470703125
626, 2739561639, -5.395364761352539, 2.0866355895996094, 8.487302780151367, -19.514644622802734, 4.871806621551514, -9.767023086547852, 0.0966796875, -0.274169921875, -0.782470703125
627, 2739578306, -5.2010498046875, 1.7619761228561401, 8.499418258666992, -14.992115020751953, 3.0125880241394043, -8.417301177978516, 0.09521484375, -0.270263671875, -0.783447265625
628, 2739594973, -5.150744915008545, 1.7872178554534912, 8.404084205627441, -8.944315910339355, 1.99001145362854, -5.78188943862915, 0.09716796875, -0.267578125, -0.783935546875
629, 2739611640, -4.954290866851807, 1.8290808200836182, 8.302872657775879, -8.126309394836426, 2.5744802951812744, -4.571086883544922, 0.099609375, -0.267822265625, -0.785888671875
630, 2739628307, -4.594357490539551, 1.874789834022522, 8.184361457824707, -7.987861156463623, 4.357932090759277, -4.185693264007568, 0.10009765625, -0.26513671875, -0.781982421875
631, 2739644974, -4.79604434967041, 2.1267919540405273, 8.149567604064941, -9.40295124053955, 5.3527936935424805, -5.4524335861206055, 0.10302734375, -0.26416015625, -0.782470703125
632, 2739661641, -4.856009483337402, 1.9264498949050903, 8.261826515197754, -11.094622611999512, 4.2978715896606445, -7.557839393615723, 0.104736328125, -0.2626953125, -0.785888671875
633, 2739678308, -5.187299728393555, 1.8461138010025024, 8.292282104492188, -12.592340469360352, 2.90803599357605, -8.565776824951172, 0.107666015625, -0.25634765625, -0.785400390625
634, 2739694975, -5.353236675262451, 1.860422968864441, 8.291934967041016, -11.74239444732666, 1.1665503978729248, -8.385526657104492, 0.106201171875, -0.255859375, -0.78857421875
635, 2739711642, -5.258838176727295, 1.8110854625701904, 8.289852142333984, -9.510217666625977, 0.052320368587970734, -7.2653279304504395, 0.106689453125, -0.253662109375, -0.785888671875
636, 2739728309, -5.109331130981445, 1.746057152748108, 8.298089027404785, -7.845492839813232, -0.2684724032878876, -6.388474941253662, 0.106689453125, -0.251220703125, -0.783935546875
637, 2739744976, -5.131927013397217, 1.7599432468414307, 8.31119441986084, -6.792476177215576, 0.07304102927446365, -6.164184093475342, 0.109130859375, -0.252197265625, -0.786865234375
638, 2739761643, -5.183932781219482, 1.7562097311019897, 8.246758460998535, -6.305746555328369, 0.3647570013999939, -6.291749000549316, 0.109619140625, -0.250732421875, -0.787841796875
639, 2739778310, -5.141113758087158, 1.7965519428253174, 8.229299545288086, -6.7023844718933105, -0.14094673097133636, -7.032378673553467, 0.108154296875, -0.249267578125, -0.785400390625
640, 2739794977, -5.125903606414795, 1.7185436487197876, 8.240157127380371, -8.037063598632812, -0.3604220747947693, -8.515381813049316, 0.109130859375, -0.24658203125, -0.785888671875
641, 2739811644, -5.119851589202881, 1.8955703973770142, 8.206388473510742, -10.752142906188965, 0.1963662952184677, -11.141853332519531, 0.113037109375, -0.245361328125, -0.788818359375
642, 2739828311, -5.192142009735107, 1.7526557445526123, 8.255435943603516, -8.825836181640625, 0.3065394461154938, -12.006103515625, 0.112060546875, -0.24267578125, -0.785400390625
643, 2739844978, -5.128127098083496, 1.6141772270202637, 8.277318954467773, -5.29800271987915, 2.814894914627075, -11.417072296142578, 0.114501953125, -0.24169921875, -0.786376953125
644, 2739861645, -5.034695625305176, 1.6449971199035645, 8.30884075164795, -4.160888671875, 7.7958269119262695, -11.323075294494629, 0.11669921875, -0.24267578125, -0.784912109375
645, 2739878312, -4.823270320892334, 1.7689361572265625, 8.375553131103516, -4.198541641235352, 15.196603775024414, -11.32621955871582, 0.12060546875, -0.23828125, -0.787353515625
646, 2739894979, -4.783222675323486, 1.2121883630752563, 8.30162525177002, -0.00613426323980093, 29.642955780029297, -10.51191234588623, 0.125732421875, -0.23974609375, -0.78515625
647, 2739911646, -5.024489879608154, 1.2260327339172363, 8.291110038757324, 9.066899299621582, 46.87894058227539, -8.441987991333008, 0.13671875, -0.241455078125, -0.7822265625
648, 2739928313, -4.986891746520996, 1.4370207786560059, 8.249726295471191, 14.23457145690918, 65.87599182128906, -6.999653339385986, 0.151123046875, -0.243896484375, -0.776611328125
649, 2739944980, -5.238101959228516, 1.8301005363464355, 8.202552795410156, 15.84533405303955, 85.45491790771484, -10.038810729980469, 0.169921875, -0.24853515625, -0.77197265625
650, 2739961647, -5.387646198272705, 1.8210492134094238, 8.210261344909668, 11.68804931640625, 103.63892364501953, -15.019912719726562, 0.1953125, -0.251220703125, -0.76513671875
651, 2739978314, -5.547283172607422, 1.6099063158035278, 7.909885406494141, 11.363387107849121, 122.96927642822266, -20.33710479736328, 0.222900390625, -0.251220703125, -0.757080078125
652, 2739994981, -5.6864542961120605, 1.4103585481643677, 7.7215704917907715, 13.19027042388916, 144.38771057128906, -23.6367244720459, 0.25390625, -0.25048828125, -0.74609375
653, 2740011648, -5.658757209777832, 1.3538522720336914, 7.80268669128418, 15.141508102416992, 172.54067993164062, -23.646589279174805, 0.29345703125, -0.252197265625, -0.728759765625
654, 2740028315, -5.772247314453125, 1.7991167306900024, 7.734046936035156, 11.90461254119873, 212.71875, -27.479278564453125, 0.333984375, -0.252197265625, -0.707275390625
