sep=,
DeviceTag:,A,,,,,,,,,,,,,,,,,
FirmwareVersion:,2.2.1,,,,,,,,,,,,,,,,,
AppVersion:,2022.0.1,,,,,,,,,,,,,,,,,
SyncStatus:,Synced,,,,,,,,,,,,,,,,,
OutputRate:,60Hz,,,,,,,,,,,,,,,,,
FilterProfile:,General,,,,,,,,,,,,,,,,,
Measurement Mode:,Inertial Mode - Rate quantities (with mag),,,,,,,,,,,,,,,,,
StartTime:,2022-08-05 15:17:00.461 +0300,,,,,,,,,,,,,,,,,
© Xsens Technologies B. V. 2005-2022,,,,,,,,,,,,,,,,,,,

PacketCounter,SampleTimeFine,Acc_X,Acc_Y,Acc_Z,Gyr_X,Gyr_Y,Gyr_Z,Mag_X,Mag_Y,Mag_Z
1, 2362520765, -5.048773765563965, 1.4382588863372803, 8.326228141784668, -2.6686131954193115, -1.29771888256073, -2.5760490894317627, 0.036376953125, -0.134033203125, -0.844970703125
2, 2362537432, -5.028988838195801, 1.4382197856903076, 8.326610565185547, -2.559643507003784, -1.1599478721618652, -2.548553228378296, 0.03955078125, -0.134765625, -0.846435546875
3, 2362554099, -5.049671649932861, 1.4560182094573975, 8.29259967803955, -2.605516195297241, -1.1911956071853638, -2.6067070960998535, 0.0400390625, -0.13623046875, -0.846435546875
4, 2362570766, -5.059790134429932, 1.4492560625076294, 8.296401023864746, -2.698438882827759, -1.2868461608886719, -2.620102643966675, 0.0400390625, -0.134765625, -0.846923828125
5, 2362587433, -5.056094646453857, 1.4410316944122314, 8.291829109191895, -2.8051540851593018, -1.3634791374206543, -2.7000393867492676, 0.038330078125, -0.134033203125, -0.844970703125
6, 2362604100, -5.065976619720459, 1.4383472204208374, 8.304183959960938, -2.791694402694702, -1.381344199180603, -2.672569751739502, 0.037841796875, -0.134521484375, -0.845458984375
7, 2362620767, -5.0520806312561035, 1.4356752634048462, 8.306248664855957, -2.663196325302124, -1.3841747045516968, -2.607731819152832, 0.0400390625, -0.1337890625, -0.85302734375
8, 2362637434, -5.054141998291016, 1.4454894065856934, 8.306930541992188, -2.588484048843384, -1.2841057777404785, -2.5265395641326904, 0.03955078125, -0.13427734375, -0.845947265625
9, 2362654101, -5.06519079208374, 1.446570634841919, 8.300841331481934, -2.4570393562316895, -1.3367524147033691, -2.4607017040252686, 0.03955078125, -0.13623046875, -0.844482421875
10, 2362670768, -5.069341659545898, 1.4395420551300049, 8.296509742736816, -2.5248489379882812, -1.4462851285934448, -2.4030091762542725, 0.03857421875, -0.13525390625, -0.845458984375
11, 2362687435, -5.062911510467529, 1.4401189088821411, 8.310880661010742, -2.5602970123291016, -1.4463493824005127, -2.5264885425567627, 0.0390625, -0.1357421875, -0.845458984375
12, 2362704102, -5.056730270385742, 1.4283473491668701, 8.301456451416016, -2.5541372299194336, -1.4501913785934448, -2.4874930381774902, 0.038330078125, -0.134033203125, -0.846435546875
13, 2362720769, -5.054995536804199, 1.4349020719528198, 8.322846412658691, -2.492102861404419, -1.4739723205566406, -2.369161605834961, 0.03857421875, -0.134765625, -0.846435546875
14, 2362737436, -5.054231643676758, 1.4436285495758057, 8.309063911437988, -2.3968491554260254, -1.34565269947052, -2.416532516479492, 0.03955078125, -0.13427734375, -0.846923828125
15, 2362754103, -5.055373668670654, 1.4350030422210693, 8.30577564239502, -2.43013334274292, -1.3702667951583862, -2.4151368141174316, 0.037841796875, -0.134033203125, -0.844970703125
16, 2362770770, -5.054154872894287, 1.4464380741119385, 8.313918113708496, -2.38564395904541, -1.353989839553833, -2.4643003940582275, 0.0400390625, -0.133544921875, -0.845458984375
17, 2362787437, -5.054437160491943, 1.4490504264831543, 8.318520545959473, -2.552241563796997, -1.3603416681289673, -2.3810715675354004, 0.0400390625, -0.13427734375, -0.844970703125
18, 2362804104, -5.060699939727783, 1.4506828784942627, 8.29470157623291, -2.476914882659912, -1.456376552581787, -2.3948004245758057, 0.037841796875, -0.133056640625, -0.846435546875
19, 2362820771, -5.056817054748535, 1.4435477256774902, 8.294136047363281, -2.4636473655700684, -1.5224831104278564, -2.3970673084259033, 0.0380859375, -0.13525390625, -0.849609375
20, 2362837438, -5.045280933380127, 1.4575406312942505, 8.30482292175293, -2.4756083488464355, -1.4638299942016602, -2.3558051586151123, 0.0380859375, -0.13623046875, -0.846435546875
21, 2362854105, -5.061567783355713, 1.4413354396820068, 8.316404342651367, -2.535439968109131, -1.507717251777649, -2.4140100479125977, 0.0390625, -0.13623046875, -0.845947265625
22, 2362870772, -5.0448994636535645, 1.4425363540649414, 8.316971778869629, -2.4997992515563965, -1.5003405809402466, -2.388538122177124, 0.04052734375, -0.133056640625, -0.844970703125
23, 2362887439, -5.060625076293945, 1.4486361742019653, 8.294443130493164, -2.5018486976623535, -1.5073331594467163, -2.3998074531555176, 0.037841796875, -0.134521484375, -0.846435546875
24, 2362904106, -5.0537543296813965, 1.4494086503982544, 8.309528350830078, -2.461496353149414, -1.6399558782577515, -2.403752326965332, 0.0390625, -0.134033203125, -0.846923828125
25, 2362920773, -5.059337139129639, 1.4334715604782104, 8.298354148864746, -2.5677120685577393, -1.536928653717041, -2.4093358516693115, 0.0380859375, -0.13427734375, -0.847900390625
26, 2362937440, -5.059282302856445, 1.4630666971206665, 8.29543399810791, -2.5653040409088135, -1.5349693298339844, -2.4535303115844727, 0.037841796875, -0.134765625, -0.845458984375
27, 2362954107, -5.065974235534668, 1.441933512687683, 8.296760559082031, -2.520712375640869, -1.395674467086792, -2.421168565750122, 0.037841796875, -0.135009765625, -0.843994140625
28, 2362970774, -5.05541467666626, 1.4498727321624756, 8.284950256347656, -2.5386154651641846, -1.4788516759872437, -2.409245729446411, 0.038818359375, -0.134521484375, -0.844970703125
29, 2362987441, -5.055201530456543, 1.4458446502685547, 8.317252159118652, -2.5302789211273193, -1.4604108333587646, -2.442004680633545, 0.037841796875, -0.134521484375, -0.846435546875
30, 2363004108, -5.051050662994385, 1.4434409141540527, 8.323040962219238, -2.5584142208099365, -1.4474890232086182, -2.42020845413208, 0.0400390625, -0.134765625, -0.847412109375
31, 2363020775, -5.050212383270264, 1.447291612625122, 8.30174732208252, -2.5634469985961914, -1.474459171295166, -2.4566550254821777, 0.037841796875, -0.134765625, -0.845458984375
32, 2363037442, -5.055242538452148, 1.4419547319412231, 8.299576759338379, -2.5640878677368164, -1.4864205121994019, -2.4566681385040283, 0.0400390625, -0.1357421875, -0.847900390625
33, 2363054109, -5.070742130279541, 1.4519500732421875, 8.296234130859375, -2.6014950275421143, -1.5307176113128662, -2.4696667194366455, 0.038330078125, -0.134765625, -0.845947265625
34, 2363070776, -5.043128967285156, 1.4522124528884888, 8.322821617126465, -2.585564136505127, -1.5076533555984497, -2.5132720470428467, 0.036376953125, -0.135009765625, -0.845458984375
35, 2363087443, -5.0564188957214355, 1.4382984638214111, 8.327497482299805, -2.6388769149780273, -1.3522226810455322, -2.4769532680511475, 0.04150390625, -0.134765625, -0.844482421875
36, 2363104110, -5.039121627807617, 1.4429082870483398, 8.30190372467041, -2.452813148498535, -1.2990121841430664, -2.4634039402008057, 0.037841796875, -0.13525390625, -0.846435546875
37, 2363120777, -5.057251930236816, 1.467711091041565, 8.288243293762207, -2.5456724166870117, -1.2494772672653198, -2.5393331050872803, 0.0390625, -0.134033203125, -0.847412109375
38, 2363137444, -5.058767795562744, 1.4559017419815063, 8.30032730102539, -2.5848982334136963, -1.3571019172668457, -2.497225761413574, 0.038330078125, -0.133544921875, -0.845947265625
39, 2363154111, -5.061978340148926, 1.432410478591919, 8.296385765075684, -2.589393377304077, -1.4051769971847534, -2.63749361038208, 0.04052734375, -0.134765625, -0.844970703125
40, 2363170778, -5.064145565032959, 1.4403541088104248, 8.302857398986816, -2.5280630588531494, -1.3907312154769897, -2.5118377208709717, 0.0390625, -0.13525390625, -0.843994140625
41, 2363187445, -5.049798965454102, 1.4360346794128418, 8.306946754455566, -2.5631656646728516, -1.4428660869598389, -2.5217883586883545, 0.03955078125, -0.13623046875, -0.845947265625
42, 2363204112, -5.060529708862305, 1.4332762956619263, 8.30689811706543, -2.580390214920044, -1.384110450744629, -2.53367280960083, 0.0390625, -0.13427734375, -0.847900390625
43, 2363220779, -5.047140121459961, 1.448889970779419, 8.308987617492676, -2.5465686321258545, -1.3870046138763428, -2.540562629699707, 0.03857421875, -0.13427734375, -0.846435546875
44, 2363237446, -5.05469274520874, 1.4254471063613892, 8.309407234191895, -2.509878158569336, -1.3520817756652832, -2.437227725982666, 0.0380859375, -0.13525390625, -0.847412109375
45, 2363254113, -5.0646233558654785, 1.4489389657974243, 8.286661148071289, -2.462225914001465, -1.4114775657653809, -2.3886916637420654, 0.03857421875, -0.13427734375, -0.846435546875
46, 2363270780, -5.0488691329956055, 1.447031021118164, 8.307917594909668, -2.598921060562134, -1.4142054319381714, -2.5200083255767822, 0.0390625, -0.134033203125, -0.844970703125
47, 2363287447, -5.054415225982666, 1.435644268989563, 8.312664031982422, -2.5549697875976562, -1.4805552959442139, -2.494062662124634, 0.0390625, -0.1357421875, -0.845458984375
48, 2363304114, -5.061690330505371, 1.4465553760528564, 8.303489685058594, -2.5181636810302734, -1.4169713258743286, -2.450507879257202, 0.0390625, -0.13525390625, -0.845458984375
49, 2363320781, -5.06098747253418, 1.4533940553665161, 8.314562797546387, -2.538654327392578, -1.4257439374923706, -2.45954966545105, 0.03857421875, -0.133544921875, -0.847412109375
50, 2363337448, -5.064277648925781, 1.4498192071914673, 8.298555374145508, -2.6066813468933105, -1.348124623298645, -2.455540657043457, 0.04052734375, -0.13427734375, -0.846435546875
51, 2363354115, -5.057991027832031, 1.443037986755371, 8.297003746032715, -2.563153028488159, -1.3428229093551636, -2.5054731369018555, 0.04052734375, -0.134765625, -0.844482421875
52, 2363370782, -5.059345722198486, 1.4290333986282349, 8.333754539489746, -2.5402159690856934, -1.3479067087173462, -2.4427855014801025, 0.0400390625, -0.13623046875, -0.844482421875
53, 2363387449, -5.061840534210205, 1.4359558820724487, 8.307294845581055, -2.469909429550171, -1.316044569015503, -2.5293691158294678, 0.038330078125, -0.13525390625, -0.843994140625
54, 2363404116, -5.067759990692139, 1.4410367012023926, 8.30927848815918, -2.5708234310150146, -1.4620882272720337, -2.4970459938049316, 0.04248046875, -0.13525390625, -0.848388671875
55, 2363420783, -5.067668914794922, 1.4425135850906372, 8.294910430908203, -2.53851318359375, -1.3412859439849854, -2.462597370147705, 0.037841796875, -0.134765625, -0.846923828125
56, 2363437450, -5.060053825378418, 1.4496270418167114, 8.308485984802246, -2.529932737350464, -1.3895530700683594, -2.366767406463623, 0.0390625, -0.134765625, -0.846923828125
57, 2363454117, -5.066911220550537, 1.4530413150787354, 8.319513320922852, -2.5245285034179688, -1.4183928966522217, -2.4086310863494873, 0.0400390625, -0.134765625, -0.847412109375
58, 2363470784, -5.05967903137207, 1.4345730543136597, 8.306835174560547, -2.4549903869628906, -1.4102610349655151, -2.4646079540252686, 0.038330078125, -0.134521484375, -0.845947265625
59, 2363487451, -5.054921627044678, 1.4437439441680908, 8.325531959533691, -2.5887014865875244, -1.4391008615493774, -2.4639291763305664, 0.037841796875, -0.13623046875, -0.846435546875
60, 2363504118, -5.058041572570801, 1.429377794265747, 8.293380737304688, -2.5554819107055664, -1.4343241453170776, -2.457500457763672, 0.0390625, -0.13525390625, -0.845947265625
61, 2363520785, -5.064972877502441, 1.4470994472503662, 8.299489974975586, -2.538846254348755, -1.514043927192688, -2.4959068298339844, 0.03955078125, -0.13818359375, -0.848388671875
62, 2363537452, -5.050741195678711, 1.4574601650238037, 8.326071739196777, -2.5602710247039795, -1.4723845720291138, -2.3889477252960205, 0.036865234375, -0.13525390625, -0.846435546875
63, 2363554119, -5.054211139678955, 1.4438982009887695, 8.32742977142334, -2.455092430114746, -1.5289502143859863, -2.3984501361846924, 0.038818359375, -0.133056640625, -0.844970703125
64, 2363570786, -5.0533223152160645, 1.4464904069900513, 8.298357009887695, -2.397873640060425, -1.5104703903198242, -2.4145987033843994, 0.0390625, -0.13623046875, -0.844970703125
65, 2363587453, -5.053645133972168, 1.4281291961669922, 8.29192066192627, -2.4280200004577637, -1.4454271793365479, -2.4450526237487793, 0.0400390625, -0.13427734375, -0.847412109375
66, 2363604120, -5.070962429046631, 1.4587208032608032, 8.315808296203613, -2.498710870742798, -1.4617040157318115, -2.40034556388855, 0.041015625, -0.134765625, -0.846923828125
67, 2363620787, -5.061999797821045, 1.4440034627914429, 8.301124572753906, -2.565714120864868, -1.4259871244430542, -2.419106960296631, 0.037353515625, -0.133544921875, -0.84912109375
68, 2363637454, -5.0673933029174805, 1.4428998231887817, 8.31607437133789, -2.5465939044952393, -1.3278392553329468, -2.463916063308716, 0.0380859375, -0.13623046875, -0.846435546875
69, 2363654121, -5.065563678741455, 1.4481159448623657, 8.310846328735352, -2.6026601791381836, -1.2840800285339355, -2.4371635913848877, 0.03857421875, -0.134765625, -0.845947265625
70, 2363670788, -5.062105178833008, 1.4642951488494873, 8.29620361328125, -2.5230817794799805, -1.3605082035064697, -2.4032909870147705, 0.0390625, -0.13525390625, -0.845458984375
71, 2363687455, -5.056334018707275, 1.4502911567687988, 8.303092956542969, -2.5244007110595703, -1.2771517038345337, -2.498121976852417, 0.039306640625, -0.134521484375, -0.843017578125
72, 2363704122, -5.047725200653076, 1.4603976011276245, 8.296374320983887, -2.5418431758880615, -1.330247163772583, -2.5732827186584473, 0.03857421875, -0.13525390625, -0.846435546875
73, 2363720789, -5.065342903137207, 1.4542089700698853, 8.303719520568848, -2.5730650424957275, -1.3573579788208008, -2.561231851577759, 0.03955078125, -0.13671875, -0.846923828125
74, 2363737456, -5.057027339935303, 1.4349321126937866, 8.321660995483398, -2.667780876159668, -1.4584769010543823, -2.552946090698242, 0.037841796875, -0.13623046875, -0.846435546875
75, 2363754123, -5.06697940826416, 1.446825385093689, 8.31035041809082, -2.665782928466797, -1.3818693161010742, -2.527845621109009, 0.04150390625, -0.13525390625, -0.845458984375
76, 2363770790, -5.073111057281494, 1.4502841234207153, 8.316559791564941, -2.5263476371765137, -1.4276649951934814, -2.5883944034576416, 0.03955078125, -0.1357421875, -0.845947265625
77, 2363787457, -5.0627827644348145, 1.4418466091156006, 8.303985595703125, -2.6026477813720703, -1.3524788618087769, -2.538564682006836, 0.03857421875, -0.1357421875, -0.845947265625
78, 2363804124, -5.064191818237305, 1.4499150514602661, 8.325855255126953, -2.53764271736145, -1.403102159500122, -2.477811098098755, 0.037841796875, -0.13525390625, -0.847412109375
79, 2363820791, -5.069115161895752, 1.4424412250518799, 8.286057472229004, -2.667870044708252, -1.4302387237548828, -2.4957399368286133, 0.036865234375, -0.134765625, -0.8486328125
80, 2363837458, -5.0841064453125, 1.4511306285858154, 8.313871383666992, -2.6002721786499023, -1.4184634685516357, -2.5326545238494873, 0.0400390625, -0.133544921875, -0.846923828125
81, 2363854125, -5.06488037109375, 1.4386897087097168, 8.304965019226074, -2.6900510787963867, -1.3951750993728638, -2.6136481761932373, 0.0400390625, -0.13525390625, -0.844970703125
82, 2363870792, -5.064084529876709, 1.4466631412506104, 8.298498153686523, -2.6481871604919434, -1.4398565292358398, -2.5886118412017822, 0.03857421875, -0.134765625, -0.846923828125
83, 2363887459, -5.078165531158447, 1.4369767904281616, 8.314943313598633, -2.58793306350708, -1.4161518812179565, -2.466310977935791, 0.03857421875, -0.134033203125, -0.845947265625
84, 2363904126, -5.0500078201293945, 1.4496420621871948, 8.314515113830566, -2.543635845184326, -1.3897196054458618, -2.484675407409668, 0.0390625, -0.134033203125, -0.845947265625
85, 2363920793, -5.079054832458496, 1.4403752088546753, 8.320243835449219, -2.582554340362549, -1.4196993112564087, -2.483830451965332, 0.0390625, -0.134033203125, -0.846923828125
86, 2363937460, -5.052572250366211, 1.4489368200302124, 8.317441940307617, -2.662811517715454, -1.4654563665390015, -2.4453978538513184, 0.038818359375, -0.134765625, -0.845458984375
87, 2363954127, -5.068187713623047, 1.4338868856430054, 8.300782203674316, -2.6087052822113037, -1.4173814058303833, -2.5822856426239014, 0.04052734375, -0.134033203125, -0.844970703125
88, 2363970794, -5.055832862854004, 1.436996579170227, 8.300837516784668, -2.569120407104492, -1.388541340827942, -2.472637414932251, 0.037841796875, -0.134033203125, -0.845947265625
89, 2363987461, -5.070276260375977, 1.440291166305542, 8.32491683959961, -2.560232639312744, -1.334075927734375, -2.522710084915161, 0.03955078125, -0.134765625, -0.844970703125
90, 2364004128, -5.060020446777344, 1.4278364181518555, 8.302189826965332, -2.6350090503692627, -1.4089548587799072, -2.5743582248687744, 0.038818359375, -0.134765625, -0.845458984375
91, 2364020795, -5.07633638381958, 1.4514504671096802, 8.32388973236084, -2.6191422939300537, -1.3689348697662354, -2.621063232421875, 0.038818359375, -0.134521484375, -0.844970703125
92, 2364037462, -5.053231239318848, 1.4345675706863403, 8.32293701171875, -2.7367687225341797, -1.4387680292129517, -2.623534917831421, 0.03857421875, -0.134033203125, -0.846435546875
93, 2364054129, -5.059483528137207, 1.4308472871780396, 8.290364265441895, -2.6540653705596924, -1.2827353477478027, -2.6001505851745605, 0.038330078125, -0.134765625, -0.845458984375
94, 2364070796, -5.066209316253662, 1.4392412900924683, 8.302817344665527, -2.6101009845733643, -1.3107812404632568, -2.550436019897461, 0.04150390625, -0.134033203125, -0.843505859375
95, 2364087463, -5.063523769378662, 1.4480525255203247, 8.293516159057617, -2.6463429927825928, -1.3498406410217285, -2.587984561920166, 0.04052734375, -0.134765625, -0.845458984375
96, 2364104130, -5.071331977844238, 1.453072428703308, 8.305451393127441, -2.69669771194458, -1.3895149230957031, -2.6506717205047607, 0.0380859375, -0.134033203125, -0.847900390625
97, 2364120797, -5.072019577026367, 1.4316846132278442, 8.291247367858887, -2.6079494953155518, -1.343155860900879, -2.5592470169067383, 0.038330078125, -0.133544921875, -0.845458984375
98, 2364137464, -5.056008338928223, 1.4525800943374634, 8.333683013916016, -2.5619616508483887, -1.380908727645874, -2.5728726387023926, 0.0390625, -0.13427734375, -0.846435546875
99, 2364154131, -5.059804439544678, 1.4265402555465698, 8.297896385192871, -2.5620644092559814, -1.4168307781219482, -2.5677249431610107, 0.04052734375, -0.134765625, -0.846435546875
100, 2364170798, -5.076859474182129, 1.4360382556915283, 8.319456100463867, -2.5544955730438232, -1.334088683128357, -2.421053409576416, 0.04248046875, -0.134033203125, -0.84326171875
101, 2364187465, -5.07139778137207, 1.44728684425354, 8.297623634338379, -2.531482696533203, -1.265446662902832, -2.511683940887451, 0.04052734375, -0.13623046875, -0.845947265625
102, 2364204132, -5.0782012939453125, 1.4444475173950195, 8.29479694366455, -2.5826053619384766, -1.2779585123062134, -2.4809741973876953, 0.041015625, -0.134033203125, -0.843994140625
103, 2364220799, -5.0687432289123535, 1.4520480632781982, 8.300373077392578, -2.5145394802093506, -1.2977954149246216, -2.5266289710998535, 0.0390625, -0.132568359375, -0.84912109375
104, 2364237466, -5.058986186981201, 1.435019612312317, 8.289484024047852, -2.517421007156372, -1.316287875175476, -2.5244648456573486, 0.03955078125, -0.134033203125, -0.846435546875
105, 2364254133, -5.057522773742676, 1.441679835319519, 8.302957534790039, -2.618988513946533, -1.3392242193222046, -2.497558832168579, 0.0400390625, -0.133544921875, -0.843994140625
106, 2364270800, -5.078042984008789, 1.4522258043289185, 8.306036949157715, -2.657036066055298, -1.2623220682144165, -2.4737515449523926, 0.03955078125, -0.134765625, -0.844482421875
107, 2364287467, -5.074950695037842, 1.4372788667678833, 8.287704467773438, -2.578392505645752, -1.5230979919433594, -2.510723829269409, 0.0390625, -0.133544921875, -0.844970703125
108, 2364304134, -5.064407825469971, 1.444340467453003, 8.284860610961914, -2.586434841156006, -1.397992730140686, -2.472522497177124, 0.04052734375, -0.13427734375, -0.845458984375
109, 2364320801, -5.070920944213867, 1.4383028745651245, 8.3222074508667, -2.520879030227661, -1.5330867767333984, -2.4324512481689453, 0.0400390625, -0.134765625, -0.846923828125
110, 2364337468, -5.064842224121094, 1.443760633468628, 8.297650337219238, -2.6678574085235596, -1.490710735321045, -2.4453089237213135, 0.03955078125, -0.13525390625, -0.845947265625
111, 2364354135, -5.072004318237305, 1.4382730722427368, 8.299095153808594, -2.548668622970581, -1.5755398273468018, -2.4819092750549316, 0.04052734375, -0.13525390625, -0.846435546875
112, 2364370802, -5.065423011779785, 1.4501103162765503, 8.316618919372559, -2.530381202697754, -1.5693799257278442, -2.4634811878204346, 0.0400390625, -0.133544921875, -0.844482421875
113, 2364387469, -5.061293125152588, 1.4354172945022583, 8.31225299835205, -2.5596694946289062, -1.5195633172988892, -2.3936097621917725, 0.0400390625, -0.13525390625, -0.844482421875
114, 2364404136, -5.060417175292969, 1.4405162334442139, 8.289694786071777, -2.597550630569458, -1.4300340414047241, -2.4399304389953613, 0.037841796875, -0.1357421875, -0.843994140625
115, 2364420803, -5.067893028259277, 1.4272419214248657, 8.303446769714355, -2.570888042449951, -1.5064623355865479, -2.499236583709717, 0.03857421875, -0.131103515625, -0.84765625
116, 2364437470, -5.072172164916992, 1.4243245124816895, 8.321317672729492, -2.6379804611206055, -1.475022792816162, -2.4310808181762695, 0.03955078125, -0.134033203125, -0.845458984375
117, 2364454137, -5.072579383850098, 1.4414269924163818, 8.30578899383545, -2.6100754737854004, -1.4359633922576904, -2.4579102993011475, 0.04052734375, -0.1357421875, -0.847412109375
118, 2364470804, -5.065054893493652, 1.4450953006744385, 8.30909538269043, -2.612406015396118, -1.498010277748108, -2.4407243728637695, 0.041015625, -0.1357421875, -0.845947265625
119, 2364487471, -5.054429531097412, 1.436213493347168, 8.295161247253418, -2.6086537837982178, -1.497792363166809, -2.4422991275787354, 0.037353515625, -0.135009765625, -0.843017578125
120, 2364504138, -5.065733909606934, 1.4352535009384155, 8.297321319580078, -2.700385570526123, -1.5933022499084473, -2.519688129425049, 0.03955078125, -0.13623046875, -0.847412109375
121, 2364520805, -5.063222885131836, 1.4393807649612427, 8.307379722595215, -2.6451773643493652, -1.596209168434143, -2.418581962585449, 0.0380859375, -0.13427734375, -0.847412109375
122, 2364537472, -5.050042629241943, 1.4460493326187134, 8.310514450073242, -2.6885910034179688, -1.5644110441207886, -2.4684243202209473, 0.03857421875, -0.134765625, -0.847900390625
123, 2364554139, -5.069858074188232, 1.440842628479004, 8.309133529663086, -2.741302013397217, -1.5371079444885254, -2.4837918281555176, 0.0400390625, -0.134765625, -0.845458984375
124, 2364570806, -5.053546905517578, 1.4518153667449951, 8.318031311035156, -2.723360300064087, -1.474484920501709, -2.5205461978912354, 0.038330078125, -0.13525390625, -0.845458984375
125, 2364587473, -5.0653157234191895, 1.4427764415740967, 8.283002853393555, -2.5902767181396484, -1.5275158882141113, -2.438764810562134, 0.04052734375, -0.134033203125, -0.845458984375
126, 2364604140, -5.069453239440918, 1.4336391687393188, 8.325390815734863, -2.503577709197998, -1.4387422800064087, -2.3764359951019287, 0.0380859375, -0.13427734375, -0.847412109375
127, 2364620807, -5.060632705688477, 1.4384973049163818, 8.29931354522705, -2.495560646057129, -1.419711947441101, -2.4170196056365967, 0.037353515625, -0.1357421875, -0.84814453125
128, 2364637474, -5.07149600982666, 1.430853247642517, 8.296150207519531, -2.555417537689209, -1.5098174810409546, -2.485802173614502, 0.0380859375, -0.134765625, -0.846923828125
129, 2364654141, -5.063701152801514, 1.442519187927246, 8.299936294555664, -2.5672249794006348, -1.507678747177124, -2.488901138305664, 0.04150390625, -0.134765625, -0.844970703125
130, 2364670808, -5.042377471923828, 1.4388511180877686, 8.314826011657715, -2.6031343936920166, -1.4397284984588623, -2.4450910091400146, 0.0390625, -0.13525390625, -0.846435546875
131, 2364687475, -5.054249286651611, 1.4401804208755493, 8.299887657165527, -2.600841760635376, -1.5536407232284546, -2.3720691204071045, 0.0390625, -0.134033203125, -0.845947265625
132, 2364704142, -5.0602898597717285, 1.454857587814331, 8.289079666137695, -2.5611934661865234, -1.4968321323394775, -2.4716005325317383, 0.04052734375, -0.13525390625, -0.847412109375
133, 2364720809, -5.0568013191223145, 1.444119930267334, 8.29847526550293, -2.679651975631714, -1.4813745021820068, -2.402496814727783, 0.03955078125, -0.13525390625, -0.846435546875
134, 2364737476, -5.048725605010986, 1.4498679637908936, 8.324947357177734, -2.524784803390503, -1.5486078262329102, -2.4381625652313232, 0.038330078125, -0.134033203125, -0.845947265625
135, 2364754143, -5.068211078643799, 1.442585825920105, 8.288262367248535, -2.536681890487671, -1.4875856637954712, -2.413062334060669, 0.03955078125, -0.134765625, -0.845947265625
136, 2364770810, -5.059971332550049, 1.4494646787643433, 8.28010368347168, -2.5080597400665283, -1.4670442342758179, -2.3772811889648438, 0.036865234375, -0.13525390625, -0.846435546875
137, 2364787477, -5.05878210067749, 1.431315302848816, 8.303547859191895, -2.4276998043060303, -1.478762149810791, -2.4150474071502686, 0.037353515625, -0.135009765625, -0.844482421875
138, 2364804144, -5.061340808868408, 1.4420346021652222, 8.294177055358887, -2.448472023010254, -1.4598215818405151, -2.456040143966675, 0.04052734375, -0.134765625, -0.845947265625
139, 2364820811, -5.059652328491211, 1.4386669397354126, 8.283257484436035, -2.5650737285614014, -1.3939199447631836, -2.3752708435058594, 0.041015625, -0.13525390625, -0.847412109375
140, 2364837478, -5.05831241607666, 1.443980097770691, 8.308963775634766, -2.5146167278289795, -1.3519536256790161, -2.4293391704559326, 0.03857421875, -0.13525390625, -0.847900390625
141, 2364854145, -5.070628643035889, 1.4368798732757568, 8.313831329345703, -2.511197328567505, -1.4650208950042725, -2.4079396724700928, 0.03955078125, -0.134765625, -0.844970703125
142, 2364870812, -5.0709357261657715, 1.4417439699172974, 8.316985130310059, -2.503629207611084, -1.4542253017425537, -2.5102624893188477, 0.038330078125, -0.1357421875, -0.845947265625
143, 2364887479, -5.060663223266602, 1.4384568929672241, 8.313376426696777, -2.5328657627105713, -1.5795097351074219, -2.423832416534424, 0.03955078125, -0.132080078125, -0.845458984375
144, 2364904146, -5.061252117156982, 1.4489967823028564, 8.303954124450684, -2.5615007877349854, -1.5781906843185425, -2.4115638732910156, 0.0380859375, -0.13427734375, -0.8486328125
145, 2364920813, -5.058621406555176, 1.4323445558547974, 8.29544448852539, -2.551870584487915, -1.5364547967910767, -2.436267614364624, 0.03955078125, -0.1337890625, -0.846923828125
146, 2364937480, -5.068833827972412, 1.4441864490509033, 8.30167007446289, -2.4267780780792236, -1.4529956579208374, -2.512798309326172, 0.0380859375, -0.134033203125, -0.84814453125
147, 2364954147, -5.054712295532227, 1.4267423152923584, 8.298229217529297, -2.5065484046936035, -1.4791847467422485, -2.440378427505493, 0.0380859375, -0.134765625, -0.846923828125
148, 2364970814, -5.0588297843933105, 1.4380574226379395, 8.299004554748535, -2.4713563919067383, -1.4698231220245361, -2.402266263961792, 0.038818359375, -0.134765625, -0.843994140625
149, 2364987481, -5.071600437164307, 1.4266778230667114, 8.308521270751953, -2.4835996627807617, -1.5236867666244507, -2.441722869873047, 0.038330078125, -0.13623046875, -0.844970703125
150, 2365004148, -5.057794094085693, 1.4461479187011719, 8.302666664123535, -2.5480797290802, -1.4452351331710815, -2.430696725845337, 0.038330078125, -0.134765625, -0.845458984375
151, 2365020815, -5.0628533363342285, 1.4351935386657715, 8.299395561218262, -2.572603940963745, -1.4681329727172852, -2.446077346801758, 0.0380859375, -0.13525390625, -0.84912109375
152, 2365037482, -5.0505547523498535, 1.4411354064941406, 8.326387405395508, -2.615300416946411, -1.4424818754196167, -2.3771278858184814, 0.038818359375, -0.13525390625, -0.843505859375
153, 2365054149, -5.053722381591797, 1.4538694620132446, 8.307942390441895, -2.5527544021606445, -1.471642017364502, -2.4377148151397705, 0.037841796875, -0.134765625, -0.845458984375
154, 2365070816, -5.059943199157715, 1.4418184757232666, 8.304917335510254, -2.51114559173584, -1.4189691543579102, -2.4300432205200195, 0.038330078125, -0.134033203125, -0.844482421875
155, 2365087483, -5.052689552307129, 1.4544564485549927, 8.312091827392578, -2.5429189205169678, -1.539246678352356, -2.4938323497772217, 0.038330078125, -0.13671875, -0.844970703125
156, 2365104150, -5.04701042175293, 1.442321538925171, 8.322009086608887, -2.5359139442443848, -1.4863436222076416, -2.437330484390259, 0.03955078125, -0.1357421875, -0.846435546875
157, 2365120817, -5.065814018249512, 1.440413236618042, 8.310508728027344, -2.558452844619751, -1.4995980262756348, -2.3630149364471436, 0.03857421875, -0.133056640625, -0.847900390625
158, 2365137484, -5.061795711517334, 1.454243779182434, 8.308966636657715, -2.6405673027038574, -1.529923677444458, -2.438854694366455, 0.0380859375, -0.13525390625, -0.847900390625
159, 2365154151, -5.060871124267578, 1.4399855136871338, 8.298287391662598, -2.530189275741577, -1.5809569358825684, -2.392610549926758, 0.03955078125, -0.13525390625, -0.844970703125
160, 2365170818, -5.077787399291992, 1.4350216388702393, 8.29721450805664, -2.5020406246185303, -1.6224620342254639, -2.3070895671844482, 0.038330078125, -0.1357421875, -0.845458984375
161, 2365187485, -5.054455757141113, 1.436671495437622, 8.311126708984375, -2.4328863620758057, -1.6945875883102417, -2.2596421241760254, 0.03857421875, -0.13525390625, -0.846435546875
162, 2365204152, -5.036216735839844, 1.4556522369384766, 8.312164306640625, -2.5097756385803223, -1.6090410947799683, -2.381622552871704, 0.038818359375, -0.134765625, -0.844482421875
163, 2365220819, -5.054461479187012, 1.4371154308319092, 8.318984031677246, -2.2795817852020264, -1.584619402885437, -2.2878291606903076, 0.037353515625, -0.133056640625, -0.846435546875
164, 2365237486, -5.04060697555542, 1.4457061290740967, 8.326835632324219, -2.325927495956421, -1.5524113178253174, -2.280618667602539, 0.037353515625, -0.1357421875, -0.847900390625
165, 2365254153, -5.052521228790283, 1.441911220550537, 8.315521240234375, -2.295320749282837, -1.650930643081665, -2.261178970336914, 0.03955078125, -0.13818359375, -0.845458984375
166, 2365270820, -5.0522141456604, 1.447205662727356, 8.30635929107666, -2.4169294834136963, -1.6122040748596191, -2.371415615081787, 0.039306640625, -0.134521484375, -0.843017578125
167, 2365287487, -5.050103187561035, 1.4552971124649048, 8.316147804260254, -2.440147876739502, -1.635460615158081, -2.2961273193359375, 0.03857421875, -0.13525390625, -0.846923828125
168, 2365304154, -5.048238754272461, 1.452453851699829, 8.318885803222656, -2.382749557495117, -1.6557457447052002, -2.2753679752349854, 0.03857421875, -0.13525390625, -0.847412109375
169, 2365320821, -5.042620658874512, 1.4456571340560913, 8.2959623336792, -2.4084134101867676, -1.642773151397705, -2.2744078636169434, 0.037353515625, -0.134765625, -0.847412109375
170, 2365337488, -5.058298110961914, 1.4470362663269043, 8.31132698059082, -2.389895439147949, -1.5276824235916138, -2.2581052780151367, 0.037353515625, -0.13525390625, -0.84765625
171, 2365354155, -5.035999774932861, 1.4487861394882202, 8.302839279174805, -2.336057424545288, -1.5565221309661865, -2.242506980895996, 0.036865234375, -0.134521484375, -0.845458984375
172, 2365370822, -5.054850101470947, 1.452133297920227, 8.307929039001465, -2.245734691619873, -1.570033073425293, -2.2622547149658203, 0.03955078125, -0.134033203125, -0.843505859375
173, 2365387489, -5.057208061218262, 1.4579615592956543, 8.307731628417969, -1.922924518585205, -1.363146185874939, -2.1283767223358154, 0.037353515625, -0.13525390625, -0.845458984375
174, 2365404156, -5.064789772033691, 1.4775460958480835, 8.27759838104248, -1.610244870185852, -1.4007458686828613, -2.0832858085632324, 0.037353515625, -0.134765625, -0.846923828125
175, 2365420823, -5.061985015869141, 1.4478510618209839, 8.303160667419434, -1.7133616209030151, -1.517027497291565, -2.1002285480499268, 0.036865234375, -0.13720703125, -0.846435546875
176, 2365437490, -5.049454212188721, 1.4692710638046265, 8.301947593688965, -1.9799002408981323, -1.6676942110061646, -2.20548415184021, 0.03857421875, -0.134765625, -0.847412109375
177, 2365454157, -5.045258045196533, 1.4658631086349487, 8.319173812866211, -2.294423818588257, -1.6409800052642822, -2.2488720417022705, 0.038330078125, -0.1357421875, -0.845458984375
178, 2365470824, -5.042186260223389, 1.450605034828186, 8.330060958862305, -2.351066827774048, -1.6813842058181763, -2.1877856254577637, 0.0390625, -0.13671875, -0.844970703125
179, 2365487491, -5.025481224060059, 1.4669185876846313, 8.306351661682129, -2.503065586090088, -1.6809746026992798, -2.35703444480896, 0.035888671875, -0.1376953125, -0.845458984375
180, 2365504158, -5.039459228515625, 1.4670897722244263, 8.315248489379883, -2.540472984313965, -1.756288766860962, -2.3627207279205322, 0.036865234375, -0.13623046875, -0.846435546875
181, 2365520825, -5.05238151550293, 1.4495093822479248, 8.309649467468262, -2.6766042709350586, -1.6437081098556519, -2.388256311416626, 0.034423828125, -0.13818359375, -0.8466796875
182, 2365537492, -5.0425920486450195, 1.4803582429885864, 8.304156303405762, -2.7063534259796143, -1.614266276359558, -2.463801145553589, 0.03857421875, -0.1376953125, -0.847412109375
183, 2365554159, -5.040688991546631, 1.4550206661224365, 8.325142860412598, -2.754530906677246, -1.5231618881225586, -2.4238452911376953, 0.0380859375, -0.13818359375, -0.847412109375
184, 2365570826, -5.047187805175781, 1.4509508609771729, 8.324748992919922, -2.531841278076172, -1.4781346321105957, -2.42086124420166, 0.034912109375, -0.13623046875, -0.843505859375
185, 2365587493, -5.043335914611816, 1.455918550491333, 8.30789566040039, -2.629758596420288, -1.4420078992843628, -2.4800140857696533, 0.0390625, -0.1357421875, -0.843994140625
186, 2365604160, -5.0379157066345215, 1.4497222900390625, 8.307273864746094, -2.634906768798828, -1.4173942804336548, -2.516883611679077, 0.03857421875, -0.13623046875, -0.846923828125
187, 2365620827, -5.0333685874938965, 1.4519764184951782, 8.315408706665039, -2.7698090076446533, -1.3820486068725586, -2.6138274669647217, 0.036865234375, -0.13671875, -0.846435546875
188, 2365637494, -5.0432024002075195, 1.4476594924926758, 8.304851531982422, -2.8177552223205566, -1.4225164651870728, -2.670123815536499, 0.0380859375, -0.133544921875, -0.847412109375
189, 2365654161, -5.048490047454834, 1.4482847452163696, 8.323689460754395, -2.751713275909424, -1.385980248451233, -2.59294056892395, 0.03955078125, -0.134765625, -0.847900390625
190, 2365670828, -5.0372748374938965, 1.4645938873291016, 8.317472457885742, -2.772664785385132, -1.343667984008789, -2.6539628505706787, 0.0390625, -0.1357421875, -0.845947265625
191, 2365687495, -5.036746978759766, 1.4599347114562988, 8.32353401184082, -2.811429023742676, -1.3459088802337646, -2.672057628631592, 0.03759765625, -0.13623046875, -0.847900390625
192, 2365704162, -5.042372703552246, 1.4383277893066406, 8.324317932128906, -2.7589364051818848, -1.290099024772644, -2.654000997543335, 0.037353515625, -0.13623046875, -0.847900390625
193, 2365720829, -5.048419952392578, 1.4476345777511597, 8.330073356628418, -2.7702059745788574, -1.32778799533844, -2.613468885421753, 0.037841796875, -0.134765625, -0.847900390625
194, 2365737496, -5.051028251647949, 1.4484262466430664, 8.311441421508789, -2.6784355640411377, -1.3346011638641357, -2.576817274093628, 0.036865234375, -0.134521484375, -0.845458984375
195, 2365754163, -5.059925556182861, 1.4417866468429565, 8.310965538024902, -2.7474236488342285, -1.3578447103500366, -2.494011640548706, 0.037353515625, -0.13671875, -0.844970703125
196, 2365770830, -5.0652031898498535, 1.448485016822815, 8.30910587310791, -2.6589317321777344, -1.481208324432373, -2.5070226192474365, 0.0400390625, -0.134033203125, -0.84228515625
197, 2365787497, -5.061151504516602, 1.4414196014404297, 8.291691780090332, -2.6794726848602295, -1.4852551221847534, -2.5677504539489746, 0.036376953125, -0.1357421875, -0.844970703125
198, 2365804164, -5.045375823974609, 1.4498928785324097, 8.33409309387207, -2.605912923812866, -1.4371670484542847, -2.491680383682251, 0.036865234375, -0.134521484375, -0.84765625
199, 2365820831, -5.045054912567139, 1.460153579711914, 8.281603813171387, -2.643819808959961, -1.464009165763855, -2.497673749923706, 0.03857421875, -0.133544921875, -0.846435546875
200, 2365837498, -5.0469970703125, 1.4350509643554688, 8.318631172180176, -2.509315013885498, -1.484397053718567, -2.452019453048706, 0.036865234375, -0.1357421875, -0.846435546875
201, 2365854165, -5.044146537780762, 1.4503251314163208, 8.293048858642578, -2.4673867225646973, -1.4353996515274048, -2.4351916313171387, 0.037841796875, -0.13671875, -0.843994140625
202, 2365870832, -5.047632694244385, 1.4529722929000854, 8.316384315490723, -2.4849956035614014, -1.4347338676452637, -2.3990392684936523, 0.037353515625, -0.13671875, -0.845947265625
203, 2365887499, -5.048258304595947, 1.4400746822357178, 8.30372428894043, -2.5806591510772705, -1.3965197801589966, -2.483433485031128, 0.037353515625, -0.13525390625, -0.846435546875
204, 2365904166, -5.0474982261657715, 1.4520888328552246, 8.299389839172363, -2.580620765686035, -1.470169186592102, -2.510941505432129, 0.03857421875, -0.13427734375, -0.847412109375
205, 2365920833, -5.049529075622559, 1.4467554092407227, 8.309629440307617, -2.598985195159912, -1.4065088033676147, -2.528357744216919, 0.035400390625, -0.13525390625, -0.84716796875
206, 2365937500, -5.044774055480957, 1.4491976499557495, 8.306498527526855, -2.5130412578582764, -1.3239588737487793, -2.5114023685455322, 0.03857421875, -0.13623046875, -0.846435546875
207, 2365954167, -5.044414043426514, 1.4681931734085083, 8.312271118164062, -2.490809202194214, -1.2728742361068726, -2.470921039581299, 0.03857421875, -0.134033203125, -0.846923828125
208, 2365970834, -5.053608417510986, 1.4464125633239746, 8.306676864624023, -2.522312879562378, -1.223198413848877, -2.5585548877716064, 0.038818359375, -0.13720703125, -0.843017578125
209, 2365987501, -5.049802303314209, 1.442559838294983, 8.315162658691406, -2.662978410720825, -1.2304342985153198, -2.6309239864349365, 0.038330078125, -0.13427734375, -0.846435546875
210, 2366004168, -5.0505757331848145, 1.4471826553344727, 8.326157569885254, -2.6737358570098877, -1.329542636871338, -2.5797371864318848, 0.038330078125, -0.13427734375, -0.846435546875
211, 2366020835, -5.04856538772583, 1.455159306526184, 8.311939239501953, -2.6386847496032715, -1.338660717010498, -2.601034164428711, 0.037353515625, -0.133544921875, -0.846923828125
212, 2366037502, -5.061629772186279, 1.4560890197753906, 8.303545951843262, -2.7295713424682617, -1.298832893371582, -2.597550630569458, 0.03857421875, -0.13623046875, -0.846923828125
213, 2366054169, -5.041053295135498, 1.4442061185836792, 8.321554183959961, -2.6337287425994873, -1.412322998046875, -2.645702362060547, 0.038330078125, -0.134521484375, -0.843505859375
214, 2366070836, -5.047006607055664, 1.449380874633789, 8.308866500854492, -2.672109365463257, -1.3120490312576294, -2.586806058883667, 0.038330078125, -0.13525390625, -0.846435546875
215, 2366087503, -5.035922527313232, 1.4882891178131104, 8.278884887695312, -2.7552735805511475, -1.3145719766616821, -2.6864778995513916, 0.037841796875, -0.134033203125, -0.845947265625
216, 2366104170, -5.071302890777588, 1.4387009143829346, 8.313369750976562, -2.7077624797821045, -1.2791625261306763, -2.6417839527130127, 0.037353515625, -0.1357421875, -0.845458984375
217, 2366120837, -5.051008701324463, 1.4535346031188965, 8.32353687286377, -2.802964687347412, -1.254881501197815, -2.62198543548584, 0.035888671875, -0.13427734375, -0.84912109375
218, 2366137504, -5.057194232940674, 1.458327054977417, 8.29332447052002, -2.7382030487060547, -1.2070754766464233, -2.7133712768554688, 0.037841796875, -0.134033203125, -0.84765625
219, 2366154171, -5.046751499176025, 1.444170355796814, 8.290266990661621, -2.7588725090026855, -1.2015048265457153, -2.6919848918914795, 0.0400390625, -0.1357421875, -0.846923828125
220, 2366170838, -5.053247928619385, 1.4493436813354492, 8.30129337310791, -2.6741838455200195, -1.1291232109069824, -2.680356502532959, 0.0390625, -0.13427734375, -0.845947265625
221, 2366187505, -5.050590515136719, 1.4355450868606567, 8.314828872680664, -2.7717041969299316, -1.1439145803451538, -2.6954426765441895, 0.0390625, -0.134033203125, -0.847412109375
222, 2366204172, -5.06156063079834, 1.442418098449707, 8.319784164428711, -2.6991686820983887, -1.1309928894042969, -2.617630958557129, 0.0380859375, -0.13525390625, -0.846923828125
223, 2366220839, -5.057889938354492, 1.4360641241073608, 8.292070388793945, -2.7053163051605225, -1.2862826585769653, -2.6334853172302246, 0.03955078125, -0.13525390625, -0.847412109375
224, 2366237506, -5.064577102661133, 1.4479917287826538, 8.302506446838379, -2.6028525829315186, -1.3055050373077393, -2.593785524368286, 0.038330078125, -0.13623046875, -0.845458984375
225, 2366254173, -5.0621209144592285, 1.444209337234497, 8.285250663757324, -2.6959421634674072, -1.2943251132965088, -2.6972098350524902, 0.0400390625, -0.1357421875, -0.844970703125
226, 2366270840, -5.066125869750977, 1.440894603729248, 8.302823066711426, -2.587087869644165, -1.2453793287277222, -2.6271588802337646, 0.0390625, -0.13525390625, -0.844482421875
227, 2366287507, -5.070443153381348, 1.4251081943511963, 8.320222854614258, -2.5661494731903076, -1.1657238006591797, -2.643589735031128, 0.0400390625, -0.13427734375, -0.845458984375
228, 2366304174, -5.064861297607422, 1.4484124183654785, 8.29165267944336, -2.5855770111083984, -1.278509497642517, -2.5210585594177246, 0.03857421875, -0.13427734375, -0.848388671875
229, 2366320841, -5.0539422035217285, 1.443510890007019, 8.302556991577148, -2.6283884048461914, -1.3612639904022217, -2.4613425731658936, 0.036865234375, -0.134033203125, -0.8466796875
230, 2366337508, -5.066446781158447, 1.447575330734253, 8.289040565490723, -2.7099649906158447, -1.3066449165344238, -2.5769965648651123, 0.0400390625, -0.13525390625, -0.846435546875
231, 2366354175, -5.064487934112549, 1.437689185142517, 8.290421485900879, -2.6746835708618164, -1.3494948148727417, -2.643730640411377, 0.037841796875, -0.13720703125, -0.845947265625
232, 2366370842, -5.070068836212158, 1.4410169124603271, 8.298828125, -2.5440070629119873, -1.266176700592041, -2.551614284515381, 0.0390625, -0.133544921875, -0.845458984375
233, 2366387509, -5.075368404388428, 1.447114109992981, 8.29639720916748, -2.443835496902466, -1.365861177444458, -2.474327564239502, 0.037841796875, -0.135009765625, -0.843994140625
234, 2366404176, -5.0419921875, 1.45457124710083, 8.287057876586914, -2.478963613510132, -1.365182638168335, -2.483522891998291, 0.0390625, -0.1357421875, -0.848388671875
235, 2366420843, -5.046093463897705, 1.43495512008667, 8.316264152526855, -2.560809373855591, -1.315161108970642, -2.4962780475616455, 0.038818359375, -0.13525390625, -0.844970703125
236, 2366437510, -5.061793327331543, 1.430585503578186, 8.296772003173828, -2.6030187606811523, -1.3181833028793335, -2.464172124862671, 0.037841796875, -0.134033203125, -0.845458984375
237, 2366454177, -5.072502136230469, 1.4436850547790527, 8.307172775268555, -2.50844407081604, -1.2632312774658203, -2.4018311500549316, 0.0400390625, -0.133544921875, -0.843994140625
238, 2366470844, -5.061797142028809, 1.4358354806900024, 8.297086715698242, -2.506087303161621, -1.3919861316680908, -2.411576509475708, 0.041015625, -0.13525390625, -0.84375
239, 2366487511, -5.062591075897217, 1.435586929321289, 8.289109230041504, -2.5733978748321533, -1.3131119012832642, -2.454439640045166, 0.03955078125, -0.134765625, -0.846923828125
240, 2366504178, -5.076971530914307, 1.4465513229370117, 8.284826278686523, -2.491577386856079, -1.3824453353881836, -2.447075605392456, 0.038330078125, -0.133056640625, -0.846435546875
241, 2366520845, -5.063230991363525, 1.4355571269989014, 8.292496681213379, -2.55499529838562, -1.3070931434631348, -2.52852463722229, 0.0400390625, -0.132568359375, -0.845947265625
242, 2366537512, -5.057925224304199, 1.4560858011245728, 8.294486045837402, -2.4863271713256836, -1.352248191833496, -2.4200801849365234, 0.038818359375, -0.1357421875, -0.843994140625
243, 2366554179, -5.065578460693359, 1.436884880065918, 8.29751968383789, -2.485917329788208, -1.3912692070007324, -2.3297953605651855, 0.0400390625, -0.133544921875, -0.845947265625
244, 2366570846, -5.079832553863525, 1.4448723793029785, 8.295875549316406, -2.5139505863189697, -1.520049810409546, -2.3890628814697266, 0.04052734375, -0.134765625, -0.843505859375
245, 2366587513, -5.072604656219482, 1.4358742237091064, 8.295693397521973, -2.614480495452881, -1.5541402101516724, -2.3928282260894775, 0.03857421875, -0.13525390625, -0.845947265625
246, 2366604180, -5.062406539916992, 1.4386619329452515, 8.311590194702148, -2.624635696411133, -1.6455646753311157, -2.373516082763672, 0.03857421875, -0.134033203125, -0.846923828125
247, 2366620847, -5.06937313079834, 1.4307100772857666, 8.313940048217773, -2.496520757675171, -1.632719874382019, -2.3610167503356934, 0.037353515625, -0.13525390625, -0.845947265625
248, 2366637514, -5.079159259796143, 1.4337621927261353, 8.309431076049805, -2.4480361938476562, -1.6567703485488892, -2.3537559509277344, 0.04052734375, -0.1357421875, -0.847412109375
249, 2366654181, -5.084301948547363, 1.4424419403076172, 8.31545352935791, -2.4197471141815186, -1.70508873462677, -2.259181261062622, 0.03955078125, -0.13720703125, -0.844970703125
250, 2366670848, -5.084558963775635, 1.4270260334014893, 8.306934356689453, -2.276200771331787, -1.6535944938659668, -2.20886492729187, 0.0400390625, -0.134765625, -0.845458984375
251, 2366687515, -5.067512035369873, 1.4454938173294067, 8.288969039916992, -2.1830599308013916, -1.6458207368850708, -2.132923126220703, 0.0390625, -0.134033203125, -0.845458984375
252, 2366704182, -5.059823989868164, 1.4627994298934937, 8.2987060546875, -1.9596916437149048, -1.5849651098251343, -2.0727975368499756, 0.036865234375, -0.134765625, -0.846435546875
253, 2366720849, -5.064533710479736, 1.446677565574646, 8.301992416381836, -1.9650448560714722, -1.6190555095672607, -2.0618479251861572, 0.03857421875, -0.1357421875, -0.845947265625
254, 2366737516, -5.054749488830566, 1.4557133913040161, 8.30651569366455, -2.055009365081787, -1.6691539287567139, -2.097167730331421, 0.04052734375, -0.13525390625, -0.844970703125
255, 2366754183, -5.060713291168213, 1.4535545110702515, 8.295291900634766, -2.1602389812469482, -1.6767610311508179, -2.135061740875244, 0.037353515625, -0.13671875, -0.842529296875
256, 2366770850, -5.042160987854004, 1.4594759941101074, 8.297164916992188, -2.1580235958099365, -1.6224236488342285, -2.2003228664398193, 0.0380859375, -0.13623046875, -0.846923828125
257, 2366787517, -5.046725273132324, 1.445135235786438, 8.301152229309082, -2.2155368328094482, -1.5741692781448364, -2.1173248291015625, 0.036865234375, -0.13671875, -0.845947265625
258, 2366804184, -5.044089317321777, 1.4505606889724731, 8.298300743103027, -2.1187591552734375, -1.4694900512695312, -2.1173503398895264, 0.038330078125, -0.1357421875, -0.843994140625
259, 2366820851, -5.040502071380615, 1.4462107419967651, 8.301055908203125, -1.9485244750976562, -1.4413418769836426, -2.128364086151123, 0.0380859375, -0.13671875, -0.848388671875
260, 2366837518, -5.0218915939331055, 1.4858479499816895, 8.305143356323242, -2.3306148052215576, -1.4172661304473877, -2.317322015762329, 0.036376953125, -0.13818359375, -0.846923828125
261, 2366854185, -5.052432537078857, 1.4469698667526245, 8.282158851623535, -2.596001148223877, -1.4350541830062866, -2.452775001525879, 0.03857421875, -0.1357421875, -0.845947265625
262, 2366870852, -5.048751354217529, 1.459871530532837, 8.304949760437012, -2.653860330581665, -1.3728535175323486, -2.5040900707244873, 0.037841796875, -0.13525390625, -0.845947265625
263, 2366887519, -5.058661460876465, 1.4525820016860962, 8.30880355834961, -2.673710346221924, -1.389540433883667, -2.533442258834839, 0.037353515625, -0.13671875, -0.845458984375
264, 2366904186, -5.059263706207275, 1.4530889987945557, 8.300640106201172, -2.6599817276000977, -1.399452567100525, -2.5699656009674072, 0.03955078125, -0.13623046875, -0.846923828125
265, 2366920853, -5.041146755218506, 1.4507166147232056, 8.305171966552734, -2.588099479675293, -1.3751075267791748, -2.465273857116699, 0.03857421875, -0.13623046875, -0.846435546875
266, 2366937520, -5.05719518661499, 1.4584715366363525, 8.308838844299316, -2.7239620685577393, -1.3251245021820068, -2.525041341781616, 0.03857421875, -0.1357421875, -0.846435546875
267, 2366954187, -5.05328893661499, 1.4672757387161255, 8.3200044631958, -2.7457971572875977, -1.3850581645965576, -2.5187149047851562, 0.038330078125, -0.13525390625, -0.844482421875
268, 2366970854, -5.044686317443848, 1.4598308801651, 8.31930923461914, -2.761843681335449, -1.4855369329452515, -2.5840656757354736, 0.0390625, -0.13525390625, -0.846435546875
269, 2366987521, -5.068904399871826, 1.4578975439071655, 8.304423332214355, -2.6680495738983154, -1.464470386505127, -2.531059980392456, 0.037353515625, -0.13525390625, -0.843994140625
270, 2367004188, -5.065793037414551, 1.440072774887085, 8.30927848815918, -2.7218105792999268, -1.4818485975265503, -2.4917702674865723, 0.037353515625, -0.13623046875, -0.846435546875
271, 2367020855, -5.058399200439453, 1.4549649953842163, 8.300743103027344, -2.5801212787628174, -1.4160239696502686, -2.497840642929077, 0.038330078125, -0.134765625, -0.845947265625
272, 2367037522, -5.062013149261475, 1.461579442024231, 8.308539390563965, -2.6021480560302734, -1.4485135078430176, -2.469794273376465, 0.037841796875, -0.1357421875, -0.846435546875
273, 2367054189, -5.050974369049072, 1.456390619277954, 8.315680503845215, -2.6656932830810547, -1.4331461191177368, -2.49403715133667, 0.03955078125, -0.13623046875, -0.843994140625
274, 2367070856, -5.043144702911377, 1.4508668184280396, 8.307621955871582, -2.626403570175171, -1.399260401725769, -2.4817686080932617, 0.036865234375, -0.13623046875, -0.846435546875
275, 2367087523, -5.052052974700928, 1.4440066814422607, 8.30463981628418, -2.589277744293213, -1.369639277458191, -2.529536008834839, 0.037353515625, -0.13671875, -0.847900390625
276, 2367104190, -5.061823844909668, 1.4631373882293701, 8.323920249938965, -2.5704267024993896, -1.27021062374115, -2.4555792808532715, 0.036376953125, -0.13525390625, -0.84716796875
277, 2367120857, -5.038607597351074, 1.4484314918518066, 8.327813148498535, -2.571002721786499, -1.2778687477111816, -2.4745326042175293, 0.0390625, -0.13427734375, -0.845947265625
278, 2367137524, -5.061933994293213, 1.4426467418670654, 8.312116622924805, -2.644690752029419, -1.4371541738510132, -2.4968411922454834, 0.0390625, -0.13623046875, -0.844970703125
279, 2367154191, -5.058742046356201, 1.4520111083984375, 8.299222946166992, -2.5858840942382812, -1.338532567024231, -2.470921754837036, 0.038818359375, -0.134765625, -0.844482421875
280, 2367170858, -5.068300247192383, 1.4608099460601807, 8.315150260925293, -2.626749038696289, -1.436232328414917, -2.480846405029297, 0.037353515625, -0.13671875, -0.845458984375
281, 2367187525, -5.060821533203125, 1.465896487236023, 8.318546295166016, -2.6695096492767334, -1.4785059690475464, -2.4686548709869385, 0.037841796875, -0.133056640625, -0.843994140625
282, 2367204192, -5.057728290557861, 1.4508641958236694, 8.30624008178711, -2.626441717147827, -1.5011991262435913, -2.5168323516845703, 0.037841796875, -0.13525390625, -0.846435546875
283, 2367220859, -5.044645309448242, 1.4521586894989014, 8.287626266479492, -2.647252321243286, -1.5760008096694946, -2.548015832901001, 0.03955078125, -0.13671875, -0.844970703125
284, 2367237526, -5.052736282348633, 1.4530671834945679, 8.3336763381958, -2.6689202785491943, -1.5295265913009644, -2.470729351043701, 0.0380859375, -0.1357421875, -0.848388671875
285, 2367254193, -5.044132709503174, 1.45313560962677, 8.323288917541504, -2.647584915161133, -1.4623315334320068, -2.5758821964263916, 0.038818359375, -0.134521484375, -0.843994140625
286, 2367270860, -5.056519031524658, 1.4485580921173096, 8.302436828613281, -2.656216621398926, -1.4944500923156738, -2.5136821269989014, 0.037841796875, -0.134765625, -0.845458984375
287, 2367287527, -5.0610551834106445, 1.4569092988967896, 8.310731887817383, -2.6975557804107666, -1.4834365844726562, -2.544442892074585, 0.036865234375, -0.13623046875, -0.846923828125
288, 2367304194, -5.0591325759887695, 1.444671392440796, 8.301664352416992, -2.6678061485290527, -1.5466102361679077, -2.5165247917175293, 0.037841796875, -0.13525390625, -0.847412109375
289, 2367320861, -5.0609660148620605, 1.4596225023269653, 8.294059753417969, -2.6589317321777344, -1.533227801322937, -2.5285885334014893, 0.037841796875, -0.133056640625, -0.845458984375
290, 2367337528, -5.06320333480835, 1.4512577056884766, 8.31998062133789, -2.6735434532165527, -1.5053865909576416, -2.5587475299835205, 0.041015625, -0.133544921875, -0.845947265625
291, 2367354195, -5.052016258239746, 1.4367601871490479, 8.296114921569824, -2.6285934448242188, -1.5258640050888062, -2.55094838142395, 0.0400390625, -0.13525390625, -0.8427734375
292, 2367370862, -5.050797939300537, 1.4397461414337158, 8.297979354858398, -2.604888677597046, -1.5025050640106201, -2.493870496749878, 0.037353515625, -0.135009765625, -0.844482421875
293, 2367387529, -5.050745010375977, 1.4409708976745605, 8.299824714660645, -2.6525797843933105, -1.4922345876693726, -2.4438998699188232, 0.04052734375, -0.13427734375, -0.844970703125
294, 2367404196, -5.056285858154297, 1.4399522542953491, 8.32868766784668, -2.5642027854919434, -1.540770411491394, -2.451174020767212, 0.037353515625, -0.134521484375, -0.846923828125
295, 2367420863, -5.054178237915039, 1.4450546503067017, 8.311776161193848, -2.657625198364258, -1.4724743366241455, -2.45705246925354, 0.038330078125, -0.13525390625, -0.845458984375
296, 2367437530, -5.057013034820557, 1.4439352750778198, 8.30932331085205, -2.5577104091644287, -1.4588356018066406, -2.4976227283477783, 0.037353515625, -0.134033203125, -0.845458984375
297, 2367454197, -5.05873441696167, 1.4601961374282837, 8.301257133483887, -2.655461072921753, -1.4433013200759888, -2.4750449657440186, 0.0390625, -0.1357421875, -0.843994140625
298, 2367470864, -5.049050807952881, 1.4417414665222168, 8.31239128112793, -2.630258321762085, -1.4014631509780884, -2.539320230484009, 0.038330078125, -0.13525390625, -0.845458984375
299, 2367487531, -5.054608345031738, 1.4410980939865112, 8.326740264892578, -2.62176775932312, -1.4179577827453613, -2.536259651184082, 0.037841796875, -0.134521484375, -0.845458984375
300, 2367504198, -5.04646110534668, 1.4417611360549927, 8.323554039001465, -2.561398506164551, -1.3859673738479614, -2.5449936389923096, 0.037841796875, -0.1376953125, -0.845947265625
301, 2367520865, -5.050554275512695, 1.4571712017059326, 8.310572624206543, -2.6156206130981445, -1.3794233798980713, -2.552203416824341, 0.0390625, -0.13525390625, -0.846435546875
302, 2367537532, -5.06545877456665, 1.433222770690918, 8.321105003356934, -2.5777266025543213, -1.3458452224731445, -2.571669101715088, 0.0400390625, -0.13623046875, -0.846435546875
303, 2367554199, -5.035707473754883, 1.4333497285842896, 8.299564361572266, -2.6276073455810547, -1.365618109703064, -2.503718852996826, 0.037353515625, -0.132568359375, -0.842529296875
304, 2367570866, -5.057312965393066, 1.4446678161621094, 8.317742347717285, -2.6747219562530518, -1.3898991346359253, -2.5165889263153076, 0.03955078125, -0.13427734375, -0.844970703125
305, 2367587533, -5.060870170593262, 1.4314614534378052, 8.301344871520996, -2.5437252521514893, -1.3236900568008423, -2.4939982891082764, 0.037353515625, -0.135009765625, -0.844970703125
306, 2367604200, -5.034979343414307, 1.462586522102356, 8.31052303314209, -2.5530996322631836, -1.4063295125961304, -2.42152738571167, 0.0380859375, -0.134765625, -0.8486328125
307, 2367620867, -5.067517280578613, 1.4404724836349487, 8.30539608001709, -2.530893087387085, -1.3487262725830078, -2.464658737182617, 0.036865234375, -0.133056640625, -0.84765625
308, 2367637534, -5.065184116363525, 1.4418010711669922, 8.313264846801758, -2.5182278156280518, -1.3068623542785645, -2.406543731689453, 0.03857421875, -0.1357421875, -0.845947265625
309, 2367654201, -5.054251670837402, 1.446097731590271, 8.3065824508667, -2.4131646156311035, -1.2694934606552124, -2.406287670135498, 0.0400390625, -0.13720703125, -0.846435546875
310, 2367670868, -5.050878047943115, 1.4525635242462158, 8.322669982910156, -2.3566629886627197, -1.2073569297790527, -2.369750738143921, 0.038818359375, -0.133056640625, -0.845458984375
311, 2367687535, -5.062631607055664, 1.4474763870239258, 8.283096313476562, -2.416276454925537, -1.2333284616470337, -2.426534652709961, 0.03857421875, -0.1357421875, -0.845458984375
312, 2367704202, -5.0567946434021, 1.4559779167175293, 8.3141508102417, -2.4021763801574707, -1.2936846017837524, -2.372786045074463, 0.0390625, -0.134033203125, -0.846435546875
313, 2367720869, -5.074071884155273, 1.4431068897247314, 8.321507453918457, -2.4536707401275635, -1.346100926399231, -2.3740153312683105, 0.037841796875, -0.134521484375, -0.845458984375
314, 2367737536, -5.062263011932373, 1.4564405679702759, 8.318248748779297, -2.4903101921081543, -1.3471769094467163, -2.4044690132141113, 0.0380859375, -0.134765625, -0.846923828125
315, 2367754203, -5.067967891693115, 1.446942925453186, 8.302689552307129, -2.465747356414795, -1.3216538429260254, -2.4507896900177, 0.038818359375, -0.1357421875, -0.843505859375
316, 2367770870, -5.056795597076416, 1.4321123361587524, 8.30185604095459, -2.4072606563568115, -1.3006513118743896, -2.4234094619750977, 0.0390625, -0.134765625, -0.844482421875
317, 2367787537, -5.0412092208862305, 1.441548466682434, 8.325499534606934, -2.4001145362854004, -1.2480812072753906, -2.302351236343384, 0.037841796875, -0.134033203125, -0.844970703125
318, 2367804204, -5.051292419433594, 1.44830322265625, 8.281368255615234, -2.3211255073547363, -1.313175916671753, -2.3875648975372314, 0.03955078125, -0.134765625, -0.846435546875
319, 2367820871, -5.063423156738281, 1.4444159269332886, 8.312807083129883, -2.4001662731170654, -1.329913854598999, -2.4186971187591553, 0.0390625, -0.13427734375, -0.848388671875
320, 2367837538, -5.059635162353516, 1.4366085529327393, 8.27362060546875, -2.3821732997894287, -1.438921570777893, -2.3892934322357178, 0.0380859375, -0.13525390625, -0.846923828125
321, 2367854205, -5.05671501159668, 1.4576187133789062, 8.287121772766113, -2.466144323348999, -1.4760087728500366, -2.4199650287628174, 0.04052734375, -0.13623046875, -0.843994140625
322, 2367870872, -5.06069803237915, 1.452165126800537, 8.302989959716797, -2.3958120346069336, -1.552923560142517, -2.442119836807251, 0.0400390625, -0.13623046875, -0.843994140625
323, 2367887539, -5.044836044311523, 1.4598275423049927, 8.29362964630127, -2.3197548389434814, -1.3871454000473022, -2.3869242668151855, 0.038330078125, -0.1357421875, -0.844970703125
324, 2367904206, -5.041827201843262, 1.4572176933288574, 8.297152519226074, -2.408362627029419, -1.2617714405059814, -2.3945443630218506, 0.0380859375, -0.13671875, -0.848388671875
325, 2367920873, -5.04493522644043, 1.4652001857757568, 8.307106971740723, -2.4969563484191895, -1.2048598527908325, -2.4792325496673584, 0.0390625, -0.134765625, -0.847900390625
326, 2367937540, -5.0482354164123535, 1.457826852798462, 8.324663162231445, -2.4367408752441406, -1.166197419166565, -2.5322635173797607, 0.035888671875, -0.135498046875, -0.843505859375
327, 2367954207, -5.0411763191223145, 1.4604909420013428, 8.307741165161133, -2.610933542251587, -1.147910237312317, -2.6879634857177734, 0.038330078125, -0.13818359375, -0.845458984375
328, 2367970874, -5.065090656280518, 1.4259097576141357, 8.309171676635742, -2.6636316776275635, -1.0671789646148682, -2.6900765895843506, 0.038330078125, -0.13525390625, -0.844482421875
329, 2367987541, -5.039799213409424, 1.5071094036102295, 8.290166854858398, -2.875819206237793, -1.0417068004608154, -2.8454554080963135, 0.037841796875, -0.134765625, -0.845947265625
330, 2368004208, -5.076977729797363, 1.4542372226715088, 8.298052787780762, -2.8327901363372803, -0.8913859724998474, -2.7909646034240723, 0.0419921875, -0.13525390625, -0.84326171875
331, 2368020875, -5.068272113800049, 1.4511888027191162, 8.290525436401367, -2.8159375190734863, -1.0420783758163452, -2.753903388977051, 0.03955078125, -0.13427734375, -0.845947265625
332, 2368037542, -5.079928398132324, 1.4555342197418213, 8.288820266723633, -2.2768921852111816, -1.1569385528564453, -2.46814227104187, 0.038330078125, -0.133544921875, -0.844970703125
333, 2368054209, -5.073081016540527, 1.4409157037734985, 8.283655166625977, -2.136124610900879, -1.4133342504501343, -2.4126007556915283, 0.0400390625, -0.1357421875, -0.843994140625
334, 2368070876, -5.098147869110107, 1.4603604078292847, 8.279740333557129, -2.4286985397338867, -1.5838381052017212, -2.448765993118286, 0.038818359375, -0.1357421875, -0.843505859375
335, 2368087543, -5.071420192718506, 1.4461508989334106, 8.269838333129883, -2.7383689880371094, -2.166027307510376, -2.3765511512756348, 0.03857421875, -0.1357421875, -0.845458984375
336, 2368104210, -5.092965126037598, 1.374037742614746, 8.26722526550293, -2.8627829551696777, -2.9254443645477295, -2.140568971633911, 0.0400390625, -0.1357421875, -0.846435546875
337, 2368120877, -5.070000171661377, 1.4334330558776855, 8.287909507751465, -2.7480127811431885, -3.4643232822418213, -1.8155949115753174, 0.036865234375, -0.13525390625, -0.84716796875
338, 2368137544, -5.066145420074463, 1.4069955348968506, 8.335551261901855, -3.047168493270874, -4.410865783691406, -1.7679804563522339, 0.037841796875, -0.134765625, -0.845947265625
339, 2368154211, -5.076266288757324, 1.5232715606689453, 8.295443534851074, -3.1241097450256348, -5.89332914352417, -1.724772572517395, 0.035888671875, -0.13720703125, -0.843994140625
340, 2368170878, -5.0406060218811035, 1.4712803363800049, 8.294058799743652, -3.980649709701538, -6.354229927062988, -2.1561028957366943, 0.037353515625, -0.13525390625, -0.847412109375
341, 2368187545, -5.028701305389404, 1.4212861061096191, 8.302435874938965, -3.026768207550049, -5.65360689163208, -1.6370742321014404, 0.033935546875, -0.134033203125, -0.845703125
342, 2368204212, -4.982643127441406, 1.4562246799468994, 8.354095458984375, -2.7997753620147705, -4.891948223114014, -1.451971173286438, 0.031494140625, -0.134033203125, -0.84716796875
343, 2368220879, -4.9536662101745605, 1.441697359085083, 8.34266185760498, -2.590827465057373, -3.929743766784668, -1.6584736108779907, 0.032470703125, -0.134521484375, -0.8466796875
344, 2368237546, -4.921232223510742, 1.3424113988876343, 8.4010591506958, 0.1563079059123993, -1.8186681270599365, -0.40386104583740234, 0.032958984375, -0.134033203125, -0.84716796875
345, 2368254213, -4.9560089111328125, 1.4285407066345215, 8.403002738952637, 2.615293502807617, 0.3297058939933777, 0.5699658393859863, 0.032958984375, -0.13671875, -0.8466796875
346, 2368270880, -4.9824538230896, 1.479098916053772, 8.330123901367188, 2.9453132152557373, 1.5035103559494019, 0.7008723616600037, 0.033447265625, -0.13623046875, -0.84619140625
347, 2368287547, -4.988370418548584, 1.4921767711639404, 8.364583969116211, 3.385794162750244, 2.639772891998291, 0.28690066933631897, 0.034912109375, -0.1396484375, -0.845458984375
348, 2368304214, -5.0627827644348145, 1.5117894411087036, 8.327816009521484, 4.228727340698242, 2.696409225463867, 0.3496197760105133, 0.034423828125, -0.14111328125, -0.846923828125
349, 2368320881, -4.998849391937256, 1.535700798034668, 8.307971954345703, 3.1362428665161133, 1.9731189012527466, 0.37309378385543823, 0.034912109375, -0.144287109375, -0.845947265625
350, 2368337548, -4.9973859786987305, 1.5579766035079956, 8.272857666015625, 1.3916085958480835, 1.929347038269043, -0.45678970217704773, 0.035400390625, -0.1435546875, -0.845947265625
351, 2368354215, -5.038697242736816, 1.5938293933868408, 8.248580932617188, -0.13363423943519592, 1.3869338035583496, -1.239961862564087, 0.037353515625, -0.146240234375, -0.8447265625
352, 2368370882, -5.05457067489624, 1.6119215488433838, 8.276071548461914, -1.8754897117614746, 0.3556258976459503, -2.1396589279174805, 0.036865234375, -0.14404296875, -0.843994140625
353, 2368387549, -5.030237674713135, 1.603274941444397, 8.27288818359375, -3.432037591934204, -0.6919782757759094, -2.8052566051483154, 0.037353515625, -0.145263671875, -0.841796875
354, 2368404216, -4.955394744873047, 1.6517277956008911, 8.288797378540039, -4.423326015472412, -1.374018907546997, -3.4177844524383545, 0.037353515625, -0.144287109375, -0.845947265625
355, 2368420883, -4.924854755401611, 1.6380317211151123, 8.292983055114746, -5.601715087890625, -1.7693893909454346, -4.3763651847839355, 0.037353515625, -0.142578125, -0.846923828125
356, 2368437550, -4.928309917449951, 1.6752969026565552, 8.29332160949707, -7.037718772888184, -2.311598062515259, -5.647128105163574, 0.036865234375, -0.14208984375, -0.846435546875
357, 2368454217, -5.059251308441162, 1.547110676765442, 8.29581356048584, -7.224000930786133, -2.8370938301086426, -6.406519412994385, 0.037353515625, -0.14111328125, -0.845947265625
358, 2368470884, -5.093977451324463, 1.4791918992996216, 8.301919937133789, -5.6964945793151855, -1.9382283687591553, -5.798561096191406, 0.036865234375, -0.13916015625, -0.844482421875
359, 2368487551, -5.009847164154053, 1.5811249017715454, 8.316326141357422, -5.189364433288574, -1.963533878326416, -5.437500476837158, 0.035400390625, -0.13720703125, -0.845947265625
360, 2368504218, -4.869912624359131, 1.5904715061187744, 8.311707496643066, -4.429960250854492, -1.4571707248687744, -6.086628437042236, 0.037841796875, -0.13916015625, -0.845947265625
361, 2368520885, -4.861368656158447, 1.5799921751022339, 8.325167655944824, -4.819657802581787, -0.8162768483161926, -8.144660949707031, 0.036376953125, -0.138671875, -0.845947265625
362, 2368537552, -5.098034858703613, 1.4580235481262207, 8.294136047363281, -6.246772766113281, 0.9768623113632202, -9.26866340637207, 0.03857421875, -0.13671875, -0.847900390625
363, 2368554219, -5.123369216918945, 1.4301872253417969, 8.303065299987793, -4.796389102935791, 3.551464080810547, -8.637616157531738, 0.03955078125, -0.1357421875, -0.843994140625
364, 2368570886, -5.068802833557129, 1.3991426229476929, 8.293418884277344, -2.7136409282684326, 5.284791946411133, -7.782344818115234, 0.039306640625, -0.13623046875, -0.843505859375
365, 2368587553, -5.106598377227783, 1.4356714487075806, 8.288656234741211, 0.4378941059112549, 7.395277976989746, -6.881775856018066, 0.0419921875, -0.13916015625, -0.84375
366, 2368604220, -5.025180339813232, 1.404759407043457, 8.354299545288086, 3.2090866565704346, 10.476808547973633, -6.014325141906738, 0.04541015625, -0.13818359375, -0.84521484375
367, 2368620887, -4.948342800140381, 1.3971918821334839, 8.397625923156738, 6.222657203674316, 16.358652114868164, -5.754194259643555, 0.048583984375, -0.13818359375, -0.8447265625
368, 2368637554, -4.3906779289245605, 1.3149837255477905, 8.492769241333008, 7.261244297027588, 29.926830291748047, -6.220602989196777, 0.0576171875, -0.142822265625, -0.84228515625
369, 2368654221, -5.1309967041015625, 1.219184398651123, 8.309432983398438, 11.575571060180664, 47.20612335205078, -5.721092700958252, 0.067626953125, -0.146240234375, -0.84033203125
370, 2368670888, -5.118414878845215, 1.1189624071121216, 8.287565231323242, 18.598546981811523, 63.277610778808594, -2.6952717304229736, 0.083251953125, -0.14990234375, -0.83935546875
371, 2368687555, -5.070937633514404, 1.4735230207443237, 8.192590713500977, 21.620304107666016, 82.18402099609375, -2.318302869796753, 0.100341796875, -0.154052734375, -0.834228515625
372, 2368704222, -5.314363479614258, 1.5809215307235718, 8.188310623168945, 22.42677879333496, 103.73890686035156, -5.79185152053833, 0.125, -0.161376953125, -0.832275390625
373, 2368720889, -5.382284641265869, 1.7011643648147583, 8.241111755371094, 20.460111618041992, 126.5770263671875, -11.407818794250488, 0.154541015625, -0.16455078125, -0.8232421875
374, 2368737556, -5.6832275390625, 1.5406335592269897, 7.893650054931641, 17.06340980529785, 150.8018341064453, -15.321735382080078, 0.191650390625, -0.167724609375, -0.81591796875
375, 2368754223, -5.811279296875, 1.5327985286712646, 7.687067031860352, 17.07590675354004, 177.24440002441406, -17.23583221435547, 0.22900390625, -0.17041015625, -0.798095703125
376, 2368770890, -6.155390739440918, 1.8054943084716797, 7.511455059051514, 16.02742576599121, 207.7579345703125, -19.46327781677246, 0.27685546875, -0.172119140625, -0.784423828125
377, 2368787557, -6.56219482421875, 2.017822504043579, 7.346536636352539, 5.453084945678711, 245.4310760498047, -26.232542037963867, 0.329833984375, -0.17138671875, -0.760498046875
378, 2368804224, -6.806071758270264, 2.389533758163452, 7.2659220695495605, -6.613001823425293, 297.46868896484375, -36.39390563964844, 0.394287109375, -0.1669921875, -0.727783203125
379, 2368820891, -7.543551445007324, 2.732607841491699, 7.601503372192383, -8.474772453308105, 364.7294006347656, -49.67229080200195, 0.467041015625, -0.1572265625, -0.682861328125
380, 2368837558, -11.270486831665039, 2.535263776779175, 9.034226417541504, -2.994922399520874, 413.6919250488281, -62.454341888427734, 0.54443359375, -0.1494140625, -0.6171875
381, 2368854225, -15.538071632385254, 1.7597521543502808, 9.803633689880371, 15.707562446594238, 410.4516906738281, -72.79781341552734, 0.618896484375, -0.13720703125, -0.539306640625
382, 2368870892, -15.224164962768555, 3.6219019889831543, 9.073808670043945, 25.302583694458008, 410.3845520019531, -79.69933319091797, 0.6796875, -0.125732421875, -0.4521484375
383, 2368887559, -14.27733039855957, 3.8718552589416504, 9.120074272155762, 11.442136764526367, 419.1006164550781, -98.83526611328125, 0.73046875, -0.10888671875, -0.35888671875
384, 2368904226, -12.26247787475586, 3.0840394496917725, 10.552268028259277, 13.943166732788086, 400.9705505371094, -100.18079376220703, 0.7685546875, -0.08935546875, -0.259033203125
385, 2368920893, -8.410115242004395, 2.1553456783294678, 10.707964897155762, 54.27796173095703, 356.462646484375, -63.57330322265625, 0.78955078125, -0.071044921875, -0.1630859375
386, 2368937560, -17.8927001953125, 3.7365994453430176, 18.944965362548828, 91.72296905517578, 225.20806884765625, -44.16938781738281, 0.79296875, -0.0673828125, -0.08984375
387, 2368954227, -25.71259307861328, 7.250251293182373, 30.523962020874023, 76.18846130371094, -24.697187423706055, -46.163936614990234, 0.791015625, -0.0576171875, -0.0595703125
388, 2368970894, -7.757375240325928, 5.3208465576171875, 18.05755615234375, 9.002488136291504, -234.0036163330078, -50.545475006103516, 0.789306640625, -0.04736328125, -0.085205078125
389, 2368987561, -2.6835434436798096, 1.5802757740020752, 8.930964469909668, -24.188426971435547, -268.67041015625, -74.08741760253906, 0.792236328125, -0.03271484375, -0.1337890625
390, 2369004228, -3.7401061058044434, 1.2225664854049683, 7.767823219299316, -25.459197998046875, -274.7591247558594, -78.24861145019531, 0.791748046875, -0.014404296875, -0.190185546875
391, 2369020895, -5.092208385467529, 2.6714773178100586, 8.449687004089355, -19.857254028320312, -310.5757141113281, -72.30928802490234, 0.78369140625, 0.00244140625, -0.25439453125
392, 2369037562, -5.435877323150635, 3.330048084259033, 7.425925254821777, -21.79730796813965, -351.215087890625, -64.85873413085938, 0.7685546875, 0.0205078125, -0.33251953125
393, 2369054229, -5.175619602203369, 3.409590482711792, 6.28995418548584, -9.18260383605957, -365.9642028808594, -37.29338455200195, 0.7412109375, 0.029296875, -0.4208984375
394, 2369070896, -6.085805892944336, 4.460545063018799, 6.114941596984863, 11.264049530029297, -373.07415771484375, 3.545149564743042, 0.697509765625, 0.02783203125, -0.517578125
395, 2369087563, -6.152261257171631, 5.448606967926025, 5.979320526123047, 14.844072341918945, -377.5960998535156, 42.024776458740234, 0.630615234375, 0.017822265625, -0.610107421875
396, 2369104230, -7.539865493774414, 4.943244457244873, 6.530972480773926, 5.685229301452637, -370.52569580078125, 71.2463150024414, 0.544921875, 0.01025390625, -0.680908203125
397, 2369120897, -9.395326614379883, 3.560993194580078, 8.441648483276367, 11.219039916992188, -370.9279479980469, 92.04470825195312, 0.4580078125, 0.007568359375, -0.73193359375
398, 2369137564, -9.101544380187988, 2.212341070175171, 7.094362735748291, 29.585691452026367, -364.55999755859375, 94.66163635253906, 0.37548828125, 4.8828125E-4, -0.769287109375
399, 2369154231, -9.887701034545898, 0.5362871289253235, 5.694028377532959, 44.4050178527832, -297.46759033203125, 86.45789337158203, 0.30126953125, -0.0126953125, -0.79052734375
400, 2369170898, -15.576417922973633, -0.952269971370697, 12.72858715057373, 81.60443878173828, -249.05030822753906, 87.89048767089844, 0.24072265625, -0.032958984375, -0.789794921875
401, 2369187565, -17.236045837402344, -1.0123804807662964, 12.404464721679688, 121.21778869628906, -249.1138916015625, 80.40434265136719, 0.202392578125, -0.063720703125, -0.77880859375
402, 2369204232, -18.860294342041016, -1.1705820560455322, 10.490900039672852, 138.58921813964844, -227.2083740234375, 60.044315338134766, 0.1865234375, -0.09619140625, -0.77978515625
403, 2369220899, -22.547914505004883, 1.4466840028762817, 11.080618858337402, 137.8534698486328, -222.93649291992188, 60.23264694213867, 0.172607421875, -0.1318359375, -0.800537109375
404, 2369237566, -22.160423278808594, 1.8260104656219482, 8.137489318847656, 94.56893920898438, -233.15533447265625, 63.12792205810547, 0.13818359375, -0.17138671875, -0.846435546875
405, 2369254233, -20.298912048339844, -1.116273045539856, 3.96164608001709, 67.35877990722656, -224.7813262939453, 73.21179962158203, 0.074951171875, -0.204345703125, -0.890869140625
406, 2369270900, -18.966459274291992, -2.6027801036834717, 1.3519599437713623, 64.02735900878906, -195.3790283203125, 79.08028411865234, -7.32421875E-4, -0.23876953125, -0.912353515625
407, 2369287567, -17.73587417602539, -3.0742969512939453, -0.7656526565551758, 53.27302169799805, -156.8784637451172, 78.83506774902344, -0.072998046875, -0.270263671875, -0.920166015625
408, 2369304234, -18.02463150024414, -3.317335605621338, -3.4937376976013184, 31.744731903076172, -116.39881134033203, 71.20372009277344, -0.131103515625, -0.28759765625, -0.91552734375
409, 2369320901, -17.347780227661133, -3.523714780807495, -6.629549026489258, 8.312299728393555, -65.99212646484375, 62.2165412902832, -0.173583984375, -0.295654296875, -0.90673828125
410, 2369337568, -17.299848556518555, -3.907313108444214, -7.0521392822265625, -8.802556037902832, -3.8296778202056885, 62.71654510498047, -0.197509765625, -0.299560546875, -0.906494140625
411, 2369354235, -19.438493728637695, -3.256187677383423, -3.2349796295166016, -28.934133529663086, 40.24843978881836, 58.88179016113281, -0.203125, -0.2939453125, -0.91162109375
412, 2369370902, -13.666909217834473, -1.8809514045715332, 1.5122443437576294, -60.01014709472656, 61.36084747314453, 44.07954025268555, -0.197998046875, -0.2841796875, -0.92626953125
413, 2369387569, 3.5355029106140137, 2.003631591796875, 15.628801345825195, -105.546630859375, 55.50726318359375, 2.893566370010376, -0.19189453125, -0.259521484375, -0.94482421875
414, 2369404236, 2.36490797996521, 5.4406304359436035, 14.080683708190918, 1.5309162139892578, 119.20811462402344, -10.634928703308105, -0.171142578125, -0.259765625, -0.956787109375
415, 2369420903, -2.683187961578369, -10.246557235717773, 6.567015647888184, -9.211883544921875, 180.83306884765625, -64.37787628173828, -0.129150390625, -0.265625, -0.970458984375
416, 2369437570, -11.287808418273926, -2.002227783203125, 14.491103172302246, 24.3839054107666, 179.4123992919922, -39.685462951660156, -0.083251953125, -0.27978515625, -0.98046875
417, 2369454237, -7.686666011810303, 4.195291519165039, 10.91153621673584, 30.84419822692871, 164.3306121826172, -16.853679656982422, -0.04052734375, -0.29248046875, -0.988525390625
418, 2369470904, -7.003567695617676, 4.057953357696533, 9.468175888061523, 17.796348571777344, 145.57095336914062, -17.5211124420166, -0.002197265625, -0.303466796875, -0.995849609375
419, 2369487571, -5.984084606170654, 5.103681564331055, 9.252330780029297, 4.475374698638916, 134.18606567382812, -21.8901424407959, 0.03125, -0.312255859375, -1.002685546875
420, 2369504238, -12.99649715423584, 7.380709171295166, 11.507335662841797, -42.107357025146484, 105.57933807373047, -41.477970123291016, 0.0634765625, -0.303955078125, -1.0048828125
421, 2369520905, -6.542794227600098, -1.1280429363250732, 10.938117027282715, -50.73978805541992, 62.10172653198242, -32.950992584228516, 0.0859375, -0.293701171875, -1.013427734375
422, 2369537572, -6.171988487243652, 1.8983643054962158, 9.20339584350586, -45.959957122802734, 31.34713363647461, -21.891883850097656, 0.09765625, -0.2802734375, -1.017822265625
423, 2369554239, -5.570552825927734, 1.1700800657272339, 9.077166557312012, -30.162939071655273, 16.017330169677734, -14.422745704650879, 0.1015625, -0.272705078125, -1.018798828125
424, 2369570906, -5.682888984680176, 1.7852143049240112, 8.637185096740723, -20.548358917236328, 7.9093403816223145, -11.48466968536377, 0.104248046875, -0.266845703125, -1.021240234375
425, 2369587573, -5.434820652008057, 1.39173424243927, 8.667969703674316, -11.726410865783691, 3.818913698196411, -6.990068435668945, 0.107666015625, -0.26220703125, -1.022216796875
426, 2369604240, -5.174224376678467, 1.4751969575881958, 8.500288963317871, -4.3452467918396, 5.033005237579346, -2.5660600662231445, 0.109619140625, -0.26318359375, -1.023193359375
427, 2369620907, -5.151556491851807, 1.7588739395141602, 8.287946701049805, -3.814333200454712, 6.757828712463379, -0.7390801906585693, 0.111572265625, -0.26318359375, -1.022216796875
428, 2369637574, -5.061118125915527, 1.8712791204452515, 8.183272361755371, -2.9147510528564453, 7.448423862457275, -0.2622356712818146, 0.111083984375, -0.2626953125, -1.024658203125
429, 2369654241, -5.1978068351745605, 2.0069146156311035, 8.110916137695312, -3.8525989055633545, 6.768611907958984, -1.8201797008514404, 0.1142578125, -0.26318359375, -1.022705078125
430, 2369670908, -5.136679649353027, 1.8877280950546265, 8.112849235534668, -8.279423713684082, 4.660085201263428, -4.721523761749268, 0.11767578125, -0.26123046875, -1.0224609375
431, 2369687575, -5.087594032287598, 1.785553216934204, 8.149951934814453, -14.565176963806152, 3.140472412109375, -7.5174760818481445, 0.11865234375, -0.2568359375, -1.024169921875
432, 2369704242, -5.166712284088135, 1.7989585399627686, 8.182056427001953, -16.2078914642334, 1.4269044399261475, -9.058735847473145, 0.11865234375, -0.25390625, -1.026611328125
433, 2369720909, -5.0822978019714355, 1.8004944324493408, 8.238226890563965, -18.32672119140625, -2.410325288772583, -11.625892639160156, 0.119384765625, -0.250244140625, -1.02978515625
434, 2369737576, -5.159014701843262, 2.0475828647613525, 8.297651290893555, -25.370134353637695, -12.486867904663086, -17.86285400390625, 0.11767578125, -0.244873046875, -1.02978515625
435, 2369754243, -5.318021297454834, 2.2193219661712646, 8.289332389831543, -31.374147415161133, -22.875125885009766, -24.254419326782227, 0.1123046875, -0.23583984375, -1.03125
436, 2369770910, -5.20287561416626, 1.3338629007339478, 8.194936752319336, -23.536083221435547, -18.018964767456055, -21.84792709350586, 0.107177734375, -0.227783203125, -1.035400390625
437, 2369787577, -5.023526191711426, 1.0098551511764526, 8.35894775390625, -11.361193656921387, -6.416872978210449, -14.03211498260498, 0.105712890625, -0.22216796875, -1.03369140625
438, 2369804244, -5.113693714141846, 1.1045515537261963, 8.322362899780273, -4.679800510406494, 2.124119520187378, -8.7114839553833, 0.107177734375, -0.22119140625, -1.03369140625
439, 2369820911, -5.093080520629883, 1.3785358667373657, 8.329887390136719, -0.9259122014045715, 7.229743480682373, -6.2992143630981445, 0.106201171875, -0.2236328125, -1.03369140625
440, 2369837578, -5.152584075927734, 1.6181398630142212, 8.294278144836426, -3.3222506046295166, 9.080636024475098, -8.908434867858887, 0.110595703125, -0.2216796875, -1.035400390625
441, 2369854245, -5.062133312225342, 1.7117350101470947, 8.345130920410156, -8.922783851623535, 10.14814281463623, -13.379143714904785, 0.112548828125, -0.22216796875, -1.032470703125
442, 2369870912, -5.097806453704834, 1.3121646642684937, 8.321545600891113, -9.825883865356445, 15.761170387268066, -15.390318870544434, 0.11865234375, -0.21875, -1.0341796875
443, 2369887579, -4.842034816741943, 0.9441114664077759, 8.328001022338867, -5.900160789489746, 26.73728370666504, -13.49039363861084, 0.126708984375, -0.21435546875, -1.03369140625
444, 2369904246, -4.855013370513916, 1.2438132762908936, 8.421723365783691, 7.114078998565674, 44.66120910644531, -12.999187469482422, 0.1376953125, -0.216796875, -1.03173828125
445, 2369920913, -5.119895935058594, 1.1560866832733154, 8.575491905212402, 8.45554256439209, 60.928627014160156, -14.347780227661133, 0.1552734375, -0.219482421875, -1.028076171875
446, 2369937580, -5.15064811706543, 1.3183794021606445, 8.283446311950684, 8.206977844238281, 78.59919738769531, -15.797430038452148, 0.17578125, -0.2216796875, -1.0234375
447, 2369954247, -5.363600254058838, 1.2700810432434082, 8.099797248840332, 11.388615608215332, 96.91864013671875, -18.935754776000977, 0.202392578125, -0.2236328125, -1.016357421875
448, 2369970914, -5.434462070465088, 1.2598363161087036, 8.03170108795166, 14.870083808898926, 118.15011596679688, -21.49580955505371, 0.235107421875, -0.22802734375, -1.0068359375
449, 2369987581, -5.428987503051758, 1.023257851600647, 8.018598556518555, 17.38488006591797, 143.65354919433594, -23.305864334106445, 0.272705078125, -0.230224609375, -0.994873046875
450, 2370004248, -5.4955220222473145, 0.9206134080886841, 8.114384651184082, 16.398014068603516, 177.7155303955078, -23.622726440429688, 0.3212890625, -0.23486328125, -0.981201171875
451, 2370020915, -5.648746013641357, 1.1898632049560547, 7.8618927001953125, 12.935294151306152, 224.14878845214844, -27.780498504638672, 0.376953125, -0.234619140625, -0.955322265625
452, 2370037582, -6.168088912963867, 1.3222402334213257, 7.723097801208496, 3.108933687210083, 282.8577880859375, -35.031185150146484, 0.4462890625, -0.2333984375, -0.92236328125
453, 2370054249, -6.414167881011963, 1.7926280498504639, 8.10464096069336, -14.220555305480957, 365.09381103515625, -40.689022064208984, 0.533203125, -0.22412109375, -0.874755859375
454, 2370070916, -8.435900688171387, 2.444070816040039, 9.854581832885742, -14.205451011657715, 460.8663635253906, -48.74669647216797, 0.632568359375, -0.208251953125, -0.797607421875
455, 2370087583, -16.26369285583496, 1.6247800588607788, 12.340044021606445, 5.725996494293213, 495.5462951660156, -62.500877380371094, 0.730224609375, -0.190185546875, -0.692138671875
456, 2370104250, -18.399234771728516, 2.9001665115356445, 11.873200416564941, 21.572982788085938, 474.6132507324219, -73.34205627441406, 0.808349609375, -0.169921875, -0.572509765625
457, 2370120917, -16.66517448425293, 4.401088237762451, 11.786636352539062, -0.14618809521198273, 469.85980224609375, -99.82308959960938, 0.8681640625, -0.137451171875, -0.439208984375
458, 2370137584, -12.316974639892578, 4.459310054779053, 12.967063903808594, -17.950084686279297, 440.2783508300781, -114.53224182128906, 0.89892578125, -0.09765625, -0.30224609375
459, 2370154251, -4.895508766174316, 2.4151642322540283, 14.623272895812988, 15.226425170898438, 378.09222412109375, -77.2085952758789, 0.911376953125, -0.064453125, -0.17919921875
460, 2370170918, -27.004131317138672, 1.7169978618621826, 21.687498092651367, 79.08778381347656, 236.43527221679688, -85.61740112304688, 0.907958984375, -0.039794921875, -0.09228515625
461, 2370187585, -20.839567184448242, 6.673099994659424, 30.065046310424805, 146.0932159423828, -59.123592376708984, -27.01905632019043, 0.901611328125, -0.02197265625, -0.06884765625
462, 2370204252, -4.8142218589782715, 8.739585876464844, 14.86790943145752, 74.42670440673828, -228.81654357910156, -12.599262237548828, 0.905517578125, -0.018798828125, -0.109619140625
463, 2370220919, -1.1312520503997803, 4.9806904792785645, 7.180706977844238, -2.111299753189087, -245.02178955078125, -32.14574432373047, 0.90966796875, -0.01513671875, -0.181396484375
464, 2370237586, -1.131398320198059, 4.277468204498291, 5.885640621185303, -48.6142578125, -233.2474365234375, -21.563417434692383, 0.903076171875, -0.0166015625, -0.262451171875
465, 2370254253, -3.91607403755188, 5.129486560821533, 7.8290510177612305, -70.57892608642578, -255.63800048828125, -13.44618034362793, 0.872802734375, -0.016845703125, -0.348388671875
466, 2370270920, -6.892204284667969, 3.9637606143951416, 9.697866439819336, -66.5494155883789, -312.1021728515625, 13.235639572143555, 0.81201171875, -0.0205078125, -0.435546875
467, 2370287587, -7.249745845794678, 3.1390457153320312, 8.34231948852539, -40.68107986450195, -370.6187438964844, 46.99272537231445, 0.73876953125, -0.026123046875, -0.512939453125
468, 2370304254, -6.3123345375061035, 2.3345277309417725, 5.976790904998779, -22.040050506591797, -393.44097900390625, 64.38074493408203, 0.652099609375, -0.038330078125, -0.581787109375
469, 2370320921, -7.3844451904296875, 1.50336492061615, 5.853593349456787, -9.346919059753418, -394.3039855957031, 67.6104965209961, 0.568359375, -0.0478515625, -0.638671875
470, 2370337588, -8.92094612121582, 0.4715265929698944, 8.010116577148438, 12.216781616210938, -402.21954345703125, 68.81664276123047, 0.482421875, -0.059326171875, -0.674072265625
471, 2370354255, -8.950883865356445, -0.27806252241134644, 7.798178672790527, 39.373451232910156, -419.5579528808594, 64.11720275878906, 0.40185546875, -0.07568359375, -0.705322265625
472, 2370370922, -8.671514511108398, -1.7783502340316772, 5.3020429611206055, 66.586181640625, -392.0126037597656, 44.95581817626953, 0.320556640625, -0.09326171875, -0.730712890625
473, 2370387589, -13.728020668029785, -3.4313313961029053, 8.721982955932617, 99.85224914550781, -326.3269958496094, 27.658483505249023, 0.264404296875, -0.12158203125, -0.739501953125
474, 2370404256, -17.883039474487305, -2.935486078262329, 13.390645980834961, 131.6265869140625, -301.0713195800781, 1.7449591159820557, 0.21728515625, -0.147705078125, -0.744140625
475, 2370420923, -20.30942153930664, -1.5074224472045898, 12.204327583312988, 135.2623291015625, -300.73175048828125, -23.61141586303711, 0.173583984375, -0.184326171875, -0.76025390625
476, 2370437590, -21.829994201660156, -0.30391430854797363, 9.092044830322266, 124.67063903808594, -275.9766540527344, -15.33104419708252, 0.118896484375, -0.218994140625, -0.778076171875
477, 2370454257, -23.806257247924805, 2.22587251663208, 7.953433990478516, 89.20149230957031, -254.48049926757812, 18.703222274780273, 0.054443359375, -0.25439453125, -0.79052734375
478, 2370470924, -22.978513717651367, 0.7737097144126892, 3.775477409362793, 34.981956481933594, -243.06484985351562, 56.616737365722656, -0.025390625, -0.275390625, -0.792724609375
479, 2370487591, -21.75086784362793, -2.95566987991333, -1.2465338706970215, 19.599628448486328, -203.21156311035156, 82.17383575439453, -0.09228515625, -0.285888671875, -0.782958984375
480, 2370504258, -22.35236930847168, -3.4554834365844727, -2.7420153617858887, 24.052379608154297, -155.7848663330078, 99.83821105957031, -0.143310546875, -0.29296875, -0.767333984375
481, 2370520925, -21.014690399169922, -2.7599589824676514, -5.428765296936035, -4.985137462615967, -110.03752136230469, 118.1181640625, -0.185302734375, -0.2900390625, -0.75048828125
482, 2370537592, -21.143224716186523, -5.292108058929443, -7.443016052246094, -37.049556732177734, -54.31028747558594, 125.14420318603516, -0.215576171875, -0.2783203125, -0.7431640625
483, 2370554259, -20.841516494750977, -6.0801100730896, -7.8912858963012695, -28.044790267944336, 2.89260196685791, 119.3702621459961, -0.226318359375, -0.261962890625, -0.736083984375
484, 2370570926, -15.408163070678711, -7.017204761505127, -6.519070148468018, -8.709847450256348, 71.34925842285156, 102.06155395507812, -0.227783203125, -0.25341796875, -0.736328125
485, 2370587593, 0.9948447346687317, -1.8464386463165283, 12.42843246459961, -5.188837051391602, 115.46710968017578, 35.782318115234375, -0.214599609375, -0.249755859375, -0.745361328125
486, 2370604260, -3.722489833831787, -1.1293203830718994, 18.203977584838867, 35.49448776245117, 150.28134155273438, -42.31543731689453, -0.18603515625, -0.255859375, -0.742919921875
487, 2370620927, -5.972593784332275, -0.3290163576602936, 7.057871341705322, 39.049591064453125, 184.55093383789062, -42.4931755065918, -0.149169921875, -0.267822265625, -0.7431640625
488, 2370637594, -12.269570350646973, 2.5847420692443848, 14.65267562866211, 26.353742599487305, 160.64686584472656, -24.678863525390625, -0.114013671875, -0.27490234375, -0.742431640625
489, 2370654261, -5.523043632507324, 4.427850246429443, 9.007187843322754, 17.69432830810547, 133.02630615234375, -19.214994430541992, -0.082275390625, -0.2841796875, -0.743408203125
490, 2370670928, -5.432933807373047, 3.7667932510375977, 8.712301254272461, 6.384799957275391, 128.03863525390625, -21.917016983032227, -0.05712890625, -0.283447265625, -0.7431640625
491, 2370687595, -10.169188499450684, 7.772260665893555, 11.323321342468262, -33.81306457519531, 113.44207000732422, -41.02170944213867, -0.031005859375, -0.281494140625, -0.742919921875
492, 2370704262, -7.661999225616455, -0.2509767413139343, 10.63966178894043, -58.68702697753906, 68.16554260253906, -45.13343048095703, -0.011474609375, -0.272705078125, -0.747802734375
493, 2370720929, -6.688372611999512, 1.1016144752502441, 10.366065979003906, -57.72330856323242, 33.518550872802734, -28.525123596191406, 7.32421875E-4, -0.2587890625, -0.752197265625
494, 2370737596, -5.772190570831299, 1.5646318197250366, 9.030682563781738, -42.8669319152832, 11.049330711364746, -22.570232391357422, 0.004638671875, -0.249755859375, -0.755859375
495, 2370754263, -5.384263038635254, 1.8484618663787842, 8.851527214050293, -32.20801544189453, 4.8154616355896, -18.699167251586914, 0.004150390625, -0.24072265625, -0.756591796875
496, 2370770930, -5.356944561004639, 1.4568315744400024, 8.751543998718262, -22.048236846923828, -0.4313061535358429, -14.993071556091309, 0.00732421875, -0.23828125, -0.7568359375
497, 2370787597, -5.096889019012451, 1.1478161811828613, 8.65447998046875, -18.00244140625, -0.9511420726776123, -11.938445091247559, 0.00732421875, -0.2333984375, -0.760009765625
498, 2370804264, -4.822309970855713, 1.3848973512649536, 8.536046028137207, -12.487430572509766, 2.387099027633667, -7.6554365158081055, 0.01025390625, -0.232421875, -0.760986328125
499, 2370820931, -4.796594619750977, 1.587605595588684, 8.458321571350098, -9.101194381713867, 4.643232345581055, -5.880768299102783, 0.01025390625, -0.228759765625, -0.760498046875
500, 2370837598, -4.934013366699219, 1.785939335823059, 8.455930709838867, -9.186358451843262, 4.173815727233887, -6.605736255645752, 0.01171875, -0.228271484375, -0.762451171875
501, 2370854265, -5.058678150177002, 1.6442246437072754, 8.346329689025879, -10.379913330078125, 2.07430362701416, -8.274060249328613, 0.0107421875, -0.226318359375, -0.761962890625
502, 2370870932, -5.020266532897949, 1.5144202709197998, 8.419528007507324, -11.716628074645996, -0.042593952268362045, -10.173115730285645, 0.01416015625, -0.222900390625, -0.759521484375
503, 2370887599, -5.05596923828125, 1.4771395921707153, 8.404830932617188, -11.504591941833496, -1.096826195716858, -9.933405876159668, 0.01513671875, -0.22021484375, -0.761474609375
504, 2370904266, -4.966996669769287, 1.4585627317428589, 8.419886589050293, -11.450180053710938, -2.434143543243408, -9.928041458129883, 0.01318359375, -0.2197265625, -0.760986328125
505, 2370920933, -4.944359302520752, 1.4275953769683838, 8.408782005310059, -10.186727523803711, -2.287740707397461, -9.897880554199219, 0.01318359375, -0.21826171875, -0.763671875
506, 2370937600, -5.013298511505127, 1.4719982147216797, 8.433345794677734, -9.747406959533691, -1.55150306224823, -10.271082878112793, 0.01513671875, -0.216796875, -0.7626953125
507, 2370954267, -5.0226545333862305, 1.3314757347106934, 8.385785102844238, -8.316319465637207, -0.12483637034893036, -10.14586067199707, 0.0146484375, -0.21826171875, -0.76416015625
508, 2370970934, -4.971299648284912, 1.276231050491333, 8.395352363586426, -5.802457332611084, 3.1098251342773438, -9.161717414855957, 0.01513671875, -0.21435546875, -0.76171875
509, 2370987601, -4.915979385375977, 1.3591549396514893, 8.405001640319824, -4.033360958099365, 5.822229385375977, -9.362520217895508, 0.016845703125, -0.21337890625, -0.763671875
510, 2371004268, -4.800738334655762, 1.5625379085540771, 8.463126182556152, -6.230959892272949, 9.958834648132324, -11.22223949432373, 0.018798828125, -0.212890625, -0.763671875
511, 2371020935, -4.979729652404785, 1.37624192237854, 8.437652587890625, -5.788363933563232, 15.039369583129883, -12.970969200134277, 0.024169921875, -0.2109375, -0.764404296875
512, 2371037602, -4.92320442199707, 1.222180962562561, 8.425586700439453, -3.3513529300689697, 21.8426456451416, -13.621699333190918, 0.0302734375, -0.21240234375, -0.7626953125
513, 2371054269, -4.66192626953125, 0.9151948690414429, 8.435996055603027, 0.29507890343666077, 34.079750061035156, -12.740316390991211, 0.036865234375, -0.2119140625, -0.762451171875
514, 2371070936, -4.918601989746094, 1.158795952796936, 8.476588249206543, 5.406693935394287, 49.93077087402344, -13.170788764953613, 0.044921875, -0.2138671875, -0.75927734375
515, 2371087603, -5.094038486480713, 0.9945021271705627, 8.43670654296875, 7.683679580688477, 64.46023559570312, -12.53869915008545, 0.06103515625, -0.216552734375, -0.759521484375
516, 2371104270, -5.183416843414307, 1.0337384939193726, 8.296106338500977, 11.599700927734375, 78.91584014892578, -11.057999610900879, 0.08056640625, -0.22021484375, -0.75537109375
517, 2371120937, -5.389934062957764, 1.1420074701309204, 8.17978286743164, 15.376120567321777, 95.83615112304688, -10.143290519714355, 0.0986328125, -0.222412109375, -0.750732421875
518, 2371137604, -5.401045322418213, 1.248239517211914, 8.136063575744629, 17.160606384277344, 115.58334350585938, -12.486632347106934, 0.123291015625, -0.2255859375, -0.7490234375
519, 2371154271, -5.490222930908203, 1.3067314624786377, 8.014823913574219, 17.369056701660156, 139.58518981933594, -17.63628578186035, 0.1552734375, -0.229248046875, -0.7373046875
520, 2371170938, -5.658474922180176, 1.1702537536621094, 7.874873638153076, 16.431610107421875, 166.37741088867188, -22.203031539916992, 0.187255859375, -0.23193359375, -0.727783203125
521, 2371187605, -5.7769036293029785, 1.0284414291381836, 7.793378829956055, 14.769867897033691, 202.05552673339844, -24.56626319885254, 0.22998046875, -0.232421875, -0.712158203125
522, 2371204272, -6.189280033111572, 1.4386659860610962, 7.51738166809082, 8.53624153137207, 249.46484375, -31.265304565429688, 0.279541015625, -0.2353515625, -0.695556640625
523, 2371220939, -6.417142868041992, 1.7105156183242798, 7.569070816040039, -8.033966064453125, 314.2993469238281, -41.18588638305664, 0.339111328125, -0.23193359375, -0.665283203125
524, 2371237606, -7.3849711418151855, 2.944762706756592, 8.52108097076416, -22.84163475036621, 403.6178894042969, -55.50504684448242, 0.41357421875, -0.22314453125, -0.624267578125
525, 2371254273, -11.299778938293457, 3.1269774436950684, 10.371015548706055, -20.967437744140625, 475.58740234375, -77.84268951416016, 0.49609375, -0.208251953125, -0.557861328125
526, 2371270940, -18.117538452148438, 1.280670166015625, 11.564936637878418, 0.8459833264350891, 472.8386535644531, -95.21490478515625, 0.5703125, -0.19677734375, -0.478759765625
527, 2371287607, -18.310087203979492, 3.2936911582946777, 11.253264427185059, -0.12684160470962524, 454.94195556640625, -101.79708862304688, 0.635009765625, -0.174560546875, -0.388671875
528, 2371304274, -15.682915687561035, 5.148472309112549, 12.15435791015625, -16.1798095703125, 441.4981689453125, -120.44606018066406, 0.685302734375, -0.148193359375, -0.2939453125
529, 2371320941, -9.24989128112793, 3.5657403469085693, 12.550320625305176, -21.800098419189453, 406.7223205566406, -120.16096496582031, 0.71728515625, -0.117431640625, -0.200439453125
530, 2371337608, -8.401334762573242, 0.16338887810707092, 17.02674674987793, 25.882213592529297, 293.641357421875, -74.69398498535156, 0.73193359375, -0.097412109375, -0.119384765625
531, 2371354275, -31.830602645874023, 3.25178861618042, 27.925642013549805, 97.29463958740234, 108.17781829833984, -91.44182586669922, 0.729736328125, -0.0703125, -0.0625
532, 2371370942, -12.06338119506836, 8.296128273010254, 23.096263885498047, 124.91046142578125, -179.67898559570312, -12.422750473022461, 0.717529296875, -0.05517578125, -0.0595703125
533, 2371387609, -1.7079378366470337, 6.788000106811523, 9.254508972167969, 52.30861282348633, -249.5975799560547, -17.419981002807617, 0.70849609375, -0.0341796875, -0.068603515625
534, 2371404276, 0.11546146869659424, 4.099490165710449, 5.596022129058838, -2.6052684783935547, -228.47633361816406, -18.251083374023438, 0.717041015625, -0.0029296875, -0.065673828125
535, 2371420943, -3.120131254196167, 4.95992374420166, 7.340354919433594, -33.34902572631836, -226.38165283203125, 4.813380241394043, 0.75, 0.03076171875, -0.06884765625
536, 2371437610, -5.965068340301514, 5.223999500274658, 9.450803756713867, -57.689369201660156, -281.1619567871094, 23.095258712768555, 0.815673828125, 0.063232421875, -0.106201171875
537, 2371454277, -5.96628999710083, 3.1591224670410156, 8.453801155090332, -59.19111633300781, -336.1286315917969, 47.168540954589844, 0.88818359375, 0.082763671875, -0.217041015625
538, 2371470944, -6.005626201629639, 1.4069052934646606, 7.038741588592529, -32.67869186401367, -366.3455505371094, 70.79235076904297, 0.914306640625, 0.086181640625, -0.402099609375
539, 2371487611, -6.544961929321289, 0.9481982588768005, 6.107240676879883, -2.333090305328369, -383.9325866699219, 85.17252349853516, 0.851806640625, 0.068603515625, -0.583740234375
540, 2371504278, -7.716692924499512, 0.9158858060836792, 7.036552906036377, 12.221016883850098, -391.04296875, 84.76428985595703, 0.730224609375, 0.052978515625, -0.716064453125
541, 2371520945, -8.717873573303223, -0.36079898476600647, 8.4236421585083, 24.199552536010742, -402.409423828125, 79.02591705322266, 0.596923828125, 0.041015625, -0.79541015625
542, 2371537612, -8.474316596984863, -2.4045236110687256, 6.104431629180908, 53.084075927734375, -405.81976318359375, 61.89798355102539, 0.477783203125, 0.03076171875, -0.85302734375
543, 2371554279, -10.128474235534668, -3.8322689533233643, 5.09519100189209, 88.37821197509766, -334.96563720703125, 37.93083953857422, 0.376220703125, 0.0087890625, -0.891845703125
544, 2371570946, -14.914319038391113, -2.0360612869262695, 11.905696868896484, 112.7076416015625, -278.9175109863281, 16.760684967041016, 0.288818359375, -0.025390625, -0.923828125
545, 2371587613, -19.247310638427734, -0.2608329951763153, 14.23212718963623, 111.70658111572266, -291.6960144042969, -4.406015872955322, 0.1845703125, -0.053955078125, -0.940185546875
546, 2371604280, -19.053335189819336, -0.44320914149284363, 9.825305938720703, 116.20710754394531, -276.0574645996094, -0.40359166264533997, 0.08740234375, -0.080322265625, -0.924560546875
547, 2371620947, -23.42101287841797, 1.8377585411071777, 9.995813369750977, 119.93242645263672, -257.04425048828125, 32.97917556762695, 0.011474609375, -0.11328125, -0.90673828125
548, 2371637614, -23.37570571899414, 2.36605167388916, 6.397871971130371, 64.35498809814453, -260.0406188964844, 63.21982955932617, -0.054443359375, -0.146240234375, -0.8935546875
549, 2371654281, -22.10427474975586, -1.7906684875488281, 0.657619833946228, 27.081050872802734, -233.6010284423828, 87.5907974243164, -0.12158203125, -0.164306640625, -0.87939453125
550, 2371670948, -21.805816650390625, -2.0914225578308105, -1.760570764541626, 19.650165557861328, -189.27783203125, 105.13359069824219, -0.1767578125, -0.176513671875, -0.86474609375
551, 2371687615, -20.71425437927246, -2.2027084827423096, -3.5927162170410156, -7.72890567779541, -141.48147583007812, 112.07202911376953, -0.223876953125, -0.173583984375, -0.85009765625
552, 2371704282, -19.717510223388672, -4.233435153961182, -5.707572937011719, -31.367162704467773, -87.16304016113281, 119.3032455444336, -0.255126953125, -0.1640625, -0.840576171875
553, 2371720949, -20.134103775024414, -5.899448871612549, -6.583136081695557, -26.163888931274414, -34.634376525878906, 115.94271087646484, -0.27490234375, -0.1513671875, -0.835693359375
554, 2371737616, -18.67413330078125, -7.731215953826904, -8.45253849029541, -14.530094146728516, 31.93276023864746, 100.01924133300781, -0.280029296875, -0.137939453125, -0.835693359375
555, 2371754283, -7.174165725708008, -7.642096996307373, -4.725569248199463, 22.006397247314453, 148.5643310546875, 36.978599548339844, -0.253662109375, -0.132568359375, -0.843017578125
556, 2371770950, -1.5173258781433105, 0.8852051496505737, 21.805469512939453, 11.457147598266602, 173.83843994140625, -58.03541564941406, -0.21435546875, -0.12841796875, -0.852294921875
557, 2371787617, -11.15666675567627, 5.7752509117126465, 10.27011775970459, 49.05698776245117, 178.6674041748047, -42.83240509033203, -0.173095703125, -0.142333984375, -0.857421875
558, 2371804284, -11.177739143371582, -0.630061149597168, 13.133637428283691, 27.952760696411133, 172.05905151367188, -16.99408531188965, -0.127197265625, -0.145751953125, -0.863037109375
559, 2371820951, -6.617165565490723, 3.2551612854003906, 9.988100051879883, 24.074810028076172, 135.9069061279297, -17.144607543945312, -0.094482421875, -0.150390625, -0.864501953125
560, 2371837618, -5.446392059326172, 4.694091320037842, 8.23468017578125, 21.269540786743164, 138.7869415283203, -13.602270126342773, -0.057373046875, -0.152587890625, -0.864990234375
561, 2371854285, -10.952106475830078, 9.317852020263672, 10.649946212768555, -31.0269775390625, 119.54630279541016, -39.88158416748047, -0.024169921875, -0.145751953125, -0.865966796875
562, 2371870952, -7.6686859130859375, -0.7648730874061584, 11.008112907409668, -47.99660873413086, 82.7525634765625, -39.97529220581055, 4.8828125E-4, -0.133544921875, -0.868408203125
563, 2371887619, -6.058157444000244, 2.116885185241699, 9.532818794250488, -51.54750061035156, 52.63620376586914, -25.630346298217773, 0.015625, -0.12109375, -0.873779296875
564, 2371904286, -6.127283096313477, 0.4356386065483093, 9.868078231811523, -36.12979507446289, 26.081729888916016, -16.457021713256836, 0.024169921875, -0.110107421875, -0.876220703125
565, 2371920953, -5.767594814300537, 2.4352967739105225, 8.479314804077148, -21.188735961914062, 12.844295501708984, -11.051972389221191, 0.029541015625, -0.105224609375, -0.876953125
566, 2371937620, -5.658709526062012, 1.5715622901916504, 8.669252395629883, -10.596902847290039, 6.649989604949951, -8.06977367401123, 0.031005859375, -0.099609375, -0.87646484375
567, 2371954287, -5.426905632019043, 1.6505751609802246, 8.536538124084473, -4.586762428283691, 5.570642471313477, -3.895693302154541, 0.03271484375, -0.10107421875, -0.875
568, 2371970954, -5.088294982910156, 1.9405301809310913, 8.237811088562012, -1.0319101810455322, 6.921506881713867, -1.3545790910720825, 0.033203125, -0.09912109375, -0.87548828125
569, 2371987621, -5.40347146987915, 1.9796768426895142, 8.195189476013184, 0.5231074690818787, 7.9301605224609375, -1.1079158782958984, 0.0361328125, -0.1005859375, -0.87646484375
570, 2372004288, -5.472128391265869, 1.9819221496582031, 8.209778785705566, 1.5539803504943848, 8.203679084777832, -1.0177206993103027, 0.0400390625, -0.101806640625, -0.874267578125
571, 2372020955, -5.335484981536865, 2.098332166671753, 8.044490814208984, 1.0376025438308716, 7.6065826416015625, -1.0732747316360474, 0.04052734375, -0.101318359375, -0.872802734375
572, 2372037622, -5.2522783279418945, 2.0430397987365723, 8.097543716430664, 0.1975572109222412, 7.268712997436523, -1.7022205591201782, 0.043701171875, -0.102294921875, -0.877685546875
573, 2372054289, -5.250545024871826, 2.0533690452575684, 8.049132347106934, 0.1472538411617279, 7.709968090057373, -1.6004865169525146, 0.044189453125, -0.102294921875, -0.8740234375
574, 2372070956, -5.271617889404297, 2.1473286151885986, 8.014684677124023, -1.4525606632232666, 7.856512069702148, -2.4197607040405273, 0.046630859375, -0.103759765625, -0.8740234375
575, 2372087623, -5.337223052978516, 2.179245710372925, 7.9793195724487305, -4.422623157501221, 6.408203125, -5.1922078132629395, 0.05078125, -0.103759765625, -0.87548828125
576, 2372104290, -5.372818946838379, 2.1383092403411865, 8.067992210388184, -6.907607078552246, 3.415384531021118, -8.027331352233887, 0.0517578125, -0.101806640625, -0.875
577, 2372120957, -5.453198432922363, 2.072706937789917, 8.02504825592041, -8.596281051635742, -0.4103541374206543, -10.499881744384766, 0.0517578125, -0.09765625, -0.875
578, 2372137624, -5.52371883392334, 1.9136154651641846, 8.08260726928711, -8.115235328674316, -1.7328025102615356, -10.546163558959961, 0.052734375, -0.097900390625, -0.873779296875
579, 2372154291, -5.386773586273193, 1.8815991878509521, 8.102988243103027, -6.0613250732421875, -0.49290379881858826, -9.111902236938477, 0.05224609375, -0.09765625, -0.872802734375
580, 2372170958, -5.298595428466797, 1.8443177938461304, 8.11415958404541, -4.162193298339844, 2.657055616378784, -8.508963584899902, 0.05078125, -0.098876953125, -0.87548828125
581, 2372187625, -5.212220668792725, 1.917108178138733, 7.997698783874512, -4.5562968254089355, 6.935122489929199, -8.885536193847656, 0.05712890625, -0.096923828125, -0.873291015625
582, 2372204292, -4.958975315093994, 2.1476237773895264, 7.881740093231201, -7.88075590133667, 13.194598197937012, -12.027765274047852, 0.05615234375, -0.0927734375, -0.87548828125
583, 2372220959, -4.966222286224365, 2.086390733718872, 8.089106559753418, -7.593904972076416, 21.710737228393555, -16.252737045288086, 0.065185546875, -0.09326171875, -0.875732421875
584, 2372237626, -5.46901273727417, 1.716366171836853, 8.012703895568848, -5.613571643829346, 29.71702003479004, -17.195362091064453, 0.07177734375, -0.09130859375, -0.873779296875
585, 2372254293, -5.296594619750977, 1.8255271911621094, 7.900273323059082, -2.175339937210083, 40.724056243896484, -17.746532440185547, 0.081787109375, -0.092529296875, -0.87109375
586, 2372270960, -5.338347911834717, 1.82542085647583, 7.9418253898620605, 2.5825064182281494, 59.046085357666016, -20.648347854614258, 0.095458984375, -0.089599609375, -0.8701171875
587, 2372287627, -5.388808250427246, 1.606311559677124, 8.041640281677246, 8.035274505615234, 79.28931427001953, -21.563505172729492, 0.114501953125, -0.091552734375, -0.866943359375
588, 2372304294, -5.5599164962768555, 1.561337947845459, 8.097606658935547, 8.85365104675293, 99.18680572509766, -20.380212783813477, 0.14208984375, -0.0927734375, -0.863525390625
589, 2372320961, -5.628714084625244, 1.5714619159698486, 7.805931091308594, 8.813238143920898, 120.47850036621094, -20.941986083984375, 0.167724609375, -0.095458984375, -0.858642578125
590, 2372337628, -5.79353141784668, 1.5212682485580444, 7.668162822723389, 12.132498741149902, 145.47650146484375, -23.1570987701416, 0.2021484375, -0.0966796875, -0.85009765625
591, 2372354295, -5.869943141937256, 1.439734697341919, 7.662849426269531, 14.605222702026367, 175.9174041748047, -24.50126075744629, 0.245849609375, -0.096923828125, -0.8349609375
592, 2372370962, -5.842345237731934, 1.8508931398391724, 7.723568916320801, 12.47372817993164, 221.65162658691406, -25.296361923217773, 0.296875, -0.09814453125, -0.8203125
593, 2372387629, -6.4909210205078125, 1.9950897693634033, 7.249815464019775, 0.6020895838737488, 283.036376953125, -30.597946166992188, 0.35595703125, -0.095947265625, -0.791748046875
594, 2372404296, -7.373683452606201, 2.3025925159454346, 7.5639142990112305, -10.54007339477539, 372.1163330078125, -36.726322174072266, 0.43505859375, -0.089111328125, -0.751953125
595, 2372420963, -9.04651165008545, 2.9265944957733154, 10.693766593933105, 6.385085582733154, 460.2344970703125, -51.151432037353516, 0.5263671875, -0.08349609375, -0.6865234375
596, 2372437630, -16.404342651367188, 2.8586528301239014, 11.374812126159668, 28.72012710571289, 483.9224548339844, -73.14955139160156, 0.620361328125, -0.07958984375, -0.599853515625
597, 2372454297, -17.331499099731445, 2.5193867683410645, 10.656553268432617, 42.58236312866211, 475.708740234375, -86.6820297241211, 0.6982421875, -0.073486328125, -0.50390625
598, 2372470964, -17.781169891357422, 5.702128887176514, 11.37800407409668, 23.84755516052246, 473.399658203125, -111.8040771484375, 0.762939453125, -0.061279296875, -0.3974609375
599, 2372487631, -13.106846809387207, 4.059720516204834, 12.105690002441406, 23.246129989624023, 427.17645263671875, -119.08222961425781, 0.806884765625, -0.043212890625, -0.290771484375
600, 2372504298, -5.612492084503174, 2.070692300796509, 15.060779571533203, 69.28680419921875, 350.525146484375, -72.61659240722656, 0.83349609375, -0.03173828125, -0.195068359375
601, 2372520965, -28.054811477661133, 5.530152320861816, 22.874034881591797, 99.85277557373047, 193.34812927246094, -88.40261840820312, 0.83642578125, -0.0234375, -0.126953125
602, 2372537632, -18.894941329956055, 7.503188133239746, 28.779726028442383, 102.67120361328125, -102.27183532714844, -40.72917556762695, 0.82421875, -0.020263671875, -0.124267578125
603, 2372554299, -3.990887403488159, 7.889505863189697, 13.48204517364502, 23.91254997253418, -250.3494415283203, -27.569761276245117, 0.803466796875, -0.02490234375, -0.162841796875
604, 2372570966, -0.9365664124488831, 3.9924139976501465, 6.304874897003174, -42.28884506225586, -255.750732421875, -47.41936492919922, 0.77783203125, -0.015380859375, -0.20166015625
605, 2372587633, -1.4629696607589722, 3.641660213470459, 5.560767650604248, -73.1326675415039, -249.1558837890625, -45.79752731323242, 0.759521484375, -0.00537109375, -0.232177734375
606, 2372604300, -4.451602935791016, 4.492581844329834, 7.529938220977783, -84.4268569946289, -277.3125915527344, -41.018218994140625, 0.744140625, 0.00390625, -0.269287109375
607, 2372620967, -6.841433048248291, 3.974726438522339, 8.48416805267334, -74.99427795410156, -332.1705017089844, -18.83250617980957, 0.7236328125, 0.011962890625, -0.3154296875
608, 2372637634, -6.72083854675293, 3.842824935913086, 7.088735103607178, -53.2314338684082, -379.1669616699219, 12.037041664123535, 0.698974609375, 0.01416015625, -0.369384765625
609, 2372654301, -6.936987400054932, 3.7653636932373047, 6.091027736663818, -36.652713775634766, -396.7440490722656, 38.59743118286133, 0.675048828125, 0.005615234375, -0.422119140625
610, 2372670968, -7.8594441413879395, 4.263602256774902, 6.5884552001953125, -27.592214584350586, -408.54888916015625, 64.29083251953125, 0.665283203125, -0.011474609375, -0.494384765625
611, 2372687635, -8.968743324279785, 3.6976892948150635, 7.334560871124268, -25.51936912536621, -419.5040283203125, 81.36103057861328, 0.628173828125, -0.036865234375, -0.5947265625
612, 2372704302, -9.937849044799805, 1.869093894958496, 7.062102794647217, -8.948441505432129, -423.083984375, 88.62834167480469, 0.554931640625, -0.0546875, -0.69970703125
613, 2372720969, -9.34701919555664, -1.484226107597351, 4.561334133148193, 34.18962860107422, -378.8187255859375, 79.29499816894531, 0.455810546875, -0.074951171875, -0.7783203125
614, 2372737636, -13.136373519897461, -2.7997398376464844, 7.045990467071533, 96.52279663085938, -298.1614990234375, 62.70786666870117, 0.356689453125, -0.107177734375, -0.818359375
615, 2372754303, -18.2757568359375, 0.1596446931362152, 13.886381149291992, 120.34498596191406, -273.2441711425781, 31.09623908996582, 0.26904296875, -0.142578125, -0.81591796875
616, 2372770970, -19.62794303894043, 1.1336469650268555, 11.763160705566406, 126.6690444946289, -276.8497009277344, 17.57451629638672, 0.203857421875, -0.172119140625, -0.794189453125
617, 2372787637, -21.78704833984375, 2.0661590099334717, 9.398365020751953, 142.28933715820312, -259.4237976074219, 38.4690055847168, 0.1611328125, -0.206298828125, -0.77197265625
618, 2372804304, -24.600919723510742, 4.1440582275390625, 8.631357192993164, 107.44124603271484, -254.45831298828125, 58.746307373046875, 0.1298828125, -0.236572265625, -0.764892578125
619, 2372820971, -22.64462661743164, -0.25467410683631897, 3.756171941757202, 51.79240798950195, -248.20265197753906, 62.79145812988281, 0.092529296875, -0.257080078125, -0.775146484375
620, 2372837638, -21.52557945251465, -3.4494786262512207, -0.3371431827545166, 53.76954650878906, -215.5178680419922, 71.07496643066406, 0.046875, -0.2724609375, -0.784423828125
621, 2372854305, -21.46176528930664, -2.080824613571167, -3.136404514312744, 38.14461898803711, -169.54617309570312, 71.33312225341797, 0.003662109375, -0.289306640625, -0.796142578125
622, 2372870972, -20.792743682861328, -2.9446427822113037, -7.003715515136719, -3.994717836380005, -117.55850982666016, 70.1187744140625, -0.03076171875, -0.295166015625, -0.807861328125
623, 2372887639, -20.81241798400879, -5.287166118621826, -9.451408386230469, -11.778664588928223, -56.00885009765625, 73.02532958984375, -0.059814453125, -0.29638671875, -0.816650390625
624, 2372904306, -21.242979049682617, -4.745712757110596, -8.301705360412598, -10.043878555297852, 5.535338401794434, 81.96407318115234, -0.065673828125, -0.2958984375, -0.823974609375
625, 2372920973, -12.429281234741211, -3.606813430786133, -4.937516689300537, -68.45809936523438, 85.98052215576172, 52.393089294433594, -0.05615234375, -0.284912109375, -0.838134765625
626, 2372937640, 3.280318021774292, -4.560980319976807, 19.23122215270996, -27.925861358642578, 104.58500671386719, 1.7690844535827637, -0.02734375, -0.279296875, -0.846923828125
627, 2372954307, -3.6003174781799316, -2.6288795471191406, 11.073246955871582, 21.788837432861328, 169.8583984375, -57.42406463623047, 0.02001953125, -0.287109375, -0.849853515625
628, 2372970974, -9.421087265014648, -1.4977635145187378, 10.306143760681152, 34.605533599853516, 208.38616943359375, -42.82209396362305, 0.081298828125, -0.297607421875, -0.854736328125
629, 2372987641, -11.636411666870117, 2.596830368041992, 14.288385391235352, 23.718233108520508, 160.9566192626953, -25.12335968017578, 0.133056640625, -0.305419921875, -0.85400390625
630, 2373004308, -5.961136341094971, 5.8273420333862305, 8.565644264221191, 15.690498352050781, 137.5876922607422, -22.273601531982422, 0.17431640625, -0.312744140625, -0.8505859375
631, 2373020975, -6.403372287750244, 6.292196273803711, 9.69505786895752, -8.84471607208252, 127.59477996826172, -28.94730567932129, 0.216552734375, -0.317138671875, -0.84521484375
632, 2373037642, -11.592140197753906, 5.13081169128418, 11.076059341430664, -55.43407440185547, 98.56819152832031, -52.85612106323242, 0.251220703125, -0.30322265625, -0.843994140625
633, 2373054309, -6.988349914550781, -1.0234695672988892, 10.942658424377441, -60.46573257446289, 60.3424186706543, -39.59638977050781, 0.2763671875, -0.287841796875, -0.844482421875
634, 2373070976, -6.240261077880859, 1.060624122619629, 9.949419975280762, -57.86627197265625, 23.194211959838867, -28.77613639831543, 0.287353515625, -0.27197265625, -0.847900390625
635, 2373087643, -5.213069915771484, 1.5047736167907715, 8.772184371948242, -47.12545394897461, 3.9638938903808594, -25.47228240966797, 0.29443359375, -0.260009765625, -0.849365234375
636, 2373104310, -5.636733055114746, 2.0068352222442627, 8.56885051727295, -41.1480827331543, -2.3229756355285645, -24.77253532409668, 0.29345703125, -0.246826171875, -0.85302734375
637, 2373120977, -5.429474830627441, 1.7428412437438965, 8.383057594299316, -25.90700340270996, 0.09246857464313507, -18.127887725830078, 0.29638671875, -0.240478515625, -0.8544921875
638, 2373137644, -5.101725101470947, 0.8038114309310913, 8.776114463806152, -20.163448333740234, 1.6354447603225708, -13.302957534790039, 0.2978515625, -0.23486328125, -0.855712890625
639, 2373154311, -4.980381488800049, 1.1622555255889893, 8.63874340057373, -12.467453956604004, 3.9507689476013184, -8.549295425415039, 0.302490234375, -0.23193359375, -0.8564453125
640, 2373170978, -5.033998966217041, 1.4071269035339355, 8.476312637329102, -9.570998191833496, 3.9451966285705566, -6.931837558746338, 0.302734375, -0.2275390625, -0.856689453125
641, 2373187645, -4.944937229156494, 1.5720617771148682, 8.361886978149414, -10.66756820678711, 2.0709609985351562, -7.808765888214111, 0.305419921875, -0.22705078125, -0.85791015625
642, 2373204312, -5.002654552459717, 1.5598971843719482, 8.424246788024902, -14.466118812561035, -2.460383892059326, -10.871309280395508, 0.306396484375, -0.223388671875, -0.859619140625
643, 2373220979, -4.985135555267334, 1.3769147396087646, 8.436091423034668, -14.789432525634766, -5.355891704559326, -12.785659790039062, 0.307373046875, -0.218505859375, -0.861083984375
644, 2373237646, -4.968322277069092, 1.2300564050674438, 8.437027931213379, -14.052980422973633, -6.933419227600098, -13.213277816772461, 0.304443359375, -0.216064453125, -0.861328125
645, 2373254313, -5.082361221313477, 1.082090139389038, 8.399028778076172, -9.761902809143066, -3.672966241836548, -10.447107315063477, 0.307373046875, -0.21240234375, -0.86328125
646, 2373270980, -4.972936630249023, 1.179351806640625, 8.410856246948242, -6.277431488037109, 0.27965235710144043, -8.106691360473633, 0.307373046875, -0.21142578125, -0.86279296875
647, 2373287647, -4.950439453125, 1.2868194580078125, 8.410977363586426, -5.579779624938965, 1.5419681072235107, -8.337883949279785, 0.306884765625, -0.21142578125, -0.86474609375
648, 2373304314, -5.012497901916504, 1.2229214906692505, 8.411944389343262, -4.311412811279297, 3.572645902633667, -8.805329322814941, 0.307373046875, -0.21044921875, -0.86376953125
649, 2373320981, -5.031228065490723, 1.1877893209457397, 8.397937774658203, -2.5916476249694824, 6.024679183959961, -8.966279983520508, 0.311279296875, -0.20849609375, -0.86279296875
650, 2373337648, -4.939788818359375, 1.169185996055603, 8.391576766967773, -1.5237129926681519, 10.016843795776367, -8.69201946258545, 0.31396484375, -0.20703125, -0.863037109375
651, 2373354315, -4.967884540557861, 1.2138001918792725, 8.39999771118164, -2.437844753265381, 15.646501541137695, -8.960663795471191, 0.3203125, -0.208984375, -0.86181640625
652, 2373370982, -5.130236625671387, 1.1099618673324585, 8.346997261047363, -0.11346445232629776, 20.384689331054688, -8.981927871704102, 0.323486328125, -0.20849609375, -0.858154296875
653, 2373387649, -4.97841739654541, 1.0388188362121582, 8.382987022399902, -0.409087210893631, 27.35791778564453, -8.02357292175293, 0.33154296875, -0.2080078125, -0.85693359375
654, 2373404316, -4.699109077453613, 0.8167446851730347, 8.338510513305664, 4.733414649963379, 39.81037902832031, -7.360518455505371, 0.343017578125, -0.20703125, -0.854248046875
