sep=,
DeviceTag:,A,,,,,,,,,,,,,,,,,
FirmwareVersion:,2.2.1,,,,,,,,,,,,,,,,,
AppVersion:,2022.0.1,,,,,,,,,,,,,,,,,
SyncStatus:,Synced,,,,,,,,,,,,,,,,,
OutputRate:,60Hz,,,,,,,,,,,,,,,,,
FilterProfile:,General,,,,,,,,,,,,,,,,,
Measurement Mode:,Inertial Mode - Rate quantities (with mag),,,,,,,,,,,,,,,,,
StartTime:,2022-08-05 15:03:40.005 +0300,,,,,,,,,,,,,,,,,
© Xsens Technologies B. V. 2005-2022,,,,,,,,,,,,,,,,,,,

PacketCounter,SampleTimeFine,Acc_X,Acc_Y,Acc_Z,Gyr_X,Gyr_Y,Gyr_Z,Mag_X,Mag_Y,Mag_Z
1, 1562054756, -5.043177127838135, 1.3569926023483276, 8.335952758789062, -2.605593204498291, -1.5775376558303833, -2.4526853561401367, 0.0458984375, -0.208740234375, -0.8203125
2, 1562071423, -5.04270076751709, 1.35832941532135, 8.322982788085938, -2.5583887100219727, -1.3821892738342285, -2.347954511642456, 0.04638671875, -0.208251953125, -0.8193359375
3, 1562088090, -5.04729700088501, 1.3663649559020996, 8.33065128326416, -2.525143623352051, -1.4218891859054565, -2.3937630653381348, 0.04541015625, -0.208740234375, -0.8173828125
4, 1562104757, -5.032128810882568, 1.3678884506225586, 8.339858055114746, -2.5833613872528076, -1.4319038391113281, -2.432809591293335, 0.04345703125, -0.208251953125, -0.821044921875
5, 1562121424, -5.0349273681640625, 1.3720163106918335, 8.33265209197998, -2.6247897148132324, -1.5460724830627441, -2.4292497634887695, 0.046875, -0.208740234375, -0.81982421875
6, 1562138091, -5.0532426834106445, 1.3607205152511597, 8.33746337890625, -2.5816452503204346, -1.50486159324646, -2.405122756958008, 0.04541015625, -0.206787109375, -0.821533203125
7, 1562154758, -5.0392327308654785, 1.3665553331375122, 8.346043586730957, -2.550128936767578, -1.5440617799758911, -2.440826654434204, 0.04638671875, -0.208740234375, -0.82177734375
8, 1562171425, -5.037233352661133, 1.3644938468933105, 8.352437019348145, -2.567878484725952, -1.5975028276443481, -2.4725863933563232, 0.0458984375, -0.207763671875, -0.821533203125
9, 1562188092, -5.028817653656006, 1.3528722524642944, 8.352927207946777, -2.5148983001708984, -1.5267218351364136, -2.3774096965789795, 0.04638671875, -0.208740234375, -0.8203125
10, 1562204759, -5.0272698402404785, 1.3794877529144287, 8.349319458007812, -2.591198682785034, -1.5700714588165283, -2.4086570739746094, 0.047607421875, -0.207763671875, -0.8193359375
11, 1562221426, -5.041007995605469, 1.3517946004867554, 8.337635040283203, -2.5230305194854736, -1.4644062519073486, -2.3756675720214844, 0.04541015625, -0.208251953125, -0.8193359375
12, 1562238093, -5.040788173675537, 1.3558372259140015, 8.324378967285156, -2.496918201446533, -1.4520479440689087, -2.412140130996704, 0.044921875, -0.205810546875, -0.820556640625
13, 1562254760, -5.036197662353516, 1.3581571578979492, 8.316018104553223, -2.506446123123169, -1.3896938562393188, -2.4932684898376465, 0.046875, -0.206298828125, -0.82177734375
14, 1562271427, -5.034801959991455, 1.3688699007034302, 8.342802047729492, -2.4725732803344727, -1.4543148279190063, -2.4205539226531982, 0.0458984375, -0.207763671875, -0.821533203125
15, 1562288094, -5.03427267074585, 1.365424394607544, 8.324840545654297, -2.5547263622283936, -1.416600227355957, -2.4756343364715576, 0.04736328125, -0.206787109375, -0.8193359375
16, 1562304761, -5.041310787200928, 1.3559335470199585, 8.364255905151367, -2.5305092334747314, -1.4886999130249023, -2.422564744949341, 0.044921875, -0.208740234375, -0.81787109375
17, 1562321428, -5.034804344177246, 1.3580365180969238, 8.323731422424316, -2.564548969268799, -1.5339959859848022, -2.480308771133423, 0.046875, -0.207763671875, -0.82080078125
18, 1562338095, -5.0336833000183105, 1.3818596601486206, 8.330984115600586, -2.57977557182312, -1.5390161275863647, -2.4194912910461426, 0.04345703125, -0.209716796875, -0.81982421875
19, 1562354762, -5.04097843170166, 1.3491462469100952, 8.349151611328125, -2.4909887313842773, -1.5175269842147827, -2.4006142616271973, 0.04541015625, -0.208740234375, -0.822021484375
20, 1562371429, -5.04328727722168, 1.3674290180206299, 8.335371017456055, -2.5957577228546143, -1.5051945447921753, -2.431183338165283, 0.0439453125, -0.208251953125, -0.820556640625
21, 1562388096, -5.041481971740723, 1.3549367189407349, 8.336360931396484, -2.565906047821045, -1.4951542615890503, -2.401728630065918, 0.046875, -0.208740234375, -0.82080078125
22, 1562404763, -5.038204193115234, 1.3584195375442505, 8.337743759155273, -2.6158125400543213, -1.5201265811920166, -2.4638009071350098, 0.0439453125, -0.208251953125, -0.81884765625
23, 1562421430, -5.044987201690674, 1.3577653169631958, 8.340914726257324, -2.509481191635132, -1.4303282499313354, -2.445525884628296, 0.047119140625, -0.208251953125, -0.82080078125
24, 1562438097, -5.029882431030273, 1.3589144945144653, 8.338921546936035, -2.532686233520508, -1.3986326456069946, -2.4370484352111816, 0.046630859375, -0.20947265625, -0.82177734375
25, 1562454764, -5.038236618041992, 1.3702616691589355, 8.342900276184082, -2.4203617572784424, -1.381933331489563, -2.4033167362213135, 0.04638671875, -0.2099609375, -0.822265625
26, 1562471431, -5.038589954376221, 1.3641108274459839, 8.346597671508789, -2.5548412799835205, -1.4414315223693848, -2.446845531463623, 0.044921875, -0.207763671875, -0.821533203125
27, 1562488098, -5.03141450881958, 1.3598805665969849, 8.360563278198242, -2.5335958003997803, -1.3839694261550903, -2.4222187995910645, 0.0458984375, -0.209228515625, -0.8203125
28, 1562504765, -5.034336090087891, 1.362386703491211, 8.344870567321777, -2.5021049976348877, -1.366770625114441, -2.4925127029418945, 0.04541015625, -0.209716796875, -0.81884765625
29, 1562521432, -5.047431945800781, 1.3595954179763794, 8.344405174255371, -2.449855089187622, -1.3729560375213623, -2.3995132446289062, 0.044921875, -0.208740234375, -0.82080078125
30, 1562538099, -5.03627872467041, 1.3686399459838867, 8.343904495239258, -2.4784514904022217, -1.4331459999084473, -2.3462131023406982, 0.04638671875, -0.208251953125, -0.82080078125
31, 1562554766, -5.044972896575928, 1.3597484827041626, 8.349468231201172, -2.538141965866089, -1.4419695138931274, -2.390868902206421, 0.04541015625, -0.208740234375, -0.82080078125
32, 1562571433, -5.029500961303711, 1.3566694259643555, 8.340946197509766, -2.6026089191436768, -1.5627845525741577, -2.3973615169525146, 0.04638671875, -0.207763671875, -0.822509765625
33, 1562588100, -5.0315351486206055, 1.3500677347183228, 8.332958221435547, -2.5693254470825195, -1.51228928565979, -2.441108465194702, 0.0458984375, -0.206787109375, -0.8203125
34, 1562604767, -5.0321221351623535, 1.3539930582046509, 8.352692604064941, -2.509199619293213, -1.3404406309127808, -2.4217190742492676, 0.04638671875, -0.209228515625, -0.81884765625
35, 1562621434, -5.031092643737793, 1.358797550201416, 8.347764015197754, -2.4001786708831787, -1.0367507934570312, -2.4114866256713867, 0.04736328125, -0.209716796875, -0.8193359375
36, 1562638101, -5.038485527038574, 1.3424832820892334, 8.342771530151367, -2.277070999145508, -0.9129645824432373, -2.3794453144073486, 0.044921875, -0.208251953125, -0.822021484375
37, 1562654768, -5.041012763977051, 1.3894603252410889, 8.363964080810547, -2.3781392574310303, -0.9653554558753967, -2.415815591812134, 0.04541015625, -0.208251953125, -0.822509765625
38, 1562671435, -5.034911155700684, 1.3870786428451538, 8.34035873413086, -2.5489249229431152, -1.1859320402145386, -2.5255019664764404, 0.048095703125, -0.208251953125, -0.82080078125
39, 1562688102, -5.072751045227051, 1.3572078943252563, 8.32191276550293, -2.724538564682007, -1.327070951461792, -2.5997021198272705, 0.04638671875, -0.206787109375, -0.8193359375
40, 1562704769, -5.047552108764648, 1.342875599861145, 8.355439186096191, -2.67036771774292, -1.4983559846878052, -2.4901952743530273, 0.047119140625, -0.2099609375, -0.81982421875
41, 1562721436, -5.052983283996582, 1.3565359115600586, 8.345291137695312, -2.600355386734009, -1.4790568351745605, -2.430696725845337, 0.046875, -0.208251953125, -0.81982421875
42, 1562738103, -5.047756195068359, 1.352216362953186, 8.334113121032715, -2.4780030250549316, -1.5312168598175049, -2.4519166946411133, 0.04638671875, -0.207275390625, -0.82080078125
43, 1562754770, -5.038802146911621, 1.3674324750900269, 8.335203170776367, -2.58801007270813, -1.5029535293579102, -2.3700971603393555, 0.04638671875, -0.208740234375, -0.82080078125
44, 1562771437, -5.048628330230713, 1.3780007362365723, 8.337164878845215, -2.4841246604919434, -1.6254076957702637, -2.3704171180725098, 0.04443359375, -0.208740234375, -0.81982421875
45, 1562788104, -5.0463409423828125, 1.3630067110061646, 8.34553050994873, -2.62595534324646, -1.5740031003952026, -2.4208872318267822, 0.0458984375, -0.208251953125, -0.81982421875
46, 1562804771, -5.028161525726318, 1.3506956100463867, 8.328686714172363, -2.6299121379852295, -1.5544605255126953, -2.4535558223724365, 0.04833984375, -0.207275390625, -0.816162109375
47, 1562821438, -5.034642696380615, 1.362937092781067, 8.333683013916016, -2.6169137954711914, -1.5128015279769897, -2.42145037651062, 0.04541015625, -0.207763671875, -0.81689453125
48, 1562838105, -5.0516228675842285, 1.3684219121932983, 8.329765319824219, -2.6009957790374756, -1.5290143489837646, -2.4918341636657715, 0.0458984375, -0.208251953125, -0.8203125
49, 1562854772, -5.041449069976807, 1.3558515310287476, 8.36480712890625, -2.61830997467041, -1.50199294090271, -2.463724136352539, 0.04638671875, -0.207763671875, -0.8203125
50, 1562871439, -5.048804759979248, 1.3569363355636597, 8.355687141418457, -2.7048935890197754, -1.6212201118469238, -2.483382225036621, 0.047607421875, -0.205810546875, -0.82080078125
51, 1562888106, -5.036683082580566, 1.3440639972686768, 8.367217063903809, -2.592684268951416, -1.476495623588562, -2.4698972702026367, 0.0458984375, -0.208251953125, -0.8203125
52, 1562904773, -5.0510406494140625, 1.354956030845642, 8.330174446105957, -2.538628339767456, -1.4155114889144897, -2.437202215194702, 0.04541015625, -0.210205078125, -0.81884765625
53, 1562921440, -5.0478596687316895, 1.3671481609344482, 8.338692665100098, -2.5432257652282715, -1.3592532873153687, -2.444091796875, 0.04541015625, -0.207763671875, -0.8203125
54, 1562938107, -5.048797607421875, 1.3573917150497437, 8.342759132385254, -2.4714465141296387, -1.4494740962982178, -2.4687185287475586, 0.04736328125, -0.208740234375, -0.81884765625
55, 1562954774, -5.039004325866699, 1.3517208099365234, 8.341118812561035, -2.537578582763672, -1.4595527648925781, -2.4446046352386475, 0.047607421875, -0.207275390625, -0.82177734375
56, 1562971441, -5.04196310043335, 1.3534554243087769, 8.36398696899414, -2.5934524536132812, -1.3966350555419922, -2.4455392360687256, 0.04541015625, -0.208740234375, -0.8203125
57, 1562988108, -5.056253910064697, 1.343658447265625, 8.337310791015625, -2.4665157794952393, -1.45066499710083, -2.3953640460968018, 0.0439453125, -0.207763671875, -0.81689453125
58, 1563004775, -5.0521559715271, 1.3635077476501465, 8.325967788696289, -2.3975794315338135, -1.471155047416687, -2.3486077785491943, 0.04638671875, -0.207763671875, -0.818359375
59, 1563021442, -5.039350509643555, 1.3559373617172241, 8.346844673156738, -2.4980196952819824, -1.5602747201919556, -2.3952999114990234, 0.04541015625, -0.207763671875, -0.82080078125
60, 1563038109, -5.040865898132324, 1.3534729480743408, 8.346964836120605, -2.4613804817199707, -1.4980868101119995, -2.3555619716644287, 0.04443359375, -0.209228515625, -0.821044921875
61, 1563054776, -5.046474456787109, 1.3558400869369507, 8.330108642578125, -2.4704604148864746, -1.4893145561218262, -2.39218807220459, 0.048583984375, -0.208740234375, -0.8212890625
62, 1563071443, -5.043284893035889, 1.35848069190979, 8.327637672424316, -2.5018486976623535, -1.584312081336975, -2.357367515563965, 0.04443359375, -0.209716796875, -0.8203125
63, 1563088110, -5.053481578826904, 1.362406849861145, 8.349263191223145, -2.461918592453003, -1.5354686975479126, -2.287611246109009, 0.04638671875, -0.207763671875, -0.81982421875
64, 1563104777, -5.036015033721924, 1.3627269268035889, 8.33144474029541, -2.50675368309021, -1.5728760957717896, -2.4254207611083984, 0.044921875, -0.208251953125, -0.8173828125
65, 1563121444, -5.038654327392578, 1.3723937273025513, 8.351997375488281, -2.5141687393188477, -1.6196962594985962, -2.3694183826446533, 0.04541015625, -0.208251953125, -0.8173828125
66, 1563138111, -5.0316362380981445, 1.3804165124893188, 8.337650299072266, -2.583540678024292, -1.593263864517212, -2.421104907989502, 0.046630859375, -0.208740234375, -0.82177734375
67, 1563154778, -5.043973922729492, 1.3476605415344238, 8.334698677062988, -2.547785520553589, -1.602522850036621, -2.4189791679382324, 0.04541015625, -0.205322265625, -0.821533203125
68, 1563171445, -5.036045074462891, 1.3398245573043823, 8.352959632873535, -2.4851491451263428, -1.5666009187698364, -2.3842992782592773, 0.046875, -0.207275390625, -0.8173828125
69, 1563188112, -5.038134574890137, 1.3396037817001343, 8.337303161621094, -2.364884614944458, -1.5855029821395874, -2.3516812324523926, 0.0478515625, -0.208740234375, -0.8173828125
70, 1563204779, -5.039818286895752, 1.3800162076950073, 8.324273109436035, -2.376832962036133, -1.5909713506698608, -2.3361730575561523, 0.046875, -0.209228515625, -0.8193359375
71, 1563221446, -5.046238899230957, 1.3667782545089722, 8.327324867248535, -2.613251209259033, -1.7340056896209717, -2.4336295127868652, 0.04541015625, -0.206787109375, -0.8193359375
72, 1563238113, -5.041862487792969, 1.3566375970840454, 8.349706649780273, -2.582054615020752, -1.6048662662506104, -2.395632743835449, 0.04541015625, -0.208740234375, -0.821533203125
73, 1563254780, -5.033071041107178, 1.3529446125030518, 8.337645530700684, -2.571784496307373, -1.4997901916503906, -2.394352436065674, 0.046875, -0.206787109375, -0.82080078125
74, 1563271447, -5.032886981964111, 1.3731591701507568, 8.3397216796875, -2.524144172668457, -1.5544602870941162, -2.311866283416748, 0.044921875, -0.206787109375, -0.81982421875
75, 1563288114, -5.041828632354736, 1.337944746017456, 8.351459503173828, -2.5058953762054443, -1.5906894207000732, -2.364039421081543, 0.04638671875, -0.209716796875, -0.8193359375
76, 1563304781, -5.031540870666504, 1.3683797121047974, 8.331155776977539, -2.4837915897369385, -1.5275925397872925, -2.4152262210845947, 0.04345703125, -0.205810546875, -0.818603515625
77, 1563321448, -5.0331525802612305, 1.3619990348815918, 8.331193923950195, -2.5819525718688965, -1.6639420986175537, -2.4745841026306152, 0.04638671875, -0.208251953125, -0.81982421875
78, 1563338115, -5.037119388580322, 1.3685369491577148, 8.327988624572754, -2.555021047592163, -1.606684923171997, -2.4801294803619385, 0.0458984375, -0.208251953125, -0.8212890625
79, 1563354782, -5.0518317222595215, 1.3551043272018433, 8.337913513183594, -2.5928378105163574, -1.6181081533432007, -2.531726121902466, 0.0458984375, -0.206298828125, -0.8193359375
80, 1563371449, -5.041364669799805, 1.3579436540603638, 8.356279373168945, -2.562089681625366, -1.544241189956665, -2.4349870681762695, 0.046875, -0.207275390625, -0.8203125
81, 1563388116, -5.0241522789001465, 1.3533883094787598, 8.347122192382812, -2.625762939453125, -1.5709295272827148, -2.513169527053833, 0.046875, -0.206298828125, -0.81689453125
82, 1563404783, -5.045018196105957, 1.3555433750152588, 8.343005180358887, -2.603236675262451, -1.614317536354065, -2.466285467147827, 0.046875, -0.207763671875, -0.81689453125
83, 1563421450, -5.034913539886475, 1.3613662719726562, 8.355795860290527, -2.650453805923462, -1.6801677942276, -2.392943859100342, 0.04541015625, -0.209228515625, -0.82080078125
84, 1563438117, -5.0296311378479, 1.3447951078414917, 8.350138664245605, -2.596141815185547, -1.6844195127487183, -2.414381504058838, 0.0439453125, -0.206298828125, -0.820556640625
85, 1563454784, -5.031404972076416, 1.3566023111343384, 8.34210205078125, -2.589329242706299, -1.5725303888320923, -2.3872575759887695, 0.046630859375, -0.208251953125, -0.825927734375
86, 1563471451, -5.027151107788086, 1.3507956266403198, 8.339424133300781, -2.532045841217041, -1.5961835384368896, -2.2653536796569824, 0.046875, -0.207275390625, -0.8212890625
87, 1563488118, -5.016980171203613, 1.3351396322250366, 8.368478775024414, -2.4767866134643555, -1.646819829940796, -2.310035228729248, 0.04443359375, -0.207763671875, -0.818359375
88, 1563504785, -5.0394768714904785, 1.362013339996338, 8.354020118713379, -2.2940783500671387, -1.4370901584625244, -2.1925368309020996, 0.04541015625, -0.208251953125, -0.81494140625
89, 1563521452, -5.0249528884887695, 1.3919273614883423, 8.369332313537598, -2.272742748260498, -1.329350233078003, -2.166424512863159, 0.044921875, -0.208251953125, -0.81884765625
90, 1563538119, -5.028343200683594, 1.376861572265625, 8.346840858459473, -2.3261451721191406, -1.3161853551864624, -2.3184359073638916, 0.047119140625, -0.208251953125, -0.82275390625
91, 1563554786, -5.022434711456299, 1.3704569339752197, 8.348685264587402, -2.4560530185699463, -1.4755347967147827, -2.3229055404663086, 0.0458984375, -0.207275390625, -0.82080078125
92, 1563571453, -5.034783363342285, 1.369490623474121, 8.355358123779297, -2.5289595127105713, -1.4321212768554688, -2.3053221702575684, 0.0439453125, -0.208251953125, -0.821044921875
93, 1563588120, -5.03860330581665, 1.3681511878967285, 8.341939926147461, -2.6065151691436768, -1.4972162246704102, -2.5246312618255615, 0.046875, -0.207275390625, -0.81689453125
94, 1563604787, -5.024081707000732, 1.358808994293213, 8.349700927734375, -2.6160688400268555, -1.4492052793502808, -2.458345651626587, 0.0458984375, -0.207763671875, -0.81884765625
95, 1563621454, -5.043424606323242, 1.3730876445770264, 8.345442771911621, -2.609614133834839, -1.5124684572219849, -2.440147638320923, 0.0439453125, -0.208251953125, -0.818359375
96, 1563638121, -5.0407938957214355, 1.362481713294983, 8.3517427444458, -2.503462076187134, -1.4451197385787964, -2.4111664295196533, 0.0458984375, -0.208251953125, -0.8212890625
97, 1563654788, -5.054778099060059, 1.3669260740280151, 8.3431396484375, -2.438149929046631, -1.537901759147644, -2.4539144039154053, 0.0458984375, -0.21044921875, -0.81982421875
98, 1563671455, -5.040226459503174, 1.3551716804504395, 8.332204818725586, -2.512951612472534, -1.555830717086792, -2.3736186027526855, 0.04443359375, -0.207275390625, -0.825439453125
99, 1563688122, -5.03587532043457, 1.3536779880523682, 8.355658531188965, -2.47651743888855, -1.5226621627807617, -2.316847801208496, 0.04638671875, -0.206298828125, -0.818359375
100, 1563704789, -5.0380167961120605, 1.3582546710968018, 8.335623741149902, -2.4546058177948, -1.4863306283950806, -2.3032479286193848, 0.04638671875, -0.208251953125, -0.81982421875
101, 1563721456, -5.029896259307861, 1.3688308000564575, 8.330495834350586, -2.409374237060547, -1.498381495475769, -2.3020567893981934, 0.04541015625, -0.208251953125, -0.8203125
102, 1563738123, -5.030726432800293, 1.3675508499145508, 8.343622207641602, -2.5033211708068848, -1.3791029453277588, -2.382352352142334, 0.0439453125, -0.208251953125, -0.8193359375
103, 1563754790, -5.031423568725586, 1.3677022457122803, 8.345723152160645, -2.462225914001465, -1.2569048404693604, -2.4406471252441406, 0.044921875, -0.208740234375, -0.822998046875
104, 1563771457, -5.053867816925049, 1.3599056005477905, 8.357096672058105, -2.5581328868865967, -1.3625062704086304, -2.468526840209961, 0.0458984375, -0.208740234375, -0.8193359375
105, 1563788124, -5.030253887176514, 1.35928213596344, 8.34570026397705, -2.5152699947357178, -1.4506138563156128, -2.4736876487731934, 0.047607421875, -0.209228515625, -0.822265625
106, 1563804791, -5.042579174041748, 1.371678352355957, 8.346355438232422, -2.4953174591064453, -1.452816367149353, -2.3722355365753174, 0.046875, -0.205322265625, -0.81884765625
107, 1563821458, -5.037490367889404, 1.366396188735962, 8.347528457641602, -2.49520206451416, -1.5079221725463867, -2.43424391746521, 0.04638671875, -0.208740234375, -0.8193359375
108, 1563838125, -5.046655654907227, 1.3531458377838135, 8.340622901916504, -2.5122344493865967, -1.5897547006607056, -2.3574953079223633, 0.0458984375, -0.208251953125, -0.822021484375
109, 1563854792, -5.040258884429932, 1.3663588762283325, 8.345466613769531, -2.4623284339904785, -1.6163407564163208, -2.3347771167755127, 0.044921875, -0.206298828125, -0.822509765625
110, 1563871459, -5.038410186767578, 1.362069845199585, 8.339726448059082, -2.526616334915161, -1.696508526802063, -2.2896218299865723, 0.046875, -0.208251953125, -0.8212890625
111, 1563888126, -5.040186882019043, 1.3631261587142944, 8.359281539916992, -2.486083984375, -1.6358577013015747, -2.3471734523773193, 0.044921875, -0.208740234375, -0.8173828125
112, 1563904793, -5.027755260467529, 1.3711111545562744, 8.345677375793457, -2.5252716541290283, -1.7393202781677246, -2.4032909870147705, 0.04541015625, -0.206787109375, -0.818359375
113, 1563921460, -5.032830238342285, 1.3624759912490845, 8.312636375427246, -2.56947922706604, -1.600512146949768, -2.3509132862091064, 0.04736328125, -0.207763671875, -0.81787109375
114, 1563938127, -5.036895275115967, 1.3604459762573242, 8.32922077178955, -2.531033992767334, -1.6242804527282715, -2.274574041366577, 0.04150390625, -0.208740234375, -0.820068359375
115, 1563954794, -5.032416343688965, 1.382585048675537, 8.344818115234375, -2.468539237976074, -1.5178470611572266, -2.3508617877960205, 0.047119140625, -0.21142578125, -0.8232421875
116, 1563971461, -5.017287254333496, 1.3772133588790894, 8.355135917663574, -2.5577359199523926, -1.4761497974395752, -2.405890941619873, 0.0458984375, -0.207763671875, -0.8193359375
117, 1563988128, -5.0371527671813965, 1.3647935390472412, 8.350255966186523, -2.4474472999572754, -1.5141589641571045, -2.410590410232544, 0.044921875, -0.206787109375, -0.81689453125
118, 1564004795, -5.025897979736328, 1.367148518562317, 8.3566255569458, -2.385887384414673, -1.520037055015564, -2.3734140396118164, 0.047119140625, -0.207763671875, -0.82275390625
119, 1564021462, -5.051546096801758, 1.354616641998291, 8.357404708862305, -2.4086055755615234, -1.4557619094848633, -2.39857816696167, 0.046875, -0.207763671875, -0.8193359375
120, 1564038129, -5.048654079437256, 1.3669908046722412, 8.340204238891602, -2.4647483825683594, -1.441969394683838, -2.3855669498443604, 0.046875, -0.2099609375, -0.82080078125
121, 1564054796, -5.033848285675049, 1.3698722124099731, 8.35289192199707, -2.4882864952087402, -1.3629412651062012, -2.4614057540893555, 0.04541015625, -0.208740234375, -0.82080078125
122, 1564071463, -5.037806034088135, 1.3636754751205444, 8.3289155960083, -2.5828359127044678, -1.5074611902236938, -2.4832537174224854, 0.044921875, -0.207275390625, -0.8193359375
123, 1564088130, -5.041287422180176, 1.354805827140808, 8.37194538116455, -2.53212308883667, -1.462843894958496, -2.4681427478790283, 0.04345703125, -0.209228515625, -0.81982421875
124, 1564104797, -5.035240650177002, 1.3755311965942383, 8.34663200378418, -2.632883310317993, -1.4498710632324219, -2.466170072555542, 0.0458984375, -0.206787109375, -0.81640625
125, 1564121464, -5.03442907333374, 1.3643354177474976, 8.345947265625, -2.550576686859131, -1.455544114112854, -2.402458429336548, 0.0439453125, -0.210693359375, -0.818359375
126, 1564138131, -5.023819923400879, 1.3546208143234253, 8.33755874633789, -2.527960777282715, -1.355103850364685, -2.412447452545166, 0.044921875, -0.206298828125, -0.8193359375
127, 1564154798, -5.03931999206543, 1.367108941078186, 8.352017402648926, -2.488722085952759, -1.2759478092193604, -2.3532819747924805, 0.04443359375, -0.207763671875, -0.822021484375
128, 1564171465, -5.020097255706787, 1.3592040538787842, 8.343314170837402, -2.4899513721466064, -1.3170819282531738, -2.410219192504883, 0.048095703125, -0.208251953125, -0.82177734375
129, 1564188132, -5.030055522918701, 1.378013253211975, 8.356335639953613, -2.4972894191741943, -1.2454817295074463, -2.3361599445343018, 0.044921875, -0.210205078125, -0.81884765625
130, 1564204799, -5.028182029724121, 1.3806266784667969, 8.325194358825684, -2.521519422531128, -1.300126314163208, -2.51027512550354, 0.0458984375, -0.207763671875, -0.81640625
131, 1564221466, -5.033617973327637, 1.3737260103225708, 8.373592376708984, -2.4399938583374023, -1.2278599739074707, -2.5270261764526367, 0.04638671875, -0.207763671875, -0.81884765625
132, 1564238133, -5.0450944900512695, 1.3612595796585083, 8.33646297454834, -2.361286163330078, -1.242958664894104, -2.433513879776001, 0.044921875, -0.208740234375, -0.81787109375
133, 1564254800, -5.046947479248047, 1.357846975326538, 8.325623512268066, -2.3170783519744873, -1.3110371828079224, -2.446627378463745, 0.04638671875, -0.208740234375, -0.8203125
134, 1564271467, -5.044541835784912, 1.3756585121154785, 8.340278625488281, -2.4108850955963135, -1.3471766710281372, -2.3541016578674316, 0.04638671875, -0.21044921875, -0.8203125
135, 1564288134, -5.0391411781311035, 1.3542089462280273, 8.33528995513916, -2.4910783767700195, -1.4249112606048584, -2.3210742473602295, 0.0458984375, -0.208251953125, -0.8203125
136, 1564304801, -5.033803939819336, 1.3817415237426758, 8.323219299316406, -2.5140528678894043, -1.3974417448043823, -2.4282119274139404, 0.0439453125, -0.209716796875, -0.81982421875
137, 1564321468, -5.018939971923828, 1.3616455793380737, 8.340155601501465, -2.485801935195923, -1.5021334886550903, -2.376358985900879, 0.04541015625, -0.208740234375, -0.82080078125
138, 1564338135, -5.045548439025879, 1.3669427633285522, 8.315971374511719, -2.6368534564971924, -1.6524677276611328, -2.3981945514678955, 0.04638671875, -0.208251953125, -0.8212890625
139, 1564354802, -5.041704177856445, 1.3713585138320923, 8.346542358398438, -2.664323329925537, -1.6514174938201904, -2.4255998134613037, 0.04345703125, -0.210693359375, -0.8203125
140, 1564371469, -5.02042293548584, 1.372400164604187, 8.353614807128906, -2.6640286445617676, -1.7749603986740112, -2.410308837890625, 0.047119140625, -0.209228515625, -0.8212890625
141, 1564388136, -5.042983055114746, 1.3615944385528564, 8.350421905517578, -2.6211915016174316, -1.781722068786621, -2.4066593647003174, 0.04638671875, -0.208740234375, -0.8203125
142, 1564404803, -5.036950588226318, 1.3722258806228638, 8.330498695373535, -2.527115821838379, -1.7795450687408447, -2.2879955768585205, 0.048095703125, -0.209228515625, -0.8193359375
143, 1564421470, -5.029637336730957, 1.3765599727630615, 8.346367835998535, -2.5184969902038574, -1.7134640216827393, -2.3720691204071045, 0.04638671875, -0.208740234375, -0.81884765625
144, 1564438137, -5.019852161407471, 1.3716779947280884, 8.33163833618164, -2.4463846683502197, -1.6347564458847046, -2.4495861530303955, 0.04296875, -0.208740234375, -0.822509765625
145, 1564454804, -5.0346198081970215, 1.3625333309173584, 8.338785171508789, -2.612367630004883, -1.5620802640914917, -2.4252541065216064, 0.044921875, -0.208251953125, -0.821044921875
146, 1564471471, -5.03933048248291, 1.364391565322876, 8.328195571899414, -2.5932095050811768, -1.5270038843154907, -2.3970417976379395, 0.044921875, -0.206298828125, -0.821044921875
147, 1564488138, -5.052344799041748, 1.3626301288604736, 8.340105056762695, -2.5572104454040527, -1.5236612558364868, -2.397873878479004, 0.04736328125, -0.206787109375, -0.8193359375
148, 1564504805, -5.034693241119385, 1.3616218566894531, 8.363753318786621, -2.636251449584961, -1.6167634725570679, -2.3415520191192627, 0.044921875, -0.206787109375, -0.818359375
149, 1564521472, -5.036585330963135, 1.3631644248962402, 8.355558395385742, -2.6099088191986084, -1.5660887956619263, -2.293015480041504, 0.04736328125, -0.207763671875, -0.81884765625
150, 1564538139, -5.027091979980469, 1.3703323602676392, 8.341937065124512, -2.5173184871673584, -1.6036241054534912, -2.4798471927642822, 0.04443359375, -0.207275390625, -0.820068359375
151, 1564554806, -5.034393787384033, 1.370090126991272, 8.347310066223145, -2.6139936447143555, -1.5602233409881592, -2.479834794998169, 0.04638671875, -0.207763671875, -0.8193359375
152, 1564571473, -5.0385541915893555, 1.3761845827102661, 8.351113319396973, -2.654871940612793, -1.5993596315383911, -2.417506456375122, 0.044921875, -0.208740234375, -0.8203125
153, 1564588140, -5.0423736572265625, 1.3508816957473755, 8.322293281555176, -2.783051013946533, -1.6125885248184204, -2.3592629432678223, 0.044921875, -0.210205078125, -0.8193359375
154, 1564604807, -5.030834674835205, 1.37334406375885, 8.343681335449219, -2.8040525913238525, -1.7851922512054443, -2.4394431114196777, 0.0458984375, -0.208740234375, -0.81884765625
155, 1564621474, -5.039935111999512, 1.3562686443328857, 8.353165626525879, -2.8076894283294678, -1.8478280305862427, -2.477221965789795, 0.04541015625, -0.206787109375, -0.8193359375
156, 1564638141, -5.029595375061035, 1.3656359910964966, 8.347748756408691, -2.7481017112731934, -1.894187092781067, -2.4274303913116455, 0.04248046875, -0.207763671875, -0.819580078125
157, 1564654808, -5.036005973815918, 1.3760539293289185, 8.339376449584961, -2.598255157470703, -1.8928172588348389, -2.3700459003448486, 0.04541015625, -0.207763671875, -0.821533203125
158, 1564671475, -5.035350322723389, 1.3705826997756958, 8.349063873291016, -2.7469234466552734, -1.9732533693313599, -2.416750192642212, 0.04345703125, -0.208740234375, -0.81884765625
159, 1564688142, -5.026911735534668, 1.3723095655441284, 8.348902702331543, -2.6558191776275635, -2.1075150966644287, -2.33504581451416, 0.04248046875, -0.210693359375, -0.81982421875
160, 1564704809, -5.023358345031738, 1.378333330154419, 8.333434104919434, -2.5977554321289062, -2.1730966567993164, -2.3330864906311035, 0.0439453125, -0.208740234375, -0.818359375
161, 1564721476, -5.015217304229736, 1.387797236442566, 8.357660293579102, -2.7545180320739746, -2.2382686138153076, -2.4957399368286133, 0.044921875, -0.207763671875, -0.818359375
162, 1564738143, -5.005373001098633, 1.372991681098938, 8.359804153442383, -2.884899377822876, -2.5023739337921143, -2.538115978240967, 0.04443359375, -0.209228515625, -0.8193359375
163, 1564754810, -5.012684345245361, 1.357556939125061, 8.331402778625488, -2.8825430870056152, -2.3078324794769287, -2.5485663414001465, 0.0439453125, -0.207763671875, -0.821533203125
164, 1564771477, -5.008740425109863, 1.3664698600769043, 8.374957084655762, -2.8270270824432373, -2.318000316619873, -2.5490143299102783, 0.044921875, -0.209228515625, -0.821533203125
165, 1564788144, -5.017949104309082, 1.36686110496521, 8.377777099609375, -2.929260492324829, -2.4600484371185303, -2.537501573562622, 0.04248046875, -0.207763671875, -0.820556640625
166, 1564804811, -5.00896692276001, 1.3728907108306885, 8.371941566467285, -3.0223631858825684, -2.5959885120391846, -2.6516706943511963, 0.04296875, -0.208251953125, -0.8173828125
167, 1564821478, -4.999115943908691, 1.3778538703918457, 8.371700286865234, -3.152475118637085, -2.748601198196411, -2.7223992347717285, 0.041015625, -0.209716796875, -0.81787109375
168, 1564838145, -5.005405426025391, 1.3722681999206543, 8.368824005126953, -2.925111770629883, -2.6320641040802, -2.6250717639923096, 0.04296875, -0.206787109375, -0.818359375
169, 1564854812, -5.023914337158203, 1.4029172658920288, 8.373503684997559, -3.1207284927368164, -3.078441619873047, -2.8324830532073975, 0.04248046875, -0.207763671875, -0.821044921875
170, 1564871479, -4.980911731719971, 1.220847249031067, 8.384384155273438, -3.6445720195770264, -3.778193473815918, -2.8273603916168213, 0.041015625, -0.209716796875, -0.822509765625
171, 1564888146, -5.038874626159668, 1.3760751485824585, 8.332569122314453, -1.8879891633987427, -2.9854555130004883, -1.9417246580123901, 0.04248046875, -0.206298828125, -0.821533203125
172, 1564904813, -5.007649898529053, 1.3199926614761353, 8.366923332214355, -0.65165114402771, -3.0864713191986084, -1.4993163347244263, 0.0400390625, -0.209228515625, -0.819580078125
173, 1564921480, -4.957275390625, 1.3578790426254272, 8.378478050231934, -0.9319180846214294, -2.9859795570373535, -1.2657283544540405, 0.0390625, -0.207275390625, -0.820068359375
174, 1564938147, -4.932772159576416, 1.224467396736145, 8.382697105407715, 0.44076257944107056, -1.970833420753479, -0.6088778972625732, 0.041015625, -0.208251953125, -0.822021484375
175, 1564954814, -4.98552131652832, 1.32882821559906, 8.381752967834473, 1.4322556257247925, -1.1400339603424072, 0.1468311846256256, 0.0390625, -0.208740234375, -0.821044921875
176, 1564971481, -5.031274318695068, 1.401688575744629, 8.378615379333496, 2.027571678161621, -1.502978801727295, 0.5270389318466187, 0.0380859375, -0.210693359375, -0.821533203125
177, 1564988148, -5.017026424407959, 1.4772796630859375, 8.371962547302246, 1.7594963312149048, -2.43644642829895, 0.2341449111700058, 0.0400390625, -0.21337890625, -0.820068359375
178, 1565004815, -4.993668556213379, 1.4251295328140259, 8.365015983581543, 3.6242547035217285, -2.198094606399536, 1.1055911779403687, 0.039306640625, -0.21337890625, -0.8173828125
179, 1565021482, -4.904348373413086, 1.3649605512619019, 8.374611854553223, 4.115403652191162, -1.6638907194137573, 1.5524818897247314, 0.039306640625, -0.212890625, -0.81640625
180, 1565038149, -4.954867362976074, 1.4950408935546875, 8.360480308532715, 3.5665369033813477, -1.2529863119125366, 1.0668268203735352, 0.036865234375, -0.21923828125, -0.818359375
181, 1565054816, -4.943149089813232, 1.5030502080917358, 8.381473541259766, 3.4975109100341797, -1.3190542459487915, 0.8472362756729126, 0.0390625, -0.21923828125, -0.81787109375
182, 1565071483, -4.956725597381592, 1.5641512870788574, 8.356228828430176, 2.4416775703430176, -0.9109668731689453, 0.12144900858402252, 0.0390625, -0.21875, -0.818359375
183, 1565088150, -5.004500865936279, 1.5791481733322144, 8.338006019592285, 1.0198912620544434, -1.399798035621643, -0.5539642572402954, 0.037841796875, -0.2197265625, -0.81640625
184, 1565104817, -4.963454246520996, 1.570534110069275, 8.373286247253418, 0.37760159373283386, -1.0774110555648804, -0.8343465328216553, 0.037841796875, -0.221923828125, -0.8173828125
185, 1565121484, -4.9214701652526855, 1.56367027759552, 8.36887264251709, 0.03151002526283264, -0.3205301761627197, -1.1331186294555664, 0.038330078125, -0.222412109375, -0.81689453125
186, 1565138151, -4.9152302742004395, 1.5598186254501343, 8.363388061523438, -0.6145382523536682, 0.5648176670074463, -1.656219482421875, 0.038330078125, -0.220703125, -0.81591796875
187, 1565154818, -4.957328796386719, 1.5185546875, 8.330134391784668, -1.584145426750183, 0.563690721988678, -2.115813732147217, 0.0380859375, -0.22119140625, -0.818359375
188, 1565171485, -4.982748031616211, 1.5466619729995728, 8.361554145812988, -2.359595537185669, 0.2979845404624939, -2.313492774963379, 0.0380859375, -0.222412109375, -0.81884765625
189, 1565188152, -5.0370259284973145, 1.593900442123413, 8.338006973266602, -3.217595338821411, -0.2401062250137329, -2.6683435440063477, 0.0390625, -0.222412109375, -0.81787109375
190, 1565204819, -5.045304298400879, 1.5235282182693481, 8.34908390045166, -4.411019802093506, -1.3825992345809937, -3.121023178100586, 0.0400390625, -0.22119140625, -0.81689453125
191, 1565221486, -5.012463092803955, 1.4722933769226074, 8.356518745422363, -4.657503604888916, -1.7445579767227173, -3.117987632751465, 0.0400390625, -0.22021484375, -0.81689453125
192, 1565238153, -5.004701137542725, 1.516391396522522, 8.331448554992676, -4.87317419052124, -1.8406566381454468, -3.099546432495117, 0.04150390625, -0.2197265625, -0.81787109375
193, 1565254820, -5.00876522064209, 1.4840985536575317, 8.32833480834961, -5.643310546875, -2.320946216583252, -3.215956449508667, 0.03955078125, -0.22021484375, -0.81884765625
194, 1565271487, -4.977644443511963, 1.5309702157974243, 8.354331016540527, -6.550179481506348, -2.798905372619629, -3.4240598678588867, 0.0380859375, -0.21875, -0.819580078125
195, 1565288154, -4.984111309051514, 1.4953306913375854, 8.356322288513184, -7.77665901184082, -3.6708385944366455, -3.881861686706543, 0.0400390625, -0.21826171875, -0.8203125
196, 1565304821, -4.983262062072754, 1.4916300773620605, 8.368074417114258, -9.893472671508789, -4.5303635597229, -4.957250595092773, 0.038330078125, -0.21728515625, -0.81884765625
197, 1565321488, -4.965442657470703, 1.5396778583526611, 8.332786560058594, -11.770055770874023, -5.329250812530518, -5.768611431121826, 0.038818359375, -0.21337890625, -0.818603515625
198, 1565338155, -4.885904788970947, 1.4405293464660645, 8.35035514831543, -9.369233131408691, -4.880309581756592, -4.817622661590576, 0.035888671875, -0.210693359375, -0.820556640625
199, 1565354822, -4.905242443084717, 1.3944770097732544, 8.391938209533691, -6.6252899169921875, -3.3749349117279053, -3.7431302070617676, 0.037841796875, -0.211181640625, -0.820068359375
200, 1565371489, -4.937209129333496, 1.41168212890625, 8.403459548950195, -5.2867560386657715, -2.4346792697906494, -3.2902588844299316, 0.036376953125, -0.208251953125, -0.820556640625
201, 1565388156, -4.917962074279785, 1.4599717855453491, 8.359448432922363, -5.021933555603027, -2.4948949813842773, -3.42334246635437, 0.034912109375, -0.210693359375, -0.82177734375
202, 1565404823, -4.906887054443359, 1.4444730281829834, 8.375724792480469, -5.88989782333374, -3.3147709369659424, -4.1307783126831055, 0.037353515625, -0.207275390625, -0.8212890625
203, 1565421490, -4.866986274719238, 1.4193799495697021, 8.372078895568848, -7.03267240524292, -3.917872905731201, -5.025763988494873, 0.035400390625, -0.206787109375, -0.819091796875
204, 1565438157, -4.871980667114258, 1.3858695030212402, 8.3465576171875, -6.13770055770874, -3.742913007736206, -5.280622482299805, 0.033447265625, -0.206298828125, -0.82080078125
205, 1565454824, -4.850462436676025, 1.3293654918670654, 8.416107177734375, -4.293304443359375, -2.6659626960754395, -4.925323963165283, 0.032470703125, -0.205810546875, -0.823486328125
206, 1565471491, -4.732870578765869, 1.4031176567077637, 8.445354461669922, -4.261518478393555, -2.432297468185425, -5.709827423095703, 0.034423828125, -0.205322265625, -0.82080078125
207, 1565488158, -4.807292938232422, 1.4296936988830566, 8.41493034362793, -5.200544834136963, -2.8552021980285645, -7.538050651550293, 0.036376953125, -0.203369140625, -0.82080078125
208, 1565504825, -4.9107537269592285, 1.5229837894439697, 8.396139144897461, -7.619616508483887, -3.7148942947387695, -10.452357292175293, 0.034912109375, -0.203125, -0.8212890625
209, 1565521492, -4.8479437828063965, 1.502040982246399, 8.338898658752441, -10.058116912841797, -3.733797550201416, -13.102560997009277, 0.033447265625, -0.20068359375, -0.81982421875
210, 1565538159, -4.7985429763793945, 1.2262506484985352, 8.271722793579102, -4.960145950317383, 0.7167527079582214, -13.283075332641602, 0.035400390625, -0.19970703125, -0.827880859375
211, 1565554826, -4.7406816482543945, 1.0904974937438965, 8.402726173400879, 1.2614843845367432, 11.301185607910156, -11.984463691711426, 0.038818359375, -0.20263671875, -0.82177734375
212, 1565571493, -4.649297714233398, 1.4085227251052856, 8.548859596252441, 2.8220326900482178, 22.20273208618164, -12.694117546081543, 0.04296875, -0.201416015625, -0.822021484375
213, 1565588160, -4.565145015716553, 1.1605191230773926, 8.651256561279297, -2.2128214836120605, 36.89102554321289, -14.468591690063477, 0.051025390625, -0.203857421875, -0.82080078125
214, 1565604827, -4.514195919036865, 1.0072134733200073, 8.506526947021484, 7.193535804748535, 59.9205322265625, -17.11582374572754, 0.066162109375, -0.203857421875, -0.81787109375
215, 1565621494, -4.886002540588379, 1.1723527908325195, 8.82564640045166, 7.918756008148193, 84.58405303955078, -19.631479263305664, 0.086181640625, -0.20458984375, -0.815185546875
216, 1565638161, -4.7925124168396, 0.7845052480697632, 8.96068286895752, 6.073138236999512, 113.05477142333984, -21.800678253173828, 0.11181640625, -0.204345703125, -0.813232421875
217, 1565654828, -5.291369438171387, 0.9876679182052612, 8.634710311889648, 6.927701950073242, 142.5974884033203, -23.460142135620117, 0.144287109375, -0.205322265625, -0.8056640625
218, 1565671495, -5.51519775390625, 1.2474582195281982, 8.410691261291504, 5.3545942306518555, 174.2853546142578, -25.807390213012695, 0.183837890625, -0.205078125, -0.794921875
219, 1565688162, -5.762797832489014, 1.026308536529541, 8.19714069366455, -0.00234392611309886, 207.75582885742188, -30.20612335205078, 0.231201171875, -0.205322265625, -0.784423828125
220, 1565704829, -6.0227766036987305, 1.3622698783874512, 8.145917892456055, -9.562973976135254, 245.44244384765625, -39.438514709472656, 0.283203125, -0.197021484375, -0.76123046875
221, 1565721496, -6.434808731079102, 2.0930655002593994, 7.738529205322266, -20.486522674560547, 290.9443054199219, -57.079769134521484, 0.3447265625, -0.185791015625, -0.732666015625
222, 1565738163, -6.940057754516602, 2.568588972091675, 7.716454029083252, -29.86887550354004, 351.6179504394531, -77.45628356933594, 0.421630859375, -0.170654296875, -0.694580078125
223, 1565754830, -10.2928466796875, 3.229247570037842, 9.608798027038574, -41.06720733642578, 411.3987731933594, -104.39080810546875, 0.501953125, -0.149169921875, -0.640380859375
224, 1565771497, -15.999078750610352, 3.6132969856262207, 11.365166664123535, -55.27187728881836, 408.9727478027344, -135.2687225341797, 0.58154296875, -0.11865234375, -0.570068359375
225, 1565788164, -16.744211196899414, 3.3121986389160156, 10.611570358276367, -43.99128341674805, 384.12042236328125, -150.07760620117188, 0.644775390625, -0.08203125, -0.494384765625
226, 1565804831, -14.586854934692383, 4.6127166748046875, 11.365958213806152, -50.513938903808594, 375.05316162109375, -160.54879760742188, 0.6982421875, -0.04833984375, -0.408935546875
227, 1565821498, -8.700000762939453, 4.570503234863281, 10.320840835571289, -81.15388488769531, 351.9864501953125, -181.5874786376953, 0.73681640625, -0.001708984375, -0.321533203125
228, 1565838165, -5.256897449493408, 4.8256402015686035, 13.56171703338623, -91.52075958251953, 322.748291015625, -177.28038024902344, 0.762451171875, 0.045166015625, -0.23681640625
229, 1565854832, -22.93989372253418, 4.842611789703369, 20.924224853515625, -83.33414459228516, 203.57907104492188, -147.3855743408203, 0.77392578125, 0.087890625, -0.1640625
230, 1565871499, -21.261690139770508, 10.524456024169922, 29.75037384033203, 13.661334991455078, -78.30624389648438, -18.741689682006836, 0.773681640625, 0.097412109375, -0.150390625
231, 1565888166, -4.101273536682129, 8.792622566223145, 13.32351303100586, -43.12102508544922, -227.25238037109375, 9.018725395202637, 0.771484375, 0.09326171875, -0.177734375
232, 1565904833, 0.7721948623657227, 5.044497966766357, 5.5236310958862305, -101.91696166992188, -215.5000457763672, 4.434593200683594, 0.76953125, 0.096435546875, -0.21484375
233, 1565921500, -0.7563402056694031, 3.2619781494140625, 5.475738525390625, -105.8761215209961, -181.7933807373047, 7.431704521179199, 0.768310546875, 0.102783203125, -0.248291015625
234, 1565938167, -6.273764133453369, 2.9165267944335938, 10.71701431274414, -47.597450256347656, -222.128173828125, 50.08612060546875, 0.766845703125, 0.0986328125, -0.2890625
235, 1565954834, -6.989982604980469, 4.356525897979736, 11.015568733215332, -5.084974765777588, -305.947265625, 98.43169403076172, 0.75634765625, 0.07861328125, -0.35546875
236, 1565971501, -5.326217174530029, 3.507370948791504, 7.274017333984375, -10.3229341506958, -345.91265869140625, 114.18537139892578, 0.73291015625, 0.0556640625, -0.439697265625
237, 1565988168, -5.647328853607178, 1.5465285778045654, 5.876602649688721, -12.981217384338379, -343.760009765625, 120.5178451538086, 0.68798828125, 0.0263671875, -0.528564453125
238, 1566004835, -7.405066967010498, 0.7509996891021729, 7.463415145874023, 8.060747146606445, -348.52825927734375, 126.48400115966797, 0.62158203125, 0.003662109375, -0.611083984375
239, 1566021502, -9.225764274597168, 0.80449378490448, 9.430059432983398, 25.95053482055664, -372.7835998535156, 129.27561950683594, 0.53955078125, -0.0166015625, -0.674560546875
240, 1566038169, -9.339441299438477, 0.6017793416976929, 8.372099876403809, 34.875030517578125, -392.7677307128906, 120.27758026123047, 0.45166015625, -0.033447265625, -0.72998046875
241, 1566054836, -8.489583015441895, -1.8486672639846802, 5.667466640472412, 55.648799896240234, -366.99334716796875, 105.6133041381836, 0.3681640625, -0.046630859375, -0.767333984375
242, 1566071503, -10.795441627502441, -3.0326297283172607, 6.285909652709961, 96.10639190673828, -297.952880859375, 101.93663024902344, 0.29345703125, -0.073974609375, -0.7890625
243, 1566088170, -16.048357009887695, -0.19489464163780212, 13.875326156616211, 97.43460083007812, -257.0030822753906, 81.17448425292969, 0.232177734375, -0.098876953125, -0.783447265625
244, 1566104837, -18.735633850097656, -0.20098836719989777, 13.29132080078125, 72.47212219238281, -273.1018981933594, 61.54280471801758, 0.1904296875, -0.11767578125, -0.770751953125
245, 1566121504, -18.961978912353516, -1.6723016500473022, 8.833861351013184, 70.87593841552734, -251.0001983642578, 56.11532974243164, 0.1650390625, -0.1376953125, -0.77685546875
246, 1566138171, -20.81635284423828, 0.38856929540634155, 8.654757499694824, 82.7003402709961, -227.54922485351562, 69.3401870727539, 0.147216796875, -0.161376953125, -0.804931640625
247, 1566154838, -20.849876403808594, 2.500070810317993, 6.7285261154174805, 50.21434783935547, -226.34817504882812, 77.35954284667969, 0.109130859375, -0.1904296875, -0.85009765625
248, 1566171505, -19.500520706176758, 0.254963219165802, 2.532468318939209, 13.924620628356934, -209.53480529785156, 74.3438720703125, 0.043701171875, -0.210205078125, -0.8916015625
249, 1566188172, -18.81194496154785, -1.4547512531280518, 0.6290389895439148, 14.317750930786133, -176.17745971679688, 73.306640625, -0.0244140625, -0.22802734375, -0.916259765625
250, 1566204839, -17.736984252929688, -3.3919925689697266, 0.06983345746994019, 18.983680725097656, -143.93820190429688, 69.27981567382812, -0.093017578125, -0.24658203125, -0.921142578125
251, 1566221506, -17.7252197265625, -4.773099422454834, -0.5524553060531616, 25.469646453857422, -112.2125244140625, 59.11408615112305, -0.14794921875, -0.2607421875, -0.919189453125
252, 1566238173, -17.066497802734375, -4.431610107421875, -2.2459304332733154, 23.07956886291504, -78.4007797241211, 44.84925079345703, -0.194091796875, -0.2705078125, -0.911865234375
253, 1566254840, -17.591697692871094, -3.436959743499756, -1.8612957000732422, 2.074195623397827, -46.053192138671875, 29.460248947143555, -0.21923828125, -0.275390625, -0.908935546875
254, 1566271507, -16.768001556396484, -3.8514771461486816, -1.5281932353973389, -44.649803161621094, -3.3383700847625732, 2.6408095359802246, -0.23681640625, -0.26953125, -0.912109375
255, 1566288174, -5.306809902191162, -10.135459899902344, -1.575147271156311, -30.747329711914062, 84.60511779785156, -81.60310363769531, -0.215576171875, -0.266357421875, -0.9287109375
256, 1566304841, 1.7881535291671753, 11.68610954284668, 14.781050682067871, 3.9576656818389893, 111.45175170898438, -87.53033447265625, -0.191162109375, -0.274169921875, -0.94287109375
257, 1566321508, -0.9488780498504639, 12.6795015335083, 4.861196041107178, -9.118999481201172, 191.05392456054688, -68.50155639648438, -0.1484375, -0.279541015625, -0.960693359375
258, 1566338175, -12.213582992553711, -1.675764560699463, 13.81789779663086, -0.8521779179573059, 207.07798767089844, -37.43621826171875, -0.096923828125, -0.2861328125, -0.974853515625
259, 1566354842, -8.321328163146973, -2.507159471511841, 12.582269668579102, 8.271759986877441, 158.80459594726562, -28.068117141723633, -0.052978515625, -0.28857421875, -0.989013671875
260, 1566371509, -6.023539066314697, 2.4688282012939453, 9.918218612670898, 35.99524688720703, 153.75616455078125, -11.013279914855957, -0.013671875, -0.303466796875, -0.998291015625
261, 1566388176, -4.874354362487793, 3.1425869464874268, 8.160747528076172, 43.69524002075195, 154.5120391845703, -7.508328914642334, 0.022705078125, -0.32421875, -1.001708984375
262, 1566404843, -15.757593154907227, 11.666118621826172, 13.872900009155273, -16.33062744140625, 127.95952606201172, -33.483367919921875, 0.0595703125, -0.330078125, -1.005615234375
263, 1566421510, -6.37771463394165, -3.168271780014038, 10.492121696472168, -50.92377853393555, 70.07164001464844, -31.06410026550293, 0.083740234375, -0.31884765625, -1.01220703125
264, 1566438177, -5.646866321563721, 3.0757837295532227, 8.682082176208496, -42.18608856201172, 44.046119689941406, -18.501150131225586, 0.09912109375, -0.306884765625, -1.017822265625
265, 1566454844, -6.561605930328369, 1.095539927482605, 9.859107971191406, -36.2490348815918, 27.594758987426758, -15.4794921875, 0.107421875, -0.29736328125, -1.02392578125
266, 1566471511, -5.38709831237793, 2.5154786109924316, 8.417318344116211, -27.847652435302734, 10.651330947875977, -13.178206443786621, 0.11083984375, -0.288330078125, -1.02685546875
267, 1566488178, -5.407933235168457, 1.715834140777588, 8.617673873901367, -21.777313232421875, 5.691033840179443, -12.641651153564453, 0.115478515625, -0.283935546875, -1.029296875
268, 1566504845, -5.307652473449707, 1.5131477117538452, 8.60343074798584, -12.316949844360352, 3.712787628173828, -8.178038597106934, 0.1162109375, -0.27978515625, -1.0283203125
269, 1566521512, -5.2154541015625, 1.6608668565750122, 8.484217643737793, -7.492037296295166, 5.15850830078125, -4.54414176940918, 0.120361328125, -0.27880859375, -1.029296875
270, 1566538179, -5.125481128692627, 1.8299018144607544, 8.253939628601074, -4.799526214599609, 5.630946159362793, -2.3340601921081543, 0.121826171875, -0.27734375, -1.02978515625
271, 1566554846, -4.991385459899902, 1.8924223184585571, 8.244795799255371, -3.8892886638641357, 6.058985710144043, -1.4100817441940308, 0.122802734375, -0.27734375, -1.03125
272, 1566571513, -5.035477161407471, 2.033677339553833, 8.158160209655762, -4.8559250831604, 6.495017051696777, -2.24578595161438, 0.124267578125, -0.2763671875, -1.03125
273, 1566588180, -5.138043403625488, 2.02297043800354, 8.122218132019043, -7.205790042877197, 5.363422870635986, -4.0121283531188965, 0.1259765625, -0.277099609375, -1.03271484375
274, 1566604847, -5.163478851318359, 1.817344307899475, 8.235239028930664, -9.005248069763184, 3.6329128742218018, -5.549133777618408, 0.12646484375, -0.2744140625, -1.03076171875
275, 1566621514, -5.232622146606445, 1.892175555229187, 8.208005905151367, -9.25018310546875, 2.1917245388031006, -5.612998962402344, 0.1279296875, -0.271484375, -1.03173828125
276, 1566638181, -5.344181060791016, 1.9323269128799438, 8.180176734924316, -9.51017951965332, 0.49315354228019714, -6.424014091491699, 0.126953125, -0.27001953125, -1.033203125
277, 1566654848, -5.284668922424316, 1.776728868484497, 8.151129722595215, -10.531102180480957, -1.495500922203064, -7.249127388000488, 0.12841796875, -0.267578125, -1.036376953125
278, 1566671515, -5.170825958251953, 1.9480406045913696, 8.194762229919434, -12.998162269592285, -4.551585674285889, -9.217455863952637, 0.1298828125, -0.265625, -1.036865234375
279, 1566688182, -5.0222272872924805, 1.9436460733413696, 8.208930015563965, -21.773439407348633, -9.733017921447754, -15.270665168762207, 0.126953125, -0.259033203125, -1.0439453125
280, 1566704849, -5.256982803344727, 2.052719831466675, 8.217199325561523, -27.70769500732422, -14.024840354919434, -20.86264419555664, 0.121826171875, -0.25146484375, -1.040283203125
281, 1566721516, -5.211574554443359, 1.7080377340316772, 8.23585319519043, -22.94304656982422, -12.120718002319336, -20.467660903930664, 0.120361328125, -0.244384765625, -1.04296875
282, 1566738183, -5.126215934753418, 1.2571207284927368, 8.2347412109375, -14.505305290222168, -5.636174201965332, -16.27618408203125, 0.120361328125, -0.239990234375, -1.04443359375
283, 1566754850, -5.0753583908081055, 1.3399888277053833, 8.333301544189453, -6.978145122528076, 2.5421581268310547, -12.163081169128418, 0.120849609375, -0.23779296875, -1.044921875
284, 1566771517, -4.892274379730225, 1.597395420074463, 8.348609924316406, -5.7662177085876465, 8.940985679626465, -12.4144868850708, 0.120361328125, -0.2373046875, -1.045654296875
285, 1566788184, -4.7305450439453125, 1.9550553560256958, 8.391356468200684, -10.007340431213379, 18.126619338989258, -16.614063262939453, 0.12841796875, -0.234375, -1.04541015625
286, 1566804851, -4.696744918823242, 1.0832093954086304, 8.338333129882812, -4.228076457977295, 33.30900573730469, -18.813264846801758, 0.136962890625, -0.234375, -1.046142578125
287, 1566821518, -4.918542385101318, 1.0227916240692139, 8.432426452636719, 9.172690391540527, 55.210975646972656, -17.690109252929688, 0.152587890625, -0.235595703125, -1.0390625
288, 1566838185, -4.8130927085876465, 0.9622801542282104, 8.603569030761719, 13.689918518066406, 79.26029968261719, -13.792043685913086, 0.173095703125, -0.23974609375, -1.035888671875
289, 1566854852, -5.041326522827148, 1.1965594291687012, 8.424164772033691, 11.168519020080566, 106.05149841308594, -13.267301559448242, 0.20166015625, -0.242431640625, -1.03076171875
290, 1566871519, -5.4426774978637695, 1.2543604373931885, 8.234901428222656, 13.948880195617676, 132.76681518554688, -16.130037307739258, 0.23681640625, -0.2470703125, -1.0205078125
291, 1566888186, -5.336580753326416, 1.2644052505493164, 8.132978439331055, 16.881128311157227, 161.10572814941406, -20.02547836303711, 0.281982421875, -0.250244140625, -1.008544921875
292, 1566904853, -5.444684028625488, 1.1207486391067505, 8.184712409973145, 19.35026741027832, 196.16262817382812, -22.039249420166016, 0.33203125, -0.253662109375, -0.986083984375
293, 1566921520, -5.524407386779785, 1.6059536933898926, 8.253084182739258, 13.312676429748535, 247.33189392089844, -27.53837776184082, 0.3935546875, -0.255859375, -0.95849609375
294, 1566938187, -6.197755336761475, 2.069157838821411, 7.962751388549805, -3.3800277709960938, 314.82891845703125, -40.39775466918945, 0.47216796875, -0.250732421875, -0.923828125
295, 1566954854, -6.994584560394287, 2.7016053199768066, 8.307731628417969, -23.361848831176758, 410.6340637207031, -59.587711334228516, 0.56640625, -0.23681640625, -0.863525390625
296, 1566971521, -9.732325553894043, 3.396399736404419, 11.237273216247559, -27.05121612548828, 500.80657958984375, -85.57524108886719, 0.67333984375, -0.21337890625, -0.7734375
297, 1566988188, -18.19698143005371, 1.874262809753418, 12.691985130310059, -10.014225959777832, 509.99749755859375, -108.31874084472656, 0.770263671875, -0.185302734375, -0.66015625
298, 1567004855, -19.870712280273438, 4.099956512451172, 12.284355163574219, 0.47736656665802, 481.8699035644531, -115.6539306640625, 0.839111328125, -0.15283203125, -0.526611328125
299, 1567021522, -16.150449752807617, 5.825397491455078, 12.852439880371094, -24.351377487182617, 455.7950439453125, -138.6201171875, 0.884765625, -0.111083984375, -0.389892578125
300, 1567038189, -6.9908528327941895, 3.5775225162506104, 12.4468412399292, -39.826141357421875, 415.9191589355469, -133.97195434570312, 0.904296875, -0.061767578125, -0.257080078125
301, 1567054856, -8.390640258789062, 0.205572247505188, 14.556882858276367, -5.824443340301514, 323.538818359375, -94.07705688476562, 0.908935546875, -0.031494140625, -0.1474609375
302, 1567071523, -31.869979858398438, 4.529294013977051, 28.88052749633789, 54.7470703125, 159.2555694580078, -98.61920928955078, 0.89990234375, 7.32421875E-4, -0.0712890625
303, 1567088190, -14.336366653442383, 8.598407745361328, 25.919836044311523, 56.483394622802734, -138.79507446289062, -29.43349838256836, 0.89501953125, 0.01611328125, -0.0732421875
304, 1567104857, -3.6757664680480957, 5.784416198730469, 12.128745079040527, -15.141257286071777, -248.68093872070312, -18.326988220214844, 0.902587890625, 0.018798828125, -0.1240234375
305, 1567121524, -0.7522552609443665, 3.050802707672119, 6.55901575088501, -49.70651626586914, -258.3271484375, -24.414215087890625, 0.90087890625, 0.02587890625, -0.20751953125
306, 1567138191, -1.9746661186218262, 2.006507635116577, 6.560281276702881, -58.351043701171875, -256.83758544921875, -16.70016098022461, 0.88427734375, 0.02685546875, -0.295166015625
307, 1567154858, -5.2371392250061035, 2.431220769882202, 8.891032218933105, -38.94379806518555, -296.7833557128906, 2.1062662601470947, 0.83984375, 0.023681640625, -0.387939453125
308, 1567171525, -6.444425582885742, 2.033334732055664, 8.35517692565918, -19.28526496887207, -348.4972229003906, 26.001487731933594, 0.77099609375, 0.013671875, -0.4716796875
309, 1567188192, -6.082275390625, 1.8252582550048828, 6.763530254364014, 1.3762121200561523, -377.02294921875, 49.4196891784668, 0.69384765625, -2.44140625E-4, -0.544677734375
310, 1567204859, -6.908506393432617, 2.1141932010650635, 6.740198135375977, 16.482833862304688, -390.26983642578125, 72.99739837646484, 0.610107421875, -0.0166015625, -0.6025390625
311, 1567221526, -7.877394676208496, 2.8055577278137207, 7.084280967712402, 13.79254150390625, -407.0557556152344, 90.29582214355469, 0.522216796875, -0.036376953125, -0.64990234375
312, 1567238193, -8.640703201293945, 1.674101710319519, 7.0805230140686035, 1.2444031238555908, -413.1366882324219, 91.08538055419922, 0.436767578125, -0.047119140625, -0.686279296875
313, 1567254860, -9.32583999633789, -0.7272021770477295, 7.461215496063232, 23.80788230895996, -413.1219177246094, 85.71527862548828, 0.3544921875, -0.059814453125, -0.7119140625
314, 1567271527, -10.801600456237793, -3.42578125, 6.159367561340332, 82.64694213867188, -388.8683776855469, 74.76969909667969, 0.281005859375, -0.08740234375, -0.72998046875
315, 1567288194, -14.872528076171875, -2.6261463165283203, 7.115687370300293, 127.59200286865234, -320.12774658203125, 56.98630142211914, 0.228271484375, -0.120361328125, -0.73681640625
316, 1567304861, -19.416812896728516, 0.9291791915893555, 12.904297828674316, 104.72846984863281, -284.6330261230469, 16.581195831298828, 0.184326171875, -0.153564453125, -0.747802734375
317, 1567321528, -21.460447311401367, 0.9768359661102295, 9.97424602508545, 84.5727767944336, -283.53594970703125, 11.431581497192383, 0.13720703125, -0.181640625, -0.766845703125
318, 1567338195, -20.97089385986328, 2.052521228790283, 4.880859375, 73.63276672363281, -240.1557159423828, 32.10691833496094, 0.080810546875, -0.21435546875, -0.785888671875
319, 1567354862, -25.634275436401367, 3.5424532890319824, 6.406866073608398, 34.50142288208008, -200.32107543945312, 48.829158782958984, 0.01708984375, -0.237060546875, -0.794677734375
320, 1567371529, -25.639856338500977, -0.7972186207771301, 3.245164394378662, 39.05248260498047, -210.28744506835938, 81.20970916748047, -0.0537109375, -0.252197265625, -0.79248046875
321, 1567388196, -23.096813201904297, -2.330350399017334, -2.746462345123291, 63.257537841796875, -184.75350952148438, 104.1280746459961, -0.11572265625, -0.2666015625, -0.779541015625
322, 1567404863, -22.08717918395996, -1.3347243070602417, -4.412574291229248, 21.30677604675293, -136.87353515625, 103.16412353515625, -0.16455078125, -0.274169921875, -0.76220703125
323, 1567421530, -21.299692153930664, -3.887799024581909, -5.382423400878906, -39.500362396240234, -89.92501831054688, 96.83417510986328, -0.197998046875, -0.262939453125, -0.75244140625
324, 1567438197, -20.1475772857666, -7.034775733947754, -6.67258358001709, -29.334808349609375, -46.98370361328125, 94.35738372802734, -0.2197265625, -0.249267578125, -0.74609375
325, 1567454864, -20.912267684936523, -8.452112197875977, -9.886480331420898, 18.227800369262695, 50.8494758605957, 78.01303100585938, -0.228271484375, -0.244140625, -0.742431640625
326, 1567471531, -0.39163097739219666, -4.502981662750244, 8.200345039367676, 26.039323806762695, 102.12004089355469, 13.991846084594727, -0.211181640625, -0.252197265625, -0.74169921875
327, 1567488198, -1.1849972009658813, 0.9292290210723877, 17.777555465698242, 33.565006256103516, 134.4758758544922, -56.17074203491211, -0.18701171875, -0.25732421875, -0.741943359375
328, 1567504865, -5.171060085296631, 2.8762266635894775, 6.096227169036865, 25.859167098999023, 187.28656005859375, -62.14591979980469, -0.145751953125, -0.266845703125, -0.74609375
329, 1567521532, -11.298040390014648, 5.6906514167785645, 12.438386917114258, 18.62788200378418, 172.983154296875, -24.807239532470703, -0.10791015625, -0.2724609375, -0.748291015625
330, 1567538199, -4.808481693267822, 4.465816974639893, 7.625876426696777, 17.543195724487305, 165.03009033203125, -14.93212890625, -0.07421875, -0.27734375, -0.7451171875
331, 1567554866, -9.60064697265625, 7.525811672210693, 12.052495956420898, 0.08326870948076248, 165.9098663330078, -23.624853134155273, -0.03759765625, -0.279541015625, -0.74951171875
332, 1567571533, -11.044331550598145, 1.6082983016967773, 11.590057373046875, -54.698036193847656, 107.40968322753906, -50.3065299987793, -0.009765625, -0.269287109375, -0.75244140625
333, 1567588200, -7.242915153503418, -0.4786302149295807, 11.528678894042969, -61.06925582885742, 58.024139404296875, -28.818641662597656, 0.00732421875, -0.25732421875, -0.756591796875
334, 1567604867, -6.756307601928711, 1.6462584733963013, 9.58531379699707, -38.30628204345703, 29.22553253173828, -17.786802291870117, 0.016845703125, -0.247314453125, -0.757080078125
335, 1567621534, -5.664132595062256, 2.1657865047454834, 8.779537200927734, -16.672767639160156, 9.979973793029785, -10.436527252197266, 0.019775390625, -0.241943359375, -0.758544921875
336, 1567638201, -5.0614800453186035, 1.6306473016738892, 8.536540985107422, -12.787178993225098, 4.3117170333862305, -10.186796188354492, 0.019287109375, -0.240966796875, -0.760986328125
337, 1567654868, -5.053334712982178, 1.520925521850586, 8.591450691223145, -11.64961051940918, 1.5292649269104004, -9.272662162780762, 0.02392578125, -0.238037109375, -0.760986328125
338, 1567671535, -5.085750579833984, 1.7679824829101562, 8.517082214355469, -9.570331573486328, 1.6975274085998535, -7.448894023895264, 0.020751953125, -0.2373046875, -0.763671875
339, 1567688202, -5.077994346618652, 1.904907464981079, 8.425559043884277, -7.507749080657959, 3.030014991760254, -6.1247148513793945, 0.0234375, -0.2353515625, -0.761474609375
340, 1567704869, -5.120516777038574, 1.799211025238037, 8.355578422546387, -6.528716564178467, 3.326174736022949, -5.60546875, 0.02587890625, -0.2333984375, -0.76708984375
341, 1567721536, -5.015502452850342, 1.8077133893966675, 8.318758010864258, -6.209070205688477, 2.9814534187316895, -5.6209516525268555, 0.0244140625, -0.2333984375, -0.761962890625
342, 1567738203, -5.005557537078857, 1.853041410446167, 8.326821327209473, -6.544212818145752, 2.664790630340576, -6.023442268371582, 0.02880859375, -0.23388671875, -0.759765625
343, 1567754870, -5.054585933685303, 1.835877776145935, 8.303315162658691, -6.842076301574707, 2.1040260791778564, -6.422975540161133, 0.0263671875, -0.23046875, -0.761962890625
344, 1567771537, -5.024101734161377, 1.83466374874115, 8.323731422424316, -7.523989677429199, 0.8861676454544067, -7.018918991088867, 0.02880859375, -0.22900390625, -0.763427734375
345, 1567788204, -5.186214923858643, 1.7882623672485352, 8.314290046691895, -7.217225551605225, 0.42298752069473267, -7.43905782699585, 0.031494140625, -0.22998046875, -0.763427734375
346, 1567804871, -5.175253391265869, 1.7456716299057007, 8.248635292053223, -7.114775657653809, 0.033110830932855606, -8.035053253173828, 0.03173828125, -0.22900390625, -0.760986328125
347, 1567821538, -5.132132053375244, 1.749153971672058, 8.253931999206543, -7.387025356292725, 0.40112704038619995, -8.655034065246582, 0.029296875, -0.22802734375, -0.762939453125
348, 1567838205, -5.132389068603516, 1.6939083337783813, 8.291705131530762, -6.030447959899902, 1.0229395627975464, -8.50049877166748, 0.0322265625, -0.225341796875, -0.761962890625
349, 1567854872, -5.0474395751953125, 1.6632046699523926, 8.301252365112305, -3.8957443237304688, 2.7504522800445557, -8.299849510192871, 0.032958984375, -0.22607421875, -0.764404296875
350, 1567871539, -5.053137302398682, 1.679354190826416, 8.314940452575684, -3.2010891437530518, 5.993905067443848, -8.957674026489258, 0.033935546875, -0.22607421875, -0.762451171875
351, 1567888206, -5.080367565155029, 1.5791645050048828, 8.312767028808594, -0.3573101758956909, 10.434626579284668, -8.674346923828125, 0.037841796875, -0.2265625, -0.76220703125
352, 1567904873, -4.816478252410889, 1.6006114482879639, 8.347443580627441, -0.36224085092544556, 16.763473510742188, -7.635410308837891, 0.04248046875, -0.2255859375, -0.7626953125
353, 1567921540, -4.74813985824585, 1.5856378078460693, 8.227148056030273, -1.5578845739364624, 29.140796661376953, -9.489767074584961, 0.046875, -0.2275390625, -0.759033203125
354, 1567938207, -5.201478004455566, 1.614093542098999, 8.206857681274414, 1.9644343852996826, 37.76934814453125, -11.048173904418945, 0.056396484375, -0.22802734375, -0.758544921875
355, 1567954874, -5.074668884277344, 1.5327818393707275, 8.173919677734375, 8.188408851623535, 49.04493713378906, -10.565013885498047, 0.067626953125, -0.230224609375, -0.75927734375
356, 1567971541, -5.115850925445557, 1.666841983795166, 8.189369201660156, 11.573602676391602, 64.19048309326172, -11.37204647064209, 0.07958984375, -0.232177734375, -0.7568359375
357, 1567988208, -5.252341270446777, 1.7215161323547363, 8.190019607543945, 13.234916687011719, 82.00634002685547, -13.546674728393555, 0.0966796875, -0.2353515625, -0.752197265625
358, 1568004875, -5.36338996887207, 1.7836248874664307, 8.175708770751953, 10.23720645904541, 102.14938354492188, -18.295238494873047, 0.122314453125, -0.236572265625, -0.750244140625
359, 1568021542, -5.581066608428955, 1.5733160972595215, 7.901995658874512, 11.726679801940918, 123.38943481445312, -22.227197647094727, 0.146240234375, -0.23974609375, -0.743408203125
360, 1568038209, -5.6560282707214355, 1.5028464794158936, 7.794437408447266, 13.462760925292969, 146.1573486328125, -25.40134620666504, 0.176513671875, -0.23974609375, -0.734375
361, 1568054876, -5.730867385864258, 1.3504198789596558, 7.719655513763428, 15.105684280395508, 174.7785186767578, -27.07904815673828, 0.2138671875, -0.243408203125, -0.7216796875
362, 1568071543, -5.743988990783691, 1.413025140762329, 7.849977970123291, 13.726095199584961, 216.91403198242188, -25.77200698852539, 0.260009765625, -0.244140625, -0.7060546875
363, 1568088210, -6.301656723022461, 1.7081903219223022, 7.446868419647217, 4.395257949829102, 275.431396484375, -27.143476486206055, 0.314208984375, -0.244384765625, -0.681640625
364, 1568104877, -7.045981407165527, 2.0948548316955566, 7.541785717010498, -11.280460357666016, 358.49713134765625, -34.08298110961914, 0.377685546875, -0.240234375, -0.646240234375
365, 1568121544, -8.222097396850586, 2.5423152446746826, 9.71841812133789, -2.504936695098877, 455.2727355957031, -42.66927719116211, 0.45703125, -0.23388671875, -0.592041015625
366, 1568138211, -14.9876127243042, 3.030177116394043, 11.549755096435547, 19.38345718383789, 491.9544982910156, -64.22148895263672, 0.534912109375, -0.22802734375, -0.514404296875
367, 1568154878, -17.88527488708496, 2.6184394359588623, 10.910808563232422, 32.43560791015625, 475.05169677734375, -82.82614135742188, 0.610595703125, -0.21630859375, -0.427734375
368, 1568171545, -17.80290985107422, 5.296045303344727, 10.777084350585938, 21.171140670776367, 471.28765869140625, -102.20015716552734, 0.667724609375, -0.2021484375, -0.32958984375
369, 1568188212, -15.060616493225098, 4.552490711212158, 13.296486854553223, 6.563953399658203, 440.76116943359375, -117.59535217285156, 0.71142578125, -0.1767578125, -0.232666015625
370, 1568204879, -7.165829181671143, 2.901029586791992, 14.85528564453125, 40.9650764465332, 364.3517150878906, -77.4784164428711, 0.732421875, -0.15673828125, -0.138916015625
371, 1568221546, -24.107025146484375, 3.8259828090667725, 22.46164321899414, 55.85437774658203, 202.94178771972656, -84.79319763183594, 0.731201171875, -0.13916015625, -0.073486328125
372, 1568238213, -23.70785903930664, 5.614252090454102, 31.34600830078125, 68.28873443603516, -81.2798080444336, -64.58354187011719, 0.726806640625, -0.113525390625, -0.05322265625
373, 1568254880, -5.0555033683776855, 6.619902610778809, 15.58543872833252, 22.588125228881836, -268.9751892089844, -32.94784164428711, 0.710205078125, -0.09130859375, -0.0732421875
374, 1568271547, 0.3460116982460022, 2.995767116546631, 5.539554595947266, -28.705482482910156, -276.2614440917969, -54.267372131347656, 0.701904296875, -0.060791015625, -0.087158203125
375, 1568288214, 0.5215286612510681, 1.8064900636672974, 4.02458381652832, -55.180267333984375, -239.37953186035156, -64.9184799194336, 0.7158203125, -0.022705078125, -0.0888671875
376, 1568304881, -3.4308829307556152, 2.4853429794311523, 7.221179962158203, -44.44929885864258, -244.83078002929688, -59.26346969604492, 0.760009765625, 0.02099609375, -0.09619140625
377, 1568321548, -6.420472621917725, 3.1519012451171875, 9.028698921203613, -21.49933624267578, -302.8295593261719, -40.05905532836914, 0.82470703125, 0.062255859375, -0.160888671875
378, 1568338215, -5.765963077545166, 3.8837666511535645, 7.523894309997559, 2.3475916385650635, -354.2848205566406, -8.665949821472168, 0.87890625, 0.086181640625, -0.296630859375
379, 1568354882, -6.433449745178223, 4.592249870300293, 6.48635721206665, 6.0195488929748535, -374.1285095214844, 19.46826171875, 0.86572265625, 0.09619140625, -0.482666015625
380, 1568371549, -8.103581428527832, 4.7736921310424805, 7.395508766174316, -0.5329084992408752, -391.7232666015625, 46.88519287109375, 0.775146484375, 0.087890625, -0.64599609375
381, 1568388216, -8.031729698181152, 3.5291895866394043, 6.883551120758057, -1.2563886642456055, -409.30657958984375, 71.45040893554688, 0.637939453125, 0.07958984375, -0.751708984375
382, 1568404883, -8.577099800109863, 1.4415414333343506, 6.824375629425049, 20.28122901916504, -409.82952880859375, 86.8134765625, 0.505859375, 0.074951171875, -0.81201171875
383, 1568421550, -8.809024810791016, -0.5892477035522461, 5.695186614990234, 60.08026885986328, -383.42529296875, 88.90120697021484, 0.39892578125, 0.06201171875, -0.85302734375
384, 1568438217, -10.832023620605469, -2.6166672706604004, 5.9265336990356445, 102.0077896118164, -313.327880859375, 80.65314483642578, 0.31494140625, 0.0322265625, -0.888427734375
385, 1568454884, -17.339038848876953, -1.3578912019729614, 13.756061553955078, 119.25196075439453, -271.67926025390625, 56.18103790283203, 0.227294921875, -0.0048828125, -0.9208984375
386, 1568471551, -20.564022064208984, -1.1474888324737549, 13.820169448852539, 116.40357208251953, -290.4614562988281, 27.009742736816406, 0.122802734375, -0.040283203125, -0.91748046875
387, 1568488218, -18.768007278442383, -1.3544598817825317, 8.969680786132812, 121.45813751220703, -267.7782897949219, 22.847150802612305, 0.0361328125, -0.07177734375, -0.8955078125
388, 1568504885, -24.617931365966797, 2.416959047317505, 12.023453712463379, 111.2925796508789, -250.567138671875, 46.802947998046875, -0.029052734375, -0.11083984375, -0.88037109375
389, 1568521552, -22.754480361938477, 2.6635944843292236, 7.241002082824707, 46.684730529785156, -267.6908264160156, 64.62715148925781, -0.094970703125, -0.138427734375, -0.868896484375
390, 1568538219, -20.773338317871094, -1.880342960357666, 0.8182070851325989, 16.87712287902832, -234.99403381347656, 72.05950927734375, -0.159912109375, -0.15087890625, -0.85791015625
391, 1568554886, -20.739912033081055, -2.9834141731262207, -2.552015542984009, 31.86817741394043, -182.53269958496094, 82.96578979492188, -0.218505859375, -0.160400390625, -0.84033203125
392, 1568571553, -21.01102066040039, -4.419760227203369, -5.556164741516113, 16.69317626953125, -125.22663116455078, 81.9998550415039, -0.254150390625, -0.1630859375, -0.827392578125
393, 1568588220, -21.83930778503418, -5.627596855163574, -8.748981475830078, -22.80260467529297, -64.11532592773438, 63.32691955566406, -0.279052734375, -0.15771484375, -0.818603515625
394, 1568604887, -21.91196632385254, -8.080731391906738, -8.578237533569336, -40.74974060058594, 3.8697257041931152, 54.52954864501953, -0.2861328125, -0.144287109375, -0.81689453125
395, 1568621554, -18.53789520263672, -10.344048500061035, -7.09260368347168, -0.7175368666648865, 80.69112396240234, 49.78971481323242, -0.277587890625, -0.1357421875, -0.8203125
396, 1568638221, -0.3313867747783661, -2.4249942302703857, 14.941280364990234, 12.20659065246582, 100.40866088867188, -8.817505836486816, -0.25634765625, -0.133056640625, -0.824951171875
397, 1568654888, -0.6503050327301025, 7.675078392028809, 13.698867797851562, 40.32877731323242, 149.78805541992188, -59.432777404785156, -0.2236328125, -0.14111328125, -0.828857421875
398, 1568671555, -5.6364521980285645, 2.2748372554779053, 5.900999546051025, 32.76883316040039, 207.49658203125, -43.48105239868164, -0.17578125, -0.146728515625, -0.835693359375
399, 1568688222, -14.30649471282959, -0.3280997574329376, 16.5599365234375, 19.830934524536133, 162.9180450439453, -26.83692741394043, -0.134521484375, -0.1513671875, -0.842041015625
400, 1568704889, -6.100833415985107, 5.806219100952148, 8.822244644165039, 21.394777297973633, 131.50347900390625, -19.351900100708008, -0.098876953125, -0.15478515625, -0.84326171875
401, 1568721556, -6.482374668121338, 4.019759178161621, 9.142929077148438, 8.98626708984375, 124.91967010498047, -18.208288192749023, -0.068603515625, -0.155029296875, -0.843017578125
402, 1568738223, -10.749505043029785, 6.721193313598633, 11.699323654174805, -32.310203552246094, 100.64511108398438, -39.0262336730957, -0.04296875, -0.149169921875, -0.8466796875
403, 1568754890, -6.527011394500732, -0.5743533372879028, 10.428685188293457, -49.38732147216797, 66.92969512939453, -35.600650787353516, -0.0234375, -0.1357421875, -0.849365234375
404, 1568771557, -5.945338726043701, 1.9012655019760132, 9.546544075012207, -51.07453918457031, 40.67557144165039, -24.081584930419922, -0.01171875, -0.121826171875, -0.853271484375
405, 1568788224, -5.6202311515808105, 1.0239007472991943, 9.478401184082031, -41.01847457885742, 25.967653274536133, -19.1672420501709, -0.002197265625, -0.10986328125, -0.854248046875
406, 1568804891, -5.376291275024414, 2.200197696685791, 8.789048194885254, -29.975692749023438, 16.617393493652344, -15.902812957763672, 0.001708984375, -0.102294921875, -0.856689453125
407, 1568821558, -5.434576988220215, 1.7936527729034424, 8.657001495361328, -24.522550582885742, 7.471652507781982, -16.30710792541504, 0.004638671875, -0.09619140625, -0.852783203125
408, 1568838225, -5.155796527862549, 1.315218210220337, 8.68652629852295, -18.633262634277344, 3.777566432952881, -13.435524940490723, 0.005126953125, -0.091796875, -0.853759765625
409, 1568854892, -4.933903217315674, 1.440666675567627, 8.609811782836914, -16.761255264282227, 3.8842415809631348, -11.09976577758789, 0.0078125, -0.0888671875, -0.854736328125
410, 1568871559, -4.959125995635986, 1.7543269395828247, 8.515856742858887, -14.9173002243042, 4.252808094024658, -9.261819839477539, 0.00830078125, -0.084228515625, -0.857666015625
411, 1568888226, -4.90361213684082, 1.7901536226272583, 8.431608200073242, -15.93314266204834, 2.3387434482574463, -10.096550941467285, 0.0087890625, -0.080810546875, -0.85693359375
412, 1568904893, -5.186160564422607, 1.7749714851379395, 8.405028343200684, -17.031381607055664, 0.009995371103286743, -11.934408187866211, 0.0107421875, -0.076416015625, -0.8564453125
413, 1568921560, -5.115183353424072, 1.4708044528961182, 8.452788352966309, -13.356678009033203, -0.35373738408088684, -10.75501537322998, 0.01220703125, -0.07275390625, -0.855712890625
414, 1568938227, -5.060675621032715, 1.3816627264022827, 8.419651985168457, -9.13376235961914, 1.26115083694458, -8.469330787658691, 0.0107421875, -0.0712890625, -0.853759765625
415, 1568954894, -5.090916156768799, 1.380876898765564, 8.317281723022461, -5.3932294845581055, 3.3238699436187744, -5.895956039428711, 0.01220703125, -0.07177734375, -0.855712890625
416, 1568971561, -5.01758337020874, 1.5412213802337646, 8.333118438720703, -3.516202211380005, 4.55699348449707, -4.782302379608154, 0.01318359375, -0.0693359375, -0.8564453125
417, 1568988228, -5.013082981109619, 1.6875144243240356, 8.3352632522583, -4.002536773681641, 5.160480499267578, -6.6256489753723145, 0.01513671875, -0.0673828125, -0.8564453125
418, 1569004895, -5.136348724365234, 1.51686692237854, 8.314797401428223, -5.057063102722168, 5.111304759979248, -9.357028007507324, 0.01611328125, -0.068359375, -0.85791015625
419, 1569021562, -5.186303615570068, 1.5644065141677856, 8.299956321716309, -5.650894641876221, 5.437777996063232, -10.608235359191895, 0.020263671875, -0.06884765625, -0.857177734375
420, 1569038229, -5.113885402679443, 1.4735522270202637, 8.35101318359375, -4.128385543823242, 7.68196439743042, -10.484783172607422, 0.020263671875, -0.0673828125, -0.856201171875
421, 1569054896, -5.008542537689209, 1.3721141815185547, 8.427596092224121, -3.1273648738861084, 13.45096492767334, -9.705710411071777, 0.023681640625, -0.06689453125, -0.857177734375
422, 1569071563, -5.0547099113464355, 1.3557006120681763, 8.407219886779785, 1.454131007194519, 18.623716354370117, -7.77510404586792, 0.0283203125, -0.06640625, -0.85546875
423, 1569088230, -4.646459102630615, 1.2002707719802856, 8.310981750488281, 4.309747695922852, 29.53742027282715, -7.54110860824585, 0.034912109375, -0.068359375, -0.856201171875
424, 1569104897, -5.056097984313965, 1.3520841598510742, 8.249994277954102, 10.247756004333496, 46.131683349609375, -9.765100479125977, 0.04736328125, -0.071044921875, -0.855712890625
425, 1569121564, -5.0257391929626465, 1.246196985244751, 8.338493347167969, 14.636364936828613, 61.85521697998047, -10.127921104431152, 0.060791015625, -0.073486328125, -0.852294921875
426, 1569138231, -5.14548921585083, 1.4056777954101562, 8.400712966918945, 17.431840896606445, 80.12467956542969, -9.703669548034668, 0.0810546875, -0.079345703125, -0.84912109375
427, 1569154898, -5.29949951171875, 1.4762521982192993, 8.173667907714844, 15.946364402770996, 101.08943939208984, -11.059195518493652, 0.103759765625, -0.08154296875, -0.847900390625
428, 1569171565, -5.503610610961914, 1.4423552751541138, 7.976413249969482, 15.81139850616455, 122.65298461914062, -15.201967239379883, 0.1318359375, -0.087646484375, -0.84326171875
429, 1569188232, -5.641554355621338, 1.3041560649871826, 7.837807655334473, 17.806629180908203, 144.8061065673828, -17.031856536865234, 0.16796875, -0.08984375, -0.836669921875
430, 1569204899, -5.690029144287109, 1.3613436222076416, 7.7333984375, 18.84815788269043, 171.1941375732422, -19.271984100341797, 0.205078125, -0.091064453125, -0.82373046875
431, 1569221566, -5.867064952850342, 1.3455944061279297, 7.600041389465332, 20.71451187133789, 204.1243133544922, -20.669933319091797, 0.254150390625, -0.095703125, -0.80810546875
432, 1569238233, -5.989316463470459, 1.4503531455993652, 7.596350193023682, 16.31391716003418, 254.28065490722656, -20.026004791259766, 0.30859375, -0.099609375, -0.78759765625
433, 1569254900, -6.867573261260986, 2.077502489089966, 7.417541980743408, -0.16960762441158295, 327.0181579589844, -26.841856002807617, 0.377197265625, -0.097412109375, -0.755615234375
434, 1569271567, -7.375982284545898, 2.5248022079467773, 8.608137130737305, -2.5187299251556396, 430.30096435546875, -34.66307067871094, 0.464111328125, -0.092041015625, -0.70263671875
435, 1569288234, -11.819222450256348, 3.1935296058654785, 11.728903770446777, 12.2400484085083, 502.4473571777344, -57.71605682373047, 0.556884765625, -0.087890625, -0.62939453125
436, 1569304901, -18.826343536376953, 2.3258397579193115, 12.353599548339844, 19.989315032958984, 496.7205810546875, -81.70447540283203, 0.645263671875, -0.0751953125, -0.536865234375
437, 1569321568, -18.43868064880371, 5.627956390380859, 11.57978343963623, 14.221636772155762, 492.43914794921875, -101.25363159179688, 0.718505859375, -0.066650390625, -0.436767578125
438, 1569338235, -16.707109451293945, 6.194024562835693, 13.768828392028809, -24.225475311279297, 477.49993896484375, -137.9170684814453, 0.773193359375, -0.041748046875, -0.32080078125
439, 1569354902, -8.804954528808594, 4.556002140045166, 14.384111404418945, -14.205615043640137, 420.0758972167969, -116.13500213623047, 0.80859375, -0.019287109375, -0.21240234375
440, 1569371569, -17.045391082763672, 1.071094036102295, 19.917814254760742, 29.331933975219727, 275.415283203125, -92.93582153320312, 0.82080078125, -0.00732421875, -0.1337890625
441, 1569388236, -29.89507293701172, 4.155162334442139, 30.12654685974121, 95.94514465332031, 51.21732711791992, -99.32723999023438, 0.818359375, 0.01025390625, -0.09326171875
442, 1569404903, -10.039556503295898, 8.605379104614258, 21.26699447631836, 109.10246276855469, -215.02490234375, -25.27587890625, 0.799560546875, 0.007080078125, -0.123046875
443, 1569421570, -2.365994930267334, 6.365293025970459, 9.061370849609375, 23.8582763671875, -276.7501525878906, -47.00983810424805, 0.77978515625, 0.0068359375, -0.1650390625
444, 1569438237, -0.23295961320400238, 3.9268276691436768, 4.975381851196289, -38.90451431274414, -268.0413513183594, -69.95283508300781, 0.761962890625, 0.020263671875, -0.20068359375
445, 1569454904, -1.6164491176605225, 4.2097487449646, 5.689300060272217, -70.42522430419922, -264.00323486328125, -63.5777702331543, 0.745361328125, 0.034423828125, -0.23388671875
446, 1569471571, -5.989589691162109, 4.579533576965332, 8.755794525146484, -76.03791809082031, -309.23944091796875, -50.71967315673828, 0.73095703125, 0.04931640625, -0.275390625
447, 1569488238, -6.771564960479736, 3.536255359649658, 7.845621585845947, -47.261688232421875, -376.0721130371094, -12.847222328186035, 0.7119140625, 0.056640625, -0.32666015625
448, 1569504905, -5.477440357208252, 3.5584752559661865, 5.466665267944336, -14.25377082824707, -403.7953796386719, 23.339082717895508, 0.6923828125, 0.04931640625, -0.384765625
449, 1569521572, -6.413201332092285, 3.849715232849121, 5.562878131866455, 10.542006492614746, -406.14227294921875, 59.98147201538086, 0.682861328125, 0.029296875, -0.45556640625
450, 1569538239, -8.525833129882812, 4.383835315704346, 6.9564409255981445, 9.768900871276855, -418.1263427734375, 86.64630126953125, 0.658447265625, -0.001708984375, -0.557373046875
451, 1569554906, -9.224159240722656, 2.105936288833618, 7.4452948570251465, 7.2945027351379395, -425.37615966796875, 93.49127197265625, 0.586669921875, -0.0263671875, -0.664306640625
452, 1569571573, -9.32946491241455, -1.3188589811325073, 5.887080192565918, 47.46908187866211, -411.8678283691406, 89.9371566772461, 0.485595703125, -0.051513671875, -0.75146484375
453, 1569588240, -9.876304626464844, -3.6110899448394775, 4.454615116119385, 115.73065948486328, -340.560546875, 76.06678771972656, 0.378662109375, -0.090576171875, -0.796142578125
454, 1569604907, -16.72458839416504, -0.9374125003814697, 12.815033912658691, 150.9757080078125, -281.9398498535156, 59.864505767822266, 0.289306640625, -0.13623046875, -0.794677734375
455, 1569621574, -22.582826614379883, 0.5471381545066833, 15.658690452575684, 131.21743774414062, -297.6201477050781, 35.418704986572266, 0.224365234375, -0.169189453125, -0.76953125
456, 1569638241, -21.96012306213379, -0.7642582058906555, 10.810315132141113, 120.94499206542969, -291.5345153808594, 36.542091369628906, 0.18115234375, -0.201416015625, -0.757080078125
457, 1569654908, -23.62989044189453, 1.4182168245315552, 8.95637035369873, 120.11822509765625, -265.0411376953125, 65.75633239746094, 0.1474609375, -0.233154296875, -0.7587890625
458, 1569671575, -23.395647048950195, 1.4748106002807617, 5.1391401290893555, 72.9195556640625, -245.47935485839844, 80.80494689941406, 0.112060546875, -0.2607421875, -0.76904296875
459, 1569688242, -24.136762619018555, -2.8309085369110107, 1.0264215469360352, 56.70154571533203, -216.04664611816406, 84.30670166015625, 0.0654296875, -0.279052734375, -0.789306640625
460, 1569704909, -23.281282424926758, -3.2273335456848145, -3.116820812225342, 63.01521682739258, -175.6776580810547, 83.77159118652344, 0.016357421875, -0.298828125, -0.8046875
461, 1569721576, -21.95992660522461, -3.9201650619506836, -6.399752616882324, 39.54991149902344, -115.36558532714844, 81.51175689697266, -0.031005859375, -0.314208984375, -0.8134765625
462, 1569738243, -22.72695541381836, -4.953901290893555, -8.459561347961426, 20.66899871826172, -60.131927490234375, 73.25115966796875, -0.061767578125, -0.328125, -0.81982421875
463, 1569754910, -21.714923858642578, -5.433964729309082, -8.51397705078125, 0.28820469975471497, -6.339824199676514, 63.981502532958984, -0.07958984375, -0.3310546875, -0.826416015625
464, 1569771577, -15.90422534942627, -3.957529306411743, -10.551219940185547, -77.99427032470703, 98.06640625, 31.573768615722656, -0.069580078125, -0.319580078125, -0.845947265625
465, 1569788244, 1.498386025428772, -6.419771671295166, 16.185958862304688, -82.31558227539062, 117.32362365722656, -20.661510467529297, -0.03515625, -0.30126953125, -0.86083984375
466, 1569804911, -5.511871337890625, -1.3923289775848389, 17.94544219970703, -18.52753448486328, 153.6251678466797, -73.94502258300781, 0.00927734375, -0.29833984375, -0.873291015625
467, 1569821578, -4.323188781738281, -1.3083674907684326, 4.446699142456055, -15.546419143676758, 198.6556854248047, -73.54417419433594, 0.064453125, -0.299072265625, -0.880615234375
468, 1569838245, -9.531930923461914, 0.7427198886871338, 12.266227722167969, 5.443216800689697, 219.04269409179688, -36.45299530029297, 0.1298828125, -0.3046875, -0.886962890625
469, 1569854912, -7.645744323730469, 5.33361291885376, 10.751358032226562, 16.1763973236084, 207.13462829589844, -28.927831649780273, 0.18994140625, -0.31103515625, -0.884521484375
470, 1569871579, -18.31708335876465, 8.433128356933594, 13.836226463317871, -59.0956916809082, 142.1779327392578, -50.22007369995117, 0.244140625, -0.302001953125, -0.884521484375
471, 1569888246, -9.308152198791504, -3.477266788482666, 13.573698043823242, -54.99971008300781, 46.85285949707031, -28.72933006286621, 0.265625, -0.28466796875, -0.8896484375
472, 1569904913, -6.557173728942871, 1.8301414251327515, 9.276082038879395, -24.11841583251953, 13.857041358947754, -16.46764373779297, 0.275634765625, -0.276123046875, -0.887451171875
473, 1569921580, -5.566223621368408, 1.5275262594223022, 8.654011726379395, -12.294438362121582, 4.335445880889893, -7.1018571853637695, 0.27783203125, -0.276123046875, -0.889404296875
474, 1569938247, -5.109747409820557, 1.2579238414764404, 8.640043258666992, -9.862418174743652, 3.42128849029541, -4.797222137451172, 0.279296875, -0.272705078125, -0.889892578125
475, 1569954914, -4.988961696624756, 1.7376911640167236, 8.441614151000977, -8.446545600891113, 3.2680599689483643, -4.04603910446167, 0.28076171875, -0.271728515625, -0.887939453125
476, 1569971581, -4.913346767425537, 1.3733925819396973, 8.46151065826416, -7.431923866271973, 3.526824474334717, -4.0034708976745605, 0.2802734375, -0.270751953125, -0.89111328125
477, 1569988248, -4.876152992248535, 1.6524403095245361, 8.453032493591309, -4.46170711517334, 6.439117431640625, -1.751102089881897, 0.2822265625, -0.26904296875, -0.891357421875
478, 1570004915, -4.97860860824585, 1.6664657592773438, 8.319023132324219, -3.806765079498291, 7.877449989318848, -1.8146984577178955, 0.287353515625, -0.271240234375, -0.891845703125
479, 1570021582, -5.103099822998047, 1.7863426208496094, 8.251016616821289, -4.212765216827393, 7.192259311676025, -2.35675311088562, 0.288330078125, -0.270751953125, -0.8896484375
480, 1570038249, -5.089255332946777, 1.8589434623718262, 8.228109359741211, -5.931556701660156, 5.260202884674072, -4.1281280517578125, 0.291748046875, -0.267822265625, -0.8896484375
481, 1570054916, -5.0449066162109375, 1.7821986675262451, 8.250475883483887, -6.696582794189453, 3.315763473510742, -5.900091171264648, 0.292724609375, -0.267333984375, -0.89111328125
482, 1570071583, -5.074276924133301, 1.6257684230804443, 8.279770851135254, -7.237473487854004, 1.61064875125885, -7.189090728759766, 0.294921875, -0.26513671875, -0.89404296875
483, 1570088250, -5.142618656158447, 1.717448353767395, 8.234421730041504, -8.110482215881348, -0.3694249391555786, -8.387957572937012, 0.293212890625, -0.266845703125, -0.892578125
484, 1570104917, -5.207793712615967, 1.6348055601119995, 8.206971168518066, -9.26548957824707, -1.7989860773086548, -9.982454299926758, 0.2958984375, -0.26318359375, -0.8935546875
485, 1570121584, -5.150674343109131, 1.563396692276001, 8.322517395019531, -8.532543182373047, -1.4861265420913696, -10.502814292907715, 0.2958984375, -0.26025390625, -0.895263671875
486, 1570138251, -5.099652290344238, 1.5714658498764038, 8.309209823608398, -6.941147804260254, -0.17329563200473785, -10.781209945678711, 0.29833984375, -0.25927734375, -0.89453125
487, 1570154918, -5.199187278747559, 1.5392488241195679, 8.263516426086426, -4.61689567565918, 1.4384931325912476, -11.087140083312988, 0.30029296875, -0.25634765625, -0.89404296875
488, 1570171585, -5.132831573486328, 1.4663723707199097, 8.328266143798828, -2.2221333980560303, 4.8965044021606445, -10.81436538696289, 0.30029296875, -0.2548828125, -0.89404296875
489, 1570188252, -5.093780040740967, 1.466424584388733, 8.342129707336426, -1.641890525817871, 9.968925476074219, -10.420214653015137, 0.302001953125, -0.255859375, -0.899169921875
490, 1570204919, -4.9940619468688965, 1.5230673551559448, 8.35110855102539, -1.8488426208496094, 17.236021041870117, -11.22861099243164, 0.308349609375, -0.2548828125, -0.892822265625
491, 1570221586, -4.8772053718566895, 1.3420039415359497, 8.313971519470215, 3.2630350589752197, 25.88180160522461, -11.573782920837402, 0.31640625, -0.25634765625, -0.89111328125
492, 1570238253, -5.044870853424072, 1.1533888578414917, 8.281189918518066, 8.850834846496582, 39.487403869628906, -9.761801719665527, 0.325439453125, -0.25634765625, -0.88623046875
493, 1570254920, -5.011794567108154, 1.0375370979309082, 8.242027282714844, 14.393543243408203, 53.82695770263672, -6.984647750854492, 0.3388671875, -0.261962890625, -0.88134765625
494, 1570271587, -5.160807132720947, 1.2962123155593872, 8.180794715881348, 19.407358169555664, 71.54684448242188, -4.301173210144043, 0.35546875, -0.265625, -0.87060546875
495, 1570288254, -5.298432350158691, 1.668753743171692, 8.254396438598633, 21.078601837158203, 91.69448852539062, -5.863661289215088, 0.37646484375, -0.270751953125, -0.86474609375
496, 1570304921, -5.389191627502441, 1.5649981498718262, 8.130705833435059, 18.025938034057617, 114.16769409179688, -10.593646049499512, 0.406494140625, -0.275390625, -0.853271484375
497, 1570321588, -5.496372699737549, 1.3586784601211548, 7.811891078948975, 17.7208194732666, 137.9309844970703, -13.748037338256836, 0.43798828125, -0.280517578125, -0.83349609375
498, 1570338255, -5.664931297302246, 1.2944749593734741, 7.696248531341553, 19.418203353881836, 162.5771026611328, -15.175766944885254, 0.47705078125, -0.28515625, -0.81591796875
499, 1570354922, -5.776093006134033, 1.2525877952575684, 7.620616436004639, 23.63528823852539, 192.8592529296875, -14.15878963470459, 0.52197265625, -0.290771484375, -0.789306640625
500, 1570371589, -5.813708305358887, 1.3574196100234985, 7.611609935760498, 26.942440032958984, 239.92575073242188, -8.718781471252441, 0.574462890625, -0.2958984375, -0.753173828125
501, 1570388256, -6.726704120635986, 2.1633687019348145, 7.26639461517334, 21.91228675842285, 309.48944091796875, -10.711116790771484, 0.63623046875, -0.302490234375, -0.703125
502, 1570404923, -6.896218776702881, 2.927063226699829, 7.945128440856934, 13.584158897399902, 412.1302490234375, -23.23896598815918, 0.712158203125, -0.3037109375, -0.634521484375
503, 1570421590, -9.17068862915039, 3.1154723167419434, 10.285491943359375, 35.49162673950195, 508.43426513671875, -45.89861297607422, 0.798828125, -0.3017578125, -0.5283203125
504, 1570438257, -17.938854217529297, 2.448061943054199, 12.080408096313477, 59.39127731323242, 528.85693359375, -59.95289611816406, 0.87353515625, -0.29931640625, -0.402587890625
505, 1570454924, -17.44001007080078, 3.0208282470703125, 10.760493278503418, 60.80253601074219, 514.427490234375, -68.37360382080078, 0.926513671875, -0.28857421875, -0.279296875
506, 1570471591, -18.7556095123291, 6.355567455291748, 11.575068473815918, 48.436519622802734, 515.6427001953125, -97.67020416259766, 0.95361328125, -0.269775390625, -0.153564453125
507, 1570488258, -16.329336166381836, 5.453114986419678, 15.016704559326172, 57.94283676147461, 454.6930847167969, -104.35884857177734, 0.95849609375, -0.240966796875, -0.045654296875
508, 1570504925, -9.976219177246094, 4.957486152648926, 22.808469772338867, 61.335147857666016, 255.8285675048828, -58.94508743286133, 0.939697265625, -0.219970703125, 0.017578125
509, 1570521592, -34.258697509765625, 13.744295120239258, 28.397390365600586, 9.762495994567871, 49.41933822631836, -70.87923431396484, 0.907470703125, -0.20361328125, 0.00830078125
510, 1570538259, -11.302227973937988, 5.663693428039551, 21.984148025512695, -32.70683288574219, -231.6016387939453, -34.762901306152344, 0.854736328125, -0.188232421875, -0.061279296875
511, 1570554926, -0.31808802485466003, 0.7846566438674927, 7.681997299194336, -48.12881851196289, -278.20367431640625, -72.54695892333984, 0.79150390625, -0.16455078125, -0.125732421875
512, 1570571593, -1.8210331201553345, 0.9550797939300537, 5.1418914794921875, -39.5400390625, -261.2568359375, -119.34508514404297, 0.742919921875, -0.127685546875, -0.154052734375
513, 1570588260, -3.6888973712921143, 2.6893181800842285, 7.403617858886719, -26.90753936767578, -286.43072509765625, -128.40406799316406, 0.719482421875, -0.091064453125, -0.174560546875
514, 1570604927, -5.245753765106201, 4.853410720825195, 8.175392150878906, -20.20067024230957, -349.8019104003906, -102.35291290283203, 0.716064453125, -0.06005859375, -0.20654296875
515, 1570621594, -6.163410186767578, 6.856144428253174, 7.814214706420898, -23.702238082885742, -402.7124328613281, -60.18429946899414, 0.716796875, -0.0419921875, -0.2626953125
516, 1570638261, -6.453845977783203, 8.371357917785645, 5.773381233215332, -23.59028434753418, -436.8367919921875, 9.260918617248535, 0.715576171875, -0.033935546875, -0.3447265625
517, 1570654928, -4.456710338592529, 8.7340669631958, 3.1814770698547363, -31.57147789001465, -440.7503356933594, 85.01123809814453, 0.7021484375, -0.048583984375, -0.443115234375
518, 1570671595, -6.13043212890625, 6.19978666305542, 2.710848093032837, -41.74032974243164, -410.9414367675781, 141.67835998535156, 0.67919921875, -0.0751953125, -0.552978515625
519, 1570688262, -9.47099781036377, 1.041214942932129, 4.251071929931641, -19.96683692932129, -369.53717041015625, 151.36668395996094, 0.636474609375, -0.119873046875, -0.677490234375
520, 1570704929, -13.31275749206543, -3.061551094055176, 7.347992420196533, 38.904232025146484, -345.75091552734375, 125.28903198242188, 0.54541015625, -0.177978515625, -0.798828125
521, 1570721596, -15.537452697753906, -3.370861768722534, 9.051619529724121, 106.67137908935547, -332.8064270019531, 86.91637420654297, 0.402587890625, -0.24072265625, -0.86376953125
522, 1570738263, -16.554428100585938, 0.33603233098983765, 9.254706382751465, 117.51508331298828, -323.4656982421875, 48.55516052246094, 0.2548828125, -0.287353515625, -0.86328125
523, 1570754930, -15.923171997070312, 3.3569416999816895, 7.142414093017578, 89.49259948730469, -296.3199768066406, 30.533782958984375, 0.14306640625, -0.314453125, -0.83544921875
524, 1570771597, -18.62322998046875, 4.755642890930176, 7.397749423980713, 78.5426025390625, -248.35450744628906, 54.563270568847656, 0.060791015625, -0.332275390625, -0.806396484375
525, 1570788264, -24.55498695373535, 4.317210674285889, 9.363426208496094, 59.64049530029297, -240.88241577148438, 97.26802062988281, -0.0078125, -0.339111328125, -0.776611328125
526, 1570804931, -22.637407302856445, -1.585032343864441, 3.1272521018981934, 41.93730545043945, -223.11988830566406, 110.54957580566406, -0.072509765625, -0.33740234375, -0.74169921875
527, 1570821598, -22.670400619506836, -3.9815309047698975, 0.9834288358688354, 44.39453125, -181.542236328125, 100.55529022216797, -0.112548828125, -0.3369140625, -0.708251953125
528, 1570838265, -23.16092300415039, -2.8451333045959473, -0.6236793994903564, 24.32147979736328, -147.13307189941406, 85.68460083007812, -0.133056640625, -0.334716796875, -0.68310546875
529, 1570854932, -21.485809326171875, -3.7737717628479004, -5.1931633949279785, -32.31051254272461, -100.54666900634766, 64.47361755371094, -0.145751953125, -0.324462890625, -0.673095703125
530, 1570871599, -21.567668914794922, -5.744384765625, -7.238857746124268, -58.75835037231445, -34.501461029052734, 50.43143081665039, -0.144775390625, -0.307861328125, -0.67431640625
531, 1570888266, -26.157550811767578, -9.562911033630371, -9.01966667175293, -7.785031795501709, 33.27572250366211, 34.42900848388672, -0.13525390625, -0.299072265625, -0.674072265625
532, 1570904933, -9.671945571899414, -6.4470601081848145, -1.8589309453964233, 26.596759796142578, 103.49661254882812, -29.8156681060791, -0.11279296875, -0.30322265625, -0.665283203125
533, 1570921600, -1.1294269561767578, 12.924049377441406, 19.13798713684082, 36.64482498168945, 118.43549346923828, -39.95722961425781, -0.087158203125, -0.306640625, -0.6533203125
534, 1570938267, -6.594569683074951, 7.576782703399658, 5.582840919494629, 20.436906814575195, 183.07937622070312, -38.179954528808594, -0.04345703125, -0.30908203125, -0.643310546875
535, 1570954934, -11.595222473144531, -3.8160452842712402, 14.376033782958984, -0.5419226884841919, 155.0558624267578, -29.301502227783203, -0.00634765625, -0.30517578125, -0.636474609375
536, 1570971601, -5.980650424957275, 3.098973512649536, 9.283324241638184, 15.626744270324707, 128.26272583007812, -24.866764068603516, 0.023193359375, -0.30322265625, -0.629638671875
537, 1570988268, -9.02115535736084, 8.913744926452637, 10.231389999389648, -10.075881958007812, 128.12489318847656, -28.24704933166504, 0.05224609375, -0.300048828125, -0.619140625
538, 1571004935, -8.542853355407715, -0.25522592663764954, 11.182766914367676, -39.37241744995117, 86.43772888183594, -37.35940170288086, 0.07373046875, -0.29150390625, -0.61572265625
539, 1571021602, -6.4611687660217285, 1.817309856414795, 9.958502769470215, -36.65797424316406, 57.23350143432617, -23.948209762573242, 0.08837890625, -0.2841796875, -0.615234375
540, 1571038269, -5.874413013458252, 1.607211709022522, 9.406611442565918, -39.57169723510742, 35.15494918823242, -18.785659790039062, 0.098876953125, -0.275146484375, -0.61669921875
541, 1571054936, -5.481791973114014, 1.962812900543213, 8.818748474121094, -31.91021728515625, 18.872968673706055, -14.783230781555176, 0.103759765625, -0.268798828125, -0.615966796875
542, 1571071603, -5.208191394805908, 2.1440844535827637, 8.470319747924805, -25.078975677490234, 9.702795028686523, -13.787772178649902, 0.10595703125, -0.2626953125, -0.61767578125
543, 1571088270, -5.10087251663208, 1.471578598022461, 8.72749137878418, -19.04216766357422, 8.325532913208008, -12.070839881896973, 0.10791015625, -0.257568359375, -0.615966796875
544, 1571104937, -5.364623069763184, 1.7385586500167847, 8.516597747802734, -11.702478408813477, 6.530674934387207, -8.645369529724121, 0.11083984375, -0.254638671875, -0.617431640625
545, 1571121604, -5.152237892150879, 1.6947699785232544, 8.410863876342773, -10.608107566833496, 5.434858322143555, -7.077663898468018, 0.11279296875, -0.253662109375, -0.615966796875
546, 1571138271, -4.926072597503662, 1.715827465057373, 8.340880393981934, -7.670621871948242, 6.159632205963135, -5.010293960571289, 0.11328125, -0.252685546875, -0.615478515625
547, 1571154938, -5.10856819152832, 1.7588905096054077, 8.36041259765625, -5.155389785766602, 6.676035404205322, -3.1811110973358154, 0.116455078125, -0.251220703125, -0.614990234375
548, 1571171605, -5.311766624450684, 1.8196020126342773, 8.287613868713379, -4.649064540863037, 6.049740791320801, -3.143357992172241, 0.116455078125, -0.250732421875, -0.614501953125
549, 1571188272, -5.172949314117432, 1.9471442699432373, 8.183073043823242, -5.631132125854492, 4.132859230041504, -4.142547130584717, 0.119873046875, -0.251220703125, -0.61279296875
550, 1571204939, -5.1140851974487305, 1.8386993408203125, 8.210829734802246, -7.465323448181152, 1.7265592813491821, -6.12168025970459, 0.120849609375, -0.249267578125, -0.61376953125
551, 1571221606, -5.15916109085083, 1.6859968900680542, 8.262211799621582, -7.528637409210205, 1.209848165512085, -6.571913242340088, 0.121826171875, -0.247314453125, -0.617919921875
552, 1571238273, -5.2829270362854, 1.7407944202423096, 8.178947448730469, -6.859338283538818, 0.9544765949249268, -5.875182628631592, 0.121826171875, -0.247802734375, -0.6142578125
553, 1571254940, -5.256839275360107, 1.6945183277130127, 8.206427574157715, -8.802895545959473, -1.0647715330123901, -6.584348678588867, 0.124267578125, -0.246826171875, -0.6123046875
554, 1571271607, -5.257680416107178, 1.7182140350341797, 8.256331443786621, -8.472543716430664, -1.770939588546753, -6.863078594207764, 0.123779296875, -0.24267578125, -0.611328125
555, 1571288274, -5.158044815063477, 1.746572732925415, 8.264863014221191, -7.396783351898193, -1.0946872234344482, -6.836569309234619, 0.121826171875, -0.2431640625, -0.61181640625
556, 1571304941, -5.088866233825684, 1.6905978918075562, 8.243183135986328, -8.262480735778809, -0.3884039521217346, -8.174206733703613, 0.123291015625, -0.24169921875, -0.61474609375
557, 1571321608, -5.133419990539551, 1.6841344833374023, 8.234721183776855, -10.20064926147461, 0.8619256615638733, -10.359947204589844, 0.12646484375, -0.24072265625, -0.61328125
558, 1571338275, -5.220029354095459, 1.7522159814834595, 8.22350025177002, -12.003174781799316, 2.003523588180542, -13.296552658081055, 0.12841796875, -0.23779296875, -0.61474609375
559, 1571354942, -5.2012457847595215, 1.5492299795150757, 8.23535442352295, -8.93387222290039, 5.919094085693359, -13.390588760375977, 0.12890625, -0.23583984375, -0.6142578125
560, 1571371609, -4.9798407554626465, 1.5071468353271484, 8.453211784362793, -2.8074240684509277, 15.31986141204834, -10.074676513671875, 0.1318359375, -0.236328125, -0.611572265625
561, 1571388276, -4.5158796310424805, 1.2203630208969116, 8.397680282592773, 2.7649214267730713, 32.989871978759766, -7.730994701385498, 0.137939453125, -0.2353515625, -0.61083984375
562, 1571404943, -4.912060737609863, 1.3859950304031372, 8.244129180908203, 9.981485366821289, 53.51280212402344, -8.96213436126709, 0.146484375, -0.23583984375, -0.609619140625
563, 1571421610, -5.008456707000732, 1.390594720840454, 8.193904876708984, 16.558990478515625, 76.36993408203125, -9.927122116088867, 0.162841796875, -0.23681640625, -0.60205078125
564, 1571438277, -5.323275089263916, 1.3881423473358154, 8.319581031799316, 20.048154830932617, 99.00425720214844, -10.550509452819824, 0.179931640625, -0.242919921875, -0.595947265625
565, 1571454944, -5.304991245269775, 1.607692837715149, 8.335672378540039, 16.04704475402832, 121.67768859863281, -13.620386123657227, 0.20458984375, -0.24267578125, -0.58447265625
566, 1571471611, -5.396801471710205, 1.530899167060852, 7.957111835479736, 14.454063415527344, 149.51751708984375, -20.355815887451172, 0.22998046875, -0.24462890625, -0.57568359375
567, 1571488278, -5.714637279510498, 1.5561468601226807, 7.878475666046143, 15.640172004699707, 177.26536560058594, -25.26355743408203, 0.260009765625, -0.247802734375, -0.5615234375
568, 1571504945, -5.684010028839111, 1.8036320209503174, 7.924530506134033, 13.765035629272461, 215.34423828125, -28.919509887695312, 0.299072265625, -0.24560546875, -0.541015625
569, 1571521612, -6.291657447814941, 2.214749336242676, 7.647132396697998, 2.4988341331481934, 267.1521301269531, -38.89186096191406, 0.343505859375, -0.24267578125, -0.512451171875
570, 1571538279, -7.055455684661865, 1.8320162296295166, 7.315478801727295, -13.630599975585938, 337.8473205566406, -47.62395477294922, 0.39501953125, -0.23974609375, -0.478515625
571, 1571554946, -7.500362873077393, 2.553040027618408, 8.97305679321289, -14.264697074890137, 432.1955871582031, -54.983192443847656, 0.4560546875, -0.230712890625, -0.423095703125
572, 1571571613, -13.152322769165039, 2.2817087173461914, 11.010229110717773, 8.089034080505371, 483.5249938964844, -67.96949768066406, 0.523193359375, -0.2197265625, -0.3544921875
573, 1571588280, -17.28728485107422, 1.2228468656539917, 10.954726219177246, 36.78142547607422, 468.0023193359375, -72.72161865234375, 0.581787109375, -0.212646484375, -0.2734375
574, 1571604947, -17.18218421936035, 4.457961082458496, 10.902128219604492, 38.384483337402344, 465.3210144042969, -86.09730529785156, 0.635498046875, -0.2060546875, -0.192138671875
575, 1571621614, -15.41393756866455, 4.576973915100098, 12.122227668762207, 18.50899887084961, 450.49749755859375, -108.93760681152344, 0.682373046875, -0.189697265625, -0.100341796875
576, 1571638281, -6.181804656982422, 3.2851202487945557, 9.193038940429688, 21.724590301513672, 410.9433288574219, -100.06529998779297, 0.719970703125, -0.17333984375, -0.01171875
577, 1571654948, -6.872070789337158, -0.33550137281417847, 9.389037132263184, 47.07096862792969, 346.270751953125, -77.58529663085938, 0.74169921875, -0.159912109375, 0.07177734375
578, 1571671615, -32.20586395263672, 7.4155778884887695, 23.646337509155273, 47.519317626953125, 268.89849853515625, -127.70896911621094, 0.758544921875, -0.132568359375, 0.14306640625
579, 1571688282, -18.974050521850586, 7.19004487991333, 28.35328483581543, 28.47770881652832, -37.55553436279297, -77.01211547851562, 0.787841796875, -0.112548828125, 0.15625
580, 1571704949, -10.32792854309082, 5.556201934814453, 16.274911880493164, -17.438678741455078, -246.3882293701172, -39.81889724731445, 0.8251953125, -0.104736328125, 0.099365234375
581, 1571721616, -4.834413528442383, 3.0730836391448975, 8.78799819946289, -59.36295700073242, -307.60748291015625, -46.95689010620117, 0.860107421875, -0.095947265625, 0.017822265625
582, 1571738283, -4.005431652069092, 2.0024001598358154, 6.060291767120361, -74.77008056640625, -321.60369873046875, -65.76260375976562, 0.8876953125, -0.08154296875, -0.07763671875
583, 1571754950, -5.167117118835449, 1.9953502416610718, 6.295857906341553, -58.80784225463867, -344.0400695800781, -68.80728912353516, 0.89794921875, -0.060791015625, -0.197265625
584, 1571771617, -7.443713665008545, 2.184084892272949, 7.012346267700195, -17.288036346435547, -384.7237548828125, -46.33811950683594, 0.8798828125, -0.0419921875, -0.340087890625
585, 1571788284, -8.854494094848633, 3.7066919803619385, 6.466898441314697, 22.151716232299805, -425.04608154296875, -10.081464767456055, 0.8095703125, -0.03857421875, -0.48388671875
586, 1571804951, -7.910609245300293, 5.619478225708008, 4.426421642303467, 20.289663314819336, -439.6123962402344, 20.874801635742188, 0.692138671875, -0.04833984375, -0.595947265625
587, 1571821618, -7.1105055809021, 5.382404327392578, 3.55112886428833, -3.617511510848999, -421.3625793457031, 46.685272216796875, 0.5625, -0.053955078125, -0.655029296875
588, 1571838285, -8.823297500610352, 3.5897586345672607, 5.4482340812683105, -2.7471415996551514, -401.24981689453125, 75.26630401611328, 0.451171875, -0.051513671875, -0.670166015625
589, 1571854952, -10.576902389526367, 2.423569917678833, 7.34199333190918, 22.73725700378418, -406.1328125, 95.02334594726562, 0.364990234375, -0.044921875, -0.67138671875
590, 1571871619, -9.180630683898926, 0.75037682056427, 5.538416862487793, 50.68321990966797, -392.1176452636719, 91.97968292236328, 0.315673828125, -0.041748046875, -0.6669921875
591, 1571888286, -11.95743465423584, -2.561433792114258, 6.011763572692871, 117.3809814453125, -322.2953186035156, 90.39030456542969, 0.303955078125, -0.05419921875, -0.69140625
592, 1571904953, -18.959228515625, -0.2912980914115906, 10.945714950561523, 158.13534545898438, -280.50653076171875, 84.70808410644531, 0.29931640625, -0.106689453125, -0.75146484375
593, 1571921620, -21.657434463500977, 0.13172262907028198, 12.085336685180664, 143.7151336669922, -275.37725830078125, 59.44970703125, 0.254638671875, -0.167724609375, -0.826171875
594, 1571938287, -23.277080535888672, -0.42098215222358704, 8.077802658081055, 136.50885009765625, -264.1590270996094, 56.887386322021484, 0.1552734375, -0.23193359375, -0.86767578125
595, 1571954954, -25.910951614379883, 1.7136808633804321, 7.411134243011475, 104.25041961669922, -252.5225830078125, 62.40127182006836, 0.04833984375, -0.281005859375, -0.86962890625
596, 1571971621, -23.599851608276367, -1.0072884559631348, 2.032465696334839, 51.196128845214844, -249.09239196777344, 54.9992790222168, -0.041748046875, -0.30029296875, -0.85107421875
597, 1571988288, -22.005138397216797, -4.977682113647461, -3.2334814071655273, 66.42965698242188, -209.0614013671875, 56.349613189697266, -0.10888671875, -0.317626953125, -0.820556640625
598, 1572004955, -21.542495727539062, -2.7958261966705322, -5.170206069946289, 72.4762191772461, -153.4218292236328, 61.89888381958008, -0.156982421875, -0.330322265625, -0.794921875
599, 1572021622, -20.72428321838379, -2.2943248748779297, -7.006727695465088, 15.486419677734375, -94.1502914428711, 70.61500549316406, -0.185791015625, -0.33837890625, -0.778564453125
600, 1572038289, -21.45989990234375, -4.44594144821167, -7.176974773406982, -30.101388931274414, -36.95382308959961, 86.08039093017578, -0.200927734375, -0.326171875, -0.775146484375
601, 1572054956, -21.716167449951172, -4.693630695343018, -10.091370582580566, -76.13711547851562, 44.36946105957031, 84.72218322753906, -0.20751953125, -0.30810546875, -0.77978515625
602, 1572071623, 3.0252137184143066, -11.908608436584473, 7.822843074798584, -71.67078399658203, 121.61181640625, 14.857565879821777, -0.188232421875, -0.28173828125, -0.796630859375
603, 1572088290, -2.5616607666015625, -9.031779289245605, 22.24298095703125, 0.2981606125831604, 169.27398681640625, -69.51425170898438, -0.148681640625, -0.27197265625, -0.795654296875
604, 1572104957, -8.530402183532715, 3.245647430419922, 5.375933647155762, 37.123077392578125, 184.07508850097656, -61.67708206176758, -0.102783203125, -0.27880859375, -0.794677734375
605, 1572121624, -13.478058815002441, 6.979672431945801, 14.422375679016113, 19.967296600341797, 176.33685302734375, -13.510797500610352, -0.05615234375, -0.28173828125, -0.791748046875
606, 1572138291, -5.872559547424316, 1.407731056213379, 9.409111976623535, 10.548545837402344, 142.0251007080078, -19.09537696838379, -0.0244140625, -0.280029296875, -0.78955078125
607, 1572154958, -9.521790504455566, 8.866618156433105, 10.97451114654541, -14.449840545654297, 124.83448028564453, -28.831382751464844, 0.008544921875, -0.278076171875, -0.78564453125
608, 1572171625, -8.702588081359863, 0.1307646632194519, 11.197798728942871, -47.44575119018555, 75.70136260986328, -42.99363708496094, 0.03076171875, -0.265625, -0.78955078125
609, 1572188292, -7.092405319213867, 0.364715039730072, 11.121417045593262, -47.14026641845703, 38.23906326293945, -26.674055099487305, 0.04443359375, -0.251708984375, -0.79248046875
610, 1572204959, -5.598702907562256, 1.7457239627838135, 9.028711318969727, -36.95745086669922, 20.252685546875, -20.15595245361328, 0.048828125, -0.244873046875, -0.7939453125
611, 1572221626, -5.751065731048584, 1.2676827907562256, 9.077058792114258, -21.674291610717773, 12.503633499145508, -11.655435562133789, 0.055908203125, -0.23681640625, -0.7939453125
612, 1572238293, -5.1382832527160645, 1.3637715578079224, 8.830373764038086, -8.231389999389648, 11.409089088439941, -4.814268589019775, 0.058837890625, -0.23486328125, -0.793701171875
613, 1572254960, -4.9715728759765625, 1.5599267482757568, 8.664328575134277, -5.405409336090088, 10.642766952514648, -2.191692590713501, 0.06201171875, -0.23388671875, -0.794677734375
614, 1572271627, -4.722485542297363, 1.4857516288757324, 8.521065711975098, -3.4607250690460205, 9.65517807006836, -1.2614259719848633, 0.06298828125, -0.23486328125, -0.793701171875
615, 1572288294, -4.688368797302246, 1.7029775381088257, 8.514461517333984, -0.9465048909187317, 10.455626487731934, -0.050341781228780746, 0.06494140625, -0.23388671875, -0.794189453125
616, 1572304961, -4.881058216094971, 1.9127843379974365, 8.400062561035156, -0.6804912090301514, 10.156584739685059, -0.6084042191505432, 0.0693359375, -0.232421875, -0.7939453125
617, 1572321628, -5.071451187133789, 1.9667186737060547, 8.348538398742676, -2.928915023803711, 8.303465843200684, -2.241623878479004, 0.0703125, -0.2314453125, -0.791015625
618, 1572338295, -4.780593395233154, 1.9138829708099365, 8.279243469238281, -5.54100227355957, 6.954598903656006, -4.798745632171631, 0.071533203125, -0.23291015625, -0.79150390625
619, 1572354962, -4.8898491859436035, 1.6723822355270386, 8.351725578308105, -6.554087162017822, 5.546463966369629, -6.777917385101318, 0.075439453125, -0.23193359375, -0.791748046875
620, 1572371629, -4.886420726776123, 1.7319060564041138, 8.330482482910156, -7.377190113067627, 5.0018744468688965, -7.407106399536133, 0.076904296875, -0.228515625, -0.793212890625
621, 1572388296, -5.104550838470459, 1.7737253904342651, 8.351177215576172, -8.841586112976074, 2.5986082553863525, -9.017289161682129, 0.077392578125, -0.22705078125, -0.79345703125
622, 1572404963, -5.172809600830078, 1.6704567670822144, 8.348711013793945, -9.623248100280762, 0.5231974124908447, -10.641700744628906, 0.080078125, -0.224365234375, -0.794189453125
623, 1572421630, -5.19300651550293, 1.6237720251083374, 8.349920272827148, -9.01257610321045, -0.06232853978872299, -10.480607986450195, 0.080322265625, -0.221923828125, -0.793212890625
624, 1572438297, -5.1354146003723145, 1.5598509311676025, 8.358835220336914, -7.123202800750732, 0.574192225933075, -9.519669532775879, 0.080322265625, -0.222900390625, -0.792236328125
625, 1572454964, -5.070550918579102, 1.5761704444885254, 8.373802185058594, -5.5579833984375, 2.420945167541504, -8.458622932434082, 0.0810546875, -0.222900390625, -0.793212890625
626, 1572471631, -5.120334625244141, 1.6679444313049316, 8.324661254882812, -4.893820762634277, 4.9102702140808105, -8.653497695922852, 0.0830078125, -0.219970703125, -0.793212890625
627, 1572488298, -5.122237205505371, 1.5822572708129883, 8.36729907989502, -3.018752336502075, 7.20297908782959, -9.04984188079834, 0.0849609375, -0.218994140625, -0.793701171875
628, 1572504965, -5.009600639343262, 1.5166527032852173, 8.388874053955078, -1.0016365051269531, 11.092425346374512, -8.280527114868164, 0.087890625, -0.217041015625, -0.791259765625
629, 1572521632, -4.884156227111816, 1.512920618057251, 8.392227172851562, -0.14317519962787628, 18.338457107543945, -7.942151069641113, 0.093017578125, -0.218994140625, -0.79248046875
630, 1572538299, -4.600042819976807, 1.2633694410324097, 8.327549934387207, 2.9052138328552246, 30.412002563476562, -8.67442512512207, 0.099365234375, -0.219970703125, -0.788330078125
631, 1572554966, -5.0520100593566895, 1.5367666482925415, 8.201391220092773, 5.94205904006958, 45.75212860107422, -10.8179292678833, 0.109130859375, -0.2236328125, -0.788818359375
632, 1572571633, -5.0904998779296875, 1.6006709337234497, 8.190107345581055, 10.92506217956543, 60.473758697509766, -12.716535568237305, 0.1259765625, -0.224853515625, -0.7841796875
633, 1572588300, -5.241324424743652, 1.5580971240997314, 8.311525344848633, 13.054927825927734, 75.87797546386719, -14.12778377532959, 0.142578125, -0.224853515625, -0.78173828125
634, 1572604967, -5.32765531539917, 1.572198748588562, 8.26632022857666, 10.743124008178711, 93.59490203857422, -16.14393424987793, 0.162109375, -0.2275390625, -0.775634765625
635, 1572621634, -5.46237325668335, 1.665495753288269, 8.025252342224121, 7.440764427185059, 112.8062973022461, -20.6019287109375, 0.188720703125, -0.22607421875, -0.76708984375
636, 1572638301, -5.612715244293213, 1.5749168395996094, 7.784639358520508, 6.9693779945373535, 135.9732666015625, -28.550477981567383, 0.221435546875, -0.229248046875, -0.756103515625
637, 1572654968, -5.69737434387207, 1.279668927192688, 7.75928258895874, 8.419486045837402, 161.15219116210938, -31.87824821472168, 0.255859375, -0.227783203125, -0.744873046875
638, 1572671635, -5.89983606338501, 1.2255747318267822, 7.936895370483398, 5.87155294418335, 193.4849090576172, -32.112918853759766, 0.298095703125, -0.22802734375, -0.73046875
639, 1572688302, -6.1468400955200195, 1.8012264966964722, 7.566270351409912, -2.9792003631591797, 237.85536193847656, -38.34675598144531, 0.347412109375, -0.22265625, -0.705078125
640, 1572704969, -7.07017183303833, 1.538930058479309, 7.022416114807129, -11.887860298156738, 292.2474365234375, -45.54853820800781, 0.405517578125, -0.21240234375, -0.673583984375
641, 1572721636, -6.888059616088867, 1.8071926832199097, 8.084458351135254, -19.732948303222656, 373.93011474609375, -42.021541595458984, 0.474365234375, -0.20654296875, -0.629150390625
642, 1572738303, -9.413493156433105, 1.8985058069229126, 9.587966918945312, 1.9652099609375, 460.34967041015625, -37.08224105834961, 0.553955078125, -0.19873046875, -0.5576171875
643, 1572754970, -16.652359008789062, 1.528814435005188, 11.319740295410156, 30.646276473999023, 475.9964904785156, -47.218711853027344, 0.63037109375, -0.197265625, -0.4677734375
644, 1572771637, -16.763137817382812, 2.298246145248413, 10.25949764251709, 49.072452545166016, 463.2939147949219, -52.21287155151367, 0.69384765625, -0.194091796875, -0.369384765625
645, 1572788304, -16.67996597290039, 4.656325817108154, 10.41245174407959, 41.4863395690918, 468.1694641113281, -74.05301666259766, 0.747802734375, -0.189697265625, -0.2626953125
646, 1572804971, -13.999728202819824, 3.246561050415039, 12.500564575195312, 50.09347152709961, 430.5191345214844, -81.78768157958984, 0.788330078125, -0.17724609375, -0.154052734375
647, 1572821638, -8.576740264892578, 2.931743621826172, 16.162656784057617, 87.06062316894531, 346.4261474609375, -46.642581939697266, 0.807373046875, -0.170654296875, -0.0517578125
648, 1572838305, -28.110553741455078, 7.60166072845459, 22.397266387939453, 59.917945861816406, 185.40911865234375, -72.89928436279297, 0.813232421875, -0.163330078125, 0.012939453125
649, 1572854972, -19.4404239654541, 5.925378322601318, 29.166645050048828, 28.8572940826416, -80.03341674804688, -69.81256103515625, 0.822509765625, -0.146728515625, 0.027587890625
650, 1572871639, -5.409485816955566, 4.228773593902588, 15.24718952178955, -2.192095994949341, -239.1221160888672, -58.41862869262695, 0.83837890625, -0.132080078125, -0.009033203125
651, 1572888306, -2.017921209335327, 2.3485946655273438, 7.577649116516113, -29.858753204345703, -252.30490112304688, -84.56483459472656, 0.861083984375, -0.11181640625, -0.059814453125
652, 1572904973, -2.6630568504333496, 3.0922279357910156, 6.795445442199707, -54.17097091674805, -260.4753723144531, -101.69134521484375, 0.888916015625, -0.08349609375, -0.1240234375
653, 1572921640, -4.483860492706299, 3.5730175971984863, 7.882414817810059, -71.51397705078125, -293.9419250488281, -105.73931884765625, 0.917236328125, -0.0546875, -0.21435546875
654, 1572938307, -4.903209209442139, 3.1137144565582275, 6.893492698669434, -65.57258605957031, -334.44195556640625, -91.03447723388672, 0.924072265625, -0.024169921875, -0.3369140625
655, 1572954974, -4.647281169891357, 2.8636269569396973, 5.561422824859619, -19.456682205200195, -358.3494567871094, -44.48310852050781, 0.894775390625, -0.014404296875, -0.4765625
656, 1572971641, -6.1508612632751465, 4.496957302093506, 6.1930623054504395, 23.423978805541992, -372.8910217285156, 15.246784210205078, 0.82373046875, -0.03173828125, -0.603271484375
657, 1572988308, -7.979191780090332, 5.756022930145264, 7.212750434875488, 25.689186096191406, -391.2073974609375, 65.19703674316406, 0.731201171875, -0.064453125, -0.711181640625
