sep=,
DeviceTag:,A,,,,,,,,,,,,,,,,,
FirmwareVersion:,2.2.1,,,,,,,,,,,,,,,,,
AppVersion:,2022.0.1,,,,,,,,,,,,,,,,,
SyncStatus:,Synced,,,,,,,,,,,,,,,,,
OutputRate:,60Hz,,,,,,,,,,,,,,,,,
FilterProfile:,General,,,,,,,,,,,,,,,,,
Measurement Mode:,Inertial Mode - Rate quantities (with mag),,,,,,,,,,,,,,,,,
StartTime:,2022-08-05 15:03:00.471 +0300,,,,,,,,,,,,,,,,,
© Xsens Technologies B. V. 2005-2022,,,,,,,,,,,,,,,,,,,

PacketCounter,SampleTimeFine,Acc_X,Acc_Y,Acc_Z,Gyr_X,Gyr_Y,Gyr_Z,Mag_X,Mag_Y,Mag_Z
1, 1522503965, -4.9777398109436035, 1.3010449409484863, 8.390535354614258, -2.340578317642212, -1.5678175687789917, -2.3124170303344727, 0.037841796875, -0.150634765625, -0.824951171875
2, 1522520632, -4.97623872756958, 1.3054704666137695, 8.389892578125, -2.1682815551757812, -1.564141869544983, -2.251394748687744, 0.035888671875, -0.151611328125, -0.82568359375
3, 1522537299, -4.972529411315918, 1.3134700059890747, 8.399983406066895, -2.050795793533325, -1.5641673803329468, -2.1028025150299072, 0.037353515625, -0.151611328125, -0.822998046875
4, 1522553966, -4.9641265869140625, 1.3214975595474243, 8.394752502441406, -2.040717363357544, -1.5615421533584595, -2.155487537384033, 0.03515625, -0.152099609375, -0.821533203125
5, 1522570633, -4.955175876617432, 1.3210636377334595, 8.396754264831543, -2.2314293384552, -1.7032315731048584, -2.227882146835327, 0.037353515625, -0.154052734375, -0.822509765625
6, 1522587300, -4.9767985343933105, 1.3230398893356323, 8.38962173461914, -2.361362934112549, -1.7626148462295532, -2.3314473628997803, 0.0361328125, -0.151123046875, -0.823486328125
7, 1522603967, -4.943271160125732, 1.3328624963760376, 8.399918556213379, -2.567314624786377, -1.7789812088012695, -2.3617982864379883, 0.036376953125, -0.151611328125, -0.823974609375
8, 1522620634, -4.947535514831543, 1.3209528923034668, 8.391105651855469, -2.6809842586517334, -1.651647925376892, -2.45072603225708, 0.038330078125, -0.152099609375, -0.826904296875
9, 1522637301, -4.965020179748535, 1.3193506002426147, 8.388406753540039, -2.636392116546631, -1.6831132173538208, -2.5163841247558594, 0.035888671875, -0.151611328125, -0.82470703125
10, 1522653968, -4.965582847595215, 1.3317110538482666, 8.39099407196045, -2.7678112983703613, -1.5834413766860962, -2.441787004470825, 0.037841796875, -0.151611328125, -0.822998046875
11, 1522670635, -4.967257022857666, 1.3293890953063965, 8.405684471130371, -2.6847622394561768, -1.6504954099655151, -2.4785923957824707, 0.037353515625, -0.150146484375, -0.822509765625
12, 1522687302, -4.9611735343933105, 1.3170310258865356, 8.387103080749512, -2.68764328956604, -1.5883206129074097, -2.460369110107422, 0.0361328125, -0.152099609375, -0.822998046875
13, 1522703969, -4.9582061767578125, 1.329566478729248, 8.394807815551758, -2.6941747665405273, -1.4603466987609863, -2.4957656860351562, 0.0361328125, -0.149658203125, -0.823486328125
14, 1522720636, -4.953825950622559, 1.3172791004180908, 8.385066986083984, -2.6342153549194336, -1.49324631690979, -2.509084463119507, 0.03515625, -0.151123046875, -0.822021484375
15, 1522737303, -4.977336883544922, 1.3051263093948364, 8.427200317382812, -2.706533193588257, -1.4406121969223022, -2.5180106163024902, 0.037353515625, -0.149169921875, -0.822021484375
16, 1522753970, -4.969489574432373, 1.319176435470581, 8.407337188720703, -2.6174261569976807, -1.4378074407577515, -2.5427651405334473, 0.037353515625, -0.150634765625, -0.821533203125
17, 1522770637, -4.970107078552246, 1.3163185119628906, 8.404094696044922, -2.5780980587005615, -1.4941682815551758, -2.5336341857910156, 0.036865234375, -0.150634765625, -0.821533203125
18, 1522787304, -4.964100360870361, 1.3097217082977295, 8.394376754760742, -2.553842782974243, -1.4738956689834595, -2.449662923812866, 0.038330078125, -0.151611328125, -0.822509765625
19, 1522803971, -4.962693214416504, 1.3065595626831055, 8.392081260681152, -2.6370840072631836, -1.5087676048278809, -2.5470809936523438, 0.03564453125, -0.152099609375, -0.824462890625
20, 1522820638, -4.973049640655518, 1.3070273399353027, 8.388640403747559, -2.5945029258728027, -1.492554783821106, -2.506395101547241, 0.03515625, -0.151611328125, -0.82373046875
21, 1522837305, -4.960993766784668, 1.318472981452942, 8.395172119140625, -2.6393377780914307, -1.5281435251235962, -2.5268852710723877, 0.036376953125, -0.152587890625, -0.823974609375
22, 1522853972, -4.95370626449585, 1.31594979763031, 8.405715942382812, -2.6527462005615234, -1.5474554300308228, -2.5586066246032715, 0.036865234375, -0.152099609375, -0.822998046875
23, 1522870639, -4.960283279418945, 1.310791015625, 8.377094268798828, -2.634599447250366, -1.5475322008132935, -2.503718614578247, 0.037841796875, -0.151123046875, -0.820556640625
24, 1522887306, -4.9724602699279785, 1.3101012706756592, 8.378796577453613, -2.6710593700408936, -1.5072051286697388, -2.485712766647339, 0.0341796875, -0.150634765625, -0.8232421875
25, 1522903973, -4.956759929656982, 1.3187187910079956, 8.408051490783691, -2.607898473739624, -1.5595446825027466, -2.53558087348938, 0.035888671875, -0.151123046875, -0.82470703125
26, 1522920640, -4.937448978424072, 1.3074615001678467, 8.393560409545898, -2.7231674194335938, -1.5514379739761353, -2.611649990081787, 0.036865234375, -0.148193359375, -0.826171875
27, 1522937307, -4.958373546600342, 1.3044546842575073, 8.394381523132324, -2.6969025135040283, -1.4036530256271362, -2.601738452911377, 0.037353515625, -0.150146484375, -0.824951171875
28, 1522953974, -4.9607062339782715, 1.2973119020462036, 8.401798248291016, -2.598114013671875, -1.3109606504440308, -2.530189275741577, 0.03515625, -0.150634765625, -0.823486328125
29, 1522970641, -4.968008041381836, 1.3085137605667114, 8.392459869384766, -2.5603866577148438, -1.3168258666992188, -2.535811424255371, 0.03564453125, -0.150146484375, -0.821533203125
30, 1522987308, -4.975985527038574, 1.302343726158142, 8.362800598144531, -2.537053346633911, -1.3614301681518555, -2.4815378189086914, 0.0361328125, -0.150146484375, -0.823486328125
31, 1523003975, -4.9581074714660645, 1.3002122640609741, 8.412046432495117, -2.634202480316162, -1.4363476037979126, -2.434384822845459, 0.037841796875, -0.150634765625, -0.823486328125
32, 1523020642, -4.969549655914307, 1.310261607170105, 8.405329704284668, -2.4956631660461426, -1.3899245262145996, -2.4620721340179443, 0.037841796875, -0.150146484375, -0.823974609375
33, 1523037309, -4.959022521972656, 1.301558256149292, 8.407231330871582, -2.5469398498535156, -1.4968959093093872, -2.4240756034851074, 0.035888671875, -0.153564453125, -0.823486328125
34, 1523053976, -4.959540843963623, 1.3080708980560303, 8.392720222473145, -2.568749189376831, -1.5887559652328491, -2.405865430831909, 0.03515625, -0.151123046875, -0.82470703125
35, 1523070643, -4.9631028175354, 1.3161150217056274, 8.399840354919434, -2.5551745891571045, -1.516617774963379, -2.486583709716797, 0.03564453125, -0.151611328125, -0.82421875
36, 1523087310, -4.971165657043457, 1.313096284866333, 8.393678665161133, -2.528831720352173, -1.506692886352539, -2.4521729946136475, 0.037841796875, -0.1484375, -0.823974609375
37, 1523103977, -4.967105388641357, 1.3010938167572021, 8.380578994750977, -2.655153751373291, -1.4747282266616821, -2.422743797302246, 0.036865234375, -0.14794921875, -0.82568359375
38, 1523120644, -4.960140705108643, 1.297849416732788, 8.394671440124512, -2.50895619392395, -1.4163568019866943, -2.409937620162964, 0.038818359375, -0.150146484375, -0.82666015625
39, 1523137311, -4.963977813720703, 1.294068694114685, 8.384708404541016, -2.597243070602417, -1.42977774143219, -2.3573672771453857, 0.037353515625, -0.150146484375, -0.823486328125
40, 1523153978, -4.966594696044922, 1.3163505792617798, 8.415144920349121, -2.657266616821289, -1.3072338104248047, -2.34158992767334, 0.037353515625, -0.150634765625, -0.824462890625
41, 1523170645, -4.973089694976807, 1.2913563251495361, 8.391855239868164, -2.558657646179199, -1.3353054523468018, -2.3733112812042236, 0.038330078125, -0.150146484375, -0.822509765625
42, 1523187312, -4.966450214385986, 1.3062517642974854, 8.376298904418945, -2.556596040725708, -1.406457543373108, -2.4147911071777344, 0.03564453125, -0.150634765625, -0.822998046875
43, 1523203979, -4.982385158538818, 1.3036906719207764, 8.396334648132324, -2.569683790206909, -1.4679661989212036, -2.3373255729675293, 0.036376953125, -0.150146484375, -0.82666015625
44, 1523220646, -4.964004993438721, 1.2996097803115845, 8.375938415527344, -2.5338900089263916, -1.4829882383346558, -2.3454959392547607, 0.036865234375, -0.151123046875, -0.828125
45, 1523237313, -4.973427772521973, 1.2917933464050293, 8.419100761413574, -2.424510955810547, -1.5758085250854492, -2.265289783477783, 0.037841796875, -0.150146484375, -0.823486328125
46, 1523253980, -4.970266342163086, 1.313088297843933, 8.388599395751953, -2.523299217224121, -1.565397024154663, -2.345329523086548, 0.036376953125, -0.150146484375, -0.824462890625
47, 1523270647, -4.975920677185059, 1.3151538372039795, 8.39836311340332, -2.5708749294281006, -1.6301846504211426, -2.28732967376709, 0.038330078125, -0.152099609375, -0.823486328125
48, 1523287314, -4.965229511260986, 1.3106980323791504, 8.380669593811035, -2.529741048812866, -1.76266610622406, -2.3966832160949707, 0.037353515625, -0.152099609375, -0.823974609375
49, 1523303981, -4.956515789031982, 1.3053340911865234, 8.383491516113281, -2.568557024002075, -1.7055625915527344, -2.3528852462768555, 0.038330078125, -0.149169921875, -0.82666015625
50, 1523320648, -4.949182033538818, 1.3217638731002808, 8.420321464538574, -2.514885902404785, -1.6447453498840332, -2.385913133621216, 0.038330078125, -0.152099609375, -0.826416015625
51, 1523337315, -4.951737880706787, 1.2980002164840698, 8.406831741333008, -2.605503559112549, -1.553576946258545, -2.4023945331573486, 0.03564453125, -0.151123046875, -0.823486328125
52, 1523353982, -4.957843780517578, 1.3082793951034546, 8.421828269958496, -2.548860788345337, -1.498983383178711, -2.4197986125946045, 0.037841796875, -0.151123046875, -0.824951171875
53, 1523370649, -4.973298072814941, 1.304915189743042, 8.403042793273926, -2.6093835830688477, -1.5890631675720215, -2.449317216873169, 0.03564453125, -0.151123046875, -0.822021484375
54, 1523387316, -4.969999313354492, 1.3113558292388916, 8.399345397949219, -2.5740766525268555, -1.622436761856079, -2.3826727867126465, 0.035400390625, -0.151611328125, -0.82568359375
55, 1523403983, -4.956319808959961, 1.3117204904556274, 8.413125038146973, -2.635713577270508, -1.68046236038208, -2.4724457263946533, 0.035888671875, -0.149169921875, -0.82568359375
56, 1523420650, -4.962259769439697, 1.3081552982330322, 8.409157752990723, -2.59999680519104, -1.739896535873413, -2.4900670051574707, 0.035888671875, -0.148681640625, -0.82568359375
57, 1523437317, -4.959150791168213, 1.3037917613983154, 8.405872344970703, -2.62021803855896, -1.679322600364685, -2.414240837097168, 0.036376953125, -0.149169921875, -0.8251953125
58, 1523453984, -4.978507041931152, 1.3125795125961304, 8.392400741577148, -2.491936445236206, -1.5093821287155151, -2.353320837020874, 0.0361328125, -0.149169921875, -0.823486328125
59, 1523470651, -4.953670024871826, 1.2975883483886719, 8.399185180664062, -2.458665370941162, -1.4701943397521973, -2.3652172088623047, 0.036376953125, -0.150146484375, -0.823486328125
60, 1523487318, -4.9614481925964355, 1.3042696714401245, 8.411614418029785, -2.4440152645111084, -1.3899116516113281, -2.2621009349823, 0.035400390625, -0.152587890625, -0.8251953125
61, 1523503985, -4.965440273284912, 1.3054442405700684, 8.388755798339844, -2.3341495990753174, -1.29638671875, -2.248782157897949, 0.0361328125, -0.150634765625, -0.823974609375
62, 1523520652, -4.959048748016357, 1.313546895980835, 8.380278587341309, -2.4142143726348877, -1.3530420064926147, -2.318026065826416, 0.037841796875, -0.149169921875, -0.8271484375
63, 1523537319, -4.962061882019043, 1.3138632774353027, 8.407561302185059, -2.5068557262420654, -1.4097870588302612, -2.291043281555176, 0.037353515625, -0.149658203125, -0.82568359375
64, 1523553986, -4.946096420288086, 1.319508671760559, 8.409585952758789, -2.5274996757507324, -1.5542938709259033, -2.326824188232422, 0.03515625, -0.152587890625, -0.822509765625
65, 1523570653, -4.947554111480713, 1.2884265184402466, 8.438395500183105, -2.611701488494873, -1.4475274085998535, -2.2752017974853516, 0.037841796875, -0.150146484375, -0.822021484375
66, 1523587320, -4.969289302825928, 1.3200019598007202, 8.411981582641602, -2.5080978870391846, -1.5183719396591187, -2.311891794204712, 0.036865234375, -0.152099609375, -0.823974609375
67, 1523603987, -4.956292152404785, 1.3190884590148926, 8.39500617980957, -2.591813325881958, -1.475355625152588, -2.3322031497955322, 0.03466796875, -0.148681640625, -0.82666015625
68, 1523620654, -4.9462504386901855, 1.3102468252182007, 8.4082670211792, -2.5880613327026367, -1.5644495487213135, -2.3954920768737793, 0.035888671875, -0.151123046875, -0.826171875
69, 1523637321, -4.955008029937744, 1.293718934059143, 8.400206565856934, -2.5332753658294678, -1.3867740631103516, -2.3655762672424316, 0.03466796875, -0.150634765625, -0.82421875
70, 1523653988, -4.956871032714844, 1.3067578077316284, 8.413289070129395, -2.371607780456543, -1.2234159708023071, -2.2347335815429688, 0.037109375, -0.150634765625, -0.820556640625
71, 1523670655, -4.961613655090332, 1.3138710260391235, 8.402414321899414, -2.29996919631958, -1.18064284324646, -2.2691056728363037, 0.036376953125, -0.152099609375, -0.822998046875
72, 1523687322, -4.962942123413086, 1.3242477178573608, 8.404596328735352, -2.421617031097412, -1.2664071321487427, -2.295346260070801, 0.03515625, -0.150146484375, -0.82470703125
73, 1523703989, -4.96579122543335, 1.330822467803955, 8.39702033996582, -2.5780978202819824, -1.374646544456482, -2.485213279724121, 0.037841796875, -0.150146484375, -0.823974609375
74, 1523720656, -4.965836048126221, 1.3178074359893799, 8.407516479492188, -2.7272660732269287, -1.3882981538772583, -2.529343843460083, 0.036865234375, -0.150146484375, -0.8251953125
75, 1523737323, -4.971829891204834, 1.313910961151123, 8.405519485473633, -2.667550563812256, -1.4636635780334473, -2.4953176975250244, 0.036376953125, -0.150146484375, -0.823974609375
76, 1523753990, -4.958131313323975, 1.311261534690857, 8.380412101745605, -2.673658847808838, -1.513480305671692, -2.5064592361450195, 0.036376953125, -0.150634765625, -0.82568359375
77, 1523770657, -4.969609260559082, 1.300961971282959, 8.389558792114258, -2.698183059692383, -1.4940401315689087, -2.5828235149383545, 0.03662109375, -0.1494140625, -0.821533203125
78, 1523787324, -4.961467266082764, 1.3003984689712524, 8.403247833251953, -2.7288670539855957, -1.5734139680862427, -2.5715279579162598, 0.0361328125, -0.14892578125, -0.82373046875
79, 1523803991, -4.962108135223389, 1.3164455890655518, 8.412158012390137, -2.6945459842681885, -1.6359089612960815, -2.56360125541687, 0.03466796875, -0.149169921875, -0.82421875
80, 1523820658, -4.98115348815918, 1.3015530109405518, 8.404586791992188, -2.648071765899658, -1.61942720413208, -2.5548670291900635, 0.03515625, -0.150146484375, -0.82421875
81, 1523837325, -4.9531989097595215, 1.3140506744384766, 8.411651611328125, -2.536797523498535, -1.5524755716323853, -2.4254589080810547, 0.037353515625, -0.1484375, -0.824462890625
82, 1523853992, -4.951921463012695, 1.314245581626892, 8.372475624084473, -2.516435384750366, -1.454545497894287, -2.4915783405303955, 0.036865234375, -0.149658203125, -0.822998046875
83, 1523870659, -4.96989107131958, 1.3130871057510376, 8.396695137023926, -2.718468189239502, -1.4049336910247803, -2.4525957107543945, 0.037353515625, -0.149658203125, -0.822021484375
84, 1523887326, -4.966884613037109, 1.3001688718795776, 8.392387390136719, -2.5901615619659424, -1.441380500793457, -2.5313289165496826, 0.0361328125, -0.150146484375, -0.823974609375
85, 1523903993, -4.958987236022949, 1.290393352508545, 8.398860931396484, -2.5936317443847656, -1.4243733882904053, -2.5143990516662598, 0.036376953125, -0.150634765625, -0.8251953125
86, 1523920660, -4.963529586791992, 1.2955043315887451, 8.400362968444824, -2.4937422275543213, -1.3349467515945435, -2.3950436115264893, 0.036865234375, -0.148681640625, -0.82568359375
87, 1523937327, -4.971675395965576, 1.3021048307418823, 8.380534172058105, -2.6150825023651123, -1.3146873712539673, -2.4461028575897217, 0.036376953125, -0.151123046875, -0.822998046875
88, 1523953994, -4.967219829559326, 1.3024792671203613, 8.370094299316406, -2.5528945922851562, -1.258288025856018, -2.4623665809631348, 0.038818359375, -0.149658203125, -0.822509765625
89, 1523970661, -4.9764509201049805, 1.2900415658950806, 8.398308753967285, -2.5881378650665283, -1.2541899681091309, -2.4939985275268555, 0.035888671875, -0.149658203125, -0.82421875
90, 1523987328, -4.958572864532471, 1.2975331544876099, 8.393712997436523, -2.5545852184295654, -1.4271525144577026, -2.523824691772461, 0.03662109375, -0.14794921875, -0.822021484375
91, 1524003995, -4.977983474731445, 1.3126332759857178, 8.393266677856445, -2.5333776473999023, -1.358292579650879, -2.4806411266326904, 0.036865234375, -0.152099609375, -0.824951171875
92, 1524020662, -4.968202590942383, 1.3049548864364624, 8.378454208374023, -2.5314440727233887, -1.498112440109253, -2.549936294555664, 0.037353515625, -0.148681640625, -0.824462890625
93, 1524037329, -4.964921474456787, 1.3115559816360474, 8.397123336791992, -2.6260831356048584, -1.5334069728851318, -2.5576844215393066, 0.037841796875, -0.149658203125, -0.822021484375
94, 1524053996, -4.964478015899658, 1.2967251539230347, 8.400815963745117, -2.5825161933898926, -1.4616785049438477, -2.591928482055664, 0.03662109375, -0.151611328125, -0.821533203125
95, 1524070663, -4.964198112487793, 1.28307044506073, 8.377960205078125, -2.5239014625549316, -1.4065088033676147, -2.5616674423217773, 0.0361328125, -0.1484375, -0.821533203125
96, 1524087330, -4.964778900146484, 1.2832156419754028, 8.407949447631836, -2.46144437789917, -1.4071745872497559, -2.5105695724487305, 0.035888671875, -0.149658203125, -0.82421875
97, 1524103997, -4.955264091491699, 1.2991418838500977, 8.417848587036133, -2.3854517936706543, -1.3134064674377441, -2.392200469970703, 0.035400390625, -0.150634765625, -0.82666015625
98, 1524120664, -4.969372749328613, 1.2960033416748047, 8.388592720031738, -2.3439974784851074, -1.2367860078811646, -2.4475367069244385, 0.037353515625, -0.148681640625, -0.82568359375
99, 1524137331, -4.974400043487549, 1.308478832244873, 8.399466514587402, -2.3976049423217773, -1.2290254831314087, -2.5401525497436523, 0.038818359375, -0.150146484375, -0.824462890625
100, 1524153998, -4.9664130210876465, 1.3020933866500854, 8.40507984161377, -2.3816864490509033, -1.337072730064392, -2.4526596069335938, 0.037353515625, -0.149169921875, -0.822998046875
101, 1524170665, -4.977345943450928, 1.2954559326171875, 8.414566040039062, -2.442824125289917, -1.3152891397476196, -2.434384822845459, 0.038818359375, -0.149658203125, -0.822021484375
102, 1524187332, -4.97731351852417, 1.2960196733474731, 8.395243644714355, -2.4161484241485596, -1.3371878862380981, -2.4819986820220947, 0.036376953125, -0.149658203125, -0.82421875
103, 1524203999, -4.97228479385376, 1.3010600805282593, 8.405203819274902, -2.5623586177825928, -1.3770796060562134, -2.46821928024292, 0.037353515625, -0.152099609375, -0.825927734375
104, 1524220666, -4.963601589202881, 1.2981234788894653, 8.405623435974121, -2.5254125595092773, -1.2787396907806396, -2.445552110671997, 0.037841796875, -0.149658203125, -0.823974609375
105, 1524237333, -4.960507869720459, 1.305587887763977, 8.393962860107422, -2.4897208213806152, -1.355270266532898, -2.4950482845306396, 0.037353515625, -0.148681640625, -0.823974609375
106, 1524254000, -4.9587297439575195, 1.3110568523406982, 8.386824607849121, -2.480295419692993, -1.3170050382614136, -2.4778878688812256, 0.038818359375, -0.149658203125, -0.822021484375
107, 1524270667, -4.96755313873291, 1.3128846883773804, 8.396941184997559, -2.6734540462493896, -1.291123628616333, -2.5512943267822266, 0.0361328125, -0.1494140625, -0.822509765625
108, 1524287334, -4.976323127746582, 1.2972444295883179, 8.40859317779541, -2.509237766265869, -1.1814113855361938, -2.5670204162597656, 0.037841796875, -0.151123046875, -0.822998046875
109, 1524304001, -4.972875595092773, 1.3037841320037842, 8.375579833984375, -2.499222993850708, -1.3303877115249634, -2.480436325073242, 0.038818359375, -0.148681640625, -0.824462890625
110, 1524320668, -4.971538066864014, 1.294137954711914, 8.393369674682617, -2.4293904304504395, -1.2220715284347534, -2.3452141284942627, 0.037353515625, -0.151123046875, -0.82568359375
111, 1524337335, -4.985964298248291, 1.2865902185440063, 8.382705688476562, -2.251932382583618, -1.222314715385437, -2.2928104400634766, 0.037353515625, -0.150634765625, -0.824462890625
112, 1524354002, -4.986320495605469, 1.3044764995574951, 8.398350715637207, -1.9974702596664429, -1.187981128692627, -2.188694715499878, 0.038330078125, -0.149658203125, -0.822998046875
113, 1524370669, -4.979445934295654, 1.316900372505188, 8.38469123840332, -2.1651949882507324, -1.2179478406906128, -2.2688753604888916, 0.038330078125, -0.150146484375, -0.821533203125
114, 1524387336, -4.960906982421875, 1.3021003007888794, 8.414392471313477, -2.3225595951080322, -1.4173555374145508, -2.2934634685516357, 0.0361328125, -0.149658203125, -0.822509765625
115, 1524404003, -4.977417469024658, 1.3235753774642944, 8.386611938476562, -2.396503448486328, -1.3633511066436768, -2.258707046508789, 0.037841796875, -0.149658203125, -0.824951171875
116, 1524420670, -4.96472692489624, 1.3239730596542358, 8.399833679199219, -2.483074426651001, -1.429739236831665, -2.283999443054199, 0.037353515625, -0.150146484375, -0.826171875
117, 1524437337, -4.967430591583252, 1.319092869758606, 8.371431350708008, -2.527794122695923, -1.419891119003296, -2.3384392261505127, 0.041748046875, -0.150634765625, -0.826416015625
118, 1524454004, -4.968333721160889, 1.3137423992156982, 8.396366119384766, -2.50152850151062, -1.4822583198547363, -2.337402105331421, 0.037841796875, -0.152099609375, -0.824951171875
119, 1524470671, -4.9675211906433105, 1.312759280204773, 8.418018341064453, -2.4676809310913086, -1.445081353187561, -2.4364078044891357, 0.039306640625, -0.151123046875, -0.822021484375
120, 1524487338, -4.962756633758545, 1.319617509841919, 8.38961124420166, -2.3724277019500732, -1.404434084892273, -2.513477087020874, 0.037841796875, -0.150634765625, -0.822998046875
121, 1524504005, -4.971101760864258, 1.3150261640548706, 8.391589164733887, -2.53212308883667, -1.493963360786438, -2.5348894596099854, 0.038818359375, -0.149658203125, -0.825439453125
122, 1524520672, -4.9846673011779785, 1.3136980533599854, 8.398602485656738, -2.5447499752044678, -1.5209720134735107, -2.4534409046173096, 0.038330078125, -0.149169921875, -0.823486328125
123, 1524537339, -4.988626003265381, 1.3002772331237793, 8.393318176269531, -2.5480029582977295, -1.5060269832611084, -2.4609711170196533, 0.038818359375, -0.151611328125, -0.823486328125
124, 1524554006, -4.98531436920166, 1.302382230758667, 8.408262252807617, -2.6083335876464844, -1.5496197938919067, -2.473623752593994, 0.037841796875, -0.150634765625, -0.822021484375
125, 1524570673, -4.979907512664795, 1.3058418035507202, 8.375035285949707, -2.51608943939209, -1.4854981899261475, -2.4427731037139893, 0.037841796875, -0.150634765625, -0.823974609375
126, 1524587340, -4.959360122680664, 1.3188432455062866, 8.377386093139648, -2.6103060245513916, -1.5716723203659058, -2.4913220405578613, 0.039794921875, -0.150634765625, -0.821533203125
127, 1524604007, -4.976562023162842, 1.3071702718734741, 8.398906707763672, -2.532122850418091, -1.6326816082000732, -2.4418509006500244, 0.036865234375, -0.149658203125, -0.823486328125
128, 1524620674, -4.97572135925293, 1.2962918281555176, 8.375783920288086, -2.490412712097168, -1.6751987934112549, -2.463608980178833, 0.038818359375, -0.150634765625, -0.823974609375
129, 1524637341, -4.961610794067383, 1.3082631826400757, 8.3916597366333, -2.4572441577911377, -1.591355800628662, -2.445270538330078, 0.037841796875, -0.150634765625, -0.824951171875
130, 1524654008, -4.964119911193848, 1.3086055517196655, 8.3737211227417, -2.413574457168579, -1.397262454032898, -2.372338056564331, 0.03662109375, -0.150634765625, -0.822021484375
131, 1524670675, -4.968310832977295, 1.3098994493484497, 8.395051002502441, -2.49233341217041, -1.299293875694275, -2.3436005115509033, 0.037841796875, -0.150634765625, -0.823974609375
132, 1524687342, -4.975761413574219, 1.3127630949020386, 8.388596534729004, -2.553304672241211, -1.4348618984222412, -2.3536791801452637, 0.037353515625, -0.152099609375, -0.824462890625
133, 1524704009, -4.975019454956055, 1.2928897142410278, 8.400078773498535, -2.5909810066223145, -1.4831291437149048, -2.4231410026550293, 0.039306640625, -0.149658203125, -0.825927734375
134, 1524720676, -4.979025363922119, 1.2966440916061401, 8.375576972961426, -2.593695640563965, -1.5533462762832642, -2.373541831970215, 0.036865234375, -0.150146484375, -0.8251953125
135, 1524737343, -4.984045028686523, 1.3100674152374268, 8.403488159179688, -2.5244903564453125, -1.5494275093078613, -2.274061918258667, 0.041259765625, -0.148193359375, -0.826416015625
136, 1524754010, -4.96356725692749, 1.3167147636413574, 8.393854141235352, -2.551819324493408, -1.5750277042388916, -2.400153398513794, 0.037841796875, -0.149658203125, -0.822509765625
137, 1524770677, -4.981501579284668, 1.3087972402572632, 8.38902473449707, -2.530266046524048, -1.711133599281311, -2.3887813091278076, 0.038330078125, -0.151611328125, -0.823974609375
138, 1524787344, -4.968251705169678, 1.3274965286254883, 8.375982284545898, -2.5882787704467773, -1.7756391763687134, -2.4456419944763184, 0.036865234375, -0.152099609375, -0.822509765625
139, 1524804011, -4.973594665527344, 1.308924674987793, 8.392040252685547, -2.678550958633423, -1.7337111234664917, -2.4962522983551025, 0.036376953125, -0.152099609375, -0.8251953125
140, 1524820678, -4.985024929046631, 1.3165379762649536, 8.395234107971191, -2.666961193084717, -1.678938388824463, -2.4351534843444824, 0.038330078125, -0.150146484375, -0.823486328125
141, 1524837345, -4.960402488708496, 1.313525676727295, 8.385394096374512, -2.5528054237365723, -1.6404680013656616, -2.4922313690185547, 0.038330078125, -0.150634765625, -0.823974609375
142, 1524854012, -4.970522880554199, 1.2977955341339111, 8.404993057250977, -2.5595285892486572, -1.5531543493270874, -2.4302616119384766, 0.038330078125, -0.149658203125, -0.822998046875
143, 1524870679, -4.968358516693115, 1.3129844665527344, 8.384190559387207, -2.5330066680908203, -1.6429651975631714, -2.4876465797424316, 0.037109375, -0.150634765625, -0.821044921875
144, 1524887346, -4.952392578125, 1.3089953660964966, 8.386063575744629, -2.5420475006103516, -1.5781137943267822, -2.408784866333008, 0.038818359375, -0.149658203125, -0.823974609375
145, 1524904013, -4.9751386642456055, 1.3157784938812256, 8.376441955566406, -2.543905019760132, -1.685302972793579, -2.4214634895324707, 0.037353515625, -0.149169921875, -0.823974609375
146, 1524920680, -4.958703994750977, 1.303401231765747, 8.403424263000488, -2.66294002532959, -1.6812946796417236, -2.5342235565185547, 0.03564453125, -0.150634765625, -0.8251953125
147, 1524937347, -4.953517436981201, 1.302714228630066, 8.395768165588379, -2.6556403636932373, -1.629608392715454, -2.5436489582061768, 0.035888671875, -0.151123046875, -0.82568359375
148, 1524954014, -4.976475715637207, 1.3086365461349487, 8.379920959472656, -2.6710846424102783, -1.6289422512054443, -2.4873266220092773, 0.037841796875, -0.151123046875, -0.824462890625
149, 1524970681, -4.964229106903076, 1.2983890771865845, 8.39477252960205, -2.5479259490966797, -1.614573359489441, -2.3611323833465576, 0.037841796875, -0.149658203125, -0.822021484375
150, 1524987348, -4.962724208831787, 1.3040484189987183, 8.395421028137207, -2.6306936740875244, -1.5536025762557983, -2.47387957572937, 0.03564453125, -0.14892578125, -0.821044921875
151, 1525004015, -4.968561172485352, 1.2919161319732666, 8.40150260925293, -2.6239445209503174, -1.5620931386947632, -2.446474313735962, 0.037841796875, -0.148193359375, -0.826171875
152, 1525020682, -4.957117080688477, 1.2940129041671753, 8.392167091369629, -2.4878644943237305, -1.5705583095550537, -2.4550929069519043, 0.035888671875, -0.150634765625, -0.8251953125
153, 1525037349, -4.978055477142334, 1.3113088607788086, 8.408206939697266, -2.5990490913391113, -1.5111750364303589, -2.4794886112213135, 0.0361328125, -0.149658203125, -0.823974609375
154, 1525054016, -4.971737861633301, 1.3007376194000244, 8.40870475769043, -2.6540653705596924, -1.4221453666687012, -2.536592721939087, 0.036865234375, -0.151611328125, -0.824462890625
155, 1525070683, -4.959950923919678, 1.2979577779769897, 8.400042533874512, -2.599074363708496, -1.3847122192382812, -2.3346617221832275, 0.038330078125, -0.152099609375, -0.822998046875
156, 1525087350, -4.967273235321045, 1.29283607006073, 8.390931129455566, -2.5453901290893555, -1.4761879444122314, -2.3746817111968994, 0.039306640625, -0.149169921875, -0.820556640625
157, 1525104017, -4.963051795959473, 1.309078574180603, 8.402844429016113, -2.5454161167144775, -1.38654363155365, -2.3154137134552, 0.036376953125, -0.150146484375, -0.82666015625
158, 1525120684, -4.9709882736206055, 1.3030543327331543, 8.383772850036621, -2.5345945358276367, -1.5357632637023926, -2.335686206817627, 0.036376953125, -0.150146484375, -0.824462890625
159, 1525137351, -4.963376045227051, 1.3135896921157837, 8.380475044250488, -2.5735514163970947, -1.5811233520507812, -2.4135618209838867, 0.038818359375, -0.149658203125, -0.824462890625
160, 1525154018, -4.972137928009033, 1.3038387298583984, 8.39172077178955, -2.6152360439300537, -1.5804061889648438, -2.426137685775757, 0.038818359375, -0.1484375, -0.822509765625
161, 1525170685, -4.962085723876953, 1.3022894859313965, 8.403600692749023, -2.7033824920654297, -1.6609452962875366, -2.531674861907959, 0.03759765625, -0.149658203125, -0.819580078125
162, 1525187352, -4.960989952087402, 1.2768481969833374, 8.412878036499023, -2.5600664615631104, -1.5739774703979492, -2.4071459770202637, 0.039306640625, -0.1474609375, -0.822998046875
163, 1525204019, -4.97043514251709, 1.3032863140106201, 8.421619415283203, -2.2550570964813232, -1.2597861289978027, -2.266083240509033, 0.03515625, -0.149169921875, -0.82568359375
164, 1525220686, -4.967580795288086, 1.2999221086502075, 8.406412124633789, -1.9802075624465942, -1.0786020755767822, -2.1428353786468506, 0.038330078125, -0.150146484375, -0.823974609375
165, 1525237353, -4.981328010559082, 1.3314281702041626, 8.397592544555664, -1.9014358520507812, -1.0588419437408447, -2.2271015644073486, 0.038330078125, -0.150146484375, -0.824951171875
166, 1525254020, -4.979135513305664, 1.299519658088684, 8.402670860290527, -2.1959047317504883, -1.285526990890503, -2.270745038986206, 0.038818359375, -0.148681640625, -0.821533203125
167, 1525270687, -4.973677635192871, 1.3154652118682861, 8.355278015136719, -2.2501139640808105, -1.3367267847061157, -2.3237764835357666, 0.036865234375, -0.149658203125, -0.822509765625
168, 1525287354, -4.9743523597717285, 1.3080841302871704, 8.366272926330566, -2.5185225009918213, -1.5203571319580078, -2.4050838947296143, 0.037353515625, -0.152099609375, -0.822998046875
169, 1525304021, -4.974590301513672, 1.3177894353866577, 8.395088195800781, -2.6192193031311035, -1.5561766624450684, -2.430619955062866, 0.038330078125, -0.150146484375, -0.822509765625
170, 1525320688, -4.971444606781006, 1.3287041187286377, 8.393097877502441, -2.5998945236206055, -1.712836742401123, -2.468898296356201, 0.036376953125, -0.150146484375, -0.8251953125
171, 1525337355, -4.97591495513916, 1.3252027034759521, 8.39891242980957, -2.5845906734466553, -1.6650177240371704, -2.5020408630371094, 0.03466796875, -0.151123046875, -0.82421875
172, 1525354022, -4.964554786682129, 1.3101025819778442, 8.421265602111816, -2.646483898162842, -1.715846300125122, -2.3901519775390625, 0.036865234375, -0.151123046875, -0.822998046875
173, 1525370689, -4.948578834533691, 1.2989940643310547, 8.412479400634766, -2.6295409202575684, -1.680180549621582, -2.465402126312256, 0.037841796875, -0.151123046875, -0.823486328125
174, 1525387356, -4.965727806091309, 1.3224388360977173, 8.36871337890625, -2.511991500854492, -1.7168962955474854, -2.436241865158081, 0.03662109375, -0.1484375, -0.822509765625
175, 1525404023, -4.961986541748047, 1.3061684370040894, 8.405496597290039, -2.5273847579956055, -1.6937041282653809, -2.446077346801758, 0.036376953125, -0.150634765625, -0.8251953125
176, 1525420690, -4.963254451751709, 1.300532579421997, 8.40689754486084, -2.572770595550537, -1.5496582984924316, -2.540344715118408, 0.036865234375, -0.149658203125, -0.826171875
177, 1525437357, -4.96776008605957, 1.3154047727584839, 8.413195610046387, -2.557159662246704, -1.5421279668807983, -2.469743490219116, 0.038818359375, -0.149169921875, -0.823974609375
178, 1525454024, -4.967795372009277, 1.3023775815963745, 8.399117469787598, -2.5018486976623535, -1.5623749494552612, -2.4916038513183594, 0.037841796875, -0.151611328125, -0.819580078125
179, 1525470691, -4.975493907928467, 1.315163254737854, 8.388580322265625, -2.5454161167144775, -1.5766539573669434, -2.400383949279785, 0.036376953125, -0.151611328125, -0.822998046875
180, 1525487358, -4.956716537475586, 1.30300772190094, 8.39266300201416, -2.5270514488220215, -1.5875391960144043, -2.4405062198638916, 0.037841796875, -0.149169921875, -0.822021484375
181, 1525504025, -4.970522403717041, 1.2858538627624512, 8.391205787658691, -2.463724136352539, -1.5513229370117188, -2.3674075603485107, 0.038818359375, -0.150146484375, -0.825927734375
182, 1525520692, -4.971312522888184, 1.3077304363250732, 8.395088195800781, -2.3292317390441895, -1.5550239086151123, -2.2605514526367188, 0.037841796875, -0.149169921875, -0.822998046875
183, 1525537359, -4.969076633453369, 1.3049405813217163, 8.403977394104004, -2.318525791168213, -1.5870782136917114, -2.3572518825531006, 0.035888671875, -0.149658203125, -0.82568359375
184, 1525554026, -4.958557605743408, 1.3147464990615845, 8.385531425476074, -2.3881282806396484, -1.4800426959991455, -2.314542770385742, 0.0361328125, -0.150146484375, -0.823486328125
185, 1525570693, -4.960778713226318, 1.2990803718566895, 8.405505180358887, -2.438739061355591, -1.5875520706176758, -2.3307688236236572, 0.037841796875, -0.151123046875, -0.822998046875
186, 1525587360, -4.969927787780762, 1.3105720281600952, 8.408596992492676, -2.3857972621917725, -1.5512458086013794, -2.2093896865844727, 0.036376953125, -0.149658203125, -0.822998046875
187, 1525604027, -4.984655857086182, 1.3203990459442139, 8.390730857849121, -2.532545566558838, -1.738487958908081, -2.2977283000946045, 0.035400390625, -0.150146484375, -0.82666015625
188, 1525620694, -4.97770881652832, 1.3168870210647583, 8.40611457824707, -2.6557939052581787, -1.7745634317398071, -2.3272600173950195, 0.036865234375, -0.151123046875, -0.826171875
189, 1525637361, -4.979292869567871, 1.305866003036499, 8.402112007141113, -2.7201075553894043, -1.855076789855957, -2.312174081802368, 0.035400390625, -0.150634765625, -0.826171875
190, 1525654028, -4.965360164642334, 1.3112608194351196, 8.388192176818848, -2.5660345554351807, -1.8665385246276855, -2.2314810752868652, 0.0361328125, -0.151611328125, -0.821044921875
191, 1525670695, -4.971866607666016, 1.29387366771698, 8.397794723510742, -2.265507459640503, -1.7166657447814941, -2.1007022857666016, 0.037841796875, -0.151123046875, -0.822509765625
192, 1525687362, -4.970030784606934, 1.3071013689041138, 8.409110069274902, -2.1063497066497803, -1.6893749237060547, -2.0203680992126465, 0.03564453125, -0.151123046875, -0.822998046875
193, 1525704029, -4.965764045715332, 1.3236490488052368, 8.394041061401367, -2.0971038341522217, -1.7985621690750122, -2.0474023818969727, 0.0361328125, -0.149658203125, -0.823486328125
194, 1525720696, -4.9575653076171875, 1.3314683437347412, 8.408756256103516, -2.117171287536621, -1.7529330253601074, -2.0566742420196533, 0.03515625, -0.149658203125, -0.82470703125
195, 1525737363, -4.964413642883301, 1.3265702724456787, 8.387118339538574, -2.0960280895233154, -1.7678011655807495, -2.0812363624572754, 0.03466796875, -0.150634765625, -0.826171875
196, 1525754030, -4.968738555908203, 1.3159922361373901, 8.39687442779541, -2.2864201068878174, -1.8760535717010498, -2.116095781326294, 0.0341796875, -0.14892578125, -0.82177734375
197, 1525770697, -4.955779552459717, 1.3278580904006958, 8.407377243041992, -2.600253105163574, -1.84679114818573, -2.3403093814849854, 0.03515625, -0.152099609375, -0.822509765625
198, 1525787364, -4.934731483459473, 1.319570779800415, 8.403700828552246, -2.6427700519561768, -1.7787895202636719, -2.415034532546997, 0.0341796875, -0.152099609375, -0.822509765625
199, 1525804031, -4.9582695960998535, 1.3184735774993896, 8.395207405090332, -2.659597635269165, -1.7156540155410767, -2.44844651222229, 0.03515625, -0.152587890625, -0.82421875
200, 1525820698, -4.940512180328369, 1.3227312564849854, 8.42231559753418, -2.6798441410064697, -1.6458338499069214, -2.4931278228759766, 0.036376953125, -0.151123046875, -0.8251953125
201, 1525837365, -4.952780723571777, 1.3074597120285034, 8.401432037353516, -2.7777099609375, -1.6981346607208252, -2.4783999919891357, 0.03515625, -0.151611328125, -0.82470703125
202, 1525854032, -4.949993133544922, 1.28921377658844, 8.401838302612305, -2.7579503059387207, -1.6200419664382935, -2.5058698654174805, 0.0361328125, -0.151123046875, -0.823486328125
203, 1525870699, -4.94777774810791, 1.3251031637191772, 8.400117874145508, -2.8121469020843506, -1.471910834312439, -2.391124963760376, 0.037353515625, -0.150146484375, -0.822998046875
204, 1525887366, -4.95985746383667, 1.3387553691864014, 8.39918327331543, -2.7852022647857666, -1.5755014419555664, -2.4633145332336426, 0.03466796875, -0.151123046875, -0.822021484375
205, 1525904033, -4.950564384460449, 1.3209984302520752, 8.401277542114258, -2.7972395420074463, -1.7188808917999268, -2.6132638454437256, 0.0341796875, -0.150146484375, -0.822509765625
206, 1525920700, -4.942441940307617, 1.301898717880249, 8.428729057312012, -2.8153865337371826, -1.6595619916915894, -2.5172033309936523, 0.035888671875, -0.149169921875, -0.82568359375
207, 1525937367, -4.945544242858887, 1.3070030212402344, 8.411320686340332, -2.7764549255371094, -1.5657938718795776, -2.5813632011413574, 0.03515625, -0.151123046875, -0.826171875
208, 1525954034, -4.945913791656494, 1.3164429664611816, 8.419962882995605, -2.729583978652954, -1.4723589420318604, -2.4198496341705322, 0.03564453125, -0.152587890625, -0.820068359375
209, 1525970701, -4.945935249328613, 1.3122279644012451, 8.413122177124023, -2.680023193359375, -1.4519199132919312, -2.4436564445495605, 0.03466796875, -0.150146484375, -0.822509765625
210, 1525987368, -4.966813564300537, 1.3193540573120117, 8.405495643615723, -2.6623635292053223, -1.529091238975525, -2.5015928745269775, 0.03515625, -0.150634765625, -0.822998046875
211, 1526004035, -4.960240364074707, 1.2986862659454346, 8.407933235168457, -2.6487762928009033, -1.560005784034729, -2.434577226638794, 0.036376953125, -0.149169921875, -0.823974609375
212, 1526020702, -4.954957485198975, 1.3055557012557983, 8.400535583496094, -2.574716806411743, -1.481195330619812, -2.4714977741241455, 0.035400390625, -0.151611328125, -0.8251953125
213, 1526037369, -4.949962139129639, 1.3150885105133057, 8.415887832641602, -2.5532147884368896, -1.4741004705429077, -2.4147140979766846, 0.036865234375, -0.1484375, -0.823974609375
214, 1526054036, -4.960509777069092, 1.3219140768051147, 8.409994125366211, -2.559208631515503, -1.4521634578704834, -2.468027114868164, 0.03564453125, -0.150146484375, -0.822998046875
215, 1526070703, -4.949423789978027, 1.3255807161331177, 8.401375770568848, -2.509199619293213, -1.4073668718338013, -2.5118889808654785, 0.03466796875, -0.149658203125, -0.822509765625
216, 1526087370, -4.951660633087158, 1.308396339416504, 8.409930229187012, -2.5104799270629883, -1.5248394012451172, -2.463916063308716, 0.037109375, -0.14990234375, -0.819091796875
217, 1526104037, -4.965077877044678, 1.317776083946228, 8.412333488464355, -2.496072769165039, -1.3974673748016357, -2.433180809020996, 0.03564453125, -0.149658203125, -0.82470703125
218, 1526120704, -4.957314491271973, 1.3006796836853027, 8.404688835144043, -2.489849328994751, -1.3768364191055298, -2.430222988128662, 0.0361328125, -0.150634765625, -0.823974609375
219, 1526137371, -4.945520401000977, 1.302175760269165, 8.390965461730957, -2.421552896499634, -1.3962637186050415, -2.3542683124542236, 0.036376953125, -0.150634765625, -0.82470703125
220, 1526154038, -4.946633338928223, 1.3032547235488892, 8.408541679382324, -2.485430955886841, -1.5129679441452026, -2.4465763568878174, 0.0361328125, -0.150634765625, -0.822509765625
221, 1526170705, -4.958277225494385, 1.3034684658050537, 8.400212287902832, -2.5022456645965576, -1.5188076496124268, -2.411691904067993, 0.0361328125, -0.150634765625, -0.820556640625
222, 1526187372, -4.951417446136475, 1.3001677989959717, 8.390336990356445, -2.5076241493225098, -1.418853998184204, -2.439110279083252, 0.03515625, -0.150146484375, -0.822509765625
223, 1526204039, -4.9529266357421875, 1.3074144124984741, 8.397533416748047, -2.4564757347106934, -1.4132959842681885, -2.4364593029022217, 0.03466796875, -0.150146484375, -0.82275390625
224, 1526220706, -4.954956531524658, 1.31234610080719, 8.393497467041016, -2.4749743938446045, -1.5730104446411133, -2.48471999168396, 0.03466796875, -0.149658203125, -0.8271484375
225, 1526237373, -4.952608108520508, 1.3189983367919922, 8.41465950012207, -2.4334497451782227, -1.4105809926986694, -2.4308505058288574, 0.03466796875, -0.149169921875, -0.826171875
226, 1526254040, -4.953760623931885, 1.3052220344543457, 8.408685684204102, -2.4184792041778564, -1.453930377960205, -2.4349863529205322, 0.036865234375, -0.151123046875, -0.822509765625
227, 1526270707, -4.939507484436035, 1.3163238763809204, 8.365306854248047, -2.411269187927246, -1.410593867301941, -2.3614654541015625, 0.0341796875, -0.150634765625, -0.822021484375
228, 1526287374, -4.947899341583252, 1.3196847438812256, 8.379268646240234, -2.473149538040161, -1.4288557767868042, -2.3919827938079834, 0.03271484375, -0.150146484375, -0.82177734375
229, 1526304041, -4.956882476806641, 1.308743953704834, 8.410882949829102, -2.539268732070923, -1.4213258028030396, -2.4702301025390625, 0.035888671875, -0.153564453125, -0.825439453125
230, 1526320708, -4.958660125732422, 1.319840431213379, 8.410666465759277, -2.480653762817383, -1.496370553970337, -2.4518649578094482, 0.035888671875, -0.148681640625, -0.8251953125
231, 1526337375, -4.955634117126465, 1.3094199895858765, 8.382044792175293, -2.5965776443481445, -1.591509461402893, -2.508610486984253, 0.03564453125, -0.150146484375, -0.8251953125
232, 1526354042, -4.96898889541626, 1.316498875617981, 8.409326553344727, -2.6284525394439697, -1.4977540969848633, -2.3857595920562744, 0.035888671875, -0.151123046875, -0.824462890625
233, 1526370709, -4.9547224044799805, 1.2872982025146484, 8.402338027954102, -2.4549131393432617, -1.528168797492981, -2.3723506927490234, 0.03369140625, -0.151123046875, -0.821044921875
234, 1526387376, -4.951563358306885, 1.3005207777023315, 8.390369415283203, -2.382992744445801, -1.4209669828414917, -2.3866939544677734, 0.03662109375, -0.151611328125, -0.822021484375
235, 1526404043, -4.954606056213379, 1.3200243711471558, 8.41126537322998, -2.4360365867614746, -1.3932281732559204, -2.3034141063690186, 0.036376953125, -0.152099609375, -0.823486328125
236, 1526420710, -4.9598541259765625, 1.3161909580230713, 8.407039642333984, -2.465157985687256, -1.4269987344741821, -2.4782590866088867, 0.03515625, -0.14892578125, -0.8251953125
237, 1526437377, -4.972226142883301, 1.3022639751434326, 8.388792037963867, -2.435255289077759, -1.3856854438781738, -2.440467596054077, 0.037841796875, -0.151611328125, -0.825439453125
238, 1526454044, -4.963144779205322, 1.3167613744735718, 8.418334007263184, -2.454862117767334, -1.4252827167510986, -2.4201698303222656, 0.036376953125, -0.150634765625, -0.822998046875
239, 1526470711, -4.950475692749023, 1.3065627813339233, 8.404716491699219, -2.5044100284576416, -1.459424614906311, -2.3878211975097656, 0.03662109375, -0.149658203125, -0.821533203125
240, 1526487378, -4.968326568603516, 1.3221054077148438, 8.389833450317383, -2.4415690898895264, -1.4635480642318726, -2.2844607830047607, 0.03662109375, -0.149658203125, -0.822509765625
241, 1526504045, -4.956247806549072, 1.3293617963790894, 8.379834175109863, -2.49416446685791, -1.506257176399231, -2.4267518520355225, 0.035888671875, -0.151611328125, -0.8251953125
242, 1526520712, -4.948336601257324, 1.300229787826538, 8.39879322052002, -2.4448602199554443, -1.3749793767929077, -2.3758468627929688, 0.036865234375, -0.150146484375, -0.822509765625
243, 1526537379, -4.968216896057129, 1.3218505382537842, 8.418915748596191, -2.4179160594940186, -1.2473642826080322, -2.310598611831665, 0.035888671875, -0.152099609375, -0.826171875
244, 1526554046, -4.955658912658691, 1.3201621770858765, 8.417028427124023, -2.4786946773529053, -1.275166630744934, -2.308741331100464, 0.036376953125, -0.151123046875, -0.824951171875
245, 1526570713, -4.959127426147461, 1.3150057792663574, 8.407615661621094, -2.557133674621582, -1.39984929561615, -2.3990776538848877, 0.0341796875, -0.151611328125, -0.8232421875
246, 1526587380, -4.965219497680664, 1.3126156330108643, 8.409750938415527, -2.612649440765381, -1.4097360372543335, -2.4662086963653564, 0.03369140625, -0.150634765625, -0.821044921875
247, 1526604047, -4.9605278968811035, 1.3216832876205444, 8.382004737854004, -2.686426877975464, -1.5433189868927002, -2.472522497177124, 0.036865234375, -0.153076171875, -0.825439453125
248, 1526620714, -4.962862968444824, 1.3260520696640015, 8.39116096496582, -2.6881043910980225, -1.5010708570480347, -2.501490354537964, 0.035400390625, -0.149658203125, -0.83056640625
249, 1526637381, -4.957978248596191, 1.307033896446228, 8.406810760498047, -2.698246955871582, -1.4065600633621216, -2.5500648021698, 0.036865234375, -0.149169921875, -0.823974609375
250, 1526654048, -4.954586029052734, 1.2979048490524292, 8.397676467895508, -2.7025883197784424, -1.5305383205413818, -2.4692182540893555, 0.03564453125, -0.150634765625, -0.823974609375
251, 1526670715, -4.954872131347656, 1.3138630390167236, 8.390848159790039, -2.5986642837524414, -1.3837772607803345, -2.38070011138916, 0.03466796875, -0.150634765625, -0.8232421875
252, 1526687382, -4.974134922027588, 1.3058979511260986, 8.385998725891113, -2.516101837158203, -1.3242276906967163, -2.4302353858947754, 0.037109375, -0.149169921875, -0.821533203125
253, 1526704049, -4.973461627960205, 1.3193097114562988, 8.414223670959473, -2.540908098220825, -1.4009251594543457, -2.3502981662750244, 0.03564453125, -0.14892578125, -0.82421875
254, 1526720716, -4.93278694152832, 1.304925799369812, 8.416561126708984, -2.5641775131225586, -1.4518306255340576, -2.4194273948669434, 0.035400390625, -0.150634765625, -0.82568359375
255, 1526737383, -4.963526725769043, 1.3147495985031128, 8.410341262817383, -2.5118374824523926, -1.4826809167861938, -2.4391489028930664, 0.036865234375, -0.150146484375, -0.824462890625
256, 1526754050, -4.964811325073242, 1.3125288486480713, 8.395670890808105, -2.5395123958587646, -1.4795819520950317, -2.4851107597351074, 0.03662109375, -0.152099609375, -0.821044921875
257, 1526770717, -4.967808723449707, 1.3172574043273926, 8.409205436706543, -2.3731958866119385, -1.4444667100906372, -2.366511106491089, 0.03564453125, -0.151611328125, -0.822509765625
258, 1526787384, -4.956643104553223, 1.3009989261627197, 8.402153015136719, -2.2768023014068604, -1.438217043876648, -2.320075035095215, 0.036865234375, -0.152099609375, -0.822998046875
259, 1526804051, -4.958487510681152, 1.3141367435455322, 8.392335891723633, -2.2181363105773926, -1.3567814826965332, -2.265340805053711, 0.037353515625, -0.149169921875, -0.8251953125
260, 1526820718, -4.959880352020264, 1.3152329921722412, 8.408929824829102, -2.427443742752075, -1.3944321870803833, -2.2261152267456055, 0.036865234375, -0.151611328125, -0.824462890625
261, 1526837385, -4.963579177856445, 1.3182379007339478, 8.400920867919922, -2.412421703338623, -1.4361425638198853, -2.4069535732269287, 0.036376953125, -0.149658203125, -0.826171875
262, 1526854052, -4.957333564758301, 1.3171201944351196, 8.393980026245117, -2.5903921127319336, -1.4472458362579346, -2.466029644012451, 0.036865234375, -0.151123046875, -0.823974609375
263, 1526870719, -4.962818622589111, 1.3257262706756592, 8.414511680603027, -2.685620069503784, -1.4558261632919312, -2.4492530822753906, 0.036865234375, -0.151611328125, -0.823486328125
264, 1526887386, -4.947392463684082, 1.3237699270248413, 8.403615951538086, -2.6975808143615723, -1.4583231210708618, -2.4678475856781006, 0.037109375, -0.150146484375, -0.821044921875
265, 1526904053, -4.956286430358887, 1.316768765449524, 8.387605667114258, -2.6491730213165283, -1.411118984222412, -2.4433109760284424, 0.03515625, -0.150634765625, -0.82568359375
266, 1526920720, -4.96351957321167, 1.303288459777832, 8.40457820892334, -2.682725667953491, -1.4353998899459839, -2.463865280151367, 0.03466796875, -0.150634765625, -0.8232421875
267, 1526937387, -4.947444915771484, 1.3188198804855347, 8.398381233215332, -2.6117658615112305, -1.3506475687026978, -2.458601951599121, 0.037841796875, -0.149658203125, -0.824951171875
268, 1526954054, -4.948907375335693, 1.2901668548583984, 8.375605583190918, -2.6262495517730713, -1.4226832389831543, -2.4123706817626953, 0.037841796875, -0.151123046875, -0.821533203125
269, 1526970721, -4.9705705642700195, 1.3087211847305298, 8.406198501586914, -2.529958486557007, -1.3168129920959473, -2.2917861938476562, 0.036865234375, -0.150634765625, -0.822998046875
270, 1526987388, -4.951459884643555, 1.321444034576416, 8.410799026489258, -2.506932497024536, -1.2794568538665771, -2.362131357192993, 0.036865234375, -0.152587890625, -0.822998046875
271, 1527004055, -4.96862268447876, 1.3146048784255981, 8.394035339355469, -2.4484975337982178, -1.3762344121932983, -2.436216115951538, 0.036376953125, -0.149169921875, -0.82421875
272, 1527020722, -4.959369659423828, 1.311560034751892, 8.388608932495117, -2.5217626094818115, -1.4582462310791016, -2.381981372833252, 0.038330078125, -0.151123046875, -0.82666015625
273, 1527037389, -4.965490341186523, 1.2904596328735352, 8.391021728515625, -2.461585283279419, -1.4565045833587646, -2.4332830905914307, 0.037353515625, -0.152099609375, -0.823974609375
274, 1527054056, -4.960075378417969, 1.3039705753326416, 8.384469985961914, -2.4749677181243896, -1.4439671039581299, -2.4003195762634277, 0.03662109375, -0.150146484375, -0.822021484375
275, 1527070723, -4.966532230377197, 1.3225691318511963, 8.383670806884766, -2.394057273864746, -1.5076531171798706, -2.365563154220581, 0.037841796875, -0.14892578125, -0.820556640625
276, 1527087390, -4.958231449127197, 1.3120555877685547, 8.401673316955566, -2.476440668106079, -1.7032444477081299, -2.387782573699951, 0.0361328125, -0.151611328125, -0.822998046875
277, 1527104057, -4.9657182693481445, 1.306483268737793, 8.389876365661621, -2.6680498123168945, -1.7382830381393433, -2.4885687828063965, 0.037353515625, -0.150146484375, -0.823974609375
278, 1527120724, -4.951679229736328, 1.3177424669265747, 8.411575317382812, -2.6264162063598633, -1.6752885580062866, -2.4719972610473633, 0.0341796875, -0.1494140625, -0.82421875
279, 1527137391, -4.960208415985107, 1.3165093660354614, 8.41152572631836, -2.6324994564056396, -1.7226719856262207, -2.524055004119873, 0.036865234375, -0.151123046875, -0.824462890625
280, 1527154058, -4.961991786956787, 1.315402865409851, 8.418553352355957, -2.649339437484741, -1.6716771125793457, -2.488671064376831, 0.038818359375, -0.150146484375, -0.822998046875
281, 1527170725, -4.961744785308838, 1.3200411796569824, 8.399855613708496, -2.5470683574676514, -1.6506619453430176, -2.5341079235076904, 0.03564453125, -0.152099609375, -0.821533203125
282, 1527187392, -4.954757213592529, 1.3119912147521973, 8.408293724060059, -2.6100239753723145, -1.7202643156051636, -2.5485024452209473, 0.03564453125, -0.150146484375, -0.82373046875
283, 1527204059, -4.963407039642334, 1.3209562301635742, 8.400238037109375, -2.461329698562622, -1.6620084047317505, -2.5163073539733887, 0.037353515625, -0.150634765625, -0.821533203125
284, 1527220726, -4.95099401473999, 1.3091049194335938, 8.40644359588623, -2.452672243118286, -1.6716896295547485, -2.513502359390259, 0.035400390625, -0.149169921875, -0.826171875
285, 1527237393, -4.955099105834961, 1.3101431131362915, 8.407363891601562, -2.4673871994018555, -1.5303335189819336, -2.487941265106201, 0.036865234375, -0.148681640625, -0.823974609375
286, 1527254060, -4.957679748535156, 1.3088189363479614, 8.380633354187012, -2.470857620239258, -1.553436040878296, -2.572065830230713, 0.03564453125, -0.153564453125, -0.822998046875
287, 1527270727, -4.946225166320801, 1.2966833114624023, 8.386096954345703, -2.5774190425872803, -1.453713059425354, -2.515897512435913, 0.03515625, -0.151123046875, -0.82373046875
288, 1527287394, -4.9650092124938965, 1.3050397634506226, 8.4002685546875, -2.547093629837036, -1.5199474096298218, -2.461354970932007, 0.036376953125, -0.150146484375, -0.822998046875
289, 1527304061, -4.966371536254883, 1.3092033863067627, 8.404387474060059, -2.5827338695526123, -1.516707420349121, -2.5153212547302246, 0.03564453125, -0.152099609375, -0.824462890625
290, 1527320728, -4.96652889251709, 1.3205300569534302, 8.414007186889648, -2.647726058959961, -1.4669419527053833, -2.4493045806884766, 0.037353515625, -0.149658203125, -0.8251953125
291, 1527337395, -4.960177898406982, 1.307023048400879, 8.40334701538086, -2.6942644119262695, -1.614176630973816, -2.473598003387451, 0.035400390625, -0.150146484375, -0.82666015625
292, 1527354062, -4.945088863372803, 1.3129065036773682, 8.407415390014648, -2.642321825027466, -1.6792458295822144, -2.527346134185791, 0.036865234375, -0.150146484375, -0.823486328125
293, 1527370729, -4.953882217407227, 1.2984296083450317, 8.410799026489258, -2.5640621185302734, -1.6385085582733154, -2.459280252456665, 0.0361328125, -0.149658203125, -0.822998046875
294, 1527387396, -4.946756839752197, 1.3087676763534546, 8.40849781036377, -2.5879077911376953, -1.633642315864563, -2.4526596069335938, 0.036376953125, -0.149658203125, -0.822998046875
295, 1527404063, -4.968050956726074, 1.3191618919372559, 8.404751777648926, -2.6712896823883057, -1.6326946020126343, -2.5297539234161377, 0.03564453125, -0.150634765625, -0.8251953125
296, 1527420730, -4.9536051750183105, 1.3018087148666382, 8.407970428466797, -2.6845955848693848, -1.553141474723816, -2.477695941925049, 0.035888671875, -0.149658203125, -0.82421875
297, 1527437397, -4.947325229644775, 1.3072715997695923, 8.405935287475586, -2.573871612548828, -1.5009043216705322, -2.4946389198303223, 0.035400390625, -0.152099609375, -0.826171875
298, 1527454064, -4.952328681945801, 1.305538296699524, 8.399508476257324, -2.6382877826690674, -1.5073972940444946, -2.5128369331359863, 0.03515625, -0.150146484375, -0.82373046875
299, 1527470731, -4.95911979675293, 1.3110312223434448, 8.40927505493164, -2.590212821960449, -1.483961582183838, -2.431375503540039, 0.037353515625, -0.152099609375, -0.822998046875
300, 1527487398, -4.959324359893799, 1.298620343208313, 8.381977081298828, -2.5582735538482666, -1.5091133117675781, -2.511030912399292, 0.0341796875, -0.14892578125, -0.821533203125
301, 1527504065, -4.939460754394531, 1.310112714767456, 8.415263175964355, -2.5659449100494385, -1.6285325288772583, -2.5274102687835693, 0.03564453125, -0.14892578125, -0.8232421875
302, 1527520732, -4.9590606689453125, 1.3048372268676758, 8.400367736816406, -2.7421343326568604, -1.622129201889038, -2.461637020111084, 0.03466796875, -0.150634765625, -0.826171875
303, 1527537399, -4.948512554168701, 1.317504644393921, 8.399711608886719, -2.7298531532287598, -1.5528854131698608, -2.517075538635254, 0.035400390625, -0.149658203125, -0.826171875
304, 1527554066, -4.9508185386657715, 1.2912031412124634, 8.40532398223877, -2.6336007118225098, -1.599103569984436, -2.518509864807129, 0.036865234375, -0.149658203125, -0.824462890625
305, 1527570733, -4.938053131103516, 1.2936111688613892, 8.392600059509277, -2.6231250762939453, -1.5220091342926025, -2.5116841793060303, 0.035888671875, -0.151123046875, -0.824462890625
306, 1527587400, -4.964265823364258, 1.2987018823623657, 8.407584190368652, -2.5615389347076416, -1.529219150543213, -2.5185608863830566, 0.0361328125, -0.151123046875, -0.823486328125
307, 1527604067, -4.95861291885376, 1.3100711107254028, 8.429189682006836, -2.4886837005615234, -1.5390543937683105, -2.400038003921509, 0.03466796875, -0.151123046875, -0.822998046875
308, 1527620734, -4.948531627655029, 1.3055076599121094, 8.411816596984863, -2.549424171447754, -1.5554721355438232, -2.418415069580078, 0.037841796875, -0.150146484375, -0.825439453125
309, 1527637401, -4.959251880645752, 1.3022379875183105, 8.407602310180664, -2.535580635070801, -1.4508442878723145, -2.367586851119995, 0.036865234375, -0.149658203125, -0.82470703125
310, 1527654068, -4.961508274078369, 1.3094241619110107, 8.404414176940918, -2.403610944747925, -1.4650208950042725, -2.3555104732513428, 0.0361328125, -0.1494140625, -0.822509765625
311, 1527670735, -4.938122749328613, 1.3188844919204712, 8.399654388427734, -2.4476776123046875, -1.4616014957427979, -2.3471474647521973, 0.03564453125, -0.149658203125, -0.822998046875
312, 1527687402, -4.943100452423096, 1.3085062503814697, 8.40169906616211, -2.584270477294922, -1.499111533164978, -2.4173784255981445, 0.03515625, -0.151123046875, -0.822509765625
313, 1527704069, -4.9426093101501465, 1.2963848114013672, 8.410065650939941, -2.519354820251465, -1.5081270933151245, -2.434410333633423, 0.0361328125, -0.150634765625, -0.822509765625
314, 1527720736, -4.956111431121826, 1.310340404510498, 8.422210693359375, -2.4987878799438477, -1.443403720855713, -2.371492624282837, 0.036376953125, -0.148681640625, -0.8251953125
315, 1527737403, -4.957210063934326, 1.3099747896194458, 8.42618465423584, -2.4985191822052, -1.5711984634399414, -2.4059293270111084, 0.03515625, -0.149658203125, -0.8251953125
316, 1527754070, -4.9538893699646, 1.3035260438919067, 8.399410247802734, -2.4499447345733643, -1.5299491882324219, -2.33799147605896, 0.03515625, -0.150146484375, -0.8251953125
317, 1527770737, -4.943022727966309, 1.291803002357483, 8.391014099121094, -2.4191837310791016, -1.5686115026474, -2.362861394882202, 0.036376953125, -0.150146484375, -0.823974609375
318, 1527787404, -4.9540910720825195, 1.3003698587417603, 8.401363372802734, -2.3620288372039795, -1.6206692457199097, -2.3463025093078613, 0.036376953125, -0.151123046875, -0.823974609375
319, 1527804071, -4.96314811706543, 1.296572208404541, 8.400270462036133, -2.17606782913208, -1.5574698448181152, -2.2594242095947266, 0.03515625, -0.150146484375, -0.82421875
320, 1527820738, -4.95130729675293, 1.3080946207046509, 8.40414047241211, -2.0252602100372314, -1.6767096519470215, -2.2266016006469727, 0.03369140625, -0.149658203125, -0.8232421875
321, 1527837405, -4.947511196136475, 1.3382129669189453, 8.408965110778809, -2.203652858734131, -1.7474650144577026, -2.3018136024475098, 0.036376953125, -0.150146484375, -0.82568359375
322, 1527854072, -4.958427906036377, 1.3040647506713867, 8.401714324951172, -2.301544189453125, -1.7388460636138916, -2.331754446029663, 0.03466796875, -0.152099609375, -0.822998046875
323, 1527870739, -4.9671950340271, 1.3217743635177612, 8.427994728088379, -2.2644059658050537, -1.5286940336227417, -2.3806235790252686, 0.0361328125, -0.153076171875, -0.822998046875
324, 1527887406, -4.965408802032471, 1.291527271270752, 8.385939598083496, -1.8985539674758911, -1.5060908794403076, -2.1925368309020996, 0.03564453125, -0.151123046875, -0.822509765625
325, 1527904073, -4.935549736022949, 1.3257582187652588, 8.390478134155273, -1.8791908025741577, -1.64419424533844, -2.1799604892730713, 0.03515625, -0.151123046875, -0.8251953125
326, 1527920740, -4.951008319854736, 1.3369953632354736, 8.43300724029541, -2.047811985015869, -1.763959288597107, -2.3165788650512695, 0.03466796875, -0.152099609375, -0.82421875
327, 1527937407, -4.942775249481201, 1.319075107574463, 8.41675853729248, -2.3836846351623535, -1.8044277429580688, -2.3955562114715576, 0.035888671875, -0.152099609375, -0.82568359375
328, 1527954074, -4.939681053161621, 1.3178447484970093, 8.395496368408203, -2.480180501937866, -1.7669049501419067, -2.4188764095306396, 0.035888671875, -0.152099609375, -0.82568359375
329, 1527970741, -4.942449569702148, 1.3195222616195679, 8.42403507232666, -2.519188404083252, -1.8286446332931519, -2.455310344696045, 0.03369140625, -0.150146484375, -0.8232421875
330, 1527987408, -4.9518866539001465, 1.3303685188293457, 8.411707878112793, -2.6860804557800293, -1.8554733991622925, -2.5027318000793457, 0.03369140625, -0.149658203125, -0.82421875
331, 1528004075, -4.9594197273254395, 1.3185955286026, 8.403882026672363, -2.77425217628479, -1.9415448904037476, -2.450866460800171, 0.0341796875, -0.150634765625, -0.82275390625
332, 1528020742, -4.954302787780762, 1.3068450689315796, 8.39656925201416, -2.402292251586914, -1.9919257164001465, -2.4513661861419678, 0.036376953125, -0.151611328125, -0.824951171875
333, 1528037409, -4.947432518005371, 1.329530954360962, 8.402177810668945, -2.2015140056610107, -1.9470903873443604, -2.394531488418579, 0.035888671875, -0.149658203125, -0.82568359375
334, 1528054076, -4.934744834899902, 1.312717318534851, 8.410128593444824, -2.4300692081451416, -1.9549282789230347, -2.4260098934173584, 0.03466796875, -0.151611328125, -0.82470703125
335, 1528070743, -4.940212726593018, 1.2577763795852661, 8.4325590133667, -2.423191547393799, -1.9487422704696655, -2.661517858505249, 0.0341796875, -0.14990234375, -0.821533203125
336, 1528087410, -4.940008163452148, 1.3669525384902954, 8.41124439239502, -2.185288429260254, -2.03070330619812, -2.6868879795074463, 0.03369140625, -0.152099609375, -0.8232421875
337, 1528104077, -4.9415459632873535, 1.3340190649032593, 8.403735160827637, -2.0764858722686768, -2.0863468647003174, -2.428583860397339, 0.033203125, -0.151123046875, -0.82470703125
338, 1528120744, -4.936540126800537, 1.313158392906189, 8.411064147949219, -2.288456678390503, -1.90509831905365, -2.3177831172943115, 0.033203125, -0.151123046875, -0.8271484375
339, 1528137411, -4.941368103027344, 1.3180793523788452, 8.413007736206055, -1.9256395101547241, -1.943299412727356, -2.2543656826019287, 0.03466796875, -0.149169921875, -0.82568359375
340, 1528154078, -4.938042640686035, 1.3168156147003174, 8.411917686462402, -1.749219298362732, -2.0391933917999268, -2.1923317909240723, 0.03271484375, -0.152587890625, -0.822265625
341, 1528170745, -4.925001621246338, 1.3300153017044067, 8.394416809082031, -1.8690353631973267, -1.9997754096984863, -2.2930026054382324, 0.0341796875, -0.152099609375, -0.822998046875
342, 1528187412, -4.916088581085205, 1.3308215141296387, 8.410131454467773, -2.1688194274902344, -1.8841984272003174, -2.34158992767334, 0.033203125, -0.150634765625, -0.82373046875
343, 1528204079, -4.932287693023682, 1.3238413333892822, 8.407852172851562, -2.1539127826690674, -1.7878049612045288, -2.3887429237365723, 0.033203125, -0.151611328125, -0.82421875
344, 1528220746, -4.921397686004639, 1.3227733373641968, 8.410787582397461, -2.0110580921173096, -1.8603787422180176, -2.269246816635132, 0.03173828125, -0.150146484375, -0.82568359375
345, 1528237413, -4.933870315551758, 1.3386735916137695, 8.405309677124023, -2.1924984455108643, -1.8740556240081787, -2.32474946975708, 0.033203125, -0.1494140625, -0.8251953125
346, 1528254080, -4.925622940063477, 1.33421790599823, 8.428056716918945, -2.3747074604034424, -1.8232784271240234, -2.530048131942749, 0.03515625, -0.152099609375, -0.823486328125
347, 1528270747, -4.931605815887451, 1.3364968299865723, 8.433393478393555, -2.4584994316101074, -1.921862006187439, -2.4596006870269775, 0.0341796875, -0.151611328125, -0.82421875
348, 1528287414, -4.930966854095459, 1.3385388851165771, 8.415212631225586, -2.5432770252227783, -2.1315019130706787, -2.5645225048065186, 0.03125, -0.153076171875, -0.82373046875
349, 1528304081, -4.9069085121154785, 1.3333958387374878, 8.408469200134277, -2.7544920444488525, -1.9974702596664429, -2.6414248943328857, 0.03466796875, -0.149658203125, -0.82373046875
350, 1528320748, -4.920263767242432, 1.306155800819397, 8.43765926361084, -2.8523967266082764, -1.8658339977264404, -2.590494394302368, 0.0322265625, -0.153076171875, -0.828125
351, 1528337415, -4.932713985443115, 1.3194254636764526, 8.419778823852539, -2.5201876163482666, -1.8385951519012451, -2.570119619369507, 0.03125, -0.152587890625, -0.82421875
352, 1528354082, -4.915545463562012, 1.3360081911087036, 8.42393684387207, -2.4855334758758545, -2.013453245162964, -2.469512701034546, 0.03076171875, -0.154052734375, -0.8271484375
353, 1528370749, -4.914406776428223, 1.3427774906158447, 8.424001693725586, -2.6802408695220947, -2.008739948272705, -2.618347644805908, 0.03369140625, -0.153076171875, -0.822998046875
354, 1528387416, -4.913574695587158, 1.3443360328674316, 8.41084098815918, -2.8165645599365234, -1.9869050979614258, -2.7191851139068604, 0.03271484375, -0.151611328125, -0.82275390625
355, 1528404083, -4.928521633148193, 1.3405977487564087, 8.402547836303711, -2.953336715698242, -2.144871711730957, -2.6555633544921875, 0.0302734375, -0.151611328125, -0.822265625
356, 1528420750, -4.909315586090088, 1.3602700233459473, 8.408269882202148, -3.262481689453125, -2.3920340538024902, -2.8086373805999756, 0.0322265625, -0.152099609375, -0.82568359375
357, 1528437417, -4.893227577209473, 1.3254207372665405, 8.41655158996582, -3.367263078689575, -2.2744717597961426, -2.8076512813568115, 0.03173828125, -0.151123046875, -0.82763671875
358, 1528454084, -4.916714191436768, 1.314041256904602, 8.401676177978516, -2.543942928314209, -2.1616220474243164, -2.4551563262939453, 0.0302734375, -0.15087890625, -0.82177734375
359, 1528470751, -4.904299736022949, 1.316537857055664, 8.43285846710205, -2.3269906044006348, -2.019036293029785, -2.153707981109619, 0.0322265625, -0.151123046875, -0.82421875
360, 1528487418, -4.884522438049316, 1.3399460315704346, 8.397790908813477, -2.9187464714050293, -2.208967447280884, -2.437176465988159, 0.0322265625, -0.151611328125, -0.82177734375
361, 1528504085, -4.834878921508789, 1.3036128282546997, 8.377006530761719, -3.1393744945526123, -2.5088281631469727, -2.6505308151245117, 0.02978515625, -0.150634765625, -0.82470703125
362, 1528520752, -4.846341609954834, 1.19290292263031, 8.397049903869629, -1.375914216041565, -1.2857574224472046, -1.8903836011886597, 0.03125, -0.150146484375, -0.82568359375
363, 1528537419, -4.869123935699463, 1.3179898262023926, 8.37208366394043, 0.6613134741783142, 0.39974379539489746, -0.7847474217414856, 0.03125, -0.152099609375, -0.8232421875
364, 1528554086, -4.924673080444336, 1.2755494117736816, 8.464159965515137, 0.6181304454803467, 0.48915770649909973, -0.508540153503418, 0.03173828125, -0.154052734375, -0.8251953125
365, 1528570753, -4.934568881988525, 1.2850135564804077, 8.44084358215332, 0.39706727862358093, 0.24960213899612427, -0.4274631142616272, 0.0302734375, -0.154052734375, -0.8232421875
366, 1528587420, -4.874266624450684, 1.3204716444015503, 8.38949966430664, -0.062354110181331635, -0.19192874431610107, -0.597697913646698, 0.03173828125, -0.154541015625, -0.8232421875
367, 1528604087, -4.881598472595215, 1.3245307207107544, 8.420031547546387, -0.8257278800010681, -0.7324720621109009, -0.8201954960823059, 0.033203125, -0.153076171875, -0.8232421875
368, 1528620754, -4.97569465637207, 1.4043974876403809, 8.370859146118164, -1.8750417232513428, -1.7613340616226196, -1.2469799518585205, 0.0322265625, -0.156005859375, -0.826171875
369, 1528637421, -4.9268293380737305, 1.4282965660095215, 8.452452659606934, -2.9205009937286377, -2.856597423553467, -1.5880002975463867, 0.0322265625, -0.156982421875, -0.82666015625
370, 1528654088, -4.937681674957275, 1.413893222808838, 8.40858268737793, -3.656904697418213, -3.648951768875122, -2.190603017807007, 0.0302734375, -0.155517578125, -0.822265625
371, 1528670755, -4.994755268096924, 1.4517970085144043, 8.44215202331543, -5.478033065795898, -5.450832366943359, -2.929184675216675, 0.02978515625, -0.154052734375, -0.82373046875
372, 1528687422, -4.955026149749756, 1.4794291257858276, 8.448295593261719, -7.4508137702941895, -6.900575637817383, -3.8348238468170166, 0.028076171875, -0.151611328125, -0.8212890625
373, 1528704089, -4.873798847198486, 1.291457176208496, 8.496255874633789, -7.351872444152832, -6.1084771156311035, -3.83832049369812, 0.027099609375, -0.151611328125, -0.82275390625
374, 1528720756, -4.835090637207031, 1.2960083484649658, 8.49128532409668, -6.002157688140869, -4.367850303649902, -3.3629353046417236, 0.026611328125, -0.14892578125, -0.826904296875
375, 1528737423, -4.7700605392456055, 1.1848782300949097, 8.486458778381348, -3.266554594039917, -2.2998287677764893, -2.5406394004821777, 0.02734375, -0.15087890625, -0.824951171875
376, 1528754090, -4.795559406280518, 1.211214303970337, 8.465948104858398, 0.15409240126609802, 0.3471609354019165, -1.4035247564315796, 0.027099609375, -0.152587890625, -0.824462890625
377, 1528770757, -4.8819756507873535, 1.2939987182617188, 8.452167510986328, 1.1395539045333862, 1.286288857460022, -0.9788917303085327, 0.029296875, -0.152587890625, -0.82275390625
378, 1528787424, -4.902400016784668, 1.3354134559631348, 8.414977073669434, 0.9461010694503784, 0.7369861006736755, -0.8056473731994629, 0.0283203125, -0.1513671875, -0.822265625
379, 1528804091, -4.811373233795166, 1.3432397842407227, 8.40939998626709, 1.2550541162490845, 1.1780880689620972, -0.6563509702682495, 0.029296875, -0.154541015625, -0.82421875
380, 1528820758, -4.837797164916992, 1.386439561843872, 8.418072700500488, 1.420332908630371, 1.929744005203247, -0.7645519375801086, 0.02978515625, -0.152587890625, -0.8251953125
381, 1528837425, -4.854986667633057, 1.207815408706665, 8.422210693359375, 2.4019014835357666, 2.731562614440918, -0.20999854803085327, 0.029296875, -0.156494140625, -0.82470703125
382, 1528854092, -4.8595757484436035, 1.4044663906097412, 8.434146881103516, 3.6891441345214844, 4.228548049926758, 0.519432008266449, 0.03076171875, -0.157958984375, -0.822021484375
383, 1528870759, -4.97877836227417, 1.4466326236724854, 8.40160846710205, 3.2758963108062744, 3.7893028259277344, 0.2502553164958954, 0.03271484375, -0.159423828125, -0.820068359375
384, 1528887426, -4.939842224121094, 1.4442001581192017, 8.393128395080566, 2.489189386367798, 2.8791301250457764, 0.006345546338707209, 0.033203125, -0.158935546875, -0.820068359375
385, 1528904093, -4.889256000518799, 1.52676522731781, 8.40433120727539, 1.6799945831298828, 2.833833694458008, -0.4798666834831238, 0.03369140625, -0.16064453125, -0.822509765625
386, 1528920760, -4.920526027679443, 1.5125852823257446, 8.363249778747559, 1.7778477668762207, 3.2211363315582275, -0.8764793276786804, 0.035400390625, -0.15966796875, -0.822509765625
387, 1528937427, -4.916496753692627, 1.504195213317871, 8.367538452148438, 1.8514845371246338, 3.731174945831299, -0.9785972833633423, 0.03466796875, -0.16259765625, -0.822509765625
388, 1528954094, -5.031501770019531, 1.5083599090576172, 8.3399076461792, 1.9929307699203491, 4.087076663970947, -0.7616961598396301, 0.038330078125, -0.1650390625, -0.82080078125
389, 1528970761, -5.044995307922363, 1.4959512948989868, 8.337459564208984, 1.7521841526031494, 3.2860007286071777, -0.5671164393424988, 0.041259765625, -0.1640625, -0.818603515625
390, 1528987428, -4.983325004577637, 1.5360952615737915, 8.348200798034668, 1.7548350095748901, 3.1035356521606445, -0.422161340713501, 0.040771484375, -0.16650390625, -0.82080078125
391, 1529004095, -4.88694429397583, 1.5549043416976929, 8.334735870361328, 1.525140404701233, 3.657794713973999, -0.5656565427780151, 0.040283203125, -0.166015625, -0.8212890625
392, 1529020762, -4.914443492889404, 1.6775336265563965, 8.353288650512695, 0.6656805276870728, 4.657227993011475, -2.1380205154418945, 0.041748046875, -0.166748046875, -0.820556640625
393, 1529037429, -5.076711654663086, 1.539076805114746, 8.293597221374512, 0.40078115463256836, 5.524487018585205, -3.1788437366485596, 0.04443359375, -0.166259765625, -0.823486328125
394, 1529054096, -5.084523677825928, 1.4747129678726196, 8.288333892822266, 1.2740720510482788, 6.720524787902832, -2.9081180095672607, 0.044921875, -0.169677734375, -0.818359375
395, 1529070763, -5.041753768920898, 1.549497127532959, 8.28980541229248, 2.501394748687744, 8.269120216369629, -2.0709924697875977, 0.0478515625, -0.170654296875, -0.81787109375
396, 1529087430, -5.044126510620117, 1.5854763984680176, 8.248004913330078, 4.330194473266602, 10.879916191101074, -2.2097113132476807, 0.05126953125, -0.169677734375, -0.816650390625
397, 1529104097, -4.8993425369262695, 1.6095170974731445, 8.300448417663574, 6.204124450683594, 14.983012199401855, -2.9055325984954834, 0.054931640625, -0.17431640625, -0.815673828125
398, 1529120764, -4.790874004364014, 1.5602943897247314, 8.311188697814941, 8.601266860961914, 21.43075942993164, -3.49124813079834, 0.060546875, -0.17626953125, -0.818359375
399, 1529137431, -4.544521331787109, 1.4349733591079712, 8.353076934814453, 13.007149696350098, 35.56867599487305, -3.961984872817993, 0.0673828125, -0.17724609375, -0.814697265625
400, 1529154098, -4.870398998260498, 1.3306267261505127, 8.390623092651367, 13.755473136901855, 54.8273811340332, -2.2251410484313965, 0.0791015625, -0.182373046875, -0.814208984375
401, 1529170765, -5.069842338562012, 1.5997306108474731, 8.039487838745117, 15.933609008789062, 71.56655883789062, -3.0393757820129395, 0.09716796875, -0.18505859375, -0.80810546875
402, 1529187432, -5.346748352050781, 2.1105806827545166, 8.018253326416016, 12.618244171142578, 88.52678680419922, -10.816039085388184, 0.11572265625, -0.188232421875, -0.802734375
403, 1529204099, -5.553294658660889, 2.040466785430908, 8.075766563415527, 12.423754692077637, 104.04228973388672, -21.351171493530273, 0.1396484375, -0.190673828125, -0.799072265625
404, 1529220766, -5.466150760650635, 1.9062491655349731, 8.268795013427734, 12.890674591064453, 125.00074005126953, -29.910181045532227, 0.16845703125, -0.19189453125, -0.795166015625
405, 1529237433, -5.584582328796387, 2.0794618129730225, 8.141528129577637, 5.4748311042785645, 152.68699645996094, -40.4318733215332, 0.203857421875, -0.192138671875, -0.786865234375
406, 1529254100, -6.015443801879883, 1.961072325706482, 7.792179584503174, 2.2113053798675537, 183.25448608398438, -51.277008056640625, 0.24755859375, -0.188232421875, -0.76953125
407, 1529270767, -6.310323715209961, 1.7615705728530884, 7.704697608947754, -7.776351451873779, 218.78199768066406, -59.720252990722656, 0.300048828125, -0.181640625, -0.748779296875
408, 1529287434, -6.65741491317749, 1.7035837173461914, 7.572695732116699, -23.437219619750977, 265.0732421875, -65.77783966064453, 0.3544921875, -0.17138671875, -0.724853515625
409, 1529304101, -6.8540191650390625, 2.161803722381592, 7.789608478546143, -33.535438537597656, 333.1285400390625, -72.39972686767578, 0.423583984375, -0.156494140625, -0.688232421875
410, 1529320768, -9.039345741271973, 2.40320086479187, 8.60392951965332, -30.3967227935791, 404.5234375, -80.1058120727539, 0.502197265625, -0.135986328125, -0.636962890625
411, 1529337435, -14.331883430480957, 1.9692599773406982, 10.294958114624023, -22.86603546142578, 426.7061767578125, -92.80013275146484, 0.5830078125, -0.1171875, -0.56396484375
412, 1529354102, -15.972497940063477, 2.129732608795166, 10.11552619934082, 1.8303314447402954, 412.1409606933594, -96.26609802246094, 0.64697265625, -0.10009765625, -0.48388671875
413, 1529370769, -14.814361572265625, 3.4015352725982666, 10.19382095336914, 5.772662162780762, 421.2071838378906, -109.90654754638672, 0.70166015625, -0.080810546875, -0.390625
414, 1529387436, -14.855948448181152, 3.788851022720337, 12.87248706817627, -4.132011413574219, 413.71380615234375, -121.05970764160156, 0.748046875, -0.054931640625, -0.288330078125
415, 1529404103, -11.238302230834961, 4.037779331207275, 13.620185852050781, -9.834619522094727, 349.1446228027344, -109.56388092041016, 0.774169921875, -0.031982421875, -0.194580078125
416, 1529420770, -14.636472702026367, 2.2719430923461914, 18.96913719177246, -1.2441655397415161, 195.7703399658203, -78.80379486083984, 0.78515625, -0.011962890625, -0.1318359375
417, 1529437437, -23.289783477783203, 4.274098873138428, 28.973066329956055, 56.680908203125, -11.464805603027344, -67.08714294433594, 0.790283203125, 0.002197265625, -0.1015625
418, 1529454104, -5.608776092529297, 5.238984107971191, 16.466272354125977, 37.96989440917969, -180.86793518066406, -58.39580154418945, 0.787353515625, 0.01171875, -0.123046875
419, 1529470771, -0.17547568678855896, 3.169743299484253, 7.750245571136475, 7.442213535308838, -187.5050811767578, -66.2780532836914, 0.7880859375, 0.026123046875, -0.153076171875
420, 1529487438, -1.7108962535858154, 4.253298282623291, 7.663747787475586, -24.416723251342773, -169.2018585205078, -50.32949447631836, 0.7919921875, 0.039306640625, -0.1875
421, 1529504105, -5.3652729988098145, 6.038625717163086, 11.066062927246094, -59.59849548339844, -205.1163330078125, -33.33759307861328, 0.791015625, 0.049560546875, -0.22802734375
422, 1529520772, -6.951756000518799, 5.515097141265869, 11.572606086730957, -84.95729064941406, -281.2556457519531, -2.4982290267944336, 0.785888671875, 0.057861328125, -0.28857421875
423, 1529537439, -5.663624286651611, 3.4607489109039307, 8.365447044372559, -73.7784423828125, -337.08050537109375, 28.833404541015625, 0.769775390625, 0.0615234375, -0.37353515625
424, 1529554106, -6.711935520172119, 2.989293336868286, 7.414729595184326, -39.913368225097656, -358.42706298828125, 57.214107513427734, 0.732666015625, 0.050048828125, -0.470947265625
425, 1529570773, -8.790825843811035, 3.497236728668213, 7.63503360748291, -8.098990440368652, -382.6946105957031, 82.70367431640625, 0.665771484375, 0.033935546875, -0.565185546875
426, 1529587440, -8.276768684387207, 3.7164244651794434, 6.553241729736328, -0.16931135952472687, -400.81732177734375, 93.27569580078125, 0.580078125, 0.02734375, -0.63916015625
427, 1529604107, -7.854873180389404, 2.3923792839050293, 5.685644626617432, 7.488893508911133, -391.83074951171875, 92.52198791503906, 0.490234375, 0.023193359375, -0.6962890625
428, 1529620774, -9.465593338012695, 1.0651947259902954, 6.325755596160889, 40.189605712890625, -373.8342590332031, 89.59776306152344, 0.408935546875, 0.015380859375, -0.73974609375
429, 1529637441, -10.066896438598633, 0.28479886054992676, 6.095389366149902, 88.43070983886719, -350.4784851074219, 83.41136932373047, 0.326171875, -0.003662109375, -0.76416015625
430, 1529654108, -13.385494232177734, 0.9291926622390747, 6.864913463592529, 115.38133239746094, -290.98858642578125, 68.09134674072266, 0.263916015625, -0.0322265625, -0.76513671875
431, 1529670775, -18.894428253173828, 2.385408639907837, 12.57640552520752, 111.24632263183594, -264.5335998535156, 48.15764236450195, 0.23388671875, -0.060302734375, -0.758056640625
432, 1529687442, -18.75172996520996, 0.6076380610466003, 8.658037185668945, 116.65767669677734, -254.3771209716797, 52.13954162597656, 0.218994140625, -0.0947265625, -0.77490234375
433, 1529704109, -18.90825653076172, 0.20764990150928497, 5.6660919189453125, 117.62271881103516, -199.25772094726562, 54.73702621459961, 0.20751953125, -0.127197265625, -0.81103515625
434, 1529720776, -25.782045364379883, 1.208731770515442, 10.103218078613281, 106.9813232421875, -192.89329528808594, 69.5640869140625, 0.174072265625, -0.167236328125, -0.865966796875
435, 1529737443, -22.28987693786621, -0.8100718259811401, 2.7466180324554443, 84.69303894042969, -209.1213836669922, 93.3102798461914, 0.106201171875, -0.210205078125, -0.908935546875
436, 1529754110, -20.380170822143555, -2.895470142364502, -0.9981003999710083, 66.77641296386719, -170.29443359375, 106.79351043701172, 0.0302734375, -0.248046875, -0.932861328125
437, 1529770777, -20.160900115966797, -2.56463623046875, -0.1295156478881836, 43.636070251464844, -137.44468688964844, 115.41293334960938, -0.04052734375, -0.274658203125, -0.935302734375
438, 1529787444, -18.111530303955078, -3.0485904216766357, -2.0419912338256836, 6.1656036376953125, -104.69215393066406, 120.7994384765625, -0.1044921875, -0.289306640625, -0.931396484375
439, 1529804111, -18.326608657836914, -4.562855243682861, -4.129459857940674, -24.686185836791992, -61.76828384399414, 111.120849609375, -0.150634765625, -0.288330078125, -0.928955078125
440, 1529820778, -20.612428665161133, -5.900183200836182, -3.8304522037506104, -31.52519989013672, -30.291810989379883, 95.12557983398438, -0.181396484375, -0.279541015625, -0.921875
441, 1529837445, -18.503559112548828, -6.027322292327881, -4.2610673904418945, -40.912288665771484, 2.0439627170562744, 72.60578155517578, -0.199951171875, -0.26708984375, -0.923583984375
442, 1529854112, -6.279479026794434, -7.0678486824035645, 1.7602571249008179, -41.14382553100586, 80.82069396972656, -10.957191467285156, -0.19287109375, -0.258544921875, -0.936279296875
443, 1529870779, 6.673856258392334, 8.708256721496582, 15.561239242553711, -1.4724669456481934, 110.4271011352539, -34.97256851196289, -0.17431640625, -0.2607421875, -0.947265625
444, 1529887446, -3.3113298416137695, 2.9168477058410645, 7.933809757232666, 19.385169982910156, 183.27587890625, -62.44135665893555, -0.13525390625, -0.272216796875, -0.955810546875
445, 1529904113, -14.452242851257324, -4.827338695526123, 14.484871864318848, 20.691999435424805, 175.4288787841797, -47.350582122802734, -0.08935546875, -0.2841796875, -0.968017578125
446, 1529920780, -7.565863609313965, 2.8849213123321533, 10.822342872619629, 4.964217185974121, 146.20980834960938, -42.42386245727539, -0.0537109375, -0.287841796875, -0.973876953125
447, 1529937447, -7.1420698165893555, 5.3285040855407715, 9.109642028808594, -3.7104055881500244, 142.96371459960938, -29.2696590423584, -0.019775390625, -0.289306640625, -0.9814453125
448, 1529954114, -12.210166931152344, 9.183294296264648, 11.727315902709961, -53.142147064208984, 122.12621307373047, -44.033206939697266, 0.01171875, -0.280029296875, -0.988037109375
449, 1529970781, -5.515753746032715, 0.1965821534395218, 10.10058879852295, -73.38341522216797, 94.85074615478516, -45.18913269042969, 0.036865234375, -0.263671875, -0.9912109375
450, 1529987448, -6.955746650695801, -1.6998697519302368, 11.361661911010742, -47.026222229003906, 49.25188064575195, -18.999309539794922, 0.0576171875, -0.248779296875, -0.998291015625
451, 1530004115, -6.95862340927124, 1.9073375463485718, 9.973363876342773, -15.781773567199707, 32.60866928100586, -2.9684484004974365, 0.064697265625, -0.240234375, -1.001708984375
452, 1530020782, -5.281804084777832, 2.5243918895721436, 8.490105628967285, -3.826669931411743, 17.629531860351562, -0.1510254591703415, 0.070556640625, -0.24169921875, -1.002685546875
453, 1530037449, -5.365799903869629, 1.5067552328109741, 8.490026473999023, -2.1447317600250244, 11.620647430419922, -1.342029333114624, 0.07373046875, -0.2431640625, -1.0009765625
454, 1530054116, -5.284827709197998, 1.847377896308899, 8.460261344909668, 1.9539999961853027, 10.774056434631348, 1.4086158275604248, 0.07470703125, -0.244384765625, -1.00048828125
455, 1530070783, -5.312982559204102, 1.9354382753372192, 8.299211502075195, 5.250689506530762, 10.577122688293457, 2.926130771636963, 0.0771484375, -0.246337890625, -0.99560546875
456, 1530087450, -5.148741722106934, 2.141284465789795, 8.136735916137695, 3.4364893436431885, 10.732935905456543, 1.350116491317749, 0.080810546875, -0.245849609375, -0.999755859375
457, 1530104117, -5.172849178314209, 2.33565616607666, 8.033224105834961, 0.6208968758583069, 10.146698951721191, -1.0342155694961548, 0.082275390625, -0.249267578125, -0.99853515625
458, 1530120784, -5.080407619476318, 2.1817233562469482, 8.034175872802734, -2.441659450531006, 9.004416465759277, -3.7363052368164062, 0.085205078125, -0.2490234375, -1.00244140625
459, 1530137451, -5.152586936950684, 2.00923752784729, 8.084104537963867, -3.9262616634368896, 8.717867851257324, -5.472360134124756, 0.08935546875, -0.248779296875, -0.998291015625
460, 1530154118, -5.134398460388184, 2.111764430999756, 8.062905311584473, -5.836522579193115, 6.783533573150635, -7.914456844329834, 0.08984375, -0.247314453125, -0.998779296875
461, 1530170785, -5.232296943664551, 2.086555242538452, 8.064616203308105, -8.503998756408691, 5.513784408569336, -10.47316837310791, 0.0927734375, -0.246826171875, -0.99560546875
462, 1530187452, -5.354558944702148, 1.9717038869857788, 8.148162841796875, -9.5132417678833, 4.778059482574463, -11.259941101074219, 0.09423828125, -0.243896484375, -0.997802734375
463, 1530204119, -5.477022171020508, 1.8133951425552368, 8.21025276184082, -10.39702320098877, 4.546456813812256, -11.16908073425293, 0.09375, -0.239013671875, -0.997314453125
464, 1530220786, -5.454362869262695, 1.7384939193725586, 8.20539379119873, -10.183770179748535, 4.4457597732543945, -9.698870658874512, 0.0966796875, -0.238037109375, -0.999267578125
465, 1530237453, -5.270347595214844, 1.9239885807037354, 8.088006973266602, -18.055192947387695, 4.259891986846924, -12.457296371459961, 0.099853515625, -0.2353515625, -1.000732421875
466, 1530254120, -5.315675735473633, 2.3093886375427246, 8.045387268066406, -22.050010681152344, 2.3116614818573, -18.170379638671875, 0.101806640625, -0.22900390625, -1.002197265625
467, 1530270787, -5.012977123260498, 2.4179039001464844, 8.19385051727295, -22.614225387573242, -1.6630780696868896, -25.892396926879883, 0.102294921875, -0.220458984375, -1.00048828125
468, 1530287454, -5.41641902923584, 1.9093527793884277, 8.0427827835083, -25.171497344970703, 1.3750190734863281, -31.073963165283203, 0.103759765625, -0.21533203125, -1.00146484375
469, 1530304121, -5.338379859924316, 1.3693751096725464, 7.9742937088012695, -20.90296745300293, 7.505887031555176, -32.139625549316406, 0.107666015625, -0.20849609375, -1.00341796875
470, 1530320788, -5.085037708282471, 0.9840495586395264, 8.187122344970703, -5.3485941886901855, 22.674320220947266, -25.860431671142578, 0.11328125, -0.20654296875, -1.0068359375
471, 1530337455, -5.130234241485596, 0.5921627283096313, 8.308420181274414, 5.7196526527404785, 38.64263916015625, -15.851823806762695, 0.122314453125, -0.20556640625, -1.0009765625
472, 1530354122, -5.078358173370361, 0.8465423583984375, 8.254018783569336, 11.478983879089355, 56.19871520996094, -6.835494518280029, 0.141845703125, -0.20849609375, -0.998291015625
473, 1530370789, -5.376162528991699, 1.2746137380599976, 8.218582153320312, 12.973608016967773, 73.76025390625, -3.336094379425049, 0.158447265625, -0.213134765625, -0.9912109375
474, 1530387456, -5.551137924194336, 1.7011195421218872, 8.09846305847168, 13.2702054977417, 89.93016815185547, -4.818594455718994, 0.18212890625, -0.218994140625, -0.98583984375
475, 1530404123, -5.527214527130127, 1.5619912147521973, 7.997267723083496, 14.412800788879395, 110.03986358642578, -10.202432632446289, 0.211181640625, -0.218994140625, -0.978759765625
476, 1530420790, -5.697277545928955, 1.4075250625610352, 7.840547561645508, 15.857877731323242, 133.67733764648438, -14.9945650100708, 0.246337890625, -0.22314453125, -0.968994140625
477, 1530437457, -5.917680263519287, 1.2979272603988647, 7.686645030975342, 16.309314727783203, 157.58636474609375, -17.288198471069336, 0.2841796875, -0.224853515625, -0.955810546875
478, 1530454124, -5.963033199310303, 1.531377911567688, 7.720166206359863, 12.988286018371582, 189.51531982421875, -19.808679580688477, 0.333251953125, -0.228759765625, -0.933837890625
479, 1530470791, -6.088688373565674, 2.099893093109131, 7.69170618057251, 5.292119026184082, 237.48724365234375, -27.083425521850586, 0.389404296875, -0.226806640625, -0.907958984375
480, 1530487458, -6.743940830230713, 2.0304148197174072, 7.266928672790527, -7.4786882400512695, 301.6899108886719, -40.58793258666992, 0.457275390625, -0.218505859375, -0.87060546875
481, 1530504125, -7.307233810424805, 2.4026105403900146, 8.021472930908203, -13.143033027648926, 392.5294189453125, -47.85966110229492, 0.543701171875, -0.206298828125, -0.8115234375
482, 1530520792, -10.977166175842285, 2.5660924911499023, 10.591960906982422, 4.500392436981201, 460.9257507324219, -57.83968734741211, 0.638671875, -0.19482421875, -0.73095703125
483, 1530537459, -17.957645416259766, 1.5689213275909424, 11.472176551818848, 28.36311149597168, 456.57098388671875, -71.73319244384766, 0.72705078125, -0.17578125, -0.624755859375
484, 1530554126, -17.997875213623047, 3.674443006515503, 11.024106979370117, 44.055580139160156, 450.7170104980469, -74.9769515991211, 0.79248046875, -0.161865234375, -0.503173828125
485, 1530570793, -16.210861206054688, 4.522703647613525, 11.71833324432373, 24.194753646850586, 440.3677978515625, -99.69673919677734, 0.844482421875, -0.136474609375, -0.37353515625
486, 1530587460, -9.844686508178711, 3.358336925506592, 13.355977058410645, 33.736656188964844, 407.5811462402344, -94.32196044921875, 0.87451171875, -0.106689453125, -0.245849609375
487, 1530604127, -9.840142250061035, 1.4148526191711426, 17.695758819580078, 70.69864654541016, 276.5785827636719, -50.104732513427734, 0.887939453125, -0.091064453125, -0.14404296875
488, 1530620794, -31.397605895996094, 7.782851219177246, 28.82530403137207, 72.365478515625, 90.06755828857422, -65.60237121582031, 0.889404296875, -0.067626953125, -0.083740234375
489, 1530637461, -10.889161109924316, 6.1218109130859375, 22.389036178588867, 41.72983169555664, -182.2816162109375, -34.17183303833008, 0.89599609375, -0.059326171875, -0.103271484375
490, 1530654128, -0.4155518114566803, 2.676561117172241, 9.005680084228516, -0.5493534207344055, -238.3365020751953, -49.469051361083984, 0.901611328125, -0.050048828125, -0.166015625
491, 1530670795, -0.545181930065155, 2.2287096977233887, 5.336054801940918, -25.541147232055664, -225.26705932617188, -71.92897033691406, 0.8955078125, -0.03857421875, -0.2421875
492, 1530687462, -1.9794676303863525, 2.6293911933898926, 6.799163341522217, -41.8051872253418, -225.1238555908203, -74.98048400878906, 0.87548828125, -0.02490234375, -0.3193359375
493, 1530704129, -4.4240264892578125, 3.268793821334839, 8.451841354370117, -38.92599868774414, -266.39404296875, -59.67726135253906, 0.83056640625, -0.012451171875, -0.40234375
494, 1530720796, -4.915818214416504, 3.3574345111846924, 8.023287773132324, -19.336021423339844, -312.7767333984375, -27.26226806640625, 0.77001953125, -0.0048828125, -0.474609375
495, 1530737463, -6.1092424392700195, 4.314422130584717, 7.881348609924316, 3.001465320587158, -346.1476135253906, 17.295175552368164, 0.6962890625, -0.011962890625, -0.540283203125
496, 1530754130, -7.5967817306518555, 5.462627410888672, 8.30532169342041, 5.701626777648926, -378.1184997558594, 60.64542007446289, 0.6181640625, -0.02587890625, -0.59716796875
497, 1530770797, -7.725446701049805, 5.660384654998779, 7.39023494720459, -11.657587051391602, -403.12103271484375, 92.62442016601562, 0.52978515625, -0.0390625, -0.644287109375
498, 1530787464, -7.522324562072754, 4.423341274261475, 6.518202304840088, -31.50620460510254, -403.4449768066406, 109.4971923828125, 0.446044921875, -0.049560546875, -0.681884765625
499, 1530804131, -9.255035400390625, 1.6965069770812988, 7.04050350189209, -11.966496467590332, -393.2972106933594, 119.52906036376953, 0.366943359375, -0.057861328125, -0.70703125
500, 1530820798, -8.912067413330078, -1.2642240524291992, 5.098351001739502, 47.98173904418945, -357.0593566894531, 117.28562927246094, 0.29638671875, -0.078125, -0.72802734375
501, 1530837465, -12.557718276977539, -0.7936643958091736, 7.9397687911987305, 97.09701538085938, -282.1955261230469, 97.9534683227539, 0.246337890625, -0.11083984375, -0.733642578125
502, 1530854132, -20.351268768310547, 1.0762016773223877, 14.070693969726562, 103.03730010986328, -270.2197570800781, 61.99189758300781, 0.2099609375, -0.145751953125, -0.744384765625
503, 1530870799, -19.463136672973633, -0.06615301221609116, 7.613330364227295, 84.97348022460938, -259.25408935546875, 25.96285629272461, 0.1669921875, -0.17578125, -0.761474609375
504, 1530887466, -23.70146369934082, -1.6915614604949951, 7.219900131225586, 85.20579528808594, -211.62088012695312, 4.2798285484313965, 0.120849609375, -0.2021484375, -0.7822265625
505, 1530904133, -25.467697143554688, 0.05556324124336243, 6.033082962036133, 108.12702178955078, -210.0335693359375, 29.029985427856445, 0.0634765625, -0.2373046875, -0.794189453125
506, 1530920800, -23.15579605102539, 0.11588872224092484, 0.9511807560920715, 100.41858673095703, -193.72613525390625, 63.589698791503906, -0.0029296875, -0.267578125, -0.78955078125
507, 1530937467, -22.755203247070312, -2.360199213027954, -1.411287546157837, 87.2174301147461, -164.5714569091797, 89.8090591430664, -0.065673828125, -0.293701171875, -0.777587890625
508, 1530954134, -22.827476501464844, -3.5104422569274902, -2.228529214859009, 43.41379928588867, -144.9372100830078, 84.3194351196289, -0.11328125, -0.306640625, -0.76171875
509, 1530970801, -19.87509536743164, -5.142508029937744, -6.039499759674072, -25.340438842773438, -116.37940216064453, 53.511077880859375, -0.153564453125, -0.302734375, -0.748779296875
510, 1530987468, -18.013315200805664, -5.784358978271484, -8.655966758728027, -54.358428955078125, -57.84252166748047, 28.07181739807129, -0.17626953125, -0.29150390625, -0.74365234375
511, 1531004135, -23.606386184692383, -8.794147491455078, -13.753013610839844, -67.59154510498047, 67.26476287841797, -16.362829208374023, -0.17529296875, -0.275146484375, -0.747802734375
512, 1531020802, 0.7127478718757629, -8.45389461517334, 7.512402057647705, -18.05196762084961, 115.45967864990234, -44.49220275878906, -0.153076171875, -0.271728515625, -0.751953125
513, 1531037469, -8.985581398010254, 8.743104934692383, 20.523584365844727, 0.7997279167175293, 146.97250366210938, -82.86892700195312, -0.120849609375, -0.27490234375, -0.75390625
514, 1531054136, -7.097287178039551, 3.679666757583618, 4.374112129211426, 3.2900145053863525, 174.91355895996094, -43.892669677734375, -0.08203125, -0.27783203125, -0.757080078125
515, 1531070803, -11.283955574035645, -0.8499001860618591, 13.821414947509766, 10.95573902130127, 159.26458740234375, -21.3835391998291, -0.046875, -0.283447265625, -0.75439453125
516, 1531087470, -14.172592163085938, 10.928706169128418, 12.7333402633667, -15.120280265808105, 123.89490509033203, -24.324214935302734, -0.017822265625, -0.28076171875, -0.755126953125
517, 1531104137, -5.941569805145264, -0.790547788143158, 10.274737358093262, -41.7031364440918, 80.4833984375, -28.90166664123535, 0.002197265625, -0.27685546875, -0.757568359375
518, 1531120804, -5.623867034912109, 1.227405071258545, 9.686358451843262, -42.859375, 36.19097137451172, -18.52927589416504, 0.010009765625, -0.265380859375, -0.762939453125
519, 1531137471, -6.829037666320801, 1.0347129106521606, 9.874000549316406, -24.448442459106445, 19.67929458618164, -10.588177680969238, 0.02001953125, -0.258544921875, -0.765869140625
520, 1531154138, -5.44327449798584, 1.8921056985855103, 8.75651741027832, -8.801041603088379, 9.785664558410645, -4.875957012176514, 0.018798828125, -0.2548828125, -0.763916015625
521, 1531170805, -4.647226810455322, 1.549361228942871, 8.493961334228516, -5.8351640701293945, 5.928016185760498, -4.225533485412598, 0.02294921875, -0.25341796875, -0.7607421875
522, 1531187472, -4.541342258453369, 2.098296880722046, 8.37006664276123, -8.803973197937012, 4.183023452758789, -6.383853435516357, 0.0263671875, -0.25341796875, -0.763671875
523, 1531204139, -5.287741184234619, 1.7093229293823242, 8.412755012512207, -10.259660720825195, 2.182260751724243, -7.6724934577941895, 0.025390625, -0.255126953125, -0.76416015625
524, 1531220806, -5.048155307769775, 1.5391947031021118, 8.450101852416992, -10.158565521240234, 2.1838488578796387, -6.835508346557617, 0.02685546875, -0.24951171875, -0.764892578125
525, 1531237473, -4.9603071212768555, 1.5524256229400635, 8.489912986755371, -8.618741035461426, 3.9791200160980225, -5.516901016235352, 0.02685546875, -0.24951171875, -0.768310546875
526, 1531254140, -5.126677513122559, 1.7588266134262085, 8.379990577697754, -5.951791286468506, 4.010393142700195, -4.2633376121521, 0.029052734375, -0.25, -0.767333984375
527, 1531270807, -5.124688148498535, 1.8566362857818604, 8.355152130126953, -3.8500375747680664, 3.2214951515197754, -4.132033348083496, 0.029052734375, -0.2470703125, -0.766357421875
528, 1531287474, -5.141633987426758, 1.6659886837005615, 8.310851097106934, -3.3145527839660645, 2.4377593994140625, -4.740603923797607, 0.031494140625, -0.2470703125, -0.76416015625
529, 1531304141, -5.159069538116455, 1.6738520860671997, 8.285836219787598, -2.7153818607330322, 3.009882688522339, -4.40245246887207, 0.031494140625, -0.2470703125, -0.76611328125
530, 1531320808, -5.164327621459961, 1.7072621583938599, 8.277316093444824, -2.741340160369873, 2.8695380687713623, -4.140523433685303, 0.031494140625, -0.2470703125, -0.76611328125
531, 1531337475, -5.104164123535156, 1.7665083408355713, 8.236144065856934, -3.3977808952331543, 2.2565364837646484, -4.398238658905029, 0.034912109375, -0.24609375, -0.7666015625
532, 1531354142, -5.042069435119629, 1.7157926559448242, 8.242259979248047, -7.249766826629639, 0.9004212021827698, -6.5436248779296875, 0.035888671875, -0.2451171875, -0.7666015625
533, 1531370809, -5.078488826751709, 1.8867305517196655, 8.245081901550293, -12.041297912597656, -1.259621024131775, -10.654175758361816, 0.033935546875, -0.2451171875, -0.7666015625
534, 1531387476, -5.151421070098877, 1.6866945028305054, 8.283666610717773, -12.515427589416504, -2.8837625980377197, -12.409814834594727, 0.036376953125, -0.239990234375, -0.76513671875
535, 1531404143, -5.077467441558838, 1.668609380722046, 8.272041320800781, -10.973681449890137, -2.855985164642334, -12.089064598083496, 0.036865234375, -0.241455078125, -0.76708984375
536, 1531420810, -5.067099094390869, 1.6668651103973389, 8.288780212402344, -9.297137260437012, -2.7752411365509033, -12.689324378967285, 0.033447265625, -0.236083984375, -0.771240234375
537, 1531437477, -4.952088832855225, 1.576806664466858, 8.364619255065918, -4.148375988006592, 0.5077208280563354, -11.633294105529785, 0.037109375, -0.236083984375, -0.768798828125
538, 1531454144, -4.897512912750244, 1.4757378101348877, 8.378883361816406, -0.28509512543678284, 6.76747465133667, -10.526325225830078, 0.0380859375, -0.235595703125, -0.76708984375
539, 1531470811, -4.7305827140808105, 1.7734147310256958, 8.330158233642578, -5.640758037567139, 16.00716209411621, -13.10789680480957, 0.04345703125, -0.236083984375, -0.7685546875
540, 1531487478, -4.648208141326904, 1.4895408153533936, 8.320154190063477, -4.631831169128418, 27.478424072265625, -17.037105560302734, 0.049560546875, -0.239013671875, -0.767822265625
541, 1531504145, -5.096199035644531, 1.5229871273040771, 8.20639419555664, 2.4416584968566895, 43.11079025268555, -18.108139038085938, 0.05810546875, -0.236572265625, -0.76611328125
542, 1531520812, -4.923750400543213, 1.4823130369186401, 8.44217586517334, 8.236852645874023, 60.91875076293945, -20.546119689941406, 0.0712890625, -0.2392578125, -0.76708984375
543, 1531537479, -5.043422698974609, 1.5426874160766602, 8.597780227661133, 4.859665870666504, 81.13770294189453, -24.62835121154785, 0.089111328125, -0.23876953125, -0.762939453125
544, 1531554146, -5.3344645500183105, 1.2713935375213623, 8.172538757324219, 4.580532550811768, 102.36214447021484, -27.747756958007812, 0.11376953125, -0.240478515625, -0.758544921875
545, 1531570813, -5.557338714599609, 1.17006254196167, 8.080320358276367, 7.063735485076904, 123.09794616699219, -29.470590591430664, 0.140380859375, -0.2412109375, -0.752685546875
546, 1531587480, -5.503807544708252, 1.1153331995010376, 7.977650165557861, 8.80046272277832, 145.7219696044922, -29.545150756835938, 0.172607421875, -0.242431640625, -0.74462890625
547, 1531604147, -5.518552780151367, 1.0344750881195068, 8.06033992767334, 11.064297676086426, 177.01222229003906, -28.3298282623291, 0.21044921875, -0.2431640625, -0.73095703125
548, 1531620814, -5.609726905822754, 1.214707851409912, 8.055184364318848, 8.982748031616211, 222.48153686523438, -29.523155212402344, 0.256103515625, -0.243408203125, -0.71630859375
549, 1531637481, -6.214163303375244, 1.3907278776168823, 7.668301582336426, 0.9309965372085571, 281.1758117675781, -32.36058044433594, 0.310791015625, -0.240478515625, -0.69189453125
550, 1531654148, -6.699975967407227, 2.4369845390319824, 8.750655174255371, -20.282451629638672, 369.842529296875, -46.187286376953125, 0.379150390625, -0.23486328125, -0.655517578125
551, 1531670815, -8.826658248901367, 3.0331990718841553, 10.519952774047852, -25.50470542907715, 466.4749450683594, -65.23946380615234, 0.465087890625, -0.223388671875, -0.599365234375
552, 1531687482, -16.72089958190918, 2.262744665145874, 12.656286239624023, -12.14235782623291, 493.7645568847656, -91.49919128417969, 0.548095703125, -0.20849609375, -0.522216796875
553, 1531704149, -18.293304443359375, 3.343729019165039, 12.144916534423828, -1.4284135103225708, 471.0232849121094, -103.78810119628906, 0.6201171875, -0.18896484375, -0.43603515625
554, 1531720816, -16.272676467895508, 5.271413326263428, 12.304534912109375, -14.611108779907227, 461.8667297363281, -125.20112609863281, 0.6806640625, -0.166015625, -0.3388671875
555, 1531737483, -10.763437271118164, 4.113417625427246, 12.872705459594727, -22.862770080566406, 426.9698486328125, -128.8225860595703, 0.720947265625, -0.134765625, -0.24462890625
556, 1531754150, -6.1899847984313965, 0.9676684141159058, 17.00619888305664, 13.921486854553223, 321.4935302734375, -81.7146987915039, 0.739501953125, -0.11279296875, -0.157470703125
557, 1531770817, -31.29195213317871, 3.457505464553833, 25.646421432495117, 73.2061538696289, 150.7010955810547, -110.5385513305664, 0.74169921875, -0.09033203125, -0.09912109375
558, 1531787484, -16.27059555053711, 7.912137985229492, 26.25048065185547, 121.34455108642578, -160.2248992919922, -21.5477237701416, 0.729248046875, -0.073974609375, -0.09814453125
559, 1531804151, -1.0862632989883423, 7.344290733337402, 10.323714256286621, 43.5888786315918, -267.4178161621094, -20.216463088989258, 0.710205078125, -0.0576171875, -0.1171875
560, 1531820818, 1.8341186046600342, 3.7731094360351562, 3.4810943603515625, -13.234803199768066, -241.80247497558594, -39.73527908325195, 0.70166015625, -0.02734375, -0.128662109375
561, 1531837485, 1.6414281129837036, 3.0484988689422607, 3.0116167068481445, -32.46134567260742, -196.5224609375, -20.255693435668945, 0.714111328125, 0.003662109375, -0.126708984375
562, 1531854152, -3.5668787956237793, 4.857546806335449, 7.915707111358643, -34.8178596496582, -208.61878967285156, -0.19779963791370392, 0.751708984375, 0.0390625, -0.129638671875
563, 1531870819, -7.44696044921875, 4.966732501983643, 10.540369033813477, -35.87778854370117, -283.2268981933594, 35.91529846191406, 0.8115234375, 0.06689453125, -0.1796875
564, 1531887486, -6.31865930557251, 4.2155561447143555, 7.851840496063232, -34.71031951904297, -342.46600341796875, 68.69654083251953, 0.8720703125, 0.07958984375, -0.309326171875
565, 1531904153, -5.397762298583984, 2.977936029434204, 5.6210222244262695, -29.410118103027344, -352.2234802246094, 92.43758392333984, 0.870361328125, 0.074462890625, -0.484619140625
566, 1531920820, -7.385183334350586, 2.360875368118286, 7.005462646484375, -14.742704391479492, -354.2762451171875, 112.57125091552734, 0.790771484375, 0.052490234375, -0.648681640625
567, 1531937487, -10.301876068115234, 1.4657360315322876, 8.88526725769043, 4.229781627655029, -378.1147766113281, 123.92872619628906, 0.663330078125, 0.03271484375, -0.761962890625
568, 1531954154, -10.858773231506348, 0.17654068768024445, 8.657903671264648, 36.05015182495117, -405.7035217285156, 122.9484634399414, 0.531005859375, 0.0185546875, -0.825439453125
569, 1531970821, -9.486490249633789, -2.4746341705322266, 4.07850980758667, 79.2864761352539, -378.31512451171875, 109.09214782714844, 0.413818359375, -0.00634765625, -0.86767578125
570, 1531987488, -14.505683898925781, -2.0095152854919434, 7.912533283233643, 101.51117706298828, -306.4834289550781, 79.43573760986328, 0.3232421875, -0.03759765625, -0.899169921875
571, 1532004155, -18.9536075592041, -0.11361920833587646, 13.920015335083008, 79.16686248779297, -293.145751953125, 22.704133987426758, 0.237060546875, -0.065673828125, -0.9248046875
572, 1532020822, -19.723949432373047, -1.2224315404891968, 11.24726676940918, 76.6872787475586, -307.6297607421875, -7.779310703277588, 0.129638671875, -0.084716796875, -0.931884765625
573, 1532037489, -18.89356231689453, 0.4768941104412079, 7.458495616912842, 91.67915344238281, -274.7472229003906, -2.454102039337158, 0.03857421875, -0.1083984375, -0.920654296875
574, 1532054156, -20.897905349731445, 3.294207811355591, 8.356820106506348, 57.650753021240234, -243.75399780273438, 10.028413772583008, -0.031982421875, -0.126953125, -0.900390625
575, 1532070823, -19.944259643554688, 0.8991798162460327, 5.792782306671143, 17.468969345092773, -230.90895080566406, 29.780134201049805, -0.09375, -0.14306640625, -0.886962890625
576, 1532087490, -19.267589569091797, -1.8101952075958252, 2.5015244483947754, 31.80331802368164, -205.5448760986328, 62.86207580566406, -0.149169921875, -0.155517578125, -0.873779296875
577, 1532104157, -18.71635627746582, -2.8054893016815186, 0.2611548900604248, 40.2462043762207, -171.49270629882812, 81.29168701171875, -0.2001953125, -0.170654296875, -0.8603515625
578, 1532120824, -18.333036422729492, -3.5721890926361084, -2.4300646781921387, 18.44498062133789, -136.92877197265625, 80.68025970458984, -0.241943359375, -0.17822265625, -0.844482421875
579, 1532137491, -17.425987243652344, -3.858550786972046, -6.372951030731201, -18.384124755859375, -84.15641784667969, 73.21271514892578, -0.270751953125, -0.172607421875, -0.835205078125
580, 1532154158, -17.662912368774414, -4.4808526039123535, -6.824553489685059, -38.151329040527344, -18.524600982666016, 73.74238586425781, -0.283447265625, -0.159912109375, -0.830810546875
581, 1532170825, -18.293062210083008, -4.08291482925415, -4.112793445587158, -47.73923873901367, 26.93020248413086, 72.6812973022461, -0.285400390625, -0.141357421875, -0.831298828125
582, 1532187492, -8.656001091003418, -8.54061508178711, -3.3670809268951416, -42.15299606323242, 79.47081756591797, 45.09502410888672, -0.27783203125, -0.122802734375, -0.83837890625
583, 1532204159, 2.276008367538452, -2.1205155849456787, 15.026409149169922, 4.741987228393555, 133.90835571289062, -11.637011528015137, -0.252685546875, -0.116943359375, -0.84423828125
584, 1532220826, -6.497908115386963, 6.532865047454834, 16.21758270263672, 29.96609878540039, 176.56130981445312, -64.73870086669922, -0.21240234375, -0.122802734375, -0.85205078125
585, 1532237493, -8.597434997558594, 0.7699509859085083, 7.806595802307129, 10.161582946777344, 194.51075744628906, -48.173858642578125, -0.16552734375, -0.125244140625, -0.86669921875
586, 1532254160, -12.105814933776855, -0.9138720631599426, 15.428312301635742, 2.821742296218872, 155.9381103515625, -34.52687072753906, -0.121337890625, -0.12451171875, -0.869384765625
587, 1532270827, -6.365359783172607, 5.0418500900268555, 8.79134750366211, -0.6770980358123779, 124.7479019165039, -29.776063919067383, -0.091552734375, -0.121826171875, -0.869384765625
588, 1532287494, -6.737039566040039, 3.3279786109924316, 9.516737937927246, -11.95240306854248, 123.27175903320312, -25.41761589050293, -0.061279296875, -0.117431640625, -0.87060546875
589, 1532304161, -11.53631591796875, 4.202845096588135, 12.575008392333984, -51.202659606933594, 85.60594940185547, -41.631046295166016, -0.0322265625, -0.105224609375, -0.873779296875
590, 1532320828, -6.0672783851623535, -0.19477277994155884, 11.062666893005371, -61.17781448364258, 40.85303497314453, -34.404788970947266, -0.020751953125, -0.087158203125, -0.87744140625
591, 1532337495, -6.119955539703369, 2.6934547424316406, 9.201460838317871, -53.01557922363281, 9.039846420288086, -29.409093856811523, -0.01611328125, -0.07421875, -0.87841796875
592, 1532354162, -5.963963508605957, 0.7955507636070251, 9.38074016571045, -39.16136169433594, -2.810028553009033, -23.108945846557617, -0.01513671875, -0.066162109375, -0.880615234375
593, 1532370829, -4.9456634521484375, 0.9902817010879517, 8.969143867492676, -28.717044830322266, -3.3542652130126953, -16.877246856689453, -0.015380859375, -0.0576171875, -0.878662109375
594, 1532387496, -4.847679138183594, 0.8924222588539124, 8.856390953063965, -19.304412841796875, -0.897560179233551, -10.961408615112305, -0.014892578125, -0.05078125, -0.879638671875
595, 1532404163, -4.6811041831970215, 0.8392117619514465, 8.654458999633789, -11.168065071105957, 3.32193660736084, -6.03790283203125, -0.013916015625, -0.050537109375, -0.879150390625
596, 1532420830, -4.6360626220703125, 1.4092686176300049, 8.557762145996094, -6.50339937210083, 6.539072036743164, -3.4561915397644043, -0.01318359375, -0.049072265625, -0.88330078125
597, 1532437497, -4.565135478973389, 1.6328785419464111, 8.556096076965332, -5.184101581573486, 6.915987968444824, -4.437901496887207, -0.01171875, -0.048583984375, -0.881103515625
598, 1532454164, -4.901553630828857, 1.5776216983795166, 8.560014724731445, -9.14713191986084, 3.3856353759765625, -8.271458625793457, -0.0107421875, -0.044189453125, -0.88134765625
599, 1532470831, -4.970264911651611, 1.3083406686782837, 8.53934383392334, -13.285091400146484, -2.251499652862549, -11.817277908325195, -0.01123046875, -0.044677734375, -0.880615234375
600, 1532487498, -4.672921180725098, 1.028035044670105, 8.527612686157227, -12.325163841247559, -4.168150901794434, -11.660677909851074, -0.0087890625, -0.040283203125, -0.88134765625
601, 1532504165, -4.702403545379639, 1.0263525247573853, 8.58842658996582, -8.966808319091797, -3.13956880569458, -10.577310562133789, -0.009765625, -0.03662109375, -0.8798828125
602, 1532520832, -4.797058582305908, 0.8998875617980957, 8.578710556030273, -6.522826671600342, -1.1186734437942505, -8.543349266052246, -0.01123046875, -0.03662109375, -0.88232421875
603, 1532537499, -4.73921012878418, 1.1100530624389648, 8.55035400390625, -4.2313337326049805, 0.8821463584899902, -6.980191707611084, -0.00830078125, -0.0380859375, -0.884765625
604, 1532554166, -4.807558059692383, 1.0653696060180664, 8.567151069641113, -2.886474847793579, 2.0776705741882324, -6.781975269317627, -0.0087890625, -0.03466796875, -0.88134765625
605, 1532570833, -4.861475467681885, 1.104311227798462, 8.597392082214355, -3.06878662109375, 3.1225411891937256, -6.9948811531066895, -0.009765625, -0.0361328125, -0.8798828125
606, 1532587500, -4.819448471069336, 1.1015613079071045, 8.56860637664795, -2.5184333324432373, 4.4595112800598145, -6.9221415519714355, -0.00634765625, -0.0361328125, -0.880126953125
607, 1532604167, -4.750984191894531, 1.1418977975845337, 8.471647262573242, -1.369793176651001, 6.727644920349121, -7.6659088134765625, -0.003173828125, -0.03515625, -0.882568359375
608, 1532620834, -4.661495208740234, 1.2944108247756958, 8.524840354919434, -1.1276509761810303, 9.774561882019043, -10.115460395812988, -0.002685546875, -0.03466796875, -0.882568359375
609, 1532637501, -4.784306526184082, 1.3019565343856812, 8.599867820739746, -2.5653204917907715, 15.215750694274902, -11.752403259277344, 0.001708984375, -0.03564453125, -0.882568359375
610, 1532654168, -4.996463775634766, 1.2579622268676758, 8.569591522216797, -5.218753814697266, 20.584278106689453, -15.100682258605957, 0.005859375, -0.033203125, -0.88134765625
611, 1532670835, -4.957120418548584, 0.9047255516052246, 8.45422649383545, -4.940090656280518, 25.354778289794922, -16.564132690429688, 0.013916015625, -0.035400390625, -0.881591796875
612, 1532687502, -4.809922695159912, 0.9249370694160461, 8.548970222473145, -3.5416510105133057, 33.08710861206055, -15.969093322753906, 0.02294921875, -0.034912109375, -0.880859375
613, 1532704169, -4.469958782196045, 0.5756607055664062, 8.411336898803711, 2.2914183139801025, 51.13389205932617, -14.80914306640625, 0.034423828125, -0.035888671875, -0.88134765625
614, 1532720836, -4.816259860992432, 0.6723954677581787, 8.402094841003418, 8.297587394714355, 73.82929992675781, -14.871814727783203, 0.052490234375, -0.03466796875, -0.8798828125
615, 1532737503, -4.916614055633545, 0.5007744431495667, 8.50201416015625, 11.954657554626465, 98.50920104980469, -14.363481521606445, 0.07568359375, -0.03759765625, -0.875732421875
616, 1532754170, -5.153120040893555, 0.5413333177566528, 8.404542922973633, 16.988079071044922, 120.71987915039062, -11.1742582321167, 0.103759765625, -0.04248046875, -0.874755859375
617, 1532770837, -5.438409328460693, 0.6203168630599976, 8.132248878479004, 28.501657485961914, 139.52880859375, -4.665521144866943, 0.138427734375, -0.049560546875, -0.866943359375
618, 1532787504, -5.427247524261475, 0.48952189087867737, 8.058650016784668, 38.50155258178711, 164.39707946777344, 0.7714871764183044, 0.177490234375, -0.059326171875, -0.859375
619, 1532804171, -5.493137836456299, 1.0833452939987183, 8.338083267211914, 31.95035171508789, 202.87001037597656, -3.2823715209960938, 0.22412109375, -0.067626953125, -0.84521484375
620, 1532820838, -5.950528144836426, 1.9436321258544922, 7.965056419372559, 13.770149230957031, 250.1232452392578, -20.814678192138672, 0.28125, -0.071044921875, -0.826171875
621, 1532837505, -6.445372581481934, 2.277743339538574, 7.740533828735352, -5.110283374786377, 306.89227294921875, -41.42235565185547, 0.349853515625, -0.065185546875, -0.799072265625
622, 1532854172, -7.049968719482422, 3.1631240844726562, 8.666288375854492, -25.946460723876953, 386.5198974609375, -64.13494873046875, 0.432861328125, -0.053466796875, -0.752685546875
623, 1532870839, -10.737051010131836, 3.298227548599243, 10.568059921264648, -28.082616806030273, 467.0422058105469, -89.4678726196289, 0.530517578125, -0.036376953125, -0.688720703125
624, 1532887506, -18.12982749938965, 2.91520094871521, 12.58504867553711, -15.96489429473877, 469.0620422363281, -113.99192810058594, 0.61962890625, -0.013671875, -0.603759765625
625, 1532904173, -17.755733489990234, 3.3494091033935547, 11.493124961853027, -5.379588603973389, 448.6269226074219, -121.62244415283203, 0.694580078125, 0.00341796875, -0.513916015625
626, 1532920840, -13.872658729553223, 4.561374664306641, 12.079950332641602, -0.13540196418762207, 446.92022705078125, -125.7440414428711, 0.7568359375, 0.023681640625, -0.416748046875
627, 1532937507, -8.372608184814453, 3.2696139812469482, 12.159828186035156, 5.030409812927246, 421.1469421386719, -125.56798553466797, 0.80224609375, 0.046630859375, -0.3115234375
628, 1532954174, -9.08382797241211, 1.2353942394256592, 17.541446685791016, 38.1043815612793, 332.4149169921875, -94.27505493164062, 0.825927734375, 0.060546875, -0.22216796875
629, 1532970841, -31.596744537353516, 7.807351112365723, 28.08052635192871, 63.760623931884766, 159.97630310058594, -75.40142822265625, 0.832275390625, 0.06982421875, -0.163330078125
630, 1532987508, -13.170616149902344, 9.27501106262207, 25.71208381652832, 55.92608642578125, -150.37051391601562, 6.593788146972656, 0.8154296875, 0.057861328125, -0.1767578125
631, 1533004175, -1.2035127878189087, 4.758121967315674, 9.977836608886719, -16.34050178527832, -231.9591064453125, 10.275991439819336, 0.794677734375, 0.042724609375, -0.213623046875
632, 1533020842, 1.4480243921279907, 1.2614179849624634, 4.909235000610352, -46.43926239013672, -213.40365600585938, -7.044549942016602, 0.76806640625, 0.041015625, -0.246826171875
633, 1533037509, -0.4053310453891754, 0.48751866817474365, 5.883545398712158, -40.953250885009766, -196.17837524414062, -7.777527809143066, 0.74462890625, 0.041748046875, -0.267333984375
634, 1533054176, -5.776311874389648, 1.6600356101989746, 10.415197372436523, -17.45629119873047, -239.54177856445312, 6.4889726638793945, 0.726806640625, 0.0380859375, -0.28955078125
635, 1533070843, -9.091245651245117, 2.8100414276123047, 12.041311264038086, -4.077361106872559, -333.5089416503906, 29.925111770629883, 0.70556640625, 0.02294921875, -0.3330078125
636, 1533087510, -6.72072696685791, 2.6959128379821777, 7.798628807067871, -4.544428825378418, -402.2162170410156, 49.65191650390625, 0.675048828125, 0.00830078125, -0.38671875
637, 1533104177, -5.385789394378662, 1.8354586362838745, 5.15311861038208, -4.425904750823975, -404.2730407714844, 65.64852142333984, 0.64501953125, -0.0087890625, -0.4404296875
638, 1533120844, -7.357565402984619, 2.056943655014038, 6.587963581085205, 3.8141372203826904, -401.412841796875, 87.5425796508789, 0.627197265625, -0.03125, -0.505859375
639, 1533137511, -10.154885292053223, 1.274301528930664, 8.320662498474121, 16.422286987304688, -414.895751953125, 99.81610870361328, 0.589599609375, -0.063232421875, -0.597412109375
640, 1533154178, -9.542999267578125, -1.1254104375839233, 6.452157020568848, 43.78607940673828, -417.3185119628906, 95.08208465576172, 0.521240234375, -0.092041015625, -0.694580078125
641, 1533170845, -10.113282203674316, -4.784338474273682, 3.9770150184631348, 93.17041015625, -354.625732421875, 72.4708251953125, 0.423583984375, -0.13525390625, -0.764404296875
642, 1533187512, -15.702589988708496, -3.6123669147491455, 9.687116622924805, 139.10301208496094, -289.88427734375, 39.76457214355469, 0.333251953125, -0.18115234375, -0.795654296875
643, 1533204179, -20.013452529907227, 0.5685606002807617, 13.831737518310547, 125.13516235351562, -293.7496032714844, -2.0721845626831055, 0.245849609375, -0.219482421875, -0.792724609375
644, 1533220846, -20.527738571166992, 1.031398057937622, 8.34290599822998, 99.09203338623047, -277.1885681152344, -9.87660026550293, 0.182861328125, -0.235107421875, -0.773193359375
645, 1533237513, -23.108606338500977, 3.0325989723205566, 6.110132694244385, 86.71817016601562, -234.12277221679688, 18.629188537597656, 0.14501953125, -0.249755859375, -0.751953125
646, 1533254180, -21.66224479675293, 3.39719557762146, 2.8229970932006836, 46.876529693603516, -190.00868225097656, 51.79911804199219, 0.125244140625, -0.26513671875, -0.745361328125
647, 1533270847, -22.94007110595703, -0.937338650226593, 2.5202791690826416, 31.3416748046875, -154.78762817382812, 77.48625183105469, 0.106201171875, -0.2734375, -0.747314453125
648, 1533287514, -22.930021286010742, -3.236896276473999, 1.7366154193878174, 44.152061462402344, -153.06869506835938, 94.61052703857422, 0.079345703125, -0.28857421875, -0.758056640625
649, 1533304181, -19.837491989135742, -3.9729437828063965, -2.59273099899292, 22.36031150817871, -134.40464782714844, 97.67234802246094, 0.05029296875, -0.296875, -0.77001953125
650, 1533320848, -19.228710174560547, -4.731812477111816, -4.452536582946777, -15.528321266174316, -94.031005859375, 91.48755645751953, 0.022705078125, -0.302734375, -0.78271484375
651, 1533337515, -18.690786361694336, -5.220620632171631, -5.364380836486816, -34.4180908203125, -59.28306579589844, 80.1905288696289, 0.001220703125, -0.298095703125, -0.797119140625
