sep=,
DeviceTag:,A,,,,,,,,,,,,,,,,,
FirmwareVersion:,2.2.1,,,,,,,,,,,,,,,,,
AppVersion:,2022.0.1,,,,,,,,,,,,,,,,,
SyncStatus:,Synced,,,,,,,,,,,,,,,,,
OutputRate:,60Hz,,,,,,,,,,,,,,,,,
FilterProfile:,General,,,,,,,,,,,,,,,,,
Measurement Mode:,Inertial Mode - Rate quantities (with mag),,,,,,,,,,,,,,,,,
StartTime:,2022-08-05 15:15:05.853 +0300,,,,,,,,,,,,,,,,,
© Xsens Technologies B. V. 2005-2022,,,,,,,,,,,,,,,,,,,

PacketCounter,SampleTimeFine,Acc_X,Acc_Y,Acc_Z,Gyr_X,Gyr_Y,Gyr_Z,Mag_X,Mag_Y,Mag_Z
1, 2247885139, -5.082855701446533, 1.3478195667266846, 8.331809997558594, -2.582695245742798, -1.483807921409607, -2.4639291763305664, 0.0439453125, -0.1455078125, -0.827880859375
2, 2247901806, -5.082895278930664, 1.347644567489624, 8.299560546875, -2.514578104019165, -1.472474217414856, -2.390676736831665, 0.04638671875, -0.14501953125, -0.827880859375
3, 2247918473, -5.072062015533447, 1.3544214963912964, 8.303970336914062, -2.6151208877563477, -1.442238450050354, -2.417083501815796, 0.0458984375, -0.14453125, -0.825439453125
4, 2247935140, -5.088759422302246, 1.3414618968963623, 8.308062553405762, -2.577406406402588, -1.5139285326004028, -2.4456160068511963, 0.046875, -0.1455078125, -0.827392578125
5, 2247951807, -5.082120418548584, 1.3400250673294067, 8.305731773376465, -2.5469911098480225, -1.408698558807373, -2.413266897201538, 0.04736328125, -0.14306640625, -0.829345703125
6, 2247968474, -5.080929756164551, 1.3426750898361206, 8.30063247680664, -2.602135181427002, -1.5301541090011597, -2.4475369453430176, 0.046875, -0.14501953125, -0.828369140625
7, 2247985141, -5.079263210296631, 1.3384395837783813, 8.311890602111816, -2.6486093997955322, -1.5449838638305664, -2.483689546585083, 0.048828125, -0.14404296875, -0.827392578125
8, 2248001808, -5.088325023651123, 1.3482218980789185, 8.329139709472656, -2.579378604888916, -1.634385108947754, -2.402228355407715, 0.04638671875, -0.14501953125, -0.826416015625
9, 2248018475, -5.08296012878418, 1.3346446752548218, 8.313437461853027, -2.5847699642181396, -1.4971905946731567, -2.467182159423828, 0.0458984375, -0.14404296875, -0.825927734375
10, 2248035142, -5.064845561981201, 1.3394430875778198, 8.292710304260254, -2.547234058380127, -1.5315369367599487, -2.336454391479492, 0.04638671875, -0.14404296875, -0.825927734375
11, 2248051809, -5.089359760284424, 1.3537904024124146, 8.325491905212402, -2.560142993927002, -1.536172866821289, -2.346993923187256, 0.044921875, -0.14404296875, -0.827880859375
12, 2248068476, -5.083888530731201, 1.3534411191940308, 8.316793441772461, -2.5320847034454346, -1.5433831214904785, -2.432361364364624, 0.04638671875, -0.14404296875, -0.828369140625
13, 2248085143, -5.067963123321533, 1.3777884244918823, 8.320018768310547, -2.5601305961608887, -1.4253853559494019, -2.4883127212524414, 0.046875, -0.14453125, -0.828857421875
14, 2248101810, -5.0710625648498535, 1.352195382118225, 8.30377197265625, -2.4821014404296875, -1.3879010677337646, -2.361952066421509, 0.04638671875, -0.1455078125, -0.827392578125
15, 2248118477, -5.057889461517334, 1.3447253704071045, 8.337716102600098, -2.5286777019500732, -1.396506905555725, -2.4530563354492188, 0.04443359375, -0.14501953125, -0.825927734375
16, 2248135144, -5.087133407592773, 1.3395718336105347, 8.314465522766113, -2.5505383014678955, -1.483769416809082, -2.451622247695923, 0.04638671875, -0.142578125, -0.825927734375
17, 2248151811, -5.092520713806152, 1.3373301029205322, 8.305112838745117, -2.536182403564453, -1.607824444770813, -2.476018190383911, 0.04638671875, -0.14306640625, -0.827392578125
18, 2248168478, -5.080312252044678, 1.353222370147705, 8.315715789794922, -2.5933120250701904, -1.5667674541473389, -2.4204261302948, 0.04638671875, -0.145751953125, -0.828369140625
19, 2248185145, -5.092300891876221, 1.3536494970321655, 8.315937042236328, -2.524195671081543, -1.4893271923065186, -2.41865873336792, 0.04541015625, -0.14453125, -0.827880859375
20, 2248201812, -5.082806587219238, 1.3286947011947632, 8.333663940429688, -2.519163131713867, -1.6409802436828613, -2.41219162940979, 0.048828125, -0.1435546875, -0.827392578125
21, 2248218479, -5.07185173034668, 1.3579248189926147, 8.313104629516602, -2.6683313846588135, -1.6540812253952026, -2.4823832511901855, 0.0458984375, -0.14208984375, -0.827880859375
22, 2248235146, -5.0660810470581055, 1.353326439857483, 8.30777359008789, -2.599318027496338, -1.6487921476364136, -2.4276487827301025, 0.04541015625, -0.14453125, -0.827392578125
23, 2248251813, -5.05424690246582, 1.3542567491531372, 8.318720817565918, -2.6254429817199707, -1.665030598640442, -2.4094254970550537, 0.046875, -0.14453125, -0.826416015625
24, 2248268480, -5.065306186676025, 1.3594648838043213, 8.325562477111816, -2.6725449562072754, -1.5919959545135498, -2.422680139541626, 0.04638671875, -0.14453125, -0.827392578125
25, 2248285147, -5.064955711364746, 1.3451344966888428, 8.327197074890137, -2.653937339782715, -1.564872145652771, -2.4669387340545654, 0.04638671875, -0.14306640625, -0.826416015625
26, 2248301814, -5.067410945892334, 1.3440662622451782, 8.322059631347656, -2.5599637031555176, -1.4952311515808105, -2.432053804397583, 0.046875, -0.1435546875, -0.825439453125
27, 2248318481, -5.0560784339904785, 1.3490612506866455, 8.294778823852539, -2.6224849224090576, -1.5126861333847046, -2.5098655223846436, 0.0458984375, -0.1455078125, -0.826416015625
28, 2248335148, -5.069587230682373, 1.3473280668258667, 8.31455135345459, -2.6611344814300537, -1.5716723203659058, -2.540703296661377, 0.04541015625, -0.14404296875, -0.825439453125
29, 2248351815, -5.06852912902832, 1.3507930040359497, 8.326744079589844, -2.7612287998199463, -1.5210871696472168, -2.5685315132141113, 0.044189453125, -0.14306640625, -0.825927734375
30, 2248368482, -5.071465015411377, 1.3480230569839478, 8.334144592285156, -2.624636173248291, -1.561964988708496, -2.491706132888794, 0.04443359375, -0.1455078125, -0.827392578125
31, 2248385149, -5.06361722946167, 1.3498356342315674, 8.317266464233398, -2.589559316635132, -1.3550782203674316, -2.4344489574432373, 0.043701171875, -0.142578125, -0.826904296875
32, 2248401816, -5.060462474822998, 1.3553731441497803, 8.295947074890137, -2.596986770629883, -1.3374053239822388, -2.375437021255493, 0.04541015625, -0.14453125, -0.826904296875
33, 2248418483, -5.060668468475342, 1.365683913230896, 8.305912971496582, -2.6409385204315186, -1.3586643934249878, -2.4318621158599854, 0.04638671875, -0.14306640625, -0.824951171875
34, 2248435150, -5.0665507316589355, 1.3388471603393555, 8.323702812194824, -2.5931708812713623, -1.3523378372192383, -2.4955737590789795, 0.0458984375, -0.1435546875, -0.827392578125
35, 2248451817, -5.0868377685546875, 1.3290749788284302, 8.308948516845703, -2.5785715579986572, -1.319860816001892, -2.5262961387634277, 0.044921875, -0.14404296875, -0.824951171875
36, 2248468484, -5.079803466796875, 1.3325538635253906, 8.314950942993164, -2.545607805252075, -1.239667534828186, -2.4799625873565674, 0.044921875, -0.1455078125, -0.828857421875
37, 2248485151, -5.072519302368164, 1.3345088958740234, 8.317566871643066, -2.4525187015533447, -1.2067680358886719, -2.4433491230010986, 0.04638671875, -0.14404296875, -0.827880859375
38, 2248501818, -5.079557418823242, 1.353408694267273, 8.333333015441895, -2.6041200160980225, -1.361417531967163, -2.542086362838745, 0.04638671875, -0.14501953125, -0.825927734375
39, 2248518485, -5.092162132263184, 1.3405652046203613, 8.319507598876953, -2.55808162689209, -1.278253197669983, -2.5237348079681396, 0.046875, -0.142578125, -0.825927734375
40, 2248535152, -5.084046840667725, 1.3374018669128418, 8.308267593383789, -2.630155324935913, -1.4001438617706299, -2.4809486865997314, 0.0458984375, -0.14404296875, -0.825927734375
41, 2248551819, -5.0791096687316895, 1.339613437652588, 8.310956001281738, -2.5903024673461914, -1.4022059440612793, -2.4482929706573486, 0.046875, -0.14404296875, -0.827880859375
42, 2248568486, -5.06977653503418, 1.346252679824829, 8.305765151977539, -2.527230978012085, -1.48581862449646, -2.485046863555908, 0.044921875, -0.145751953125, -0.828369140625
43, 2248585153, -5.087318420410156, 1.3401485681533813, 8.315176963806152, -2.5578384399414062, -1.497792363166809, -2.39497971534729, 0.044921875, -0.142578125, -0.826416015625
44, 2248601820, -5.077610969543457, 1.3434655666351318, 8.2990140914917, -2.58838152885437, -1.556727409362793, -2.4826395511627197, 0.04736328125, -0.142578125, -0.824951171875
45, 2248618487, -5.066270351409912, 1.3437910079956055, 8.30892562866211, -2.5853848457336426, -1.608272910118103, -2.4262659549713135, 0.044921875, -0.14453125, -0.826416015625
46, 2248635154, -5.0723981857299805, 1.348429799079895, 8.31916332244873, -2.6635289192199707, -1.5366852283477783, -2.3830056190490723, 0.04541015625, -0.14501953125, -0.824462890625
47, 2248651821, -5.071198463439941, 1.3331018686294556, 8.342573165893555, -2.479193925857544, -1.536019206047058, -2.429915189743042, 0.044921875, -0.146728515625, -0.829833984375
48, 2248668488, -5.08054256439209, 1.3134469985961914, 8.326549530029297, -2.5004398822784424, -1.4391520023345947, -2.4627251625061035, 0.046875, -0.14208984375, -0.826904296875
49, 2248685155, -5.07272481918335, 1.3360669612884521, 8.32289981842041, -2.4692437648773193, -1.3829578161239624, -2.371633768081665, 0.04638671875, -0.14306640625, -0.827392578125
50, 2248701822, -5.0706400871276855, 1.3561238050460815, 8.314087867736816, -2.5211353302001953, -1.4545966386795044, -2.477107048034668, 0.04638671875, -0.14501953125, -0.824951171875
51, 2248718489, -5.076713562011719, 1.3544059991836548, 8.313558578491211, -2.61057448387146, -1.4721667766571045, -2.4337446689605713, 0.0458984375, -0.14306640625, -0.829345703125
52, 2248735156, -5.073387145996094, 1.3493727445602417, 8.318204879760742, -2.550884246826172, -1.464726448059082, -2.4664905071258545, 0.04443359375, -0.14501953125, -0.826416015625
53, 2248751823, -5.0875139236450195, 1.3371491432189941, 8.316621780395508, -2.523324728012085, -1.4454014301300049, -2.388909101486206, 0.04638671875, -0.14404296875, -0.828857421875
54, 2248768490, -5.074282169342041, 1.3425562381744385, 8.326473236083984, -2.5442628860473633, -1.4563509225845337, -2.396247148513794, 0.0478515625, -0.14453125, -0.828857421875
55, 2248785157, -5.079621315002441, 1.3405671119689941, 8.311904907226562, -2.4234094619750977, -1.4600390195846558, -2.4390974044799805, 0.04833984375, -0.142578125, -0.829345703125
56, 2248801824, -5.064102649688721, 1.3421465158462524, 8.307894706726074, -2.49807071685791, -1.4695671796798706, -2.4015238285064697, 0.04541015625, -0.1416015625, -0.828369140625
57, 2248818491, -5.059544563293457, 1.3403959274291992, 8.326169967651367, -2.474123001098633, -1.4339014291763306, -2.3975284099578857, 0.04541015625, -0.14599609375, -0.826416015625
58, 2248835158, -5.0813398361206055, 1.349589467048645, 8.320503234863281, -2.4439125061035156, -1.5047204494476318, -2.3708527088165283, 0.044189453125, -0.1435546875, -0.826904296875
59, 2248851825, -5.083573818206787, 1.3505322933197021, 8.328316688537598, -2.505524158477783, -1.3731738328933716, -2.4093871116638184, 0.043701171875, -0.1455078125, -0.826904296875
60, 2248868492, -5.077016353607178, 1.3601675033569336, 8.307677268981934, -2.4916675090789795, -1.415844440460205, -2.44071102142334, 0.04443359375, -0.14404296875, -0.827880859375
61, 2248885159, -5.0736403465271, 1.3473820686340332, 8.306790351867676, -2.52226185798645, -1.3672956228256226, -2.4250617027282715, 0.04443359375, -0.14501953125, -0.827880859375
62, 2248901826, -5.071015357971191, 1.3441911935806274, 8.327569007873535, -2.5429189205169678, -1.493553638458252, -2.438457489013672, 0.04638671875, -0.14453125, -0.826416015625
63, 2248918493, -5.0800628662109375, 1.3412466049194336, 8.324907302856445, -2.573500156402588, -1.3852118253707886, -2.476018190383911, 0.04736328125, -0.14501953125, -0.826416015625
64, 2248935160, -5.084916114807129, 1.3272581100463867, 8.318142890930176, -2.545966625213623, -1.3865947723388672, -2.4195425510406494, 0.04541015625, -0.14404296875, -0.826904296875
65, 2248951827, -5.081254959106445, 1.3458410501480103, 8.30562686920166, -2.544954776763916, -1.378334641456604, -2.3876287937164307, 0.0458984375, -0.1435546875, -0.829833984375
66, 2248968494, -5.07511568069458, 1.341525673866272, 8.313387870788574, -2.557325839996338, -1.4962300062179565, -2.4575130939483643, 0.04638671875, -0.142578125, -0.827880859375
67, 2248985161, -5.0786871910095215, 1.3537336587905884, 8.329692840576172, -2.615607738494873, -1.5153756141662598, -2.3969521522521973, 0.0478515625, -0.14306640625, -0.828369140625
68, 2249001828, -5.074621677398682, 1.3379884958267212, 8.323603630065918, -2.5048325061798096, -1.509843111038208, -2.425830364227295, 0.04736328125, -0.14404296875, -0.825439453125
69, 2249018495, -5.069111347198486, 1.338845133781433, 8.327189445495605, -2.4971489906311035, -1.5153244733810425, -2.4624438285827637, 0.046875, -0.14501953125, -0.826416015625
70, 2249035162, -5.07586145401001, 1.3409125804901123, 8.3228120803833, -2.5245158672332764, -1.4951668977737427, -2.397451400756836, 0.04541015625, -0.14599609375, -0.826416015625
71, 2249051829, -5.077054500579834, 1.3314067125320435, 8.302688598632812, -2.5102882385253906, -1.4969216585159302, -2.457167625427246, 0.046875, -0.1455078125, -0.827392578125
72, 2249068496, -5.07284688949585, 1.3522223234176636, 8.310755729675293, -2.5541114807128906, -1.5615935325622559, -2.4329376220703125, 0.0439453125, -0.145751953125, -0.83447265625
73, 2249085163, -5.069962501525879, 1.3529930114746094, 8.303834915161133, -2.561436653137207, -1.5348539352416992, -2.4421839714050293, 0.04541015625, -0.14404296875, -0.825927734375
74, 2249101830, -5.076092720031738, 1.3439792394638062, 8.320403099060059, -2.5521647930145264, -1.5233538150787354, -2.344970941543579, 0.04736328125, -0.14404296875, -0.827392578125
75, 2249118497, -5.066992282867432, 1.3467217683792114, 8.315855979919434, -2.4903228282928467, -1.5647823810577393, -2.413228750228882, 0.0458984375, -0.145751953125, -0.827880859375
76, 2249135164, -5.078032970428467, 1.3452231884002686, 8.326656341552734, -2.5548930168151855, -1.5994492769241333, -2.4313371181488037, 0.04638671875, -0.14453125, -0.829833984375
77, 2249151831, -5.075135707855225, 1.3375786542892456, 8.305158615112305, -2.5314059257507324, -1.523482084274292, -2.4279563426971436, 0.043212890625, -0.1435546875, -0.82861328125
78, 2249168498, -5.069149971008301, 1.3656305074691772, 8.334844589233398, -2.5179333686828613, -1.5016342401504517, -2.4032909870147705, 0.044921875, -0.14453125, -0.82958984375
79, 2249185165, -5.062708377838135, 1.3372119665145874, 8.323501586914062, -2.518906354904175, -1.4298033714294434, -2.4678986072540283, 0.044921875, -0.14453125, -0.827880859375
80, 2249201832, -5.075477600097656, 1.343602180480957, 8.298523902893066, -2.548604726791382, -1.4553394317626953, -2.4186716079711914, 0.0478515625, -0.1435546875, -0.82421875
81, 2249218499, -5.0728535652160645, 1.3421859741210938, 8.30313491821289, -2.595834493637085, -1.5336374044418335, -2.4133315086364746, 0.043701171875, -0.1435546875, -0.828125
82, 2249235166, -5.05036735534668, 1.3457939624786377, 8.307315826416016, -2.5281014442443848, -1.3809983730316162, -2.4221930503845215, 0.04638671875, -0.142578125, -0.827392578125
83, 2249251833, -5.069789409637451, 1.3430339097976685, 8.310321807861328, -2.5056521892547607, -1.2931596040725708, -2.479642391204834, 0.04638671875, -0.14453125, -0.829345703125
84, 2249268500, -5.0778398513793945, 1.3450169563293457, 8.325407028198242, -2.5761001110076904, -1.373071312904358, -2.387244701385498, 0.044921875, -0.14501953125, -0.827880859375
85, 2249285167, -5.081333160400391, 1.3466824293136597, 8.324605941772461, -2.500427007675171, -1.4642908573150635, -2.4008960723876953, 0.04638671875, -0.14404296875, -0.826904296875
86, 2249301834, -5.071681499481201, 1.3507888317108154, 8.315347671508789, -2.538257122039795, -1.435233473777771, -2.494434118270874, 0.04833984375, -0.1435546875, -0.826904296875
87, 2249318501, -5.08498477935791, 1.3320425748825073, 8.322558403015137, -2.5213401317596436, -1.429201602935791, -2.5014777183532715, 0.04638671875, -0.14501953125, -0.827392578125
88, 2249335168, -5.070755481719971, 1.3490797281265259, 8.327961921691895, -2.587536096572876, -1.446515679359436, -2.4846882820129395, 0.0458984375, -0.142578125, -0.828857421875
89, 2249351835, -5.071169376373291, 1.350407600402832, 8.33055305480957, -2.5721940994262695, -1.5912660360336304, -2.5112104415893555, 0.043212890625, -0.14501953125, -0.82861328125
90, 2249368502, -5.0804243087768555, 1.3373854160308838, 8.302450180053711, -2.568519115447998, -1.5394644737243652, -2.42763614654541, 0.0458984375, -0.14404296875, -0.826904296875
91, 2249385169, -5.062492370605469, 1.3649022579193115, 8.323311805725098, -2.5687618255615234, -1.547660231590271, -2.4092330932617188, 0.0458984375, -0.14453125, -0.827392578125
92, 2249401836, -5.061213493347168, 1.3574272394180298, 8.302323341369629, -2.5947072505950928, -1.5082552433013916, -2.434077262878418, 0.0458984375, -0.14404296875, -0.825439453125
93, 2249418503, -5.06284236907959, 1.3513892889022827, 8.331077575683594, -2.5395636558532715, -1.4422385692596436, -2.476774215698242, 0.044921875, -0.14208984375, -0.8291015625
94, 2249435170, -5.066195011138916, 1.3305310010910034, 8.338382720947266, -2.6054394245147705, -1.4133987426757812, -2.4899775981903076, 0.04443359375, -0.14404296875, -0.826416015625
95, 2249451837, -5.050956726074219, 1.3459019660949707, 8.322827339172363, -2.5857818126678467, -1.4550577402114868, -2.4358320236206055, 0.043212890625, -0.14501953125, -0.82861328125
96, 2249468504, -5.063877105712891, 1.3567131757736206, 8.304841995239258, -2.5265138149261475, -1.4571322202682495, -2.427853584289551, 0.04443359375, -0.1435546875, -0.827392578125
97, 2249485171, -5.0771660804748535, 1.3475337028503418, 8.329330444335938, -2.5572104454040527, -1.5172706842422485, -2.413574457168579, 0.04541015625, -0.14404296875, -0.827392578125
98, 2249501838, -5.076550006866455, 1.3453724384307861, 8.310872077941895, -2.508918046951294, -1.5368902683258057, -2.420259714126587, 0.04638671875, -0.145751953125, -0.826904296875
99, 2249518505, -5.065208911895752, 1.349528193473816, 8.326204299926758, -2.4033679962158203, -1.564692735671997, -2.354498863220215, 0.046875, -0.14453125, -0.824951171875
100, 2249535172, -5.064361572265625, 1.330367088317871, 8.316593170166016, -2.345611095428467, -1.422900915145874, -2.3911375999450684, 0.044677734375, -0.1435546875, -0.825439453125
101, 2249551839, -5.080845355987549, 1.340406060218811, 8.300492286682129, -2.4277124404907227, -1.4168944358825684, -2.332625389099121, 0.04443359375, -0.14111328125, -0.82763671875
102, 2249568506, -5.0567803382873535, 1.3519957065582275, 8.334671974182129, -2.3538458347320557, -1.3870301246643066, -2.293361186981201, 0.0458984375, -0.142578125, -0.827880859375
103, 2249585173, -5.054558753967285, 1.3597909212112427, 8.35256576538086, -2.4760305881500244, -1.3245991468429565, -2.350093126296997, 0.04638671875, -0.14453125, -0.827880859375
104, 2249601840, -5.0642805099487305, 1.3337339162826538, 8.342961311340332, -2.4540297985076904, -1.4011684656143188, -2.4283785820007324, 0.0458984375, -0.146240234375, -0.827392578125
105, 2249618507, -5.075371265411377, 1.34988272190094, 8.323041915893555, -2.472048282623291, -1.3972368240356445, -2.3683807849884033, 0.04443359375, -0.14453125, -0.826416015625
106, 2249635174, -5.081198215484619, 1.3628652095794678, 8.320181846618652, -2.536425828933716, -1.4153579473495483, -2.388538122177124, 0.04736328125, -0.142578125, -0.827392578125
107, 2249651841, -5.072527885437012, 1.3581112623214722, 8.330543518066406, -2.539780855178833, -1.4850883483886719, -2.432335376739502, 0.0458984375, -0.1435546875, -0.826904296875
108, 2249668508, -5.054744720458984, 1.3390395641326904, 8.325498580932617, -2.58219575881958, -1.536211609840393, -2.421271324157715, 0.04443359375, -0.14404296875, -0.827392578125
109, 2249685175, -5.059988498687744, 1.3389426469802856, 8.34701919555664, -2.6261343955993652, -1.5067440271377563, -2.4689877033233643, 0.043701171875, -0.14453125, -0.827392578125
110, 2249701842, -5.059097766876221, 1.3677664995193481, 8.319584846496582, -2.545518398284912, -1.5580079555511475, -2.4238710403442383, 0.044189453125, -0.14306640625, -0.825927734375
111, 2249718509, -5.0651044845581055, 1.3551616668701172, 8.33329963684082, -2.4906303882598877, -1.496063470840454, -2.408221483230591, 0.044921875, -0.14404296875, -0.827880859375
112, 2249735176, -5.057561874389648, 1.345115303993225, 8.298860549926758, -2.5857815742492676, -1.3770155906677246, -2.4164817333221436, 0.0478515625, -0.14501953125, -0.826416015625
113, 2249751843, -5.072011470794678, 1.345468521118164, 8.30910873413086, -2.593106985092163, -1.4832186698913574, -2.4777088165283203, 0.044921875, -0.14404296875, -0.826904296875
114, 2249768510, -5.076326370239258, 1.3548096418380737, 8.31972599029541, -2.5496420860290527, -1.489660382270813, -2.4135618209838867, 0.0458984375, -0.1435546875, -0.828369140625
115, 2249785177, -5.065120697021484, 1.3643122911453247, 8.314702987670898, -2.5368998050689697, -1.538811206817627, -2.4131903648376465, 0.044921875, -0.14453125, -0.828369140625
116, 2249801844, -5.063263893127441, 1.346232533454895, 8.319175720214844, -2.610177993774414, -1.4459651708602905, -2.4573469161987305, 0.04541015625, -0.14501953125, -0.825927734375
117, 2249818511, -5.055060863494873, 1.346057653427124, 8.298794746398926, -2.507765054702759, -1.4118232727050781, -2.430248498916626, 0.0458984375, -0.14453125, -0.824462890625
118, 2249835178, -5.065845966339111, 1.3525395393371582, 8.309733390808105, -2.5281143188476562, -1.4049078226089478, -2.4169552326202393, 0.04443359375, -0.14501953125, -0.826416015625
119, 2249851845, -5.064128875732422, 1.3570538759231567, 8.31041431427002, -2.585897207260132, -1.3947397470474243, -2.483548879623413, 0.04638671875, -0.14306640625, -0.826904296875
120, 2249868512, -5.082048416137695, 1.3510240316390991, 8.316471099853516, -2.4855074882507324, -1.3421566486358643, -2.451775550842285, 0.044921875, -0.14501953125, -0.828857421875
121, 2249885179, -5.058251857757568, 1.3457376956939697, 8.317212104797363, -2.5618207454681396, -1.4444540739059448, -2.4858920574188232, 0.04638671875, -0.14501953125, -0.828369140625
122, 2249901846, -5.070746898651123, 1.3454169034957886, 8.321269989013672, -2.587766647338867, -1.4514846801757812, -2.456604242324829, 0.044921875, -0.14404296875, -0.826416015625
123, 2249918513, -5.076001167297363, 1.3473591804504395, 8.326930046081543, -2.623035192489624, -1.4941681623458862, -2.52365779876709, 0.04638671875, -0.14404296875, -0.826416015625
124, 2249935180, -5.074565410614014, 1.3678258657455444, 8.317740440368652, -2.5710413455963135, -1.4710016250610352, -2.533134698867798, 0.0458984375, -0.14599609375, -0.825439453125
125, 2249951847, -5.08774995803833, 1.3491922616958618, 8.322538375854492, -2.536310911178589, -1.4676592350006104, -2.431401252746582, 0.0458984375, -0.1435546875, -0.826904296875
126, 2249968514, -5.067957401275635, 1.3460068702697754, 8.316948890686035, -2.5492961406707764, -1.4294705390930176, -2.44439959526062, 0.044189453125, -0.14404296875, -0.825927734375
127, 2249985181, -5.052199840545654, 1.3384603261947632, 8.32523250579834, -2.578981637954712, -1.3840209245681763, -2.470883369445801, 0.04541015625, -0.14501953125, -0.828857421875
128, 2250001848, -5.071434020996094, 1.3504353761672974, 8.337162971496582, -2.5519983768463135, -1.3898093700408936, -2.510211229324341, 0.0458984375, -0.14306640625, -0.826904296875
129, 2250018515, -5.085081577301025, 1.3388084173202515, 8.336740493774414, -2.579288959503174, -1.4093774557113647, -2.4638137817382812, 0.04541015625, -0.142578125, -0.828857421875
130, 2250035182, -5.0681047439575195, 1.3603966236114502, 8.310149192810059, -2.567840337753296, -1.3566280603408813, -2.538282871246338, 0.044921875, -0.14453125, -0.826904296875
131, 2250051849, -5.070117950439453, 1.3418140411376953, 8.33894157409668, -2.48740291595459, -1.3804219961166382, -2.525937080383301, 0.043701171875, -0.14501953125, -0.826904296875
132, 2250068516, -5.079824447631836, 1.3334988355636597, 8.31700325012207, -2.599740743637085, -1.3862875699996948, -2.527602434158325, 0.044921875, -0.14404296875, -0.828857421875
133, 2250085183, -5.0778961181640625, 1.3651106357574463, 8.324139595031738, -2.531456708908081, -1.3855061531066895, -2.473815441131592, 0.046875, -0.1455078125, -0.827392578125
134, 2250101850, -5.066586017608643, 1.3477262258529663, 8.323269844055176, -2.5542266368865967, -1.5431910753250122, -2.4956889152526855, 0.044921875, -0.1455078125, -0.826904296875
135, 2250118517, -5.064729690551758, 1.3542481660842896, 8.321572303771973, -2.5444045066833496, -1.3879395723342896, -2.4762489795684814, 0.04736328125, -0.142578125, -0.824951171875
136, 2250135184, -5.061915874481201, 1.3501249551773071, 8.32798957824707, -2.5565450191497803, -1.341414213180542, -2.4896700382232666, 0.044677734375, -0.14404296875, -0.824951171875
137, 2250151851, -5.065319061279297, 1.364561676979065, 8.321866035461426, -2.5295231342315674, -1.4381916522979736, -2.4283533096313477, 0.0458984375, -0.1435546875, -0.829345703125
138, 2250168518, -5.054928302764893, 1.35720956325531, 8.32408618927002, -2.497699022293091, -1.4537639617919922, -2.446153402328491, 0.04638671875, -0.142578125, -0.828857421875
139, 2250185185, -5.05859375, 1.3464969396591187, 8.322072982788086, -2.524272918701172, -1.4180858135223389, -2.4843170642852783, 0.043212890625, -0.14306640625, -0.828125
140, 2250201852, -5.063920497894287, 1.3467302322387695, 8.29405403137207, -2.481217622756958, -1.3913459777832031, -2.447805881500244, 0.0478515625, -0.14404296875, -0.827392578125
141, 2250218519, -5.064354419708252, 1.3520363569259644, 8.331145286560059, -2.534799337387085, -1.3900012969970703, -2.4616236686706543, 0.044189453125, -0.14501953125, -0.824951171875
142, 2250235186, -5.073736190795898, 1.3543815612792969, 8.309743881225586, -2.5339412689208984, -1.3963788747787476, -2.4536197185516357, 0.044189453125, -0.1455078125, -0.825927734375
143, 2250251853, -5.073528289794922, 1.3495116233825684, 8.303441047668457, -2.5012080669403076, -1.4000284671783447, -2.4348199367523193, 0.04443359375, -0.1435546875, -0.828369140625
144, 2250268520, -5.072878837585449, 1.343560814857483, 8.319643020629883, -2.5103392601013184, -1.4726407527923584, -2.4749937057495117, 0.044921875, -0.1455078125, -0.828369140625
145, 2250285187, -5.064993381500244, 1.348764419555664, 8.308369636535645, -2.504845380783081, -1.4528292417526245, -2.4312217235565186, 0.046875, -0.14501953125, -0.826904296875
146, 2250301854, -5.075565338134766, 1.3444488048553467, 8.328824043273926, -2.5542521476745605, -1.5884356498718262, -2.4712417125701904, 0.0458984375, -0.1435546875, -0.824951171875
147, 2250318521, -5.081420421600342, 1.345738172531128, 8.320784568786621, -2.5834507942199707, -1.4815155267715454, -2.3600568771362305, 0.044677734375, -0.1435546875, -0.824951171875
148, 2250335188, -5.072452545166016, 1.3533004522323608, 8.314192771911621, -2.506587028503418, -1.484025478363037, -2.4105136394500732, 0.04638671875, -0.1435546875, -0.825927734375
149, 2250351855, -5.068981647491455, 1.3636208772659302, 8.318108558654785, -2.547401189804077, -1.5906128883361816, -2.424536943435669, 0.04443359375, -0.1455078125, -0.828369140625
150, 2250368522, -5.066518306732178, 1.3389177322387695, 8.33438777923584, -2.628913640975952, -1.6028046607971191, -2.4421966075897217, 0.04345703125, -0.14404296875, -0.830078125
151, 2250385189, -5.06638240814209, 1.352656602859497, 8.294236183166504, -2.4329757690429688, -1.539207935333252, -2.366011381149292, 0.046875, -0.14453125, -0.828857421875
152, 2250401856, -5.076714992523193, 1.349433422088623, 8.31771469116211, -2.483304977416992, -1.4438776969909668, -2.3254411220550537, 0.044677734375, -0.14404296875, -0.824462890625
153, 2250418523, -5.074263095855713, 1.3631511926651, 8.339092254638672, -2.541317939758301, -1.5120971202850342, -2.3637068271636963, 0.046875, -0.1435546875, -0.825927734375
154, 2250435190, -5.074393272399902, 1.3484152555465698, 8.319217681884766, -2.5419583320617676, -1.6385983228683472, -2.378011465072632, 0.04443359375, -0.1455078125, -0.826416015625
155, 2250451857, -5.0797014236450195, 1.3359991312026978, 8.31208610534668, -2.626492977142334, -1.6396868228912354, -2.3120334148406982, 0.04638671875, -0.14453125, -0.826904296875
156, 2250468524, -5.0677876472473145, 1.352244257926941, 8.329743385314941, -2.4999148845672607, -1.7445579767227173, -2.253085136413574, 0.043212890625, -0.14453125, -0.827392578125
157, 2250485191, -5.068137168884277, 1.3543155193328857, 8.330568313598633, -2.517971992492676, -1.815722942352295, -2.2642526626586914, 0.04541015625, -0.14453125, -0.829345703125
158, 2250501858, -5.075723648071289, 1.3501105308532715, 8.345588684082031, -2.5856025218963623, -1.8497366905212402, -2.304656505584717, 0.04443359375, -0.1435546875, -0.826904296875
159, 2250518525, -5.067595481872559, 1.3562572002410889, 8.338314056396484, -2.708056926727295, -1.8108566999435425, -2.2755863666534424, 0.04541015625, -0.14306640625, -0.824462890625
160, 2250535192, -5.05059814453125, 1.35321044921875, 8.32603931427002, -2.490502119064331, -1.7912369966506958, -2.2621138095855713, 0.04541015625, -0.14453125, -0.827392578125
161, 2250551859, -5.05872106552124, 1.3668807744979858, 8.351621627807617, -2.4601640701293945, -1.5934172868728638, -2.245478391647339, 0.04541015625, -0.14453125, -0.829345703125
162, 2250568526, -5.056916236877441, 1.3467363119125366, 8.328728675842285, -2.452441692352295, -1.5539610385894775, -2.2664294242858887, 0.044921875, -0.14453125, -0.82958984375
163, 2250585193, -5.039551734924316, 1.3512645959854126, 8.304058074951172, -2.5609374046325684, -1.6067488193511963, -2.3331637382507324, 0.04541015625, -0.14501953125, -0.827880859375
164, 2250601860, -5.042388439178467, 1.3476113080978394, 8.317974090576172, -2.539473295211792, -1.4282408952713013, -2.379534959793091, 0.04443359375, -0.14453125, -0.827880859375
165, 2250618527, -5.059872627258301, 1.356583595275879, 8.33154296875, -2.5203537940979004, -1.4722052812576294, -2.344970941543579, 0.043701171875, -0.146484375, -0.824951171875
166, 2250635194, -5.050300598144531, 1.3644156455993652, 8.329869270324707, -2.527794361114502, -1.4716417789459229, -2.386514663696289, 0.044921875, -0.14404296875, -0.826904296875
167, 2250651861, -5.057659149169922, 1.349448561668396, 8.326189994812012, -2.492640972137451, -1.4692213535308838, -2.3686881065368652, 0.043212890625, -0.14453125, -0.824951171875
168, 2250668528, -5.055920600891113, 1.3595365285873413, 8.316383361816406, -2.4832794666290283, -1.4894936084747314, -2.3572263717651367, 0.043212890625, -0.1455078125, -0.827880859375
169, 2250685195, -5.064950466156006, 1.351605772972107, 8.329051971435547, -2.452211380004883, -1.4745616912841797, -2.3613245487213135, 0.044921875, -0.14501953125, -0.827392578125
170, 2250701862, -5.059807777404785, 1.3397670984268188, 8.319830894470215, -2.444143056869507, -1.5129421949386597, -2.3819682598114014, 0.04443359375, -0.14453125, -0.827880859375
171, 2250718529, -5.054443836212158, 1.3586264848709106, 8.322016716003418, -2.558824300765991, -1.5787029266357422, -2.470665454864502, 0.044189453125, -0.14453125, -0.824462890625
172, 2250735196, -5.04377555847168, 1.36015784740448, 8.33165168762207, -2.527294874191284, -1.507371425628662, -2.3660757541656494, 0.04443359375, -0.146240234375, -0.825927734375
173, 2250751863, -5.049499988555908, 1.355546236038208, 8.337713241577148, -2.548694372177124, -1.5195246934890747, -2.3589553833007812, 0.043212890625, -0.14453125, -0.82958984375
174, 2250768530, -5.056568145751953, 1.355781078338623, 8.326632499694824, -2.539409637451172, -1.4593861103057861, -2.401228904724121, 0.042724609375, -0.14404296875, -0.830078125
175, 2250785197, -5.041564464569092, 1.3662611246109009, 8.333908081054688, -2.474801778793335, -1.4104658365249634, -2.4243061542510986, 0.04541015625, -0.1455078125, -0.828369140625
176, 2250801864, -5.054633617401123, 1.3577549457550049, 8.30433464050293, -2.58219575881958, -1.5182313919067383, -2.4700253009796143, 0.044921875, -0.14306640625, -0.827880859375
177, 2250818531, -5.05919885635376, 1.3661537170410156, 8.326091766357422, -2.6660518646240234, -1.507256269454956, -2.4754295349121094, 0.043701171875, -0.14453125, -0.826416015625
178, 2250835198, -5.043625831604004, 1.3461381196975708, 8.303597450256348, -2.67793607711792, -1.5394259691238403, -2.5321614742279053, 0.043701171875, -0.1435546875, -0.826416015625
179, 2250851865, -5.054380416870117, 1.3534106016159058, 8.348397254943848, -2.6499416828155518, -1.5367494821548462, -2.5440971851348877, 0.042724609375, -0.14501953125, -0.82861328125
180, 2250868532, -5.047696113586426, 1.3737186193466187, 8.305475234985352, -2.6619410514831543, -1.4409067630767822, -2.5052168369293213, 0.04443359375, -0.14453125, -0.827880859375
181, 2250885199, -5.064294338226318, 1.3473788499832153, 8.337189674377441, -2.5935165882110596, -1.4014118909835815, -2.5115435123443604, 0.043212890625, -0.14404296875, -0.8291015625
182, 2250901866, -5.058454990386963, 1.3685002326965332, 8.32275390625, -2.555161952972412, -1.4010790586471558, -2.5042309761047363, 0.044189453125, -0.14501953125, -0.825927734375
183, 2250918533, -5.066282272338867, 1.3584986925125122, 8.335826873779297, -2.6201281547546387, -1.4265506267547607, -2.5370662212371826, 0.044677734375, -0.14453125, -0.824462890625
184, 2250935200, -5.052605628967285, 1.3661279678344727, 8.326911926269531, -2.6274662017822266, -1.438819169998169, -2.535875082015991, 0.044189453125, -0.14404296875, -0.825927734375
185, 2250951867, -5.066386699676514, 1.3567346334457397, 8.333944320678711, -2.805666446685791, -1.487329363822937, -2.600585699081421, 0.0458984375, -0.142578125, -0.827392578125
186, 2250968534, -5.053561210632324, 1.3576240539550781, 8.314739227294922, -2.827040195465088, -1.55478036403656, -2.6422314643859863, 0.04443359375, -0.142578125, -0.82861328125
187, 2250985201, -5.0595784187316895, 1.3620083332061768, 8.336307525634766, -2.828563690185547, -1.573285698890686, -2.608832359313965, 0.043701171875, -0.14306640625, -0.827392578125
188, 2251001868, -5.0647711753845215, 1.3635764122009277, 8.324623107910156, -2.266096591949463, -1.5525394678115845, -2.4489967823028564, 0.044189453125, -0.1435546875, -0.826904296875
189, 2251018535, -5.062702655792236, 1.3366578817367554, 8.316773414611816, -2.154629945755005, -1.83818519115448, -2.4278790950775146, 0.046875, -0.14501953125, -0.824462890625
190, 2251035202, -5.061948776245117, 1.3870972394943237, 8.3117094039917, -2.066791534423828, -2.117786407470703, -2.393174171447754, 0.0458984375, -0.14501953125, -0.828857421875
191, 2251051869, -5.0695037841796875, 1.3775798082351685, 8.337971687316895, -2.5143091678619385, -2.271052598953247, -2.5698375701904297, 0.044921875, -0.14453125, -0.828857421875
192, 2251068536, -5.065230846405029, 1.3772698640823364, 8.342185020446777, -3.1429343223571777, -2.5990102291107178, -2.838693618774414, 0.044189453125, -0.142578125, -0.827880859375
193, 2251085203, -5.045576095581055, 1.3699359893798828, 8.282217025756836, -3.684361696243286, -2.869288682937622, -3.089608907699585, 0.042724609375, -0.142578125, -0.828125
194, 2251101870, -5.050781726837158, 1.3276777267456055, 8.331219673156738, -3.0237202644348145, -2.6988487243652344, -2.755145311355591, 0.04443359375, -0.1455078125, -0.828369140625
195, 2251118537, -5.03114128112793, 1.355838656425476, 8.359216690063477, -2.759256601333618, -2.739586114883423, -2.7310314178466797, 0.043212890625, -0.14453125, -0.826904296875
196, 2251135204, -5.027251243591309, 1.3588608503341675, 8.340067863464355, -3.1704044342041016, -2.7243592739105225, -2.94450044631958, 0.042724609375, -0.14453125, -0.825439453125
197, 2251151871, -5.016042232513428, 1.3555930852890015, 8.353052139282227, -3.4111251831054688, -2.878598928451538, -3.0723204612731934, 0.044677734375, -0.14453125, -0.825439453125
198, 2251168538, -5.031717777252197, 1.3413007259368896, 8.313225746154785, -3.395322561264038, -2.9064528942108154, -2.977605104446411, 0.041748046875, -0.14306640625, -0.8271484375
199, 2251185205, -5.034692287445068, 1.3419950008392334, 8.351393699645996, -3.2707674503326416, -3.043224334716797, -2.959214448928833, 0.041748046875, -0.14111328125, -0.8291015625
200, 2251201872, -5.057675361633301, 1.3635928630828857, 8.317051887512207, -3.1869118213653564, -3.488373279571533, -2.982727527618408, 0.040771484375, -0.14404296875, -0.8271484375
201, 2251218539, -4.994041442871094, 1.331894040107727, 8.330245971679688, -2.9310402870178223, -3.648592710494995, -2.858582019805908, 0.039794921875, -0.14306640625, -0.828125
202, 2251235206, -5.000188827514648, 1.3158427476882935, 8.34252643585205, -3.3917620182037354, -3.5256524085998535, -2.9922292232513428, 0.040283203125, -0.14453125, -0.833251953125
203, 2251251873, -5.007225513458252, 1.3582462072372437, 8.36749267578125, -4.258496284484863, -3.912954807281494, -3.4806506633758545, 0.037841796875, -0.142578125, -0.82958984375
204, 2251268540, -4.9629292488098145, 1.1962729692459106, 8.377067565917969, -4.6001057624816895, -3.638540506362915, -3.370068073272705, 0.037353515625, -0.1416015625, -0.831787109375
205, 2251285207, -4.919818878173828, 1.1729915142059326, 8.378541946411133, -4.520143032073975, -3.182813882827759, -2.93369197845459, 0.038330078125, -0.14111328125, -0.82861328125
206, 2251301874, -4.955498695373535, 1.1828784942626953, 8.371627807617188, -3.413583993911743, -2.1714706420898438, -2.2243096828460693, 0.039306640625, -0.140625, -0.828125
207, 2251318541, -4.997063159942627, 1.2816705703735352, 8.334739685058594, -2.5460684299468994, -2.239382028579712, -1.5847985744476318, 0.038818359375, -0.14208984375, -0.82666015625
208, 2251335208, -4.988330364227295, 1.3854681253433228, 8.358064651489258, -2.723795175552368, -3.206031084060669, -1.5768970251083374, 0.037353515625, -0.14111328125, -0.826171875
209, 2251351875, -4.964413642883301, 1.3307700157165527, 8.361854553222656, -1.806809425354004, -3.5500736236572266, -1.7072784900665283, 0.035400390625, -0.14208984375, -0.829345703125
210, 2251368542, -5.016977787017822, 1.4307334423065186, 8.33611011505127, -2.067687749862671, -4.4043474197387695, -1.8243287801742554, 0.036865234375, -0.14208984375, -0.829833984375
211, 2251385209, -5.002403736114502, 1.4021600484848022, 8.40902328491211, -2.969907760620117, -4.849777698516846, -2.3583405017852783, 0.0322265625, -0.140625, -0.830810546875
212, 2251401876, -4.964077472686768, 1.2059714794158936, 8.386337280273438, -2.367382287979126, -3.494187593460083, -2.2276265621185303, 0.035888671875, -0.1435546875, -0.828125
213, 2251418543, -4.938536167144775, 1.3201929330825806, 8.367746353149414, -0.3299555778503418, -1.5514508485794067, -1.2370293140411377, 0.03369140625, -0.1416015625, -0.826904296875
214, 2251435210, -4.968995571136475, 1.2840909957885742, 8.458742141723633, 1.445164680480957, 0.3076021373271942, -0.5325008630752563, 0.0361328125, -0.140625, -0.8271484375
215, 2251451877, -4.943151950836182, 1.3318607807159424, 8.449244499206543, 2.2212934494018555, 1.449723720550537, -0.2617489695549011, 0.0341796875, -0.1435546875, -0.828369140625
216, 2251468544, -4.983396530151367, 1.3361085653305054, 8.387741088867188, 2.4984867572784424, 2.2913830280303955, -0.1994204819202423, 0.036865234375, -0.14453125, -0.8291015625
217, 2251485211, -5.0092692375183105, 1.368798851966858, 8.377114295959473, 2.0348968505859375, 2.492032289505005, -0.181043341755867, 0.036376953125, -0.146484375, -0.828125
218, 2251501878, -5.009207725524902, 1.4644807577133179, 8.364246368408203, 1.1243399381637573, 1.7925368547439575, -0.654276430606842, 0.036865234375, -0.146484375, -0.8271484375
219, 2251518545, -4.942416191101074, 1.398625135421753, 8.334303855895996, 0.6634008884429932, 1.4573177099227905, -0.9607194662094116, 0.037841796875, -0.150146484375, -0.825439453125
220, 2251535212, -4.921030044555664, 1.3075191974639893, 8.316725730895996, 1.199385166168213, 1.818751573562622, -0.7367492914199829, 0.039794921875, -0.149169921875, -0.825927734375
221, 2251551879, -5.004730701446533, 1.4065357446670532, 8.329197883605957, 1.8006818294525146, 2.4929418563842773, -0.532961905002594, 0.040283203125, -0.147705078125, -0.826416015625
222, 2251568546, -5.020802974700928, 1.4024912118911743, 8.335258483886719, 1.599839687347412, 2.276386260986328, -0.48159563541412354, 0.04248046875, -0.151123046875, -0.83056640625
223, 2251585213, -5.024940490722656, 1.4752376079559326, 8.324363708496094, 1.3973712921142578, 2.269458293914795, -0.5482398867607117, 0.041748046875, -0.149658203125, -0.827880859375
224, 2251601880, -5.016070365905762, 1.4710545539855957, 8.321663856506348, 1.305908441543579, 1.9608252048492432, -0.7128270864486694, 0.041748046875, -0.154541015625, -0.824951171875
225, 2251618547, -5.026222229003906, 1.4870845079421997, 8.316669464111328, 1.1861945390701294, 2.2751312255859375, -0.774835467338562, 0.04638671875, -0.152099609375, -0.82421875
226, 2251635214, -5.055978298187256, 1.5048409700393677, 8.294154167175293, 0.947830080986023, 2.739041328430176, -0.7587506771087646, 0.042724609375, -0.155517578125, -0.824951171875
227, 2251651881, -5.06595516204834, 1.5530221462249756, 8.30993938446045, 0.7486528158187866, 2.7828519344329834, -1.0120346546173096, 0.04541015625, -0.154541015625, -0.82470703125
228, 2251668548, -5.000041961669922, 1.553203821182251, 8.328822135925293, -0.4698905944824219, 3.0194365978240967, -1.857087254524231, 0.04541015625, -0.154541015625, -0.82568359375
229, 2251685215, -4.999180793762207, 1.5737791061401367, 8.315481185913086, -1.3990298509597778, 3.326648473739624, -2.9331283569335938, 0.04736328125, -0.15576171875, -0.82470703125
230, 2251701882, -5.084068775177002, 1.5055463314056396, 8.27054214477539, -1.3130991458892822, 3.8491604328155518, -3.908869504928589, 0.0498046875, -0.15625, -0.824462890625
231, 2251718549, -5.03092098236084, 1.5226317644119263, 8.296789169311523, -0.5240870714187622, 5.240390777587891, -4.4464287757873535, 0.0498046875, -0.15673828125, -0.822021484375
232, 2251735216, -5.159300327301025, 1.4979591369628906, 8.25766658782959, 0.6690486073493958, 7.137869358062744, -5.004299640655518, 0.0517578125, -0.158203125, -0.823974609375
233, 2251751883, -5.1467204093933105, 1.482955813407898, 8.219331741333008, 1.2741873264312744, 8.385516166687012, -5.127305030822754, 0.052978515625, -0.15869140625, -0.822509765625
234, 2251768550, -5.03352689743042, 1.5965954065322876, 8.260571479797363, 1.6324964761734009, 10.138708114624023, -6.168693542480469, 0.056396484375, -0.16015625, -0.82470703125
235, 2251785217, -4.991860389709473, 1.499159812927246, 8.265573501586914, 3.2561395168304443, 15.10721206665039, -7.395700931549072, 0.0615234375, -0.158203125, -0.82275390625
236, 2251801884, -4.8037428855896, 1.3815419673919678, 8.2682466506958, 6.5061469078063965, 23.530780792236328, -8.10844898223877, 0.06689453125, -0.162841796875, -0.821044921875
237, 2251818551, -4.592921257019043, 1.623152256011963, 8.316060066223145, 5.549197196960449, 39.70698547363281, -9.020615577697754, 0.074462890625, -0.162841796875, -0.82080078125
238, 2251835218, -5.256674766540527, 1.3705646991729736, 8.17213249206543, 8.248316764831543, 52.786922454833984, -9.797061920166016, 0.088623046875, -0.16552734375, -0.816650390625
239, 2251851885, -5.35811185836792, 1.4900747537612915, 8.097729682922363, 13.280163764953613, 66.04198455810547, -9.612846374511719, 0.103515625, -0.16650390625, -0.817626953125
240, 2251868552, -5.332056522369385, 1.6281827688217163, 8.061981201171875, 15.038470268249512, 80.75161743164062, -10.505404472351074, 0.122314453125, -0.173583984375, -0.8134765625
241, 2251885219, -5.466070175170898, 1.7112764120101929, 8.15666675567627, 14.3685884475708, 99.7342758178711, -15.222261428833008, 0.146240234375, -0.17529296875, -0.806640625
242, 2251901886, -5.700299263000488, 1.6592036485671997, 8.055551528930664, 12.016956329345703, 120.15291595458984, -21.209794998168945, 0.17333984375, -0.175537109375, -0.80078125
243, 2251918553, -5.917614936828613, 1.3556216955184937, 7.814778804779053, 11.82040786743164, 141.1176300048828, -23.47142791748047, 0.205810546875, -0.176025390625, -0.7890625
244, 2251935220, -6.1256632804870605, 1.4562429189682007, 7.642410755157471, 10.494712829589844, 165.69508361816406, -24.484033584594727, 0.243896484375, -0.17626953125, -0.7763671875
245, 2251951887, -6.310602188110352, 1.7196935415267944, 7.520264625549316, 5.59036111831665, 195.42788696289062, -27.234174728393555, 0.2880859375, -0.175537109375, -0.76220703125
246, 2251968554, -6.873170852661133, 1.7255876064300537, 7.052366256713867, -4.493612766265869, 230.65032958984375, -36.06585693359375, 0.336181640625, -0.173828125, -0.7412109375
247, 2251985221, -6.743316173553467, 1.977217197418213, 7.028744697570801, -15.759781837463379, 281.69696044921875, -46.24993133544922, 0.3955078125, -0.16650390625, -0.711669921875
248, 2252001888, -7.627854824066162, 2.5943498611450195, 7.283735752105713, -18.747209548950195, 350.8218688964844, -58.43560791015625, 0.4658203125, -0.153076171875, -0.6640625
249, 2252018555, -9.916829109191895, 2.3434231281280518, 7.931298732757568, -16.859458923339844, 408.59857177734375, -74.68437957763672, 0.541259765625, -0.13818359375, -0.603271484375
250, 2252035222, -14.475242614746094, 1.7493679523468018, 9.216294288635254, -6.848271369934082, 420.78753662109375, -83.28230285644531, 0.6142578125, -0.123779296875, -0.526611328125
251, 2252051889, -15.205366134643555, 2.1903982162475586, 8.727144241333008, 8.096131324768066, 407.51666259765625, -81.84635925292969, 0.677490234375, -0.108642578125, -0.443359375
252, 2252068556, -14.829448699951172, 2.499878406524658, 8.609760284423828, 5.668428897857666, 414.04779052734375, -92.71954345703125, 0.725341796875, -0.09130859375, -0.351806640625
253, 2252085223, -15.321614265441895, 3.5843915939331055, 11.285470008850098, -4.291170120239258, 415.6241149902344, -102.59033966064453, 0.761474609375, -0.0712890625, -0.25
254, 2252101890, -12.524162292480469, 2.859445095062256, 11.498494148254395, 2.7391979694366455, 364.71722412109375, -88.67399597167969, 0.784423828125, -0.05029296875, -0.15283203125
255, 2252118557, -8.239562034606934, 0.390977680683136, 13.667258262634277, 47.563114166259766, 215.22483825683594, -36.80860900878906, 0.790283203125, -0.041748046875, -0.08056640625
256, 2252135224, -30.59558868408203, 5.324886322021484, 28.475624084472656, 104.09095764160156, 46.55068588256836, -51.5809211730957, 0.794677734375, -0.030517578125, -0.041748046875
257, 2252151891, -11.121526718139648, 7.482790470123291, 20.394914627075195, 55.14284133911133, -184.11109924316406, -51.47611618041992, 0.79541015625, -0.02099609375, -0.06005859375
258, 2252168558, -3.342261791229248, 4.201552867889404, 10.106744766235352, -10.18675708770752, -239.34971618652344, -79.74826049804688, 0.80078125, -0.00439453125, -0.10009765625
259, 2252185225, -4.484152793884277, 3.9217422008514404, 8.888413429260254, -37.32771682739258, -253.47023010253906, -70.64759063720703, 0.80224609375, 0.011962890625, -0.149169921875
260, 2252201892, -5.696542739868164, 5.29855489730835, 9.908915519714355, -65.62422943115234, -297.17767333984375, -63.123802185058594, 0.79833984375, 0.030029296875, -0.21435546875
261, 2252218559, -6.324710845947266, 4.008117198944092, 9.093153953552246, -74.28357696533203, -354.7613830566406, -51.50882339477539, 0.7861328125, 0.04833984375, -0.291748046875
262, 2252235226, -5.402477741241455, 2.769106388092041, 6.763151168823242, -36.52874755859375, -391.92938232421875, -11.339523315429688, 0.762939453125, 0.055908203125, -0.391357421875
263, 2252251893, -4.26521635055542, 3.665140390396118, 4.722557067871094, 7.298029899597168, -401.0553894042969, 33.11686325073242, 0.7177734375, 0.046875, -0.4970703125
264, 2252268560, -5.4629106521606445, 5.201765060424805, 5.7610673904418945, 21.025590896606445, -396.8691711425781, 67.53108215332031, 0.64697265625, 0.03271484375, -0.592529296875
265, 2252285227, -8.447810173034668, 5.951447486877441, 7.307875633239746, 9.351884841918945, -403.88812255859375, 98.5768051147461, 0.557373046875, 0.018310546875, -0.67236328125
266, 2252301894, -8.425145149230957, 5.0698418617248535, 6.9144978523254395, -8.901432991027832, -409.90301513671875, 112.13133239746094, 0.46044921875, 0.016845703125, -0.724365234375
267, 2252318561, -7.776416778564453, 2.612703323364258, 4.44660758972168, 1.389064073562622, -373.2234191894531, 115.0235824584961, 0.373046875, 0.012939453125, -0.76708984375
268, 2252335228, -9.34421157836914, 1.1961734294891357, 5.499570846557617, 39.27283477783203, -294.08245849609375, 112.48876953125, 0.30029296875, -9.765625E-4, -0.77978515625
269, 2252351895, -14.624082565307617, 0.8667310476303101, 13.278216361999512, 75.19989013671875, -252.4760284423828, 104.19319915771484, 0.245361328125, -0.021728515625, -0.780517578125
270, 2252368562, -17.398845672607422, 1.1132882833480835, 13.06014633178711, 87.51488494873047, -256.4554443359375, 74.58395385742188, 0.21484375, -0.046630859375, -0.771484375
271, 2252385229, -17.58017349243164, -0.3549472391605377, 10.19848346710205, 91.7693862915039, -235.39810180664062, 29.640432357788086, 0.199462890625, -0.0732421875, -0.77734375
272, 2252401896, -19.611555099487305, 1.2998576164245605, 9.081316947937012, 107.97206115722656, -203.21395874023438, 11.334657669067383, 0.19287109375, -0.102294921875, -0.811767578125
273, 2252418563, -21.004432678222656, 2.18172025680542, 8.265421867370605, 116.3881607055664, -184.509033203125, 21.029733657836914, 0.167724609375, -0.13525390625, -0.8623046875
274, 2252435230, -19.72711181640625, 0.5436675548553467, 4.826724529266357, 122.83425903320312, -171.85972595214844, 50.6956901550293, 0.119873046875, -0.182373046875, -0.91455078125
275, 2252451897, -19.14464569091797, -1.742395043373108, 3.0847885608673096, 111.6539535522461, -144.92422485351562, 75.75170135498047, 0.0517578125, -0.23583984375, -0.940185546875
276, 2252468564, -20.363691329956055, -2.1943156719207764, 2.6307661533355713, 70.3516616821289, -131.7707977294922, 99.01842498779297, -0.022216796875, -0.27685546875, -0.9482421875
277, 2252485231, -20.509666442871094, -2.2971839904785156, -1.4459197521209717, -8.139500617980957, -119.80714416503906, 105.5731430053711, -0.0908203125, -0.29248046875, -0.93603515625
278, 2252501898, -19.41705322265625, -5.149060249328613, -6.636570453643799, -48.62602996826172, -86.86454010009766, 101.03047943115234, -0.14404296875, -0.284912109375, -0.927734375
279, 2252518565, -19.379926681518555, -6.7290263175964355, -8.091361999511719, -39.184608459472656, -33.59953308105469, 100.56971740722656, -0.179443359375, -0.274658203125, -0.91943359375
280, 2252535232, -19.25701904296875, -6.874809265136719, -6.981254577636719, -37.45795822143555, 21.825708389282227, 93.24384307861328, -0.195068359375, -0.260986328125, -0.922119140625
281, 2252551899, -19.13722038269043, -7.180064678192139, -2.171297311782837, -55.17413330078125, 56.500831604003906, 69.57705688476562, -0.195068359375, -0.246826171875, -0.92724609375
282, 2252568566, 4.418814659118652, -5.451627254486084, 16.588197708129883, -66.35791015625, 29.905611038208008, -11.439543724060059, -0.194580078125, -0.2294921875, -0.940673828125
283, 2252585233, 5.2276225090026855, 10.384014129638672, 12.974417686462402, 31.20011329650879, 136.1291046142578, -30.465635299682617, -0.170166015625, -0.23681640625, -0.946044921875
284, 2252601900, -4.682238578796387, 1.3055377006530762, 5.529745101928711, 15.636826515197754, 203.43824768066406, -58.4896240234375, -0.12890625, -0.2490234375, -0.9541015625
285, 2252618567, -15.023022651672363, -3.9951963424682617, 16.06805992126465, 14.790207862854004, 178.90834045410156, -35.64311599731445, -0.08056640625, -0.256103515625, -0.958984375
286, 2252635234, -7.352035999298096, 3.038048505783081, 10.33859920501709, 23.237539291381836, 146.13006591796875, -22.13274574279785, -0.0439453125, -0.26318359375, -0.960205078125
287, 2252651901, -7.705088138580322, 4.798224925994873, 10.441929817199707, 20.133056640625, 129.8692626953125, -13.331422805786133, -0.01220703125, -0.27099609375, -0.96337890625
288, 2252668568, -11.402022361755371, 9.430932998657227, 10.174224853515625, -29.22150230407715, 105.66525268554688, -35.48020553588867, 0.01513671875, -0.267333984375, -0.965576171875
289, 2252685235, -6.761808395385742, -1.8992348909378052, 11.235640525817871, -41.75005340576172, 76.0084457397461, -31.775375366210938, 0.037109375, -0.25830078125, -0.968505859375
290, 2252701902, -5.975338935852051, 1.9302877187728882, 9.231069564819336, -39.55475997924805, 45.691078186035156, -18.08662223815918, 0.05322265625, -0.24658203125, -0.9736328125
291, 2252718569, -5.96715784072876, 1.1060535907745361, 9.303378105163574, -29.3737850189209, 26.912216186523438, -12.882101058959961, 0.062744140625, -0.235595703125, -0.97216796875
292, 2252735236, -5.818534851074219, 1.9725873470306396, 8.785490989685059, -18.457393646240234, 11.679753303527832, -9.281164169311523, 0.065673828125, -0.2333984375, -0.97314453125
293, 2252751903, -5.327079772949219, 1.6977406740188599, 8.552521705627441, -14.91067886352539, 5.840233325958252, -8.667475700378418, 0.06982421875, -0.2294921875, -0.974365234375
294, 2252768570, -5.389348983764648, 1.6005481481552124, 8.461783409118652, -9.477022171020508, 3.122298240661621, -5.987303733825684, 0.0712890625, -0.22607421875, -0.97509765625
295, 2252785237, -4.948644638061523, 1.718123435974121, 8.305636405944824, -8.173142433166504, 3.5059635639190674, -4.923428058624268, 0.06884765625, -0.22412109375, -0.9775390625
296, 2252801904, -4.839357852935791, 1.9126139879226685, 8.292655944824219, -8.164819717407227, 5.707082271575928, -4.849908351898193, 0.0703125, -0.22314453125, -0.9755859375
297, 2252818571, -5.083688735961914, 2.0366570949554443, 8.17352294921875, -9.157709121704102, 5.267350196838379, -6.026517391204834, 0.07421875, -0.219970703125, -0.97607421875
298, 2252835238, -5.109768390655518, 2.0707502365112305, 8.092557907104492, -12.144730567932129, 1.9488011598587036, -9.403721809387207, 0.075439453125, -0.217529296875, -0.97705078125
299, 2252851905, -5.222723960876465, 1.7245631217956543, 8.17109203338623, -14.742135047912598, -1.5192831754684448, -11.782085418701172, 0.07275390625, -0.213623046875, -0.97607421875
300, 2252868572, -5.21602725982666, 1.4783823490142822, 8.290141105651855, -16.696510314941406, -5.041112422943115, -11.931041717529297, 0.07470703125, -0.21044921875, -0.978271484375
301, 2252885239, -5.168717861175537, 1.633819818496704, 8.372167587280273, -20.585914611816406, -9.807421684265137, -13.654356956481934, 0.07177734375, -0.205078125, -0.979736328125
302, 2252901906, -5.1667866706848145, 1.9308305978775024, 8.330765724182129, -31.518314361572266, -16.893787384033203, -20.130353927612305, 0.067138671875, -0.198486328125, -0.97998046875
303, 2252918573, -5.540834903717041, 2.019444704055786, 8.242752075195312, -34.82002258300781, -22.353179931640625, -24.794565200805664, 0.063720703125, -0.18798828125, -0.98095703125
304, 2252935240, -5.093255519866943, 1.2689512968063354, 8.30513858795166, -27.444591522216797, -19.420692443847656, -20.671213150024414, 0.0595703125, -0.17919921875, -0.982666015625
305, 2252951907, -4.848038196563721, 0.8683452606201172, 8.397749900817871, -15.245561599731445, -8.519733428955078, -13.314297676086426, 0.05712890625, -0.17578125, -0.983154296875
306, 2252968574, -4.869211673736572, 1.0995116233825684, 8.426960945129395, -7.056211948394775, 1.5351040363311768, -8.24073600769043, 0.05712890625, -0.1728515625, -0.98486328125
307, 2252985241, -4.954800605773926, 1.3623135089874268, 8.39769458770752, -5.128240585327148, 6.802882194519043, -7.584601402282715, 0.05712890625, -0.171875, -0.98486328125
308, 2253001908, -5.043428421020508, 1.67208731174469, 8.359345436096191, -6.618492603302002, 8.402360916137695, -10.8441162109375, 0.062744140625, -0.17138671875, -0.987060546875
309, 2253018575, -4.922130107879639, 1.4215420484542847, 8.399334907531738, -7.8142266273498535, 11.083261489868164, -13.633771896362305, 0.066162109375, -0.17041015625, -0.983154296875
310, 2253035242, -5.002899646759033, 1.1453853845596313, 8.3988676071167, -6.689578056335449, 20.39859390258789, -13.736658096313477, 0.072265625, -0.16796875, -0.9833984375
311, 2253051909, -4.816374778747559, 1.0098185539245605, 8.464376449584961, -7.088128089904785, 31.94870948791504, -12.159041404724121, 0.080810546875, -0.16650390625, -0.983642578125
312, 2253068576, -4.646950721740723, 0.7738150358200073, 8.397443771362305, 5.044911861419678, 51.31340026855469, -11.209878921508789, 0.09375, -0.16650390625, -0.982666015625
313, 2253085243, -4.996352672576904, 1.1149938106536865, 8.570359230041504, 8.57992172241211, 71.50491333007812, -11.955463409423828, 0.111328125, -0.167236328125, -0.978271484375
314, 2253101910, -5.336674213409424, 1.1620333194732666, 8.461115837097168, 9.681212425231934, 89.58554077148438, -14.93383502960205, 0.135986328125, -0.170166015625, -0.973388671875
315, 2253118577, -5.4101128578186035, 1.0931906700134277, 8.187286376953125, 12.592435836791992, 106.57003784179688, -16.783700942993164, 0.16455078125, -0.1728515625, -0.96630859375
316, 2253135244, -5.455165863037109, 1.128177285194397, 8.078167915344238, 16.519010543823242, 127.30699920654297, -18.4403133392334, 0.195068359375, -0.174072265625, -0.957275390625
317, 2253151911, -5.60155725479126, 1.0053452253341675, 7.977035045623779, 18.256807327270508, 151.62966918945312, -20.827545166015625, 0.23486328125, -0.178955078125, -0.94580078125
318, 2253168578, -5.617535591125488, 0.652803897857666, 7.923376560211182, 18.921098709106445, 182.02699279785156, -20.49698829650879, 0.283447265625, -0.18115234375, -0.93212890625
319, 2253185245, -5.840861797332764, 1.1148146390914917, 7.804088115692139, 15.981595993041992, 225.34095764160156, -22.26132583618164, 0.337890625, -0.181884765625, -0.908203125
320, 2253201912, -6.246970176696777, 1.2555538415908813, 7.384794235229492, 7.069087028503418, 280.68170166015625, -30.556880950927734, 0.40478515625, -0.17919921875, -0.872802734375
321, 2253218579, -6.67696475982666, 2.01153564453125, 7.79863977432251, -5.0692830085754395, 360.8734130859375, -34.035438537597656, 0.484375, -0.169921875, -0.824462890625
322, 2253235246, -8.510884284973145, 2.188119888305664, 9.118461608886719, -6.446071147918701, 451.9324645996094, -42.295169830322266, 0.5791015625, -0.160888671875, -0.75341796875
323, 2253251913, -14.899569511413574, 1.3599762916564941, 11.548004150390625, 15.71805191040039, 488.9034729003906, -49.15645217895508, 0.675537109375, -0.1474609375, -0.65673828125
324, 2253268580, -17.39440155029297, 1.2731797695159912, 10.92262077331543, 33.794105529785156, 470.33416748046875, -51.59151840209961, 0.7578125, -0.134765625, -0.542724609375
325, 2253285247, -16.868667602539062, 3.62042498588562, 10.588440895080566, 18.335670471191406, 468.8604736328125, -64.70256805419922, 0.820068359375, -0.117919921875, -0.417236328125
326, 2253301914, -14.239545822143555, 3.440488576889038, 12.445101737976074, 5.502280235290527, 448.8753356933594, -76.2452392578125, 0.864013671875, -0.09521484375, -0.28564453125
327, 2253318581, -8.702085494995117, 2.314492702484131, 13.152677536010742, 38.765953063964844, 382.7475891113281, -48.37801742553711, 0.88623046875, -0.07568359375, -0.1630859375
328, 2253335248, -18.754182815551758, 0.7589281797409058, 19.4797420501709, 78.79048919677734, 225.8024444580078, -45.815101623535156, 0.894287109375, -0.066650390625, -0.076904296875
329, 2253351915, -25.38851547241211, 3.7431583404541016, 31.00510025024414, 119.6889877319336, -22.38102912902832, -66.96160125732422, 0.904052734375, -0.04443359375, -0.047119140625
330, 2253368582, -6.332935333251953, 6.838068008422852, 17.249727249145508, 87.66138458251953, -222.9210968017578, -45.79576873779297, 0.911865234375, -0.037109375, -0.092041015625
331, 2253385249, -2.6438565254211426, 4.606017112731934, 8.367247581481934, 21.358556747436523, -255.96388244628906, -60.544219970703125, 0.918212890625, -0.02978515625, -0.171875
332, 2253401916, -1.6750073432922363, 4.138147354125977, 6.254667282104492, -28.800220489501953, -258.2117614746094, -50.409828186035156, 0.90673828125, -0.022705078125, -0.26416015625
333, 2253418583, -2.854434013366699, 4.921143531799316, 7.06102180480957, -71.10919952392578, -272.82421875, -45.96501541137695, 0.8642578125, -0.017333984375, -0.355224609375
334, 2253435250, -5.1766510009765625, 3.571436643600464, 7.840418815612793, -89.53388214111328, -304.3443908691406, -32.94222640991211, 0.805908203125, -0.00439453125, -0.43701171875
335, 2253451917, -6.40164852142334, 2.3600685596466064, 7.699009418487549, -60.91554641723633, -344.9490966796875, -0.9048142433166504, 0.736328125, 0.002197265625, -0.50634765625
336, 2253468584, -7.432783603668213, 2.2736282348632812, 7.493696212768555, -19.919919967651367, -378.0469055175781, 31.24751091003418, 0.661376953125, 7.32421875E-4, -0.570556640625
337, 2253485251, -8.889887809753418, 3.0337963104248047, 7.962088108062744, -0.7688125967979431, -407.1370544433594, 54.533077239990234, 0.57568359375, -0.009521484375, -0.62841796875
338, 2253501918, -9.090177536010742, 3.226181745529175, 7.542464256286621, -8.636549949645996, -429.0815734863281, 61.51530075073242, 0.48828125, -0.019287109375, -0.67041015625
339, 2253518585, -9.441819190979004, 0.9706399440765381, 7.092899322509766, -2.5534932613372803, -433.8518371582031, 59.20420837402344, 0.403564453125, -0.02490234375, -0.70654296875
340, 2253535252, -9.908713340759277, -1.5521759986877441, 5.663299560546875, 44.85892105102539, -414.8990173339844, 50.91610336303711, 0.31787109375, -0.04150390625, -0.731689453125
341, 2253551919, -11.905815124511719, -3.0030100345611572, 5.322577476501465, 104.1258773803711, -343.3815002441406, 29.600507736206055, 0.2548828125, -0.06982421875, -0.74462890625
342, 2253568586, -15.844283103942871, -0.8157172203063965, 11.120321273803711, 132.45115661621094, -282.02508544921875, -3.829960823059082, 0.21337890625, -0.1005859375, -0.754150390625
343, 2253585253, -21.33058738708496, 0.5698764324188232, 13.389891624450684, 135.2314910888672, -286.7234802246094, -26.375606536865234, 0.17333984375, -0.132568359375, -0.76904296875
344, 2253601920, -20.40273666381836, 0.7968670725822449, 8.679734230041504, 138.71560668945312, -271.5945129394531, -15.057479858398438, 0.118896484375, -0.172607421875, -0.790771484375
345, 2253618587, -22.52665901184082, 1.3898075819015503, 6.82359504699707, 135.97108459472656, -233.33123779296875, 24.759382247924805, 0.056884765625, -0.2138671875, -0.80322265625
346, 2253635254, -23.135364532470703, -0.12408514320850372, 4.941316604614258, 89.4999008178711, -212.4696502685547, 45.54785919189453, -0.012939453125, -0.24951171875, -0.803466796875
347, 2253651921, -22.46933364868164, -4.32501745223999, 0.41311684250831604, 48.77933883666992, -188.574462890625, 50.29419708251953, -0.077880859375, -0.267578125, -0.79296875
348, 2253668588, -22.839508056640625, -5.513403415679932, -3.3201310634613037, 30.623258590698242, -147.28909301757812, 56.41500473022461, -0.128662109375, -0.278076171875, -0.77880859375
349, 2253685255, -24.44511604309082, -3.9595787525177, -6.054931163787842, 5.946946144104004, -110.70053100585938, 71.0015640258789, -0.1630859375, -0.279296875, -0.76416015625
350, 2253701922, -22.357826232910156, -5.390790939331055, -10.439279556274414, -27.040353775024414, -63.6958122253418, 82.40064239501953, -0.1904296875, -0.27294921875, -0.751953125
351, 2253718589, -20.582365036010742, -6.802398204803467, -10.468335151672363, -40.40555191040039, 8.488762855529785, 97.53422546386719, -0.204345703125, -0.259765625, -0.7490234375
352, 2253735256, -7.736296653747559, -11.642431259155273, -1.191602110862732, -19.919836044311523, 96.10851287841797, 95.30088806152344, -0.197021484375, -0.249267578125, -0.75341796875
353, 2253751923, 3.4496946334838867, -6.585795879364014, 23.149738311767578, -7.173583984375, 128.32498168945312, -37.27927780151367, -0.181396484375, -0.245361328125, -0.757568359375
354, 2253768590, -4.264259338378906, 3.9878013134002686, 4.987304210662842, 47.1268424987793, 198.22085571289062, -42.78761291503906, -0.142578125, -0.26025390625, -0.75927734375
355, 2253785257, -14.6542329788208, 1.6951849460601807, 14.496896743774414, 35.28190231323242, 189.08677673339844, -18.467674255371094, -0.09814453125, -0.267578125, -0.75830078125
356, 2253801924, -6.624139308929443, 3.0127971172332764, 9.639627456665039, 22.93183135986328, 136.9325408935547, -17.413969039916992, -0.071533203125, -0.27490234375, -0.75830078125
357, 2253818591, -7.639843463897705, 8.452620506286621, 9.99860668182373, 13.949345588684082, 139.36512756347656, -13.492775917053223, -0.040771484375, -0.2822265625, -0.7568359375
358, 2253835258, -11.666926383972168, 2.8746378421783447, 11.374918937683105, -32.65992736816406, 92.82853698730469, -40.44379806518555, -0.015625, -0.2763671875, -0.760009765625
359, 2253851925, -7.388326168060303, -0.8837057948112488, 11.838523864746094, -41.85192108154297, 48.92041778564453, -26.674083709716797, -0.002197265625, -0.266845703125, -0.762451171875
360, 2253868592, -5.687703609466553, 2.1030452251434326, 8.9156494140625, -38.98878479003906, 21.83350372314453, -19.497549057006836, 0.00390625, -0.261474609375, -0.766357421875
361, 2253885259, -5.684307098388672, 1.4778412580490112, 8.924822807312012, -31.72097396850586, 9.80316162109375, -16.893310546875, 0.010986328125, -0.25341796875, -0.76611328125
362, 2253901926, -5.040018081665039, 1.226241946220398, 8.803378105163574, -20.95174789428711, 1.8104313611984253, -13.998921394348145, 0.0087890625, -0.247314453125, -0.768310546875
363, 2253918593, -4.873148441314697, 1.2922691106796265, 8.653037071228027, -21.70907974243164, -2.806671619415283, -14.460465431213379, 0.010986328125, -0.242919921875, -0.769775390625
364, 2253935260, -4.861052513122559, 1.886467695236206, 8.452756881713867, -25.529569625854492, -5.919178009033203, -15.996694564819336, 0.011474609375, -0.239990234375, -0.7705078125
365, 2253951927, -5.052121639251709, 1.9657498598098755, 8.50586223602295, -25.911043167114258, -9.458765983581543, -17.89362335205078, 0.00830078125, -0.2333984375, -0.771240234375
366, 2253968594, -5.112956523895264, 1.603449821472168, 8.36003303527832, -21.898605346679688, -8.0772705078125, -16.985639572143555, 0.01025390625, -0.228271484375, -0.773193359375
367, 2253985261, -4.936250686645508, 0.6434687972068787, 8.50152587890625, -11.18447208404541, -0.16719983518123627, -9.553876876831055, 0.0078125, -0.226806640625, -0.77587890625
368, 2254001928, -4.732179641723633, 1.195044994354248, 8.463836669921875, -3.228520154953003, 6.1122355461120605, -4.412877082824707, 0.01025390625, -0.224365234375, -0.775146484375
369, 2254018595, -4.799258708953857, 1.318567156791687, 8.456189155578613, -1.217244029045105, 7.376978397369385, -3.696387767791748, 0.012451171875, -0.227294921875, -0.775146484375
370, 2254035262, -4.8918561935424805, 1.5788227319717407, 8.411334037780762, -2.4322080612182617, 6.063378810882568, -4.984245777130127, 0.013427734375, -0.228759765625, -0.773193359375
371, 2254051929, -5.055547714233398, 1.752311110496521, 8.403315544128418, -8.269064903259277, 0.09627179056406021, -9.708076477050781, 0.014404296875, -0.224853515625, -0.774169921875
372, 2254068596, -5.015645980834961, 1.4374985694885254, 8.417646408081055, -11.41528606414795, -3.820176839828491, -12.997101783752441, 0.014892578125, -0.223876953125, -0.775634765625
373, 2254085263, -5.01700496673584, 1.2822538614273071, 8.470666885375977, -9.996940612792969, -2.2702736854553223, -12.212952613830566, 0.014404296875, -0.222412109375, -0.777099609375
374, 2254101930, -4.810919761657715, 1.4939775466918945, 8.535840034484863, -9.522951126098633, -0.9065878987312317, -12.671573638916016, 0.014892578125, -0.219970703125, -0.776123046875
375, 2254118597, -4.946210861206055, 1.464531421661377, 8.476855278015137, -7.760899066925049, 1.9577405452728271, -14.072066307067871, 0.016845703125, -0.220458984375, -0.772705078125
376, 2254135264, -4.816842555999756, 1.3975956439971924, 8.535215377807617, -8.85590934753418, 7.229174613952637, -14.748912811279297, 0.018310546875, -0.218505859375, -0.775634765625
377, 2254151931, -5.030664443969727, 1.4074523448944092, 8.473396301269531, -9.227352142333984, 14.535099983215332, -16.74693489074707, 0.02099609375, -0.21728515625, -0.775634765625
378, 2254168598, -4.993826389312744, 1.2743440866470337, 8.540693283081055, -10.41779613494873, 21.591827392578125, -19.960784912109375, 0.028564453125, -0.215576171875, -0.77783203125
379, 2254185265, -4.775063514709473, 0.8123441934585571, 8.518811225891113, -11.67143726348877, 32.34068298339844, -19.90218734741211, 0.034423828125, -0.21337890625, -0.775634765625
380, 2254201932, -4.56951379776001, 0.3286827504634857, 8.390992164611816, -1.2635891437530518, 49.911956787109375, -16.792680740356445, 0.046630859375, -0.213134765625, -0.774169921875
381, 2254218599, -5.109222412109375, 0.6736657619476318, 8.364415168762207, 4.025760650634766, 66.33028411865234, -13.54995346069336, 0.0625, -0.213623046875, -0.772216796875
382, 2254235266, -5.209688663482666, 1.0000485181808472, 8.39140796661377, 5.71964693069458, 79.94861602783203, -13.209389686584473, 0.0810546875, -0.21337890625, -0.7685546875
383, 2254251933, -5.388577938079834, 1.1402300596237183, 8.240129470825195, 7.1296706199646, 93.87125396728516, -15.89134693145752, 0.100830078125, -0.21630859375, -0.76611328125
384, 2254268600, -5.523280620574951, 1.0933494567871094, 8.09429931640625, 8.466619491577148, 108.10639953613281, -18.528852462768555, 0.125244140625, -0.216064453125, -0.76171875
385, 2254285267, -5.629956245422363, 0.8149762749671936, 7.95667839050293, 10.408141136169434, 125.41036224365234, -19.17564582824707, 0.15087890625, -0.21875, -0.75634765625
386, 2254301934, -5.815891265869141, 0.7991545796394348, 7.752925395965576, 10.24276351928711, 146.20907592773438, -19.302566528320312, 0.181396484375, -0.221923828125, -0.746826171875
387, 2254318601, -6.196905136108398, 0.9677168726921082, 7.534026622772217, 6.8770599365234375, 169.45584106445312, -22.959430694580078, 0.22314453125, -0.2236328125, -0.7353515625
388, 2254335268, -6.2549920082092285, 0.9839328527450562, 7.5308451652526855, 0.8397254943847656, 200.58421325683594, -31.216516494750977, 0.26220703125, -0.22021484375, -0.720458984375
389, 2254351935, -6.350434303283691, 1.3862621784210205, 7.381465911865234, -3.4369585514068604, 249.03555297851562, -40.481712341308594, 0.310302734375, -0.218505859375, -0.7001953125
390, 2254368602, -6.743832588195801, 1.1292756795883179, 7.159771919250488, -11.029197692871094, 313.2332458496094, -49.78738021850586, 0.37060546875, -0.212158203125, -0.667236328125
391, 2254385269, -7.772331237792969, 1.9037625789642334, 8.944307327270508, -14.534989356994629, 405.0257873535156, -52.08123779296875, 0.444580078125, -0.203369140625, -0.62109375
392, 2254401936, -11.996577262878418, 1.6803709268569946, 10.23742961883545, -5.850407123565674, 477.2574462890625, -58.98981857299805, 0.526611328125, -0.194091796875, -0.550048828125
393, 2254418603, -16.968482971191406, 0.3112711012363434, 11.451805114746094, 8.167254447937012, 475.09967041015625, -60.798770904541016, 0.60009765625, -0.18701171875, -0.46484375
394, 2254435270, -16.284494400024414, 2.140404462814331, 10.828808784484863, 1.6686912775039673, 477.1368713378906, -63.15220260620117, 0.658935546875, -0.17529296875, -0.370361328125
395, 2254451937, -17.100919723510742, 4.107937812805176, 12.058618545532227, 6.2875471115112305, 478.3650207519531, -69.87306213378906, 0.70751953125, -0.158203125, -0.266357421875
396, 2254468604, -12.825913429260254, 1.9429881572723389, 13.593929290771484, 10.729598045349121, 418.6469421386719, -63.19974899291992, 0.733642578125, -0.141845703125, -0.164306640625
397, 2254485271, -10.212592124938965, -0.22041767835617065, 18.809709548950195, 35.310752868652344, 252.97340393066406, -22.19504165649414, 0.7412109375, -0.134765625, -0.085693359375
398, 2254501938, -31.944435119628906, 6.955713272094727, 29.409866333007812, 58.663246154785156, 74.36543273925781, -31.04446029663086, 0.733154296875, -0.120361328125, -0.040771484375
399, 2254518605, -10.449692726135254, 5.132389068603516, 21.607017517089844, -3.438309907913208, -204.0863800048828, -38.06020736694336, 0.71875, -0.103271484375, -0.052001953125
400, 2254535272, -3.344116449356079, 1.3528187274932861, 9.5965576171875, -52.19221496582031, -250.92752075195312, -70.60401153564453, 0.708251953125, -0.068115234375, -0.065673828125
401, 2254551939, -3.211153268814087, 0.8176217079162598, 7.458828926086426, -62.56243133544922, -265.00091552734375, -83.84700775146484, 0.710205078125, -0.027099609375, -0.07275390625
402, 2254568606, -5.328047275543213, 1.446683645248413, 9.014647483825684, -69.50495147705078, -308.8335876464844, -96.27484130859375, 0.7373046875, 0.02490234375, -0.085693359375
403, 2254585273, -5.975635051727295, 1.7642632722854614, 7.929954528808594, -74.46078491210938, -358.6787414550781, -105.73350524902344, 0.79296875, 0.085693359375, -0.14013671875
404, 2254601940, -6.017800331115723, 1.6066142320632935, 6.148594379425049, -48.70412063598633, -380.9559631347656, -94.96912384033203, 0.84326171875, 0.142822265625, -0.25927734375
405, 2254618607, -6.409002304077148, 2.9612860679626465, 4.960043430328369, 0.02783684805035591, -386.8046875, -61.80448532104492, 0.850341796875, 0.183349609375, -0.435546875
406, 2254635274, -6.620428562164307, 5.083982944488525, 5.147675514221191, 28.38733673095703, -380.7702331542969, -21.22188949584961, 0.7783203125, 0.18896484375, -0.60595703125
407, 2254651941, -8.177759170532227, 6.259464740753174, 6.918874740600586, 30.896377563476562, -373.73291015625, 24.913732528686523, 0.654541015625, 0.180419921875, -0.7265625
408, 2254668608, -9.7222318649292, 5.911741256713867, 7.945764064788818, 32.03456497192383, -382.7018737792969, 66.02533721923828, 0.5234375, 0.165283203125, -0.800048828125
409, 2254685275, -9.601204872131348, 5.814181327819824, 7.787994384765625, 42.74722671508789, -389.86212158203125, 98.34880065917969, 0.40673828125, 0.15087890625, -0.83740234375
410, 2254701942, -9.124103546142578, 4.553653240203857, 4.858880996704102, 62.49119186401367, -353.135498046875, 125.2653579711914, 0.313720703125, 0.13232421875, -0.869873046875
411, 2254718609, -11.841774940490723, 1.977364182472229, 6.485703468322754, 101.43058013916016, -287.69390869140625, 146.72283935546875, 0.2333984375, 0.1005859375, -0.903564453125
412, 2254735276, -15.671146392822266, 1.7851736545562744, 10.685620307922363, 117.19963073730469, -245.46946716308594, 130.28765869140625, 0.149169921875, 0.056396484375, -0.916748046875
413, 2254751943, -18.174741744995117, -1.4543870687484741, 11.215283393859863, 159.7546844482422, -231.3489532470703, 113.28182983398438, 0.06884765625, 0.00634765625, -0.90771484375
414, 2254768610, -20.98537254333496, -0.31882044672966003, 8.299369812011719, 178.09112548828125, -210.17652893066406, 94.10296630859375, 0.009033203125, -0.04638671875, -0.890625
415, 2254785277, -23.9288272857666, -1.0005391836166382, 7.4164042472839355, 132.77952575683594, -182.60914611816406, 54.301185607910156, -0.0361328125, -0.091796875, -0.88330078125
416, 2254801944, -23.7968807220459, -2.797173023223877, 3.84555721282959, 119.0071792602539, -170.14553833007812, 54.93551254272461, -0.08349609375, -0.130859375, -0.87548828125
417, 2254818611, -25.33521270751953, -1.5815856456756592, 2.230985641479492, 99.03648376464844, -161.88055419921875, 69.19705963134766, -0.129150390625, -0.162109375, -0.863525390625
418, 2254835278, -24.29531478881836, -1.823928952217102, -2.3379411697387695, 34.54708480834961, -161.6625518798828, 72.2796630859375, -0.174072265625, -0.1767578125, -0.850341796875
419, 2254851945, -21.628267288208008, -3.4534173011779785, -8.701404571533203, -15.267601013183594, -121.00289154052734, 75.9375991821289, -0.21533203125, -0.173095703125, -0.841064453125
420, 2254868612, -22.938135147094727, -3.6891801357269287, -8.933553695678711, -37.574363708496094, -61.23881530761719, 84.2890853881836, -0.239501953125, -0.16015625, -0.837158203125
421, 2254885279, -24.66424560546875, -4.989845275878906, -4.829654216766357, -61.972801208496094, -37.63371276855469, 92.37931060791016, -0.253662109375, -0.140625, -0.836181640625
422, 2254901946, -4.253069877624512, -10.335899353027344, -4.57558536529541, -88.0855484008789, 22.510984420776367, 45.874488830566406, -0.2587890625, -0.111328125, -0.83984375
423, 2254918613, 9.147686958312988, -2.8313562870025635, 19.526329040527344, 10.425119400024414, 112.43785095214844, -13.570533752441406, -0.2412109375, -0.103515625, -0.843017578125
424, 2254935280, -4.352972507476807, 2.6359808444976807, 5.225456237792969, 58.09480285644531, 210.66375732421875, -41.87968444824219, -0.198486328125, -0.114501953125, -0.8515625
425, 2254951947, -13.097404479980469, -2.2477710247039795, 13.28388786315918, 57.80529022216797, 232.46287536621094, -16.531734466552734, -0.138916015625, -0.12548828125, -0.858642578125
426, 2254968614, -9.333404541015625, 3.758702278137207, 11.541722297668457, 70.09440612792969, 175.08334350585938, -2.6364283561706543, -0.09423828125, -0.1376953125, -0.859619140625
427, 2254985281, -9.413558006286621, 10.017428398132324, 11.932039260864258, 51.215301513671875, 158.3985137939453, -5.006542205810547, -0.054443359375, -0.150146484375, -0.86181640625
428, 2255001948, -12.310342788696289, 5.182009220123291, 10.350380897521973, -34.009300231933594, 103.60150146484375, -46.02072525024414, -0.022705078125, -0.143798828125, -0.861328125
429, 2255018615, -6.499217987060547, 0.24962982535362244, 10.584564208984375, -40.8182258605957, 64.26366424560547, -28.982227325439453, -0.001220703125, -0.133056640625, -0.86279296875
430, 2255035282, -5.8301801681518555, 2.127614974975586, 8.948689460754395, -34.8217887878418, 44.21445846557617, -18.438425064086914, 0.009033203125, -0.1240234375, -0.8662109375
431, 2255051949, -5.614903450012207, 1.7541375160217285, 9.216361045837402, -27.460329055786133, 28.070697784423828, -13.468585014343262, 0.01708984375, -0.113525390625, -0.86767578125
432, 2255068616, -5.3101935386657715, 2.710555076599121, 8.284530639648438, -22.65460777282715, 18.65239906311035, -13.907543182373047, 0.02392578125, -0.108154296875, -0.86865234375
433, 2255085283, -5.74985408782959, 1.6302720308303833, 8.728504180908203, -18.81470489501953, 10.082671165466309, -11.840774536132812, 0.027587890625, -0.10302734375, -0.86962890625
434, 2255101950, -5.116271495819092, 1.8920429944992065, 8.400286674499512, -14.617198944091797, 7.625147342681885, -7.950935363769531, 0.030517578125, -0.09814453125, -0.86962890625
435, 2255118617, -5.136849403381348, 2.311452865600586, 8.238133430480957, -12.704898834228516, 8.140089988708496, -7.324458599090576, 0.032470703125, -0.09765625, -0.868408203125
436, 2255135284, -5.190643787384033, 2.393855333328247, 8.110967636108398, -11.373763084411621, 6.773776531219482, -7.833765029907227, 0.0361328125, -0.09521484375, -0.868408203125
437, 2255151951, -5.108273983001709, 2.4851672649383545, 7.944796085357666, -11.344464302062988, 3.3881726264953613, -10.097636222839355, 0.034912109375, -0.092041015625, -0.869384765625
438, 2255168618, -5.177438259124756, 2.5278515815734863, 7.916844367980957, -18.16061782836914, -2.0187456607818604, -15.3538179397583, 0.037109375, -0.088134765625, -0.869873046875
439, 2255185285, -5.308282375335693, 1.9262349605560303, 8.289402961730957, -18.51757049560547, -0.7983109951019287, -15.761061668395996, 0.037109375, -0.0830078125, -0.86865234375
440, 2255201952, -5.257728576660156, 1.6883792877197266, 8.304429054260254, -17.190401077270508, 0.5334557890892029, -13.22604751586914, 0.035888671875, -0.07861328125, -0.8720703125
441, 2255218619, -5.345399856567383, 1.883424997329712, 8.252755165100098, -17.329832077026367, -0.1921851634979248, -11.912881851196289, 0.035888671875, -0.075439453125, -0.86962890625
442, 2255235286, -5.214144229888916, 2.0084192752838135, 8.193751335144043, -15.180599212646484, -3.1298112869262695, -11.080373764038086, 0.03759765625, -0.073974609375, -0.872314453125
443, 2255251953, -5.080539703369141, 2.041599988937378, 8.153264045715332, -17.647836685180664, -8.225276947021484, -14.066301345825195, 0.034423828125, -0.069091796875, -0.870849609375
444, 2255268620, -5.343264579772949, 2.4546542167663574, 8.048714637756348, -30.480138778686523, -15.263389587402344, -22.61363410949707, 0.034423828125, -0.060546875, -0.87158203125
445, 2255285287, -5.367003440856934, 1.6255539655685425, 8.19591236114502, -25.565500259399414, -12.166236877441406, -20.325210571289062, 0.033447265625, -0.055908203125, -0.875732421875
446, 2255301954, -5.0365447998046875, 1.3311632871627808, 8.373984336853027, -16.632266998291016, -4.611767768859863, -15.747114181518555, 0.0302734375, -0.04931640625, -0.874755859375
447, 2255318621, -5.169301509857178, 1.3396127223968506, 8.319864273071289, -9.390110969543457, 3.403412342071533, -11.375493049621582, 0.02880859375, -0.046875, -0.875
448, 2255335288, -5.101832389831543, 1.4776017665863037, 8.337850570678711, -5.011319637298584, 9.052947998046875, -8.35307502746582, 0.032470703125, -0.04443359375, -0.872802734375
449, 2255351955, -4.920357704162598, 1.8709733486175537, 8.320399284362793, -5.687242031097412, 14.73921012878418, -8.979092597961426, 0.034912109375, -0.044921875, -0.873779296875
450, 2255368622, -4.945767402648926, 1.6154497861862183, 8.297318458557129, -11.35844612121582, 24.039628982543945, -12.2408447265625, 0.0400390625, -0.0439453125, -0.87255859375
451, 2255385289, -4.845949649810791, 1.2528692483901978, 8.277847290039062, -0.6638720631599426, 37.569244384765625, -13.738218307495117, 0.052001953125, -0.041015625, -0.87060546875
452, 2255401956, -5.1119704246521, 1.4221432209014893, 8.296358108520508, 8.384164810180664, 55.123374938964844, -13.458003044128418, 0.06494140625, -0.043212890625, -0.873291015625
453, 2255418623, -5.169196128845215, 1.451411485671997, 8.495190620422363, 7.6656646728515625, 72.32572937011719, -14.292675971984863, 0.0810546875, -0.044677734375, -0.86865234375
454, 2255435290, -5.33435583114624, 1.4549542665481567, 8.187755584716797, 7.104711055755615, 90.83505249023438, -16.84222984313965, 0.106689453125, -0.0478515625, -0.867919921875
455, 2255451957, -5.433760166168213, 1.4186245203018188, 7.996586322784424, 9.568964958190918, 110.2436752319336, -19.084232330322266, 0.130859375, -0.048095703125, -0.861572265625
456, 2255468624, -5.597146511077881, 1.4342981576919556, 7.875338077545166, 11.4915189743042, 132.21002197265625, -22.306001663208008, 0.160400390625, -0.0517578125, -0.857666015625
457, 2255485291, -5.695240497589111, 1.2335652112960815, 7.817544460296631, 14.152174949645996, 157.064453125, -23.38153076171875, 0.199462890625, -0.051513671875, -0.847412109375
458, 2255501958, -5.731753349304199, 1.0321680307388306, 7.829264163970947, 12.268799781799316, 191.02223205566406, -22.056713104248047, 0.24267578125, -0.0537109375, -0.834228515625
459, 2255518625, -5.853816986083984, 1.3825374841690063, 7.316630840301514, 5.9064459800720215, 238.975341796875, -23.044870376586914, 0.295654296875, -0.055419921875, -0.81396484375
460, 2255535292, -6.641716957092285, 1.2440311908721924, 7.306420803070068, 1.6838696002960205, 302.7784118652344, -15.210315704345703, 0.36474609375, -0.0537109375, -0.783935546875
461, 2255551959, -6.794684410095215, 2.0079283714294434, 8.970846176147461, 4.988478660583496, 398.5797424316406, -4.810095310211182, 0.4453125, -0.052001953125, -0.738525390625
462, 2255568626, -10.71795654296875, 1.7162173986434937, 10.917571067810059, 23.693735122680664, 474.858154296875, -10.551737785339355, 0.537109375, -0.056640625, -0.67041015625
463, 2255585293, -16.65306854248047, 0.6353046298027039, 11.862770080566406, 38.4556884765625, 477.5653076171875, -25.933515548706055, 0.626220703125, -0.059326171875, -0.585205078125
464, 2255601960, -16.689533233642578, 4.648284912109375, 11.401826858520508, 31.70351219177246, 479.14306640625, -41.724308013916016, 0.701171875, -0.062255859375, -0.4873046875
465, 2255618627, -16.487520217895508, 5.170445442199707, 11.583995819091797, -3.766737461090088, 478.40301513671875, -77.19037628173828, 0.763671875, -0.056640625, -0.380859375
466, 2255635294, -10.562044143676758, 3.904531955718994, 11.712968826293945, -19.63067054748535, 431.83819580078125, -80.45479583740234, 0.80615234375, -0.042236328125, -0.272216796875
467, 2255651961, -5.489209175109863, -0.8890737295150757, 15.644418716430664, 19.610088348388672, 350.1635437011719, -49.15643310546875, 0.826416015625, -0.037109375, -0.176513671875
468, 2255668628, -32.58984375, 1.306564211845398, 23.491262435913086, 101.07540893554688, 206.75750732421875, -98.54547119140625, 0.832763671875, -0.02734375, -0.109375
469, 2255685295, -17.95841407775879, 4.104618549346924, 28.88723373413086, 159.40211486816406, -124.10025024414062, -65.66593170166016, 0.818603515625, -0.01953125, -0.10986328125
470, 2255701962, -5.5500946044921875, 6.28914213180542, 13.649881362915039, 108.07127380371094, -278.09088134765625, -72.44589233398438, 0.7978515625, -0.019775390625, -0.152587890625
471, 2255718629, -2.1292450428009033, 4.518150806427002, 5.982049942016602, 42.0257453918457, -290.3190612792969, -97.24578857421875, 0.774169921875, -0.002685546875, -0.202392578125
472, 2255735296, -1.2814486026763916, 4.52701997756958, 4.0558085441589355, -9.7457275390625, -284.713134765625, -85.65922546386719, 0.75244140625, 0.013671875, -0.23583984375
473, 2255751963, -3.3206284046173096, 5.8512725830078125, 5.199861526489258, -53.44143295288086, -288.6949462890625, -86.79829406738281, 0.73828125, 0.029541015625, -0.27490234375
474, 2255768630, -5.600605487823486, 5.0419135093688965, 6.685086727142334, -65.13768005371094, -311.90008544921875, -63.290828704833984, 0.722412109375, 0.049560546875, -0.320068359375
475, 2255785297, -7.224835395812988, 5.254436016082764, 7.48170804977417, -36.93815231323242, -355.1130065917969, -9.978713035583496, 0.699951171875, 0.056396484375, -0.366943359375
476, 2255801964, -7.27580451965332, 5.995490550994873, 6.468217849731445, -18.497243881225586, -385.1421813964844, 41.285179138183594, 0.684814453125, 0.046630859375, -0.417724609375
477, 2255818631, -7.7216362953186035, 6.248953819274902, 6.4642157554626465, -27.20667839050293, -394.3265686035156, 78.37882232666016, 0.67919921875, 0.024169921875, -0.492919921875
478, 2255835298, -9.42050552368164, 4.193464756011963, 7.184854030609131, -32.16312026977539, -404.8974609375, 106.49928283691406, 0.644775390625, -0.0029296875, -0.59619140625
479, 2255851965, -10.038439750671387, 1.8638604879379272, 7.040938854217529, -9.0960111618042, -407.405029296875, 118.01213073730469, 0.568359375, -0.028564453125, -0.69970703125
480, 2255868632, -9.336779594421387, -0.5181653499603271, 5.95772647857666, 31.24228286743164, -382.3899230957031, 107.84878540039062, 0.46826171875, -0.051513671875, -0.77783203125
481, 2255885299, -12.605340003967285, -3.481706380844116, 7.700596332550049, 96.1998291015625, -324.1582946777344, 88.6115493774414, 0.36083984375, -0.0830078125, -0.820068359375
482, 2255901966, -19.509803771972656, -1.0411419868469238, 12.676522254943848, 132.28561401367188, -291.7124938964844, 54.664337158203125, 0.265380859375, -0.125, -0.81787109375
483, 2255918633, -22.636394500732422, 0.34213748574256897, 13.707756042480469, 126.5386962890625, -298.2388610839844, 15.776785850524902, 0.201904296875, -0.158447265625, -0.79150390625
484, 2255935300, -22.24521255493164, 0.8841636180877686, 8.701761245727539, 122.28324127197266, -287.6310729980469, 19.010175704956055, 0.153564453125, -0.191162109375, -0.775390625
485, 2255951967, -24.038419723510742, 2.6133241653442383, 6.361934185028076, 100.79368591308594, -257.6765441894531, 47.22993850708008, 0.119873046875, -0.22021484375, -0.77197265625
486, 2255968634, -23.827882766723633, 0.36225321888923645, 2.4535865783691406, 46.539154052734375, -232.875, 67.16292572021484, 0.083251953125, -0.239990234375, -0.77978515625
487, 2255985301, -23.667009353637695, -3.898444652557373, -1.9759840965270996, 21.647268295288086, -192.15650939941406, 77.82042694091797, 0.0439453125, -0.25244140625, -0.79541015625
488, 2256001968, -24.552677154541016, -4.647458076477051, -5.593898296356201, 11.448921203613281, -144.7648468017578, 78.70561981201172, 0.00537109375, -0.257568359375, -0.807373046875
489, 2256018635, -23.993967056274414, -5.675420761108398, -10.444710731506348, 7.932953834533691, -94.27388000488281, 72.88831329345703, -0.025390625, -0.264892578125, -0.814208984375
490, 2256035302, -21.769229888916016, -5.334445953369141, -12.99876594543457, 7.500046253204346, -16.785621643066406, 80.66869354248047, -0.040283203125, -0.27099609375, -0.821044921875
491, 2256051969, -19.207040786743164, -4.590592384338379, -9.710294723510742, -31.381738662719727, 85.26307678222656, 85.638427734375, -0.031494140625, -0.26904296875, -0.83056640625
492, 2256068636, 0.2863221764564514, -5.654273509979248, 15.357144355773926, -28.391075134277344, 108.91313171386719, 29.492849349975586, -0.0029296875, -0.26025390625, -0.837890625
493, 2256085303, -4.352489948272705, -3.571997880935669, 18.048986434936523, 29.280956268310547, 146.1460723876953, -47.25599670410156, 0.040771484375, -0.26953125, -0.8388671875
494, 2256101970, -5.404714107513428, 0.1072615385055542, 5.939360618591309, 23.362062454223633, 177.64111328125, -57.30513000488281, 0.0927734375, -0.277099609375, -0.840576171875
495, 2256118637, -10.250482559204102, 4.971819877624512, 11.930578231811523, 22.95618438720703, 169.24313354492188, -24.82733154296875, 0.1455078125, -0.287353515625, -0.834716796875
496, 2256135304, -6.401224136352539, 3.098712205886841, 9.291793823242188, 21.86778450012207, 153.80685424804688, -17.87538719177246, 0.192138671875, -0.296142578125, -0.82763671875
497, 2256151971, -9.455732345581055, 6.99381160736084, 11.448748588562012, -7.218676567077637, 133.89085388183594, -30.05080795288086, 0.2314453125, -0.300537109375, -0.8203125
498, 2256168638, -9.646403312683105, 4.005659580230713, 9.891927719116211, -51.05232238769531, 88.85818481445312, -50.119232177734375, 0.263916015625, -0.287109375, -0.820068359375
499, 2256185305, -7.347597122192383, -1.759576439857483, 11.980497360229492, -62.84169006347656, 44.155052185058594, -33.53911209106445, 0.284423828125, -0.271240234375, -0.820068359375
500, 2256201972, -6.435802936553955, 2.5404489040374756, 8.786538124084473, -43.56968307495117, 23.146743774414062, -21.607656478881836, 0.293701171875, -0.25634765625, -0.82568359375
501, 2256218639, -5.644042015075684, 1.5217196941375732, 8.934008598327637, -23.849536895751953, 11.04603099822998, -14.611543655395508, 0.300048828125, -0.252197265625, -0.81787109375
502, 2256235306, -5.19569730758667, 1.2663425207138062, 8.725746154785156, -16.919445037841797, 3.0796315670013428, -13.83927059173584, 0.301025390625, -0.246337890625, -0.819580078125
503, 2256251973, -5.306177139282227, 1.0941112041473389, 8.638265609741211, -15.703691482543945, 1.9767842292785645, -11.605486869812012, 0.302978515625, -0.243896484375, -0.81982421875
504, 2256268640, -5.302589416503906, 1.693290114402771, 8.456360816955566, -12.246529579162598, 2.9590566158294678, -8.183148384094238, 0.3056640625, -0.240234375, -0.823974609375
505, 2256285307, -5.211573123931885, 1.6421574354171753, 8.454293251037598, -9.818926811218262, 2.7384278774261475, -7.393634796142578, 0.30517578125, -0.23974609375, -0.823486328125
506, 2256301974, -5.234253883361816, 1.5881447792053223, 8.342094421386719, -6.647008895874023, 3.628929376602173, -5.789828300476074, 0.30810546875, -0.2373046875, -0.82177734375
507, 2256318641, -5.193689823150635, 1.6492691040039062, 8.302131652832031, -6.518459796905518, 2.6509342193603516, -5.678375720977783, 0.30908203125, -0.2353515625, -0.82177734375
508, 2256335308, -5.00880765914917, 1.7348196506500244, 8.181368827819824, -8.655802726745605, 0.9142521023750305, -7.202639579772949, 0.3125, -0.23388671875, -0.82177734375
509, 2256351975, -5.059213161468506, 1.497700572013855, 8.270618438720703, -7.375281810760498, 1.405695915222168, -7.581503391265869, 0.3134765625, -0.23193359375, -0.824462890625
510, 2256368642, -5.123884677886963, 1.5431065559387207, 8.291007041931152, -6.539488792419434, 2.329136848449707, -6.882852554321289, 0.31396484375, -0.2314453125, -0.82275390625
511, 2256385309, -5.22399377822876, 1.531867265701294, 8.231091499328613, -6.671879768371582, 1.562663197517395, -7.1233930587768555, 0.31396484375, -0.230224609375, -0.822265625
512, 2256401976, -5.169770240783691, 1.527898907661438, 8.278993606567383, -7.2653656005859375, 0.837298572063446, -7.750712871551514, 0.315673828125, -0.228759765625, -0.824951171875
513, 2256418643, -5.061942100524902, 1.6665033102035522, 8.280574798583984, -8.640832901000977, 0.06179707869887352, -9.495683670043945, 0.318603515625, -0.226806640625, -0.8232421875
514, 2256435310, -5.135805606842041, 1.6336090564727783, 8.274481773376465, -9.737944602966309, 0.5551493763923645, -12.309601783752441, 0.320068359375, -0.225830078125, -0.82275390625
515, 2256451977, -5.211587429046631, 1.4932351112365723, 8.31125259399414, -9.728507995605469, 3.8598318099975586, -13.575423240661621, 0.321533203125, -0.221435546875, -0.82421875
516, 2256468644, -5.090246200561523, 1.4364389181137085, 8.363260269165039, -6.423607349395752, 8.29810619354248, -12.29849910736084, 0.322021484375, -0.21728515625, -0.82470703125
517, 2256485311, -5.048309326171875, 1.3920650482177734, 8.43690299987793, -5.891262531280518, 15.479142189025879, -12.708566665649414, 0.32666015625, -0.21728515625, -0.82421875
518, 2256501978, -5.0923237800598145, 1.1937874555587769, 8.337860107421875, -4.881678581237793, 23.400880813598633, -13.612442970275879, 0.3330078125, -0.21533203125, -0.81982421875
519, 2256518645, -4.920954704284668, 1.180411458015442, 8.125758171081543, 3.2086424827575684, 37.35258865356445, -14.338400840759277, 0.34423828125, -0.217041015625, -0.820068359375
520, 2256535312, -5.308638572692871, 1.1798160076141357, 8.266039848327637, 7.501728534698486, 48.431236267089844, -14.257838249206543, 0.357177734375, -0.216552734375, -0.810546875
521, 2256551979, -5.292980194091797, 1.130988597869873, 8.285734176635742, 6.317341327667236, 57.80215835571289, -11.785394668579102, 0.3701171875, -0.218017578125, -0.8056640625
522, 2256568646, -5.358055591583252, 1.4128278493881226, 8.127821922302246, 6.306581020355225, 70.05364990234375, -12.46808910369873, 0.38671875, -0.21875, -0.800048828125
523, 2256585313, -5.5316691398620605, 1.5169641971588135, 7.987555503845215, 7.832868576049805, 84.22532653808594, -16.325345993041992, 0.40673828125, -0.2197265625, -0.790771484375
524, 2256601980, -5.643338680267334, 1.3195574283599854, 7.875704765319824, 8.32123851776123, 99.80598449707031, -20.21172523498535, 0.431640625, -0.21826171875, -0.7783203125
525, 2256618647, -5.696188926696777, 1.222467064857483, 7.855726718902588, 8.96333122253418, 119.06024169921875, -23.12310791015625, 0.459716796875, -0.220458984375, -0.76123046875
526, 2256635314, -5.835939884185791, 1.187940001487732, 7.829870700836182, 8.9552001953125, 142.3004150390625, -25.353015899658203, 0.490234375, -0.218505859375, -0.7431640625
527, 2256651981, -5.888355731964111, 0.802160382270813, 7.701725959777832, 9.63000774383545, 172.572509765625, -25.274188995361328, 0.528076171875, -0.21875, -0.720458984375
528, 2256668648, -5.994865894317627, 0.9102607369422913, 7.547297954559326, 11.146269798278809, 216.50611877441406, -24.693492889404297, 0.574951171875, -0.21533203125, -0.688720703125
529, 2256685315, -6.298691272735596, 0.972103476524353, 7.364926815032959, 6.074121475219727, 271.94720458984375, -27.307897567749023, 0.62744140625, -0.2158203125, -0.64599609375
530, 2256701982, -6.895856857299805, 1.5170515775680542, 7.343530654907227, -7.109068393707275, 350.5133361816406, -23.577529907226562, 0.6884765625, -0.21044921875, -0.58349609375
531, 2256718649, -8.159290313720703, 2.0842626094818115, 9.034356117248535, -9.880681037902832, 445.3997497558594, -24.839107513427734, 0.761474609375, -0.208251953125, -0.496826171875
532, 2256735316, -14.474236488342285, 1.8765228986740112, 11.029789924621582, 21.178367614746094, 493.4291687011719, -32.66352081298828, 0.831787109375, -0.20458984375, -0.38525390625
533, 2256751983, -17.248193740844727, 0.3217058479785919, 10.172569274902344, 41.504539489746094, 478.7223815917969, -36.489418029785156, 0.8857421875, -0.19775390625, -0.2724609375
534, 2256768650, -17.219158172607422, 4.815318584442139, 9.687844276428223, 36.34014129638672, 484.0174255371094, -50.41864776611328, 0.92333984375, -0.19091796875, -0.15869140625
535, 2256785317, -15.486003875732422, 2.8472821712493896, 11.836352348327637, 48.689308166503906, 462.1844787597656, -60.1778450012207, 0.945556640625, -0.171630859375, -0.049072265625
536, 2256801984, -10.915265083312988, 2.58028507232666, 12.914358139038086, 90.2212142944336, 398.2728576660156, -31.709665298461914, 0.95263671875, -0.1640625, 0.045654296875
537, 2256818651, -16.451736450195312, 4.3198699951171875, 19.286043167114258, 96.02000427246094, 231.3074493408203, -23.1071834564209, 0.95361328125, -0.161376953125, 0.092529296875
538, 2256835318, -28.428640365600586, 6.615729808807373, 29.86680793762207, 49.63291931152344, 12.573690414428711, -74.1565170288086, 0.94873046875, -0.146240234375, 0.072998046875
539, 2256851985, -9.220555305480957, 5.209273338317871, 18.832273483276367, 18.340606689453125, -219.77081298828125, -49.52244567871094, 0.9267578125, -0.138671875, -0.0244140625
540, 2256868652, -4.480752944946289, 3.184114456176758, 9.646223068237305, -25.30263900756836, -264.6845397949219, -78.74014282226562, 0.872802734375, -0.12158203125, -0.123779296875
541, 2256885319, -3.9189422130584717, 3.1268532276153564, 7.109320163726807, -49.97972106933594, -280.1417236328125, -101.59835815429688, 0.8056640625, -0.0947265625, -0.191650390625
542, 2256901986, -4.69952917098999, 3.48529052734375, 7.713993549346924, -69.65459442138672, -313.2231140136719, -110.07797241210938, 0.74365234375, -0.06103515625, -0.23046875
543, 2256918653, -5.652299404144287, 3.573395252227783, 7.295889377593994, -78.4489517211914, -353.2791442871094, -105.18550109863281, 0.7041015625, -0.0283203125, -0.25439453125
544, 2256935320, -5.470300197601318, 3.272491693496704, 6.095693588256836, -56.305419921875, -377.7330017089844, -77.51611328125, 0.688232421875, 0.002197265625, -0.294189453125
545, 2256951987, -5.806925296783447, 4.7258806228637695, 5.350241184234619, -19.671403884887695, -392.5063781738281, -27.564241409301758, 0.68505859375, 0.017578125, -0.3466796875
546, 2256968654, -6.924680709838867, 6.811161041259766, 6.140891075134277, -15.520476341247559, -401.0404968261719, 21.458106994628906, 0.677001953125, 0.02099609375, -0.42529296875
547, 2256985321, -9.174919128417969, 6.5586419105529785, 7.20623254776001, -33.02151870727539, -408.2557678222656, 63.29253005981445, 0.661865234375, 0.01171875, -0.514404296875
548, 2257001988, -8.890876770019531, 3.591003179550171, 6.287250518798828, -32.453895568847656, -410.6200256347656, 85.97245788574219, 0.636962890625, -0.0048828125, -0.61962890625
549, 2257018655, -8.814083099365234, 0.37366119027137756, 4.958455562591553, 11.665842056274414, -380.2239990234375, 86.34820556640625, 0.5849609375, -0.03662109375, -0.74755859375
550, 2257035322, -11.043993949890137, -1.1995604038238525, 5.532183647155762, 72.60676574707031, -320.8685302734375, 64.38738250732422, 0.48681640625, -0.088134765625, -0.862548828125
551, 2257051989, -14.782313346862793, 0.3114352822303772, 10.143082618713379, 107.2593002319336, -275.5658874511719, 29.349056243896484, 0.3505859375, -0.14892578125, -0.91650390625
552, 2257068656, -18.559640884399414, 1.2292110919952393, 11.85617446899414, 127.85933685302734, -277.1280517578125, 4.3070573806762695, 0.21435546875, -0.195556640625, -0.90478515625
553, 2257085323, -18.934795379638672, 2.10866641998291, 8.99277114868164, 140.01275634765625, -256.808837890625, 4.843125820159912, 0.116943359375, -0.231201171875, -0.868896484375
554, 2257101990, -22.079458236694336, 2.5769102573394775, 9.348871231079102, 114.59295654296875, -232.16201782226562, 14.508440017700195, 0.04638671875, -0.259033203125, -0.835693359375
555, 2257118657, -23.095291137695312, -1.1484479904174805, 7.546027660369873, 81.15786743164062, -227.37030029296875, 28.272890090942383, -0.0126953125, -0.2734375, -0.804443359375
556, 2257135324, -22.469907760620117, -4.895828723907471, 3.523681640625, 89.99226379394531, -212.9300079345703, 50.762718200683594, -0.06396484375, -0.283447265625, -0.7705078125
557, 2257151991, -23.23505973815918, -4.309844017028809, 0.8625986576080322, 97.99400329589844, -185.4393310546875, 77.3166732788086, -0.102294921875, -0.295654296875, -0.73876953125
558, 2257168658, -22.681970596313477, -2.2861897945404053, -3.8155746459960938, 55.49521255493164, -155.4455108642578, 100.82349395751953, -0.129638671875, -0.30126953125, -0.71630859375
559, 2257185325, -22.331315994262695, -3.6873998641967773, -8.513077735900879, -15.788436889648438, -98.92603302001953, 115.0909423828125, -0.14599609375, -0.293212890625, -0.709228515625
560, 2257201992, -22.398277282714844, -6.752943515777588, -10.54750919342041, -37.85240173339844, -36.744258880615234, 122.10785675048828, -0.155029296875, -0.278564453125, -0.708740234375
561, 2257218659, -22.316558837890625, -9.615318298339844, -8.581835746765137, -30.353818893432617, 25.78350257873535, 130.949462890625, -0.158203125, -0.262939453125, -0.7041015625
562, 2257235326, -0.8983475565910339, -9.944451332092285, 3.797978401184082, -9.901800155639648, 105.27494049072266, 94.18817138671875, -0.14404296875, -0.25146484375, -0.701416015625
563, 2257251993, 1.234398365020752, -7.461918830871582, 22.268203735351562, 28.787174224853516, 166.83526611328125, -54.15406036376953, -0.111083984375, -0.2470703125, -0.699951171875
564, 2257268660, -5.744777202606201, 4.175870895385742, 3.8819127082824707, 60.79334259033203, 217.25096130371094, -41.035789489746094, -0.064697265625, -0.2548828125, -0.693115234375
565, 2257285327, -13.904974937438965, 3.339818000793457, 14.955402374267578, 44.63031768798828, 195.66973876953125, -13.980676651000977, -0.013671875, -0.26025390625, -0.680419921875
566, 2257301994, -6.924722194671631, 4.821597576141357, 9.233525276184082, 27.22515106201172, 149.19273376464844, -18.828702926635742, 0.01904296875, -0.262939453125, -0.669189453125
567, 2257318661, -7.425405502319336, 6.601334571838379, 9.959735870361328, 0.8994825482368469, 135.7006072998047, -26.176036834716797, 0.051513671875, -0.260009765625, -0.65869140625
568, 2257335328, -12.255210876464844, 4.394969940185547, 11.715436935424805, -54.125938415527344, 95.0393295288086, -54.04532241821289, 0.078125, -0.247802734375, -0.658203125
569, 2257351995, -7.031674385070801, -1.7852261066436768, 11.465591430664062, -58.55691909790039, 52.28572463989258, -35.858734130859375, 0.09521484375, -0.234130859375, -0.658203125
570, 2257368662, -5.89753532409668, 1.72874116897583, 9.194269180297852, -48.492393493652344, 19.886287689208984, -24.564712524414062, 0.10302734375, -0.22265625, -0.658203125
571, 2257385329, -5.919967174530029, 1.4465539455413818, 8.841558456420898, -35.49712371826172, 8.666884422302246, -20.261253356933594, 0.105224609375, -0.211669921875, -0.659423828125
572, 2257401996, -5.439308166503906, 1.3554271459579468, 8.671093940734863, -14.89363956451416, 5.375196933746338, -11.972941398620605, 0.109130859375, -0.210205078125, -0.66015625
573, 2257418663, -5.155849456787109, 1.2772157192230225, 8.684035301208496, -11.933314323425293, 4.7637553215026855, -9.45610237121582, 0.112548828125, -0.206298828125, -0.6591796875
574, 2257435330, -5.062699794769287, 1.1073980331420898, 8.566725730895996, -9.138832092285156, 2.9743335247039795, -7.394659042358398, 0.114013671875, -0.204833984375, -0.6572265625
575, 2257451997, -5.132532596588135, 1.3859777450561523, 8.472318649291992, -5.62414026260376, 4.347110271453857, -4.277680397033691, 0.114501953125, -0.203857421875, -0.65771484375
576, 2257468664, -5.024745941162109, 1.602602243423462, 8.37563419342041, -4.238852024078369, 5.552661895751953, -2.7094783782958984, 0.11572265625, -0.202392578125, -0.65966796875
577, 2257485331, -5.109746932983398, 1.9066276550292969, 8.31149673461914, -6.102713584899902, 3.1770577430725098, -4.641483306884766, 0.1162109375, -0.20068359375, -0.66064453125
578, 2257501998, -5.072880268096924, 1.6834428310394287, 8.31274700164795, -8.560331344604492, -0.3841138482093811, -9.304510116577148, 0.11572265625, -0.201171875, -0.65771484375
579, 2257518665, -5.140806674957275, 1.3118971586227417, 8.352048873901367, -8.500924110412598, -0.7842996716499329, -9.685396194458008, 0.11669921875, -0.2001953125, -0.657470703125
580, 2257535332, -5.1537346839904785, 1.3307151794433594, 8.406113624572754, -7.63376522064209, 0.8994478583335876, -8.060844421386719, 0.1201171875, -0.19775390625, -0.654541015625
581, 2257551999, -5.249897003173828, 1.4096213579177856, 8.332355499267578, -5.993514060974121, 2.6628570556640625, -6.23132848739624, 0.119140625, -0.19677734375, -0.656982421875
582, 2257568666, -5.188427448272705, 1.4113636016845703, 8.297730445861816, -4.375020503997803, 3.6490607261657715, -4.641059875488281, 0.123046875, -0.1953125, -0.657958984375
583, 2257585333, -5.047606468200684, 1.5957192182540894, 8.300588607788086, -4.383025646209717, 3.9498698711395264, -5.157464504241943, 0.123779296875, -0.19580078125, -0.659912109375
584, 2257602000, -5.078369617462158, 1.6150130033493042, 8.305681228637695, -5.242998123168945, 3.5390422344207764, -7.8747687339782715, 0.124755859375, -0.193359375, -0.656982421875
585, 2257618667, -5.223584175109863, 1.482517123222351, 8.284435272216797, -6.453405380249023, 4.320052146911621, -10.28046989440918, 0.126220703125, -0.19482421875, -0.65478515625
586, 2257635334, -5.2087883949279785, 1.3484667539596558, 8.31636905670166, -4.780856132507324, 5.6448822021484375, -10.327109336853027, 0.129150390625, -0.1923828125, -0.654296875
587, 2257652001, -5.03438663482666, 1.4615224599838257, 8.375326156616211, -5.661858558654785, 10.025747299194336, -10.843466758728027, 0.130126953125, -0.19189453125, -0.6572265625
588, 2257668668, -5.085727691650391, 1.4532352685928345, 8.341803550720215, -7.302282333374023, 15.933489799499512, -13.170099258422852, 0.134765625, -0.1884765625, -0.65625
589, 2257685335, -4.924736976623535, 1.1397783756256104, 8.22451400756836, -3.833615779876709, 23.124528884887695, -13.711294174194336, 0.1376953125, -0.186767578125, -0.653564453125
590, 2257702002, -5.067455768585205, 1.136515498161316, 8.244702339172363, 5.433513164520264, 36.03696823120117, -13.534041404724121, 0.148193359375, -0.18701171875, -0.6533203125
591, 2257718669, -5.16400671005249, 1.0206562280654907, 8.267719268798828, 8.395857810974121, 47.478782653808594, -11.652766227722168, 0.15673828125, -0.189453125, -0.64794921875
592, 2257735336, -5.2970356941223145, 1.3517041206359863, 8.324254035949707, 8.424785614013672, 59.193809509277344, -10.329044342041016, 0.168212890625, -0.19091796875, -0.64306640625
593, 2257752003, -5.326565742492676, 1.4355391263961792, 8.181081771850586, 7.418540000915527, 73.85572814941406, -13.019118309020996, 0.181396484375, -0.193115234375, -0.64111328125
594, 2257768670, -5.5115790367126465, 1.5089688301086426, 8.01827621459961, 8.786377906799316, 90.8840560913086, -17.661954879760742, 0.20068359375, -0.191650390625, -0.634521484375
595, 2257785337, -5.644344806671143, 1.214678168296814, 7.930178642272949, 10.774765014648438, 108.63677978515625, -20.743961334228516, 0.221923828125, -0.1923828125, -0.626220703125
596, 2257802004, -5.763228416442871, 1.1649364233016968, 7.855161666870117, 12.032219886779785, 128.27865600585938, -22.362911224365234, 0.248291015625, -0.19140625, -0.61572265625
597, 2257818671, -5.860770225524902, 1.0054652690887451, 7.7274651527404785, 12.334877014160156, 151.39630126953125, -22.732158660888672, 0.2763671875, -0.193603515625, -0.602783203125
598, 2257835338, -5.990490913391113, 0.6875916719436646, 7.557248115539551, 13.856879234313965, 179.86489868164062, -19.826400756835938, 0.308349609375, -0.194091796875, -0.58447265625
599, 2257852005, -6.100471496582031, 0.9488513469696045, 7.4968743324279785, 12.164689064025879, 222.79086303710938, -17.01558494567871, 0.347412109375, -0.19287109375, -0.56005859375
600, 2257868672, -6.498537063598633, 1.2356772422790527, 6.8615264892578125, 5.867990016937256, 277.3111572265625, -20.105356216430664, 0.394287109375, -0.193359375, -0.53076171875
601, 2257885339, -7.324122905731201, 1.902247428894043, 7.6369194984436035, -6.6740193367004395, 355.6434326171875, -21.28083038330078, 0.445556640625, -0.189453125, -0.4873046875
602, 2257902006, -8.616626739501953, 2.415783405303955, 9.426209449768066, 0.5400540828704834, 443.2339782714844, -27.315654754638672, 0.505859375, -0.18505859375, -0.42431640625
603, 2257918673, -15.52077865600586, 1.9472143650054932, 10.808063507080078, 25.279781341552734, 476.9989318847656, -42.44401550292969, 0.568115234375, -0.178466796875, -0.3427734375
604, 2257935340, -16.50811195373535, 1.1350089311599731, 10.000709533691406, 36.162437438964844, 464.7955322265625, -50.95778274536133, 0.623046875, -0.1796875, -0.257080078125
605, 2257952007, -16.913522720336914, 4.708233833312988, 9.916613578796387, 25.772266387939453, 473.2083435058594, -68.46891021728516, 0.67041015625, -0.173583984375, -0.165771484375
606, 2257968674, -15.404118537902832, 3.3945584297180176, 11.697054862976074, 22.120786666870117, 451.43511962890625, -80.33379364013672, 0.70849609375, -0.166015625, -0.069091796875
607, 2257985341, -9.52191162109375, 2.5662624835968018, 12.985645294189453, 65.55677032470703, 389.1476135253906, -46.81103515625, 0.734619140625, -0.1591796875, 0.027099609375
608, 2258002008, -17.455596923828125, 2.093884229660034, 19.014911651611328, 92.42605590820312, 228.31346130371094, -42.27388381958008, 0.75048828125, -0.156494140625, 0.09130859375
609, 2258018675, -27.65066909790039, 3.8208134174346924, 29.86290740966797, 95.93907165527344, -6.1489667892456055, -81.18092346191406, 0.77685546875, -0.139892578125, 0.1181640625
610, 2258035342, -8.274300575256348, 5.95788049697876, 18.28721809387207, 65.3826904296875, -227.9449462890625, -59.23466491699219, 0.81201171875, -0.130859375, 0.07861328125
611, 2258052009, -4.227945327758789, 4.38093376159668, 8.899772644042969, -8.681795120239258, -272.1617126464844, -93.55919647216797, 0.84619140625, -0.116455078125, 0.007080078125
612, 2258068676, -3.072481632232666, 3.5230824947357178, 6.372337341308594, -58.46042251586914, -277.9871520996094, -108.4830093383789, 0.872314453125, -0.093017578125, -0.0732421875
613, 2258085343, -4.046792030334473, 4.261313438415527, 7.042990207672119, -86.94966125488281, -294.472900390625, -101.91020202636719, 0.8896484375, -0.068603515625, -0.16455078125
614, 2258102010, -6.507726192474365, 3.7235803604125977, 7.941399574279785, -92.26353454589844, -328.5340576171875, -83.63493347167969, 0.890380859375, -0.042724609375, -0.28173828125
615, 2258118677, -7.824184417724609, 3.2780792713165283, 8.022090911865234, -49.862918853759766, -378.8558654785156, -33.44347381591797, 0.857666015625, -0.023193359375, -0.4189453125
616, 2258135344, -7.144699573516846, 4.511041164398193, 6.216139316558838, -12.458355903625488, -413.1858215332031, 20.268394470214844, 0.77294921875, -0.030517578125, -0.55029296875
617, 2258152011, -6.722405433654785, 5.506465435028076, 4.92416524887085, -12.592495918273926, -415.5278015136719, 58.31101989746094, 0.64697265625, -0.039306640625, -0.648193359375
618, 2258168678, -8.40388011932373, 4.4535603523254395, 6.055752754211426, -30.08499526977539, -404.97772216796875, 78.04780578613281, 0.515625, -0.042724609375, -0.6884765625
619, 2258185345, -9.0560302734375, 2.0851588249206543, 7.504881858825684, -23.08724021911621, -404.4290771484375, 85.43011474609375, 0.4091796875, -0.031982421875, -0.698486328125
620, 2258202012, -8.859604835510254, -0.7791596055030823, 5.574871063232422, 15.884344100952148, -392.4106140136719, 76.03137969970703, 0.3291015625, -0.018310546875, -0.6953125
621, 2258218679, -10.31425952911377, -3.09136700630188, 5.070181846618652, 79.21485900878906, -324.0654296875, 49.53470993041992, 0.296875, -0.0146484375, -0.693603515625
622, 2258235346, -15.490928649902344, -1.010311484336853, 11.247183799743652, 126.35374450683594, -277.9098205566406, 12.921127319335938, 0.299072265625, -0.03466796875, -0.716064453125
623, 2258252013, -19.622159957885742, 1.2596882581710815, 13.44761848449707, 140.35848999023438, -292.90936279296875, -19.193572998046875, 0.286376953125, -0.0771484375, -0.781494140625
624, 2258268680, -18.923376083374023, 2.310854911804199, 9.023331642150879, 149.14654541015625, -278.7599182128906, -14.94435977935791, 0.228515625, -0.135498046875, -0.852294921875
625, 2258285347, -21.90688133239746, 3.5148425102233887, 8.662079811096191, 149.42379760742188, -244.22789001464844, 20.80784034729004, 0.131591796875, -0.200439453125, -0.888671875
626, 2258302014, -22.660995483398438, 1.6820335388183594, 6.854636192321777, 114.15467834472656, -229.0200653076172, 53.071781158447266, 0.03271484375, -0.250732421875, -0.8828125
627, 2258318681, -21.693870544433594, -2.780451536178589, 3.0137205123901367, 95.81438446044922, -204.87025451660156, 77.1758804321289, -0.0478515625, -0.2841796875, -0.85595703125
628, 2258335348, -21.402193069458008, -3.984447956085205, 0.30403271317481995, 91.06353759765625, -167.1729278564453, 95.4416275024414, -0.1044921875, -0.3056640625, -0.823486328125
629, 2258352015, -22.695165634155273, -2.640174388885498, -1.8497445583343506, 41.55434799194336, -133.8072052001953, 103.43608856201172, -0.145751953125, -0.31640625, -0.806640625
630, 2258368682, -22.619888305664062, -4.243436336517334, -6.494874477386475, -27.930986404418945, -99.89350891113281, 101.78791809082031, -0.175537109375, -0.31005859375, -0.79638671875
631, 2258385349, -23.343862533569336, -7.193414688110352, -9.087172508239746, -44.32949447631836, -54.85919189453125, 99.14539337158203, -0.197265625, -0.29541015625, -0.794677734375
632, 2258402016, -23.584789276123047, -7.082822322845459, -6.121426582336426, -52.76641082763672, -15.645369529724121, 89.5033950805664, -0.21240234375, -0.277099609375, -0.7939453125
633, 2258418683, -2.8369686603546143, -13.511175155639648, 0.5192322731018066, -56.42690658569336, 41.49352264404297, 55.219051361083984, -0.21142578125, -0.254638671875, -0.80078125
634, 2258435350, 8.029380798339844, -3.4386394023895264, 20.949420928955078, -6.366852760314941, 124.56748962402344, -38.062744140625, -0.189453125, -0.250244140625, -0.8037109375
635, 2258452017, -1.8284308910369873, 4.1200737953186035, 2.538391351699829, 50.5824089050293, 215.08087158203125, -38.09283447265625, -0.14208984375, -0.258056640625, -0.809814453125
636, 2258468684, -14.300004959106445, -0.40760093927383423, 15.89355182647705, 56.705047607421875, 212.05506896972656, -7.878590106964111, -0.087646484375, -0.26806640625, -0.805419921875
637, 2258485351, -8.203168869018555, 2.766519546508789, 11.663518905639648, 36.38091278076172, 150.44725036621094, -14.999165534973145, -0.047607421875, -0.272705078125, -0.801025390625
638, 2258502018, -7.477179050445557, 6.870474338531494, 9.443990707397461, 12.063809394836426, 128.7633056640625, -15.764585494995117, -0.018310546875, -0.275390625, -0.796630859375
639, 2258518685, -5.6900177001953125, 2.5047061443328857, 9.000256538391113, -9.056450843811035, 111.26048278808594, -24.260025024414062, 0.013671875, -0.273193359375, -0.794189453125
640, 2258535352, -9.85959529876709, 4.698101997375488, 11.516480445861816, -32.41857147216797, 96.87686157226562, -35.50547790527344, 0.039794921875, -0.263916015625, -0.79443359375
641, 2258552019, -7.725286483764648, -0.27708303928375244, 10.756246566772461, -39.15508270263672, 56.51713943481445, -32.68863296508789, 0.055419921875, -0.251953125, -0.797607421875
642, 2258568686, -6.111194133758545, 1.663631796836853, 9.857189178466797, -31.899988174438477, 33.51582717895508, -20.001300811767578, 0.06689453125, -0.243896484375, -0.799560546875
643, 2258585353, -5.525177955627441, 1.1575121879577637, 9.368843078613281, -26.55304527282715, 17.698190689086914, -15.524168014526367, 0.072021484375, -0.23388671875, -0.799560546875
644, 2258602020, -4.965895652770996, 1.7745904922485352, 8.651780128479004, -20.360671997070312, 12.159319877624512, -11.406938552856445, 0.07666015625, -0.23095703125, -0.80126953125
645, 2258618687, -5.336544513702393, 1.5379517078399658, 8.649740219116211, -12.574936866760254, 8.429204940795898, -8.567634582519531, 0.080078125, -0.2265625, -0.79931640625
646, 2258635354, -4.903377056121826, 1.6405882835388184, 8.477764129638672, -4.092487812042236, 6.930356979370117, -4.888915538787842, 0.0830078125, -0.2275390625, -0.797607421875
647, 2258652021, -4.831828594207764, 1.720726490020752, 8.413174629211426, -4.336334228515625, 7.264743804931641, -5.363749980926514, 0.08544921875, -0.2275390625, -0.798095703125
648, 2258668688, -4.9353508949279785, 1.8189762830734253, 8.389676094055176, -7.9962897300720215, 6.312118053436279, -7.389024257659912, 0.0859375, -0.22412109375, -0.799072265625
649, 2258685355, -5.140429973602295, 1.7489691972732544, 8.446990966796875, -12.402626037597656, 3.1775331497192383, -9.680506706237793, 0.086181640625, -0.221923828125, -0.80224609375
650, 2258702022, -4.813334941864014, 1.768653154373169, 8.390334129333496, -16.06401252746582, -0.8634308576583862, -12.462541580200195, 0.089111328125, -0.220458984375, -0.800537109375
651, 2258718689, -4.893690586090088, 1.5009925365447998, 8.437705993652344, -16.25395965576172, -2.6413779258728027, -13.826089859008789, 0.090087890625, -0.213623046875, -0.8017578125
652, 2258735356, -4.990478992462158, 1.6107395887374878, 8.417250633239746, -14.006169319152832, -3.0995633602142334, -13.260108947753906, 0.090087890625, -0.2109375, -0.80126953125
653, 2258752023, -5.207278251647949, 1.3959672451019287, 8.452851295471191, -11.221817970275879, -2.2891757488250732, -11.735699653625488, 0.090087890625, -0.21044921875, -0.80078125
654, 2258768690, -5.096559524536133, 1.4001151323318481, 8.42997932434082, -9.123299598693848, -1.0386595726013184, -10.278983116149902, 0.087646484375, -0.20703125, -0.803955078125
655, 2258785357, -5.111039638519287, 1.456115961074829, 8.432900428771973, -8.922558784484863, 0.13006773591041565, -9.510780334472656, 0.089111328125, -0.2041015625, -0.803955078125
656, 2258802024, -5.031891345977783, 1.54194974899292, 8.39527702331543, -11.352850914001465, -0.6881497502326965, -10.977240562438965, 0.092041015625, -0.20458984375, -0.803955078125
657, 2258818691, -4.9737958908081055, 1.6571390628814697, 8.407195091247559, -13.017682075500488, -1.550197720527649, -13.242985725402832, 0.092529296875, -0.200439453125, -0.802978515625
