Yaw,Pitch,Roll,MagX,MagY,MagZ,AccelX,AccelY,AccelZ,GyroX,GyroY,GyroZ
+124.691,-029.426,+011.087,+1.271,-0.726,+2.595,-04.6380,-01.5750,-08.1170,-00.010471,+00.004618,+00.000543
+124.690,-029.419,+011.076,+1.275,-0.681,+2.578,-04.6460,-01.6190,-08.0950,-00.010706,+00.004558,-00.000289
+124.693,-029.411,+011.064,+1.266,-0.691,+2.583,-04.6810,-01.5970,-08.1370,-00.011312,+00.009678,+00.000412
+124.696,-029.402,+011.048,+1.271,-0.711,+2.589,-04.6390,-01.6220,-08.0740,-00.012607,+00.007877,+00.001271
+124.699,-029.393,+011.031,+1.275,-0.721,+2.562,-04.6590,-01.5810,-08.0900,-00.013685,+00.008539,+00.001804
+124.703,-029.385,+011.015,+1.271,-0.721,+2.595,-04.6470,-01.5880,-08.1260,-00.010906,+00.008072,+00.003028
+124.707,-029.376,+011.002,+1.271,-0.716,+2.595,-04.6210,-01.5620,-08.0930,-00.007174,+00.005801,+00.002218
+124.710,-029.370,+010.990,+1.275,-0.721,+2.584,-04.6250,-01.5890,-08.1190,-00.008210,+00.004946,+00.001115
+124.713,-029.363,+010.978,+1.275,-0.701,+2.595,-04.6280,-01.5770,-08.1230,-00.008789,+00.006250,+00.001433
+124.717,-029.355,+010.965,+1.271,-0.741,+2.600,-04.6370,-01.5380,-08.1240,-00.006002,+00.006887,+00.000840
+124.720,-029.346,+010.955,+1.280,-0.706,+2.552,-04.6090,-01.5840,-08.1140,-00.005156,+00.004890,+00.000594
+124.721,-029.340,+010.946,+1.275,-0.696,+2.589,-04.6480,-01.5600,-08.0940,-00.005119,+00.004505,+00.000578
+124.721,-029.334,+010.941,+1.271,-0.701,+2.594,-04.6190,-01.5760,-08.0860,-00.005727,+00.004348,-00.000718
+124.721,-029.329,+010.935,+1.266,-0.716,+2.584,-04.6440,-01.5620,-08.1030,-00.003161,+00.004836,-00.000777
+124.720,-029.324,+010.931,+1.271,-0.691,+2.589,-04.6320,-01.5550,-08.0880,-00.001961,+00.004732,-00.000906
+124.720,-029.318,+010.927,+1.271,-0.731,+2.611,-04.6550,-01.5720,-08.1310,-00.002599,+00.003527,-00.000305
+124.719,-029.315,+010.925,+1.275,-0.721,+2.579,-04.6420,-01.5630,-08.1270,-00.000614,+00.002235,+00.000464
+124.717,-029.310,+010.924,+1.271,-0.726,+2.573,-04.6370,-01.5840,-08.1330,-00.001107,+00.000852,-00.001524
+124.716,-029.308,+010.923,+1.266,-0.721,+2.578,-04.6570,-01.5690,-08.1400,+00.001199,+00.000313,-00.000888
+124.715,-029.308,+010.923,+1.271,-0.711,+2.557,-04.6480,-01.5350,-08.1080,+00.000275,+00.000485,-00.001201
+124.713,-029.307,+010.922,+1.275,-0.716,+2.562,-04.6290,-01.5800,-08.1150,+00.001017,+00.000997,-00.002517
+124.709,-029.304,+010.923,+1.275,-0.721,+2.611,-04.6350,-01.5780,-08.1330,-00.001487,+00.002174,-00.000237
+124.707,-029.301,+010.923,+1.275,-0.726,+2.579,-04.6230,-01.5920,-08.1230,-00.001240,+00.001651,-00.000195
+124.707,-029.300,+010.919,+1.266,-0.696,+2.578,-04.6370,-01.5710,-08.1440,-00.003297,+00.001467,-00.001278
+124.706,-029.298,+010.916,+1.275,-0.726,+2.600,-04.6290,-01.5610,-08.1140,-00.002094,+00.002085,-00.001082
+124.703,-029.296,+010.917,+1.266,-0.721,+2.578,-04.6460,-01.5780,-08.1450,-00.000459,-00.001656,-00.002604
+124.701,-029.296,+010.917,+1.271,-0.731,+2.573,-04.6330,-01.5430,-08.1380,+00.001371,-00.001689,-00.000984
+124.697,-029.300,+010.918,+1.275,-0.726,+2.589,-04.6520,-01.5940,-08.0990,+00.000640,-00.002989,-00.002393
+124.693,-029.302,+010.919,+1.271,-0.706,+2.567,-04.6400,-01.5420,-08.1090,+00.000043,-00.000904,-00.001330
+124.689,-029.304,+010.921,+1.266,-0.691,+2.589,-04.6370,-01.5680,-08.1100,+00.000915,-00.000599,-00.003053
+124.684,-029.304,+010.924,+1.271,-0.726,+2.584,-04.6620,-01.5800,-08.1440,-00.001084,-00.000261,-00.003764
+124.681,-029.302,+010.922,+1.271,-0.711,+2.584,-04.6550,-01.5660,-08.1100,-00.005531,+00.004051,-00.000420
+124.679,-029.300,+010.918,+1.261,-0.716,+2.578,-04.6550,-01.5910,-08.0800,-00.006663,+00.004173,-00.000665
+124.680,-029.296,+010.908,+1.276,-0.681,+2.605,-04.6510,-01.5720,-08.0890,-00.009654,+00.004992,+00.000783
+124.683,-029.291,+010.893,+1.271,-0.706,+2.584,-04.6480,-01.5490,-08.1120,-00.012190,+00.005327,+00.003002
+124.688,-029.285,+010.876,+1.271,-0.706,+2.584,-04.6380,-01.5600,-08.1250,-00.013447,+00.004993,+00.004336
+124.693,-029.279,+010.859,+1.275,-0.741,+2.584,-04.6360,-01.5530,-08.1140,-00.014976,+00.004661,+00.005348
+124.702,-029.275,+010.836,+1.266,-0.701,+2.578,-04.6430,-01.5630,-08.1820,-00.018602,+00.004596,+00.010284
+124.714,-029.272,+010.811,+1.275,-0.731,+2.573,-04.6200,-01.5450,-08.1260,-00.015671,+00.004492,+00.007715
+124.724,-029.267,+010.790,+1.275,-0.736,+2.606,-04.5420,-01.5870,-08.1210,-00.017662,+00.000905,+00.010392
+124.735,-029.266,+010.768,+1.271,-0.726,+2.578,-04.6260,-01.5530,-08.1240,-00.012016,-00.000440,+00.008829
+124.745,-029.268,+010.748,+1.266,-0.731,+2.584,-04.6090,-01.5020,-08.1370,-00.010746,+00.002900,+00.008272
+124.755,-029.272,+010.732,+1.271,-0.696,+2.600,-04.5850,-01.5040,-08.1100,-00.007713,-00.002702,+00.008421
+124.764,-029.279,+010.719,+1.271,-0.721,+2.589,-04.5220,-01.5040,-08.0710,-00.008761,-00.003134,+00.008360
+124.771,-029.287,+010.707,+1.280,-0.736,+2.574,-04.5230,-01.6040,-08.0300,-00.011507,-00.007636,+00.010732
+124.780,-029.297,+010.697,+1.257,-0.731,+2.594,-04.7050,-01.6570,-08.1840,-00.004957,-00.006435,+00.010149
+124.792,-029.306,+010.684,+1.266,-0.701,+2.578,-04.6670,-01.4880,-08.0980,-00.006027,-00.006250,+00.009998
+124.804,-029.311,+010.669,+1.271,-0.746,+2.584,-04.6440,-01.4980,-08.2150,-00.008571,-00.002801,+00.011547
+124.816,-029.318,+010.655,+1.257,-0.731,+2.594,-04.6510,-01.4950,-08.1310,-00.007487,-00.002026,+00.010595
+124.827,-029.324,+010.639,+1.275,-0.676,+2.573,-04.6730,-01.5040,-08.0990,-00.006597,-00.001967,+00.007276
+124.836,-029.325,+010.627,+1.271,-0.736,+2.579,-04.6650,-01.5710,-08.0510,-00.000300,-00.001764,+00.006551
+124.842,-029.326,+010.621,+1.271,-0.701,+2.600,-04.6550,-01.5170,-08.1310,-00.004495,+00.002869,+00.006047
+124.851,-029.321,+010.603,+1.271,-0.731,+2.568,-04.6790,-01.5540,-08.1400,-00.013271,+00.009158,+00.006295
+124.861,-029.310,+010.582,+1.257,-0.721,+2.572,-04.6470,-01.5030,-08.1610,-00.012763,+00.011576,+00.007993
+124.874,-029.300,+010.565,+1.261,-0.741,+2.578,-04.6390,-01.5200,-08.1670,-00.006289,+00.007836,+00.008342
+124.884,-029.296,+010.553,+1.266,-0.731,+2.562,-04.6160,-01.5060,-08.1340,-00.006125,+00.000443,+00.005860
+124.889,-029.297,+010.547,+1.266,-0.736,+2.578,-04.6690,-01.4940,-08.1890,-00.001209,+00.002782,+00.002242
+124.889,-029.298,+010.547,+1.261,-0.751,+2.573,-04.6430,-01.5110,-08.1340,+00.002685,-00.001126,-00.001843
+124.885,-029.302,+010.554,+1.262,-0.721,+2.578,-04.6010,-01.4890,-08.1330,+00.008618,-00.006870,-00.002962
+124.877,-029.307,+010.570,+1.275,-0.731,+2.573,-04.6680,-01.4630,-08.1490,+00.013296,-00.002330,-00.007895
+124.864,-029.309,+010.593,+1.257,-0.721,+2.589,-04.6750,-01.4910,-08.1350,+00.016866,-00.003944,-00.008909
+124.851,-029.312,+010.619,+1.262,-0.711,+2.567,-04.6650,-01.4770,-08.1060,+00.017051,-00.001083,-00.011135
+124.831,-029.314,+010.651,+1.266,-0.751,+2.573,-04.6740,-01.4480,-08.1190,+00.022925,-00.002969,-00.018256
+124.801,-029.315,+010.693,+1.266,-0.731,+2.589,-04.6550,-01.4790,-08.1500,+00.031262,-00.005440,-00.025209
+124.763,-029.314,+010.745,+1.266,-0.721,+2.557,-04.5690,-01.5300,-08.0890,+00.031407,-00.004647,-00.028706
+124.719,-029.316,+010.807,+1.266,-0.726,+2.578,-04.6700,-01.5550,-08.1170,+00.043561,-00.003745,-00.033271
+124.673,-029.316,+010.872,+1.266,-0.736,+2.578,-04.5970,-01.5100,-08.0690,+00.030160,-00.019128,-00.034808
+124.622,-029.314,+010.938,+1.266,-0.711,+2.567,-04.5930,-01.5030,-08.1640,+00.039450,-00.007145,-00.038556
+124.568,-029.313,+011.006,+1.275,-0.721,+2.589,-04.6710,-01.4970,-08.1320,+00.043568,-00.004724,-00.041054
+124.511,-029.308,+011.081,+1.271,-0.716,+2.589,-04.6840,-01.5990,-08.1350,+00.044044,+00.000665,-00.040749
+124.457,-029.299,+011.157,+1.271,-0.706,+2.568,-04.6310,-01.6580,-08.0560,+00.037078,+00.003749,-00.036082
+124.411,-029.286,+011.223,+1.271,-0.711,+2.584,-04.6570,-01.6130,-08.0710,+00.029741,+00.006116,-00.034018
+124.363,-029.274,+011.289,+1.275,-0.721,+2.600,-04.6350,-01.6070,-08.0470,+00.034026,-00.002398,-00.034698
+124.318,-029.264,+011.354,+1.289,-0.716,+2.579,-04.6000,-01.6970,-08.0780,+00.040256,+00.001686,-00.033001
+124.285,-029.253,+011.397,+1.271,-0.706,+2.595,-04.6590,-01.6940,-08.1610,+00.032125,+00.008220,-00.025458
+124.257,-029.247,+011.435,+1.276,-0.711,+2.611,-04.6270,-01.6550,-08.0980,+00.017895,+00.000851,-00.019354
+124.234,-029.243,+011.467,+1.266,-0.696,+2.584,-04.6500,-01.6090,-08.1590,+00.030982,-00.000926,-00.019641
+124.207,-029.242,+011.515,+1.271,-0.686,+2.573,-04.6150,-01.6240,-08.0890,+00.028586,-00.004957,-00.020864
+124.176,-029.237,+011.584,+1.280,-0.681,+2.600,-04.6660,-01.6500,-08.1600,+00.061766,+00.002709,-00.026960
+124.142,-029.229,+011.669,+1.271,-0.686,+2.584,-04.6360,-01.6630,-08.1770,+00.063772,+00.006096,-00.026743
+124.109,-029.219,+011.758,+1.275,-0.691,+2.578,-04.7010,-01.6910,-08.1840,+00.057301,+00.004088,-00.027337
+124.061,-029.201,+011.882,+1.285,-0.716,+2.584,-04.7600,-01.5600,-08.2360,+00.112098,+00.014522,-00.047341
+123.991,-029.170,+012.079,+1.285,-0.667,+2.595,-04.6530,-01.7530,-08.1710,+00.157219,+00.016226,-00.061759
+123.921,-029.140,+012.279,+1.276,-0.681,+2.589,-04.5400,-01.8810,-07.9890,+00.131404,+00.011653,-00.050793
+123.858,-029.112,+012.468,+1.290,-0.657,+2.617,-04.8340,-01.6720,-08.2310,+00.164777,+00.020093,-00.059224
+123.765,-029.074,+012.742,+1.280,-0.662,+2.600,-04.6170,-01.8220,-08.0140,+00.208979,+00.012188,-00.079934
+123.657,-029.034,+013.044,+1.276,-0.666,+2.600,-04.5560,-01.8890,-08.0790,+00.206275,+00.011526,-00.083875
+123.561,-029.005,+013.298,+1.276,-0.617,+2.627,-04.5390,-01.9680,-08.0350,+00.161116,+00.006212,-00.069632
+123.487,-028.985,+013.483,+1.285,-0.632,+2.616,-04.5250,-02.1140,-07.9070,+00.110127,+00.001761,-00.048448
+123.444,-028.977,+013.575,+1.285,-0.632,+2.605,-04.5110,-02.0950,-07.9250,+00.030024,-00.000795,-00.020520
+123.425,-028.985,+013.596,+1.280,-0.627,+2.638,-04.5210,-01.9780,-07.9610,-00.013149,-00.011005,-00.004318
+123.423,-029.000,+013.560,+1.290,-0.637,+2.606,-04.5020,-02.0330,-07.8920,-00.045821,-00.020763,+00.007946
+123.436,-029.032,+013.473,+1.276,-0.657,+2.589,-04.4960,-01.9000,-07.9400,-00.076692,-00.027661,+00.021014
+123.457,-029.097,+013.362,+1.290,-0.662,+2.622,-04.5290,-01.9380,-08.0660,-00.091309,-00.063122,+00.033394
+123.485,-029.171,+013.244,+1.294,-0.652,+2.590,-04.6550,-01.9430,-08.0730,-00.086413,-00.054742,+00.036082
+123.491,-029.233,+013.197,+1.285,-0.671,+2.606,-04.8880,-01.6860,-08.2130,+00.007513,-00.040623,-00.000085
+123.446,-029.264,+013.279,+1.290,-0.647,+2.611,-04.7980,-01.7060,-08.1210,+00.073102,-00.038167,-00.040129
+123.370,-029.274,+013.434,+1.294,-0.647,+2.595,-04.6430,-01.9280,-08.0510,+00.103532,-00.022483,-00.056789
+123.275,-029.286,+013.624,+1.294,-0.642,+2.601,-04.7490,-01.8490,-08.1050,+00.136102,-00.026691,-00.077046
+123.148,-029.294,+013.855,+1.303,-0.642,+2.612,-04.6680,-01.9470,-08.0190,+00.147902,-00.027104,-00.095454
+123.025,-029.292,+014.063,+1.294,-0.622,+2.600,-04.6680,-02.1520,-08.0010,+00.125496,-00.014127,-00.086733
+122.914,-029.279,+014.258,+1.308,-0.627,+2.579,-04.7200,-02.0290,-08.0380,+00.126585,-00.004273,-00.083913
+122.811,-029.263,+014.439,+1.313,-0.612,+2.628,-04.4470,-01.9840,-07.9150,+00.106226,-00.009127,-00.074492
+122.731,-029.284,+014.584,+1.299,-0.597,+2.590,-04.2180,-02.2120,-07.8760,+00.077462,-00.051859,-00.037167
+122.698,-029.380,+014.642,+1.313,-0.583,+2.601,-04.4920,-02.1600,-07.8940,+00.006348,-00.104273,+00.014749
+122.699,-029.510,+014.621,+1.317,-0.607,+2.607,-04.5800,-02.1190,-07.9070,-00.027140,-00.115224,+00.035847
+122.707,-029.659,+014.584,+1.322,-0.593,+2.607,-04.8320,-01.9290,-08.0820,-00.015956,-00.125299,+00.033963
+122.704,-029.810,+014.571,+1.317,-0.603,+2.574,-04.3030,-02.1560,-07.8130,-00.011098,-00.142056,+00.037696
+122.712,-030.008,+014.536,+1.331,-0.598,+2.624,-04.8250,-02.0700,-08.0150,-00.035835,-00.165566,+00.053297
+122.731,-030.181,+014.473,+1.336,-0.583,+2.586,-04.9400,-02.0960,-07.9370,-00.048309,-00.129022,+00.052748
+122.756,-030.317,+014.416,+1.336,-0.608,+2.586,-05.0180,-02.0310,-07.9870,-00.031704,-00.101810,+00.042346
+122.774,-030.428,+014.373,+1.345,-0.628,+2.597,-04.8870,-02.0310,-07.9800,-00.030095,-00.084331,+00.034765
+122.789,-030.529,+014.340,+1.341,-0.608,+2.575,-04.8630,-02.0660,-07.9420,-00.021468,-00.081053,+00.033192
+122.799,-030.627,+014.321,+1.355,-0.608,+2.587,-04.8870,-02.0130,-07.9520,-00.007726,-00.079546,+00.026096
+122.802,-030.721,+014.318,+1.350,-0.633,+2.598,-04.8240,-02.0860,-07.9080,-00.000304,-00.078305,+00.023083
+122.808,-030.812,+014.324,+1.359,-0.603,+2.592,-04.9030,-02.0420,-07.8900,+00.006913,-00.073621,+00.022881
+122.810,-030.892,+014.346,+1.355,-0.633,+2.565,-04.9050,-02.0330,-07.8800,+00.024802,-00.063241,+00.015439
+122.798,-030.965,+014.389,+1.368,-0.628,+2.577,-04.9140,-01.9770,-07.8780,+00.038729,-00.065572,+00.001148
+122.769,-031.042,+014.453,+1.364,-0.613,+2.560,-04.9040,-02.0710,-07.8410,+00.043966,-00.070935,-00.006442
+122.730,-031.129,+014.529,+1.364,-0.588,+2.571,-04.9310,-02.0110,-07.8710,+00.051000,-00.086535,-00.011336
+122.678,-031.224,+014.622,+1.364,-0.618,+2.587,-04.9530,-02.0500,-07.8580,+00.059600,-00.090288,-00.019960
+122.617,-031.319,+014.729,+1.373,-0.603,+2.571,-04.9960,-02.0390,-07.8420,+00.069188,-00.093446,-00.027169
+122.545,-031.412,+014.848,+1.382,-0.608,+2.572,-04.9430,-02.0900,-07.8170,+00.072691,-00.088697,-00.035255
+122.465,-031.501,+014.972,+1.392,-0.559,+2.588,-05.0040,-02.0810,-07.7750,+00.069891,-00.088723,-00.038963
+122.384,-031.588,+015.089,+1.387,-0.589,+2.566,-04.9380,-02.1990,-07.7740,+00.058807,-00.091498,-00.032310
+122.309,-031.680,+015.200,+1.387,-0.564,+2.566,-04.9850,-02.1230,-07.8040,+00.066181,-00.093734,-00.035341
+122.227,-031.773,+015.324,+1.401,-0.589,+2.578,-05.0390,-02.1690,-07.7490,+00.066660,-00.097247,-00.037148
+122.142,-031.872,+015.444,+1.406,-0.564,+2.562,-05.0030,-02.1400,-07.7480,+00.067157,-00.106371,-00.038900
+122.050,-031.979,+015.569,+1.406,-0.564,+2.578,-05.0220,-02.1590,-07.7730,+00.072904,-00.110777,-00.040466
+121.951,-032.092,+015.703,+1.410,-0.579,+2.578,-04.9930,-02.2090,-07.7500,+00.076164,-00.114642,-00.044869
+121.851,-032.216,+015.835,+1.424,-0.564,+2.541,-05.0540,-02.2210,-07.7540,+00.071071,-00.128323,-00.042583
+121.748,-032.347,+015.967,+1.434,-0.564,+2.547,-05.0870,-02.2450,-07.7270,+00.066964,-00.131213,-00.040058
+121.650,-032.484,+016.092,+1.420,-0.559,+2.562,-05.0880,-02.2560,-07.7070,+00.065647,-00.134634,-00.036286
+121.547,-032.618,+016.223,+1.438,-0.554,+2.552,-05.1570,-02.2340,-07.6930,+00.065599,-00.131430,-00.042317
+121.445,-032.740,+016.355,+1.438,-0.569,+2.536,-05.2280,-02.2930,-07.6550,+00.066643,-00.118032,-00.043998
+121.343,-032.851,+016.478,+1.448,-0.540,+2.569,-05.1690,-02.2610,-07.6330,+00.051624,-00.110031,-00.044447
+121.244,-032.942,+016.595,+1.448,-0.550,+2.553,-05.2270,-02.3240,-07.6510,+00.050175,-00.091889,-00.048516
+121.155,-033.020,+016.703,+1.452,-0.545,+2.542,-05.1890,-02.3270,-07.5340,+00.041147,-00.078035,-00.039830
+121.083,-033.087,+016.793,+1.452,-0.545,+2.569,-05.2180,-02.3180,-07.6290,+00.042101,-00.069144,-00.030137
+121.024,-033.153,+016.866,+1.466,-0.535,+2.543,-05.2030,-02.4030,-07.5250,+00.028624,-00.065713,-00.018645
+120.981,-033.219,+016.932,+1.457,-0.545,+2.548,-05.1630,-02.3680,-07.5760,+00.037223,-00.066279,-00.008913
+120.940,-033.289,+016.994,+1.466,-0.555,+2.532,-05.2320,-02.3180,-07.6230,+00.033887,-00.067263,-00.011768
+120.888,-033.361,+017.060,+1.480,-0.505,+2.548,-05.2700,-02.3490,-07.6190,+00.031587,-00.076310,-00.022601
+120.824,-033.434,+017.141,+1.461,-0.535,+2.548,-05.2040,-02.2950,-07.5940,+00.039976,-00.074928,-00.027522
+120.758,-033.509,+017.225,+1.475,-0.540,+2.565,-05.1870,-02.4220,-07.5630,+00.040692,-00.075416,-00.024781
+120.697,-033.589,+017.307,+1.480,-0.506,+2.521,-05.3300,-02.3940,-07.5340,+00.043371,-00.080621,-00.018900
+120.641,-033.666,+017.383,+1.494,-0.520,+2.549,-05.1920,-02.3390,-07.5440,+00.038994,-00.077436,-00.015565
+120.582,-033.749,+017.464,+1.485,-0.535,+2.549,-05.3030,-02.3810,-07.5370,+00.037737,-00.083937,-00.021182
+120.510,-033.843,+017.558,+1.494,-0.521,+2.522,-05.2030,-02.3670,-07.5760,+00.050722,-00.095745,-00.027496
+120.425,-033.947,+017.664,+1.489,-0.525,+2.533,-05.3300,-02.3670,-07.5450,+00.050806,-00.105207,-00.035386
+120.322,-034.052,+017.776,+1.499,-0.515,+2.560,-05.3960,-02.4110,-07.5840,+00.052228,-00.107508,-00.049344
+120.203,-034.148,+017.907,+1.508,-0.491,+2.533,-05.2630,-02.4680,-07.3200,+00.051568,-00.104202,-00.054536
+120.082,-034.240,+018.038,+1.513,-0.531,+2.523,-05.5010,-02.4170,-07.4310,+00.054082,-00.101847,-00.059693
+119.953,-034.322,+018.177,+1.527,-0.501,+2.545,-05.3730,-02.4160,-07.4450,+00.057898,-00.092790,-00.071394
+119.818,-034.391,+018.316,+1.522,-0.491,+2.518,-05.3120,-02.4860,-07.3870,+00.055238,-00.082543,-00.072406
+119.696,-034.443,+018.445,+1.526,-0.516,+2.513,-05.3580,-02.4280,-07.4230,+00.055219,-00.068266,-00.065198
+119.584,-034.479,+018.560,+1.522,-0.506,+2.539,-05.4960,-02.4410,-07.4710,+00.047691,-00.049453,-00.066246
+119.481,-034.491,+018.656,+1.540,-0.486,+2.518,-05.4430,-02.4740,-07.5250,+00.035677,-00.026183,-00.065893
+119.400,-034.486,+018.725,+1.540,-0.496,+2.508,-05.3470,-02.5420,-07.4060,+00.022254,-00.010852,-00.047690
+119.353,-034.471,+018.769,+1.540,-0.491,+2.529,-05.3970,-02.5670,-07.3950,+00.008092,+00.007296,-00.028364
+119.335,-034.448,+018.782,+1.536,-0.481,+2.507,-05.3790,-02.5700,-07.3900,-00.001796,+00.017792,-00.014293
+119.335,-034.426,+018.776,+1.531,-0.486,+2.496,-05.3850,-02.5340,-07.3840,-00.007156,+00.017889,-00.003245
+119.349,-034.407,+018.750,+1.531,-0.491,+2.524,-05.3590,-02.5920,-07.3690,-00.019862,+00.019324,+00.008887
+119.376,-034.394,+018.708,+1.536,-0.476,+2.518,-05.3590,-02.5760,-07.3730,-00.026519,+00.015418,+00.018250
+119.407,-034.386,+018.661,+1.522,-0.476,+2.523,-05.3740,-02.5300,-07.4400,-00.026685,+00.012455,+00.017579
+119.438,-034.385,+018.613,+1.527,-0.491,+2.534,-05.4080,-02.5390,-07.4610,-00.027028,+00.005078,+00.020773
+119.467,-034.387,+018.566,+1.531,-0.486,+2.524,-05.3990,-02.5300,-07.4100,-00.028051,+00.005455,+00.019496
+119.494,-034.385,+018.520,+1.527,-0.501,+2.523,-05.2980,-02.5910,-07.3920,-00.026309,+00.007121,+00.018966
+119.529,-034.385,+018.465,+1.517,-0.496,+2.528,-05.3840,-02.5170,-07.4170,-00.031317,+00.012978,+00.021208
+119.568,-034.384,+018.406,+1.531,-0.481,+2.507,-05.4410,-02.4380,-07.4910,-00.033080,+00.010280,+00.025028
+119.602,-034.382,+018.354,+1.522,-0.511,+2.512,-05.4220,-02.4480,-07.4640,-00.027067,+00.009369,+00.020165
+119.628,-034.381,+018.314,+1.536,-0.511,+2.540,-05.3560,-02.5500,-07.4170,-00.021956,+00.005935,+00.015793
+119.650,-034.386,+018.279,+1.531,-0.506,+2.507,-05.4300,-02.3820,-07.4280,-00.018371,-00.000924,+00.015019
+119.670,-034.393,+018.248,+1.517,-0.516,+2.502,-05.3760,-02.5170,-07.4200,-00.017298,+00.000752,+00.014699
+119.686,-034.399,+018.222,+1.522,-0.501,+2.529,-05.3960,-02.5250,-07.5080,-00.015389,-00.001290,+00.013438
+119.705,-034.405,+018.196,+1.527,-0.496,+2.507,-05.4350,-02.4740,-07.4440,-00.012985,+00.004222,+00.012338
+119.724,-034.408,+018.169,+1.527,-0.511,+2.529,-05.4220,-02.4390,-07.4460,-00.017770,+00.005712,+00.013278
+119.754,-034.406,+018.130,+1.527,-0.481,+2.539,-05.3880,-02.5280,-07.4090,-00.023829,+00.011311,+00.021360
+119.795,-034.401,+018.074,+1.517,-0.496,+2.512,-05.4350,-02.5070,-07.4050,-00.031184,+00.014366,+00.028912
+119.848,-034.391,+018.006,+1.531,-0.481,+2.524,-05.4200,-02.4050,-07.3990,-00.034727,+00.023455,+00.035222
+119.906,-034.375,+017.936,+1.517,-0.531,+2.539,-05.3780,-02.4660,-07.3730,-00.031837,+00.028420,+00.033953
+119.966,-034.352,+017.860,+1.517,-0.506,+2.507,-05.3620,-02.4690,-07.4350,-00.039211,+00.036996,+00.033409
+120.030,-034.325,+017.780,+1.513,-0.521,+2.507,-05.3650,-02.4360,-07.4720,-00.037459,+00.034739,+00.037823
+120.093,-034.302,+017.701,+1.513,-0.516,+2.518,-05.3810,-02.4010,-07.4810,-00.036433,+00.032777,+00.036356
+120.156,-034.275,+017.625,+1.503,-0.516,+2.496,-05.3590,-02.4350,-07.4460,-00.038179,+00.038167,+00.035713
+120.216,-034.247,+017.551,+1.517,-0.516,+2.529,-05.3880,-02.3660,-07.4480,-00.034887,+00.037576,+00.033541
+120.277,-034.220,+017.479,+1.513,-0.541,+2.523,-05.3650,-02.4000,-07.4600,-00.034526,+00.036111,+00.033237
+120.335,-034.192,+017.409,+1.517,-0.516,+2.518,-05.3410,-02.3770,-07.4740,-00.034040,+00.035213,+00.032598
+120.395,-034.165,+017.335,+1.513,-0.521,+2.528,-05.3370,-02.3770,-07.4800,-00.036291,+00.036863,+00.034194
+120.455,-034.136,+017.265,+1.508,-0.530,+2.544,-05.3750,-02.3790,-07.5080,-00.032361,+00.039631,+00.029270
+120.508,-034.101,+017.199,+1.503,-0.526,+2.496,-05.3480,-02.3330,-07.4610,-00.032748,+00.045812,+00.023474
+120.559,-034.059,+017.134,+1.494,-0.540,+2.506,-05.3420,-02.3870,-07.4580,-00.034160,+00.049103,+00.026250
+120.616,-034.014,+017.064,+1.494,-0.560,+2.512,-05.3230,-02.3030,-07.5480,-00.034308,+00.048659,+00.028338
+120.678,-033.968,+016.992,+1.485,-0.506,+2.516,-05.3410,-02.2930,-07.5400,-00.035290,+00.056297,+00.029528
+120.743,-033.911,+016.911,+1.485,-0.545,+2.522,-05.3390,-02.3450,-07.5180,-00.044640,+00.068278,+00.029954
+120.818,-033.843,+016.818,+1.480,-0.565,+2.538,-05.3830,-02.3370,-07.4740,-00.050382,+00.080708,+00.037399
+120.908,-033.757,+016.707,+1.485,-0.535,+2.522,-05.3480,-02.2260,-07.5760,-00.055273,+00.098582,+00.039500
+121.003,-033.650,+016.590,+1.475,-0.520,+2.527,-05.2670,-02.2410,-07.6240,-00.054071,+00.113183,+00.040047
+121.109,-033.541,+016.464,+1.480,-0.560,+2.565,-05.3130,-02.2680,-07.5520,-00.068541,+00.121780,+00.047791
+121.219,-033.412,+016.324,+1.462,-0.540,+2.537,-05.2910,-02.2370,-07.5790,-00.081578,+00.136000,+00.042546
+121.331,-033.262,+016.157,+1.461,-0.575,+2.548,-05.4130,-02.2050,-07.6110,-00.100748,+00.167129,+00.033465
+121.449,-033.043,+015.963,+1.448,-0.579,+2.558,-05.4250,-02.1720,-07.5910,-00.128941,+00.238427,+00.029822
+121.585,-032.734,+015.722,+1.448,-0.579,+2.558,-05.3810,-02.1800,-07.6170,-00.159314,+00.317412,+00.016691
+121.747,-032.357,+015.427,+1.429,-0.584,+2.558,-05.1370,-02.1740,-07.6720,-00.192263,+00.362997,+00.033930
+121.911,-032.002,+015.154,+1.396,-0.608,+2.583,-04.2610,-02.5780,-07.7790,-00.132454,+00.282007,+00.042192
+122.061,-031.855,+014.960,+1.406,-0.599,+2.557,-04.8720,-02.0180,-07.8480,-00.085933,+00.090860,+00.079152
+122.152,-031.822,+014.836,+1.401,-0.589,+2.573,-05.0710,-01.8740,-07.9110,-00.052767,+00.026288,+00.039293
+122.181,-031.819,+014.780,+1.401,-0.618,+2.573,-04.9500,-02.0010,-07.7620,-00.027912,+00.002691,+00.012825
+122.199,-031.823,+014.747,+1.396,-0.594,+2.573,-04.9200,-02.1290,-07.7660,-00.019592,-00.004680,+00.016693
+122.225,-031.848,+014.713,+1.401,-0.614,+2.546,-04.9550,-02.0920,-07.7930,-00.015292,-00.022203,+00.026158
+122.248,-031.885,+014.692,+1.401,-0.623,+2.573,-05.0650,-01.9900,-07.8340,-00.003493,-00.027362,+00.021710
+122.261,-031.920,+014.690,+1.406,-0.599,+2.562,-05.0270,-01.9070,-07.8510,+00.009849,-00.028832,+00.013881
+122.263,-031.955,+014.706,+1.396,-0.584,+2.562,-05.0410,-02.0810,-07.7610,+00.017256,-00.029033,+00.006003
+122.263,-031.982,+014.724,+1.406,-0.594,+2.573,-05.1000,-02.0280,-07.7930,+00.015689,-00.019873,+00.003852
+122.261,-032.006,+014.747,+1.392,-0.569,+2.567,-05.0360,-02.0720,-07.7430,+00.016093,-00.022513,+00.002873
+122.257,-032.035,+014.769,+1.406,-0.614,+2.546,-05.0800,-02.0770,-07.7980,+00.017301,-00.024770,+00.003226
+122.256,-032.058,+014.784,+1.410,-0.609,+2.573,-05.1000,-02.0900,-07.7730,+00.011547,-00.014275,+00.002480
+122.255,-032.065,+014.795,+1.396,-0.594,+2.556,-05.0770,-02.0510,-07.8000,+00.007495,-00.003770,+00.001156
+122.255,-032.060,+014.798,+1.410,-0.594,+2.546,-05.1190,-02.0800,-07.7900,-00.001207,+00.011866,-00.003055
+122.256,-032.035,+014.788,+1.401,-0.623,+2.589,-05.1130,-02.0770,-07.7850,-00.012675,+00.029340,-00.005885
+122.256,-031.987,+014.771,+1.410,-0.599,+2.552,-05.0900,-02.0490,-07.8340,-00.015548,+00.044624,-00.013213
+122.254,-031.928,+014.756,+1.397,-0.564,+2.562,-04.9600,-02.1290,-07.7850,-00.011859,+00.050508,-00.013866
+122.258,-031.886,+014.742,+1.396,-0.604,+2.578,-04.9100,-02.0430,-07.7830,-00.011203,+00.025713,-00.003165
+122.263,-031.864,+014.730,+1.401,-0.574,+2.556,-04.9520,-02.0150,-07.8000,-00.003904,+00.017333,-00.003235
+122.269,-031.859,+014.725,+1.406,-0.589,+2.567,-05.0150,-02.0830,-07.7830,+00.001812,+00.000047,+00.003088
+122.268,-031.859,+014.735,+1.396,-0.618,+2.584,-05.0220,-02.0400,-07.8200,+00.011499,+00.000426,-00.005288
+122.261,-031.865,+014.757,+1.401,-0.584,+2.567,-05.0640,-02.0270,-07.8120,+00.019166,-00.007847,-00.005042
+122.246,-031.870,+014.791,+1.410,-0.604,+2.552,-04.9830,-02.0920,-07.7660,+00.024395,-00.005058,-00.011891
+122.231,-031.881,+014.827,+1.401,-0.589,+2.584,-05.0720,-02.0890,-07.8230,+00.025004,-00.013221,-00.008826
+122.211,-031.888,+014.865,+1.401,-0.599,+2.551,-05.0310,-02.0670,-07.7630,+00.022773,-00.006295,-00.013184
+122.194,-031.890,+014.898,+1.401,-0.604,+2.557,-04.9950,-02.1190,-07.7740,+00.018339,-00.004740,-00.009723
+122.180,-031.891,+014.922,+1.392,-0.613,+2.567,-05.0610,-02.0810,-07.8120,+00.009586,-00.001158,-00.009092
+122.171,-031.882,+014.933,+1.396,-0.599,+2.546,-05.0510,-02.0640,-07.7650,+00.003930,+00.010665,-00.009616
+122.164,-031.862,+014.934,+1.392,-0.609,+2.562,-05.0750,-02.0740,-07.8150,-00.006145,+00.019880,-00.009307
+122.162,-031.825,+014.917,+1.387,-0.613,+2.599,-05.0100,-02.0890,-07.7970,-00.021506,+00.039306,-00.009465
+122.173,-031.774,+014.877,+1.392,-0.579,+2.567,-04.9330,-02.1780,-07.7930,-00.037884,+00.046419,+00.002545
+122.199,-031.727,+014.814,+1.401,-0.618,+2.562,-05.0960,-02.1060,-07.7930,-00.047353,+00.047049,+00.008321
+122.234,-031.657,+014.729,+1.387,-0.574,+2.588,-05.1140,-01.9750,-07.9110,-00.061410,+00.075283,+00.008356
+122.279,-031.546,+014.612,+1.392,-0.609,+2.551,-05.2900,-02.0640,-07.8780,-00.100753,+00.129021,+00.008407
+122.343,-031.365,+014.440,+1.382,-0.618,+2.556,-04.9530,-02.0290,-07.9010,-00.130514,+00.183909,+00.010270
+122.436,-031.168,+014.232,+1.382,-0.638,+2.567,-04.7710,-02.0710,-07.8550,-00.146346,+00.175767,+00.035836
+122.547,-031.005,+014.000,+1.359,-0.633,+2.582,-04.7930,-02.0350,-07.8980,-00.152005,+00.147271,+00.052639
+122.660,-030.875,+013.783,+1.359,-0.653,+2.577,-04.7930,-02.0560,-07.8820,-00.132793,+00.118727,+00.056021
+122.759,-030.766,+013.612,+1.364,-0.643,+2.577,-04.7290,-02.1600,-07.8300,-00.081813,+00.098926,+00.043750
+122.821,-030.681,+013.523,+1.341,-0.638,+2.576,-04.7940,-01.8330,-07.9510,-00.038623,+00.073649,+00.020608
+122.862,-030.640,+013.469,+1.336,-0.643,+2.554,-04.5210,-01.9910,-08.0070,-00.031038,+00.016798,+00.028958
+122.904,-030.646,+013.420,+1.345,-0.657,+2.592,-04.7620,-01.8890,-07.7660,-00.009483,-00.005144,+00.025387
+122.930,-030.673,+013.397,+1.345,-0.648,+2.571,-04.9250,-01.8080,-07.9640,-00.002833,-00.023609,+00.020881
+122.938,-030.694,+013.403,+1.341,-0.657,+2.571,-04.8290,-01.8860,-07.9040,+00.017026,-00.012672,+00.005435
+122.945,-030.723,+013.424,+1.331,-0.662,+2.592,-04.7310,-01.8720,-07.8740,+00.012972,-00.033745,+00.016233
+122.959,-030.768,+013.428,+1.345,-0.603,+2.570,-04.9000,-01.7970,-07.8510,+00.008059,-00.036098,+00.017652
+122.970,-030.816,+013.437,+1.355,-0.648,+2.566,-04.7940,-01.8950,-07.9400,+00.018607,-00.041472,+00.019996
+122.984,-030.868,+013.436,+1.345,-0.657,+2.598,-04.6540,-02.0310,-07.8970,+00.015463,-00.043194,+00.020388
+123.006,-030.947,+013.439,+1.359,-0.638,+2.566,-04.6210,-02.0230,-07.8950,+00.013603,-00.078764,+00.037100
+123.035,-031.061,+013.440,+1.355,-0.648,+2.550,-05.0670,-01.7840,-07.9270,+00.014699,-00.091507,+00.040580
+123.045,-031.155,+013.462,+1.355,-0.667,+2.587,-04.9200,-01.8450,-07.8870,+00.029755,-00.071950,+00.017893
+123.044,-031.237,+013.500,+1.355,-0.643,+2.571,-04.8190,-01.9350,-07.7850,+00.044023,-00.072130,+00.015088
+123.047,-031.324,+013.545,+1.364,-0.663,+2.572,-04.8190,-01.9600,-07.9130,+00.038271,-00.072612,+00.023642
+123.066,-031.412,+013.563,+1.364,-0.613,+2.582,-05.0110,-01.7960,-07.9370,+00.019778,-00.060049,+00.032551
+123.084,-031.459,+013.579,+1.383,-0.638,+2.567,-05.0110,-01.8710,-07.8110,+00.023413,-00.024076,+00.017450
+123.112,-031.480,+013.575,+1.369,-0.653,+2.556,-04.9270,-01.9930,-07.7850,-00.007517,-00.004792,+00.032197
+123.179,-031.491,+013.508,+1.378,-0.623,+2.583,-05.0230,-02.0320,-07.8090,-00.043263,+00.010821,+00.059363
+123.273,-031.458,+013.406,+1.369,-0.638,+2.572,-05.0770,-01.8600,-07.8740,-00.047992,+00.068584,+00.057446
+123.372,-031.370,+013.294,+1.359,-0.668,+2.555,-05.0550,-01.9130,-07.8810,-00.062139,+00.106196,+00.056579
+123.483,-031.267,+013.150,+1.355,-0.633,+2.582,-04.9960,-01.8240,-07.9630,-00.083053,+00.107338,+00.061487
+123.600,-031.163,+012.986,+1.359,-0.653,+2.550,-04.9890,-01.8350,-07.9940,-00.092583,+00.113732,+00.065133
+123.716,-031.054,+012.820,+1.345,-0.658,+2.555,-04.9150,-01.7970,-07.9300,-00.088142,+00.105098,+00.057625
+123.822,-030.965,+012.667,+1.345,-0.677,+2.576,-04.7810,-01.8280,-07.9570,-00.084064,+00.083489,+00.062176
+123.925,-030.910,+012.523,+1.350,-0.668,+2.539,-04.8350,-01.7880,-07.9050,-00.076047,+00.050544,+00.066022
+124.027,-030.881,+012.388,+1.331,-0.692,+2.543,-04.8780,-01.7220,-07.9790,-00.071525,+00.037712,+00.068538
+124.126,-030.854,+012.252,+1.341,-0.697,+2.582,-04.8900,-01.7730,-07.9370,-00.077803,+00.044741,+00.070498
+124.245,-030.824,+012.095,+1.336,-0.672,+2.560,-04.8280,-01.7030,-07.9620,-00.088581,+00.041875,+00.086910
+124.384,-030.798,+011.911,+1.331,-0.687,+2.549,-04.8820,-01.7230,-07.9250,-00.103709,+00.047732,+00.101695
+124.535,-030.758,+011.714,+1.313,-0.687,+2.591,-04.8440,-01.6480,-07.9820,-00.106634,+00.059426,+00.109878
+124.676,-030.701,+011.527,+1.322,-0.707,+2.570,-04.8830,-01.5560,-08.0240,-00.094480,+00.074293,+00.081246
+124.787,-030.625,+011.371,+1.327,-0.712,+2.549,-04.8270,-01.5010,-08.0160,-00.081099,+00.079894,+00.060649
+124.870,-030.553,+011.245,+1.313,-0.726,+2.586,-04.7720,-01.4830,-07.9840,-00.062664,+00.066951,+00.042018
+124.926,-030.510,+011.153,+1.308,-0.712,+2.559,-04.7490,-01.4760,-08.0410,-00.052136,+00.033477,+00.033828
+124.977,-030.496,+011.070,+1.308,-0.712,+2.570,-04.7520,-01.5740,-08.0020,-00.048503,+00.012127,+00.039993
+125.039,-030.509,+010.976,+1.308,-0.712,+2.586,-04.7480,-01.6320,-07.9660,-00.057803,-00.014480,+00.058617
+125.131,-030.552,+010.867,+1.317,-0.702,+2.565,-04.6840,-01.5530,-07.9810,-00.054010,-00.034656,+00.083799
+125.241,-030.647,+010.757,+1.308,-0.727,+2.564,-04.6330,-01.5530,-08.0040,-00.042733,-00.091691,+00.106550
+125.375,-030.829,+010.650,+1.317,-0.727,+2.586,-04.5950,-01.5430,-07.9810,-00.023389,-00.173312,+00.141718
+125.524,-031.121,+010.571,+1.322,-0.732,+2.549,-04.5790,-01.4800,-08.0270,+00.009584,-00.262272,+00.157115
+125.670,-031.537,+010.533,+1.317,-0.732,+2.538,-04.7210,-01.4510,-08.1230,+00.049028,-00.393186,+00.182006
+125.815,-032.198,+010.540,+1.350,-0.747,+2.534,-04.1530,-00.6860,-08.6210,+00.118765,-00.608912,+00.203373
+125.899,-033.202,+010.647,+1.373,-0.727,+2.508,-04.3020,-01.9990,-08.5160,+00.124907,-00.983269,+00.243706
+125.893,-034.720,+010.785,+1.419,-0.748,+2.456,-04.6510,-01.2730,-07.8400,+00.129416,-01.486468,+00.229548
+125.739,-036.883,+011.008,+1.484,-0.739,+2.442,-05.0000,-01.3800,-07.8900,+00.105100,-02.129923,+00.279714
+125.621,-039.895,+011.153,+1.563,-0.730,+2.370,-04.8140,-01.5480,-07.7250,+00.065653,-02.870162,+00.539875
+125.920,-043.628,+011.007,+1.661,-0.766,+2.267,-05.1180,-01.7410,-07.9250,-00.033184,-03.287862,+00.970151
+126.682,-047.811,+010.261,+1.744,-0.802,+2.206,-05.9520,-02.0460,-08.1190,-00.230837,-03.653897,+01.219952
+128.092,-052.566,+008.848,+1.855,-0.819,+2.049,-07.2370,-02.8040,-07.7840,-00.297119,-04.137067,+01.617495
+130.578,-057.839,+006.344,+1.929,-0.919,+1.885,-08.7290,-02.9370,-07.9750,-00.460232,-04.552307,+01.966185
+134.874,-063.661,+002.047,+1.985,-0.960,+1.764,-11.0470,-01.2890,-09.0680,-00.357661,-05.159416,+02.250442
+142.257,-069.892,-005.108,+2.040,-1.051,+1.507,-11.9600,-02.8830,-10.2490,-00.296957,-05.640462,+02.416227
+155.728,-075.658,-018.447,+2.067,-1.151,+1.309,-13.3400,-04.6300,-10.0170,-00.487332,-05.556928,+02.376618
-178.668,-079.266,-044.925,+2.058,-1.231,+1.131,-09.2660,-07.8760,-10.5760,-02.115342,-04.838398,+02.734628
-151.335,-078.696,-075.766,+2.011,-1.336,+0.914,-27.4800,-08.2510,-34.0370,-03.262693,-02.383030,+01.913439
-152.237,-078.181,-076.491,+1.974,-1.350,+0.950,-05.7250,-04.7710,-16.4210,-00.623699,+01.186787,-00.091244
-160.388,-077.933,-068.735,+1.960,-1.315,+1.063,-00.2810,-04.7670,-07.7850,-00.170453,+01.466128,-00.233075
-168.335,-077.490,-061.134,+1.923,-1.299,+1.153,-01.3440,-03.9410,-08.1810,-00.098411,+01.578143,-00.330539
-177.617,-076.808,-052.043,+1.858,-1.298,+1.236,-02.3940,-03.4830,-09.8010,+00.134052,+02.016154,-00.594766
+171.556,-075.500,-041.141,+1.826,-1.262,+1.386,-03.0960,-02.7570,-10.8120,+00.463123,+02.687880,-00.796050
+160.482,-073.105,-029.674,+1.756,-1.222,+1.512,-03.9750,-02.3830,-11.2030,+00.835961,+03.537499,-00.999856
+150.867,-069.453,-019.417,+1.655,-1.190,+1.713,-04.1040,-02.0990,-10.1210,+01.078400,+04.233280,-01.200884
+143.595,-064.878,-011.339,+1.511,-1.119,+1.820,-05.1170,-01.7090,-09.8480,+01.270981,+04.630841,-01.386416
+138.281,-059.608,-005.020,+1.325,-1.017,+1.859,-06.7820,-01.3140,-10.6740,+01.497152,+05.001605,-01.530222
+134.537,-053.791,+000.095,+1.260,-0.987,+1.786,-06.4800,-00.3500,-08.7450,+01.889381,+05.159165,-01.578239
+132.101,-048.127,+004.441,+1.344,-0.948,+1.860,-07.0540,+00.0040,-08.1050,+02.265662,+04.677460,-01.482529
+130.597,-043.079,+008.261,+1.465,-0.860,+2.037,-08.2830,+00.1150,-09.1970,+02.455381,+04.019343,-01.342114
+129.686,-038.447,+011.748,+1.526,-0.809,+2.337,-13.6190,-01.2660,-15.4940,+02.552237,+03.956810,-01.296785
+129.202,-033.432,+014.859,+1.443,-0.688,+2.646,-12.7430,-02.1340,-13.2450,+02.368384,+04.184896,-01.355931
+128.883,-028.552,+017.580,+1.249,-0.486,+2.944,-14.8500,-02.1510,-13.2670,+02.157869,+03.977374,-01.467907
+128.542,-023.551,+020.012,+0.933,-0.289,+3.166,-15.8050,-02.9720,-12.4680,+01.897948,+04.074579,-01.814426
+127.877,-018.251,+022.270,+0.674,-0.128,+3.224,-16.3770,-01.9480,-10.9660,+01.678866,+04.131068,-02.388235
+126.926,-012.774,+024.324,+0.405,-0.021,+3.179,-17.6370,+00.6450,-08.3640,+01.509519,+04.024725,-02.723317
+125.961,-007.568,+026.131,+0.205,+0.085,+3.121,-18.9390,+04.3100,-01.8570,+01.404736,+03.510091,-02.600521
+125.117,-003.507,+027.989,+0.080,+0.170,+3.125,-22.6550,+10.7450,+05.9080,+01.724927,+02.354230,-02.019164
+124.268,-001.192,+030.209,+0.019,+0.289,+3.089,-24.9120,+12.5600,+10.2660,+01.775939,+00.770438,-01.359214
+123.479,-001.382,+030.870,+0.038,+0.294,+3.063,-13.5700,+07.9410,+10.5480,-00.275905,-01.508203,+00.388853
+124.648,-005.008,+029.296,+0.145,+0.234,+3.117,-13.2910,-02.5590,-27.6980,-01.258857,-01.407288,+02.744975
+127.048,-008.921,+026.967,+0.237,+0.149,+3.095,+04.7940,-04.2700,+06.2050,-01.939687,-02.958348,+03.799505
+127.524,-014.170,+025.628,+0.432,+0.052,+3.098,-12.5520,-11.5620,-13.9210,-00.669472,-03.974972,+01.671460
+127.495,-018.697,+024.698,+0.581,+0.011,+3.094,-10.6030,+05.4470,-14.4420,-00.726368,-03.391173,+01.732756
+127.729,-022.454,+023.706,+0.734,-0.075,+3.037,-11.6430,-10.0230,-12.4390,-01.021160,-02.623640,+01.251084
+127.653,-025.299,+021.685,+0.850,-0.180,+2.994,-10.4460,-02.9210,-12.6960,-02.357372,-01.975239,+00.884882
+127.925,-027.120,+018.905,+0.910,-0.295,+3.003,-07.7940,-02.0910,-10.6250,-02.160305,-01.176070,+00.689658
+128.311,-028.237,+016.875,+0.952,-0.384,+2.941,-08.8760,-01.3430,-12.3270,-01.265395,-00.632708,+00.488390
+128.680,-028.841,+015.673,+0.975,-0.439,+2.921,-06.5810,-01.4820,-09.5390,-00.641809,-00.320006,+00.339538
+128.917,-029.152,+015.062,+0.984,-0.464,+2.948,-05.1200,-01.6740,-08.4850,-00.321750,-00.172457,+00.205999
+129.060,-029.355,+014.781,+0.984,-0.449,+2.910,-05.6520,-01.7220,-08.3960,-00.132212,-00.150609,+00.115358
+129.088,-029.575,+014.711,+0.989,-0.484,+2.894,-04.7210,-01.7950,-08.2510,+00.004220,-00.192381,+00.045060
+129.049,-029.810,+014.793,+0.998,-0.459,+2.922,-04.8220,-02.0470,-08.1050,+00.077281,-00.211001,+00.015922
+128.976,-030.031,+014.947,+1.012,-0.440,+2.901,-04.8410,-02.2450,-08.0280,+00.105149,-00.194167,-00.011487
+128.898,-030.256,+015.098,+1.016,-0.469,+2.901,-04.7890,-02.2220,-07.8790,+00.095040,-00.210960,-00.005420
+128.810,-030.494,+015.240,+1.030,-0.489,+2.923,-04.9050,-02.1810,-07.9010,+00.078167,-00.220410,-00.014408
+128.697,-030.727,+015.388,+1.035,-0.465,+2.902,-04.8900,-02.1120,-07.8870,+00.084334,-00.218123,-00.035533
+128.567,-030.960,+015.552,+1.044,-0.465,+2.886,-04.8830,-02.2450,-07.8520,+00.080781,-00.224892,-00.038078
+128.467,-031.207,+015.681,+1.058,-0.435,+2.908,-04.8730,-02.3020,-07.7760,+00.059332,-00.226793,+00.000760
+128.416,-031.457,+015.754,+1.063,-0.460,+2.865,-04.9180,-02.2500,-07.7120,+00.030117,-00.216049,+00.034157
+128.420,-031.689,+015.733,+1.081,-0.455,+2.871,-04.9370,-02.2970,-07.5580,-00.057734,-00.174055,+00.078939
+128.558,-031.862,+015.506,+1.081,-0.465,+2.888,-04.9170,-02.3250,-07.5880,-00.191767,-00.077300,+00.189421
+128.920,-031.943,+014.993,+1.081,-0.465,+2.871,-04.9840,-02.4550,-07.7230,-00.323528,+00.059371,+00.312430
+129.478,-031.920,+014.257,+1.067,-0.505,+2.876,-04.8360,-02.4750,-07.7650,-00.424034,+00.148179,+00.456545
+130.220,-031.898,+013.376,+1.053,-0.549,+2.882,-04.7350,-02.0040,-07.5840,-00.394953,+00.113986,+00.553373
+130.903,-032.020,+012.623,+1.049,-0.559,+2.860,-04.7860,-01.3350,-08.0480,-00.312428,-00.067097,+00.502949
+131.500,-032.333,+011.983,+1.058,-0.579,+2.850,-04.7030,-01.5460,-08.1130,-00.243058,-00.238518,+00.499475
+132.087,-032.862,+011.472,+1.053,-0.609,+2.850,-05.2190,-01.4880,-08.0110,-00.115909,-00.416838,+00.505405
+132.547,-033.654,+011.148,+1.081,-0.594,+2.835,-05.2800,-01.2510,-08.2080,-00.003198,-00.731563,+00.398536
+132.805,-034.940,+011.030,+1.123,-0.615,+2.809,-04.7800,-01.1620,-08.1260,+00.038200,-01.330257,+00.417441
+132.906,-037.083,+011.066,+1.174,-0.640,+2.779,-04.5330,-01.1310,-07.7750,+00.092216,-02.171316,+00.467088
+132.966,-040.423,+011.115,+1.295,-0.622,+2.731,-04.2970,-01.1740,-07.7720,+00.076200,-03.275386,+00.722722
+133.306,-044.966,+011.044,+1.429,-0.653,+2.629,-04.5450,-01.6530,-08.3660,+00.069562,-04.130474,+01.110773
+134.120,-050.427,+010.373,+1.554,-0.685,+2.526,-06.5200,-02.3820,-08.9790,-00.142200,-04.865577,+01.502183
+135.735,-056.932,+008.658,+1.749,-0.747,+2.325,-07.5550,-03.0670,-08.8450,-00.514208,-05.808312,+01.863420
+139.071,-064.725,+005.241,+1.916,-0.854,+2.073,-09.2750,-05.2420,-11.9490,-00.375482,-07.100931,+02.495119
+148.406,-074.101,-004.019,+2.045,-0.951,+1.831,-13.0630,-05.1570,-10.1880,-00.479841,-08.700671,+03.151972
-174.318,-082.857,-041.020,+2.165,-1.073,+1.400,-16.9120,-05.2650,-15.0280,-00.308399,-09.249262,+03.064788
-096.886,-080.984,-118.079,+2.197,-1.159,+1.034,-23.6110,-16.3050,-24.5310,-00.315645,-07.523246,+02.747217
-085.144,-075.040,-132.370,+2.146,-1.298,+0.784,-51.3440,-17.0400,-52.1470,-02.586211,-02.644396,+02.432079
-092.159,-075.724,-127.678,+2.145,-1.294,+0.752,-07.2080,-08.8420,-23.6320,-01.389950,+03.132708,+00.186178
-105.813,-077.485,-115.596,+2.155,-1.273,+0.844,+02.2530,-04.8720,-07.0990,-00.912788,+02.935286,+00.161485
-121.105,-078.475,-101.457,+2.141,-1.288,+0.973,-01.0110,-04.7490,-08.0690,-00.576717,+03.061524,-00.034314
-142.329,-078.914,-081.186,+2.137,-1.237,+1.113,-03.8330,-06.3580,-10.2910,-00.467994,+04.009015,-00.454621
-169.315,-077.578,-055.252,+2.091,-1.186,+1.321,-05.0530,-05.4600,-09.6980,-00.363268,+05.304662,-00.859257
+168.322,-073.668,-033.654,+2.026,-1.160,+1.545,-05.1070,-04.1450,-07.2160,+00.150591,+05.942307,-01.229687
+153.907,-068.039,-019.300,+1.934,-1.049,+1.795,-07.1500,-03.8970,-07.7560,+00.909226,+06.371403,-01.679764
+144.553,-061.268,-009.428,+1.776,-0.996,+2.063,-07.4550,-03.5980,-06.8610,+01.406873,+06.629159,-02.038998
+138.454,-054.158,-002.173,+1.637,-0.890,+2.272,-07.8280,-01.6860,-05.2370,+02.100857,+06.266388,-02.272368
+134.296,-047.462,+003.881,+1.494,-0.709,+2.486,-10.2910,-02.7700,-06.8060,+02.617116,+05.555880,-02.424665
+131.347,-041.222,+008.875,+1.318,-0.563,+2.661,-13.5230,-04.7720,-10.1310,+02.461897,+05.025107,-02.457840
+128.966,-035.077,+013.042,+1.146,-0.412,+2.814,-17.8810,-05.3680,-14.6610,+02.294922,+04.980242,-02.744785
+126.902,-028.322,+016.658,+0.919,-0.270,+2.906,-21.4020,-05.6820,-19.0650,+02.138664,+05.585475,-03.162155
+125.207,-020.570,+019.674,+0.687,-0.124,+3.008,-19.4010,-02.9320,-15.1780,+01.978199,+06.108800,-03.473252
+123.934,-012.794,+022.347,+0.479,+0.002,+3.090,-21.0500,-00.9910,-12.7660,+02.004813,+05.844957,-03.362095
+123.125,-005.499,+024.628,+0.187,+0.199,+3.130,-22.6310,+00.4050,-06.8770,+01.772436,+05.298514,-03.032865
+122.745,+000.355,+026.777,-0.064,+0.261,+3.119,-25.9590,+08.7140,+03.7380,+02.130135,+03.865456,-02.089720
+122.798,+003.930,+030.766,-0.217,+0.411,+3.122,-33.2740,+18.1560,+14.2500,+04.329691,+02.067559,-01.208823
+122.346,+004.891,+035.111,-0.259,+0.619,+3.086,-27.4820,+04.2430,+12.3340,+02.664592,-00.446930,-00.267280
+122.294,+002.972,+034.754,-0.184,+0.618,+3.078,-22.8570,+01.0000,+00.3780,-01.728149,-01.723998,+01.503918
+122.763,+000.278,+032.471,-0.101,+0.528,+3.137,+45.2200,-00.2940,-20.2780,-01.434107,-00.989426,+01.558923
+122.609,-001.862,+030.412,-0.022,+0.449,+3.157,+14.1010,-06.8740,+15.8780,-01.805426,-03.561328,+01.499400
+121.518,-008.414,+028.270,+0.266,+0.322,+3.192,-14.3510,-00.2770,-20.5920,-01.005396,-05.555709,+01.315509
+120.991,-013.638,+027.421,+0.451,+0.266,+3.201,-07.4520,+13.1760,-14.7430,-00.451122,-03.814022,+02.252505
+121.665,-018.479,+027.024,+0.665,+0.239,+3.151,-15.7080,-12.7540,-14.4650,-00.306378,-03.216670,+02.176554
+121.538,-022.145,+025.958,+0.809,+0.193,+3.141,-09.7750,-05.6380,-10.5080,-01.263232,-02.773008,+01.022593
+121.630,-024.941,+024.073,+0.901,+0.058,+3.130,-07.5110,-06.8600,-09.5570,-01.869167,-01.877166,+01.084153
+122.097,-026.849,+020.843,+0.975,-0.077,+3.080,-04.7920,-00.7520,-09.7420,-02.657419,-01.308677,+00.973242
+122.905,-028.081,+017.741,+1.008,-0.191,+3.072,-05.3080,-03.3210,-09.3360,-02.208874,-00.653212,+00.858659
+123.683,-028.849,+015.329,+1.026,-0.340,+3.057,-06.7160,-01.4730,-10.6170,-01.447217,-00.419270,+00.667461
+124.226,-029.204,+014.027,+1.045,-0.350,+3.031,-06.0570,+00.2990,-09.9150,-00.594245,-00.071124,+00.391655
+124.637,-029.343,+013.303,+1.035,-0.400,+3.020,-05.3600,-01.3280,-08.7810,-00.410940,-00.032412,+00.317350
+125.020,-029.467,+012.680,+1.026,-0.419,+3.042,-05.1500,-02.0810,-07.9130,-00.345258,-00.050184,+00.292499
+125.301,-029.571,+012.233,+1.031,-0.444,+3.020,-04.8580,-01.5910,-08.0630,-00.226451,-00.046962,+00.193952
+125.496,-029.689,+011.938,+1.026,-0.449,+3.020,-04.7030,-01.6120,-08.0360,-00.141962,-00.082718,+00.152369
+125.613,-029.856,+011.779,+1.040,-0.454,+3.032,-04.8360,-01.4330,-08.0880,-00.049028,-00.148311,+00.090200
+125.645,-030.073,+011.756,+1.054,-0.459,+3.005,-04.7160,-01.4470,-08.0910,+00.014548,-00.191202,+00.050226
+125.624,-030.309,+011.822,+1.054,-0.474,+3.016,-04.7560,-01.4920,-08.0750,+00.063540,-00.211469,+00.017088
+125.586,-030.545,+011.922,+1.063,-0.489,+3.017,-04.7400,-01.7750,-07.9750,+00.067062,-00.206408,+00.019703
+125.579,-030.793,+011.990,+1.072,-0.440,+3.001,-04.7290,-01.9310,-07.9030,+00.047099,-00.216864,+00.059180
+125.635,-031.063,+011.994,+1.086,-0.465,+3.001,-04.7660,-01.6900,-07.8700,+00.016391,-00.231221,+00.106447
+125.740,-031.374,+011.933,+1.096,-0.470,+3.002,-04.9100,-01.6840,-07.9510,-00.018918,-00.254740,+00.149724
+125.911,-031.704,+011.803,+1.105,-0.450,+2.991,-04.8750,-01.6780,-07.8830,-00.041094,-00.254384,+00.207705
+126.169,-032.048,+011.595,+1.114,-0.470,+2.970,-04.8760,-01.7900,-07.8800,-00.077733,-00.256798,+00.271832
+126.513,-032.444,+011.317,+1.123,-0.470,+2.992,-05.2560,-01.8690,-07.8310,-00.085203,-00.315444,+00.339369
+126.911,-032.976,+011.018,+1.142,-0.485,+2.945,-04.6590,-01.4590,-07.8750,-00.078907,-00.485094,+00.398360
+127.263,-033.781,+010.778,+1.156,-0.515,+2.945,-04.6640,-01.6160,-08.1580,-00.014661,-00.741896,+00.375932
+127.532,-034.984,+010.615,+1.179,-0.525,+2.946,-04.9860,-01.0410,-07.9980,+00.008209,-01.145506,+00.364130
+127.585,-036.707,+010.611,+1.258,-0.517,+2.896,-04.9810,-01.0520,-07.8110,+00.029056,-01.699543,+00.298593
+127.561,-039.278,+010.655,+1.337,-0.537,+2.851,-04.4550,-01.4590,-07.5290,+00.024765,-02.559052,+00.510218
+127.809,-042.945,+010.664,+1.453,-0.563,+2.807,-04.2730,-01.6550,-08.0300,+00.231673,-03.417841,+00.912299
+128.488,-047.566,+010.346,+1.597,-0.531,+2.673,-04.9400,-01.3630,-08.2320,+00.082973,-04.194725,+01.294574
+129.851,-053.275,+009.196,+1.754,-0.627,+2.508,-06.2130,-02.5860,-08.1960,-00.135918,-05.172187,+01.799005
+132.289,-060.199,+006.624,+1.907,-0.714,+2.326,-09.4540,-03.7000,-09.6870,-00.485900,-06.293741,+02.139244
+137.753,-068.827,+001.214,+2.092,-0.792,+2.032,-10.4880,-03.8630,-13.2000,-00.394890,-08.071264,+02.836432
+153.914,-078.756,-014.304,+2.245,-0.934,+1.629,-15.2470,+00.6410,-14.6950,+00.200632,-09.337344,+02.926484
-132.789,-084.020,-086.845,+2.328,-1.035,+1.298,-22.8350,-11.2110,-18.9930,+00.287763,-08.957431,+02.767012
-089.310,-078.051,-130.639,+2.313,-1.131,+0.920,+03.3780,-05.7500,-24.9370,-02.350400,-05.135547,+03.025572
-088.770,-074.580,-133.304,+2.248,-1.275,+0.745,-19.3300,-09.6560,-38.5530,-01.611048,+00.858030,+00.808045
-100.773,-076.558,-123.024,+2.234,-1.294,+0.869,+00.9340,-05.8840,-11.5510,-01.095158,+03.459382,+00.188610
-115.699,-077.976,-109.433,+2.229,-1.313,+0.977,+00.6380,-03.5840,-06.2010,-00.663397,+02.995590,+00.091973
-133.709,-078.885,-092.099,+2.202,-1.327,+1.127,-01.0350,-04.3410,-07.6290,-00.073652,+03.461334,-00.358668
-157.750,-078.836,-068.413,+2.169,-1.321,+1.326,-03.1240,-04.1990,-09.6690,+00.143934,+04.335712,-00.804868
+177.069,-076.587,-043.359,+2.100,-1.299,+1.555,-03.6620,-02.1190,-08.9030,+00.564139,+05.230570,-01.111139
+159.344,-072.009,-025.091,+1.975,-1.287,+1.814,-04.5800,-00.9020,-08.0820,+01.313244,+05.796716,-01.278892
+148.852,-065.908,-013.343,+1.859,-1.250,+2.036,-06.8470,-01.1320,-09.5100,+01.885471,+06.290502,-01.394202
+142.623,-058.674,-005.344,+1.688,-1.167,+2.325,-07.9190,-00.7340,-09.2490,+02.333045,+06.794488,-01.517238
+138.904,-051.136,+000.908,+1.526,-1.056,+2.555,-06.7410,+00.8050,-05.5720,+03.093868,+06.380188,-01.650562
+136.545,-044.464,+006.585,+1.429,-0.910,+2.766,-09.7710,-01.0870,-07.6830,+03.564749,+05.339510,-01.818306
+134.876,-038.372,+011.739,+1.253,-0.640,+2.978,-15.9670,-03.9390,-14.7970,+03.463260,+05.061879,-02.021272
+133.519,-031.922,+016.190,+1.045,-0.375,+3.096,-19.0170,-05.2960,-17.0490,+03.018389,+05.316175,-02.493894
+132.143,-024.750,+019.908,+0.850,-0.179,+3.189,-22.8300,-06.8090,-18.5780,+02.443171,+05.864656,-03.293473
+130.407,-016.926,+023.035,+0.549,+0.007,+3.185,-20.5910,-01.1310,-12.0980,+02.173495,+05.633956,-04.071375
+128.415,-009.389,+026.244,+0.284,+0.153,+3.178,-24.9650,+02.5440,-10.5550,+02.475091,+05.111044,-04.301705
+126.894,-002.678,+028.878,+0.098,+0.244,+3.153,-24.9390,+05.9440,+00.9710,+01.910694,+04.081057,-03.485899
+126.052,+001.641,+031.297,-0.064,+0.369,+3.080,-33.7400,+17.4440,+12.6720,+02.574298,+02.194453,-01.959169
+125.169,+003.193,+035.131,-0.115,+0.528,+3.055,-30.5310,+12.1270,+17.1970,+03.339822,-00.265638,-00.943302
+124.464,+001.673,+036.027,-0.064,+0.597,+3.078,-24.0110,-02.0250,+04.2000,-01.031065,-01.927579,+00.983032
+125.033,-001.205,+033.773,+0.043,+0.517,+3.089,+02.6840,-12.5390,-12.7680,-01.616517,-02.006334,+01.550735
+125.506,-006.777,+030.109,+0.247,+0.322,+3.089,+02.4960,-01.1030,+00.4520,-03.341353,-04.915600,+03.214391
+124.388,-012.915,+028.276,+0.465,+0.216,+3.110,-15.4480,+05.2930,-18.8670,-01.553624,-04.759034,+01.654682
+124.538,-018.277,+026.995,+0.669,+0.154,+3.065,-14.4300,+04.7250,-18.2650,-00.771836,-03.716953,+02.522577
+124.922,-022.585,+025.454,+0.832,+0.028,+3.008,-12.5090,-14.9120,-09.2910,-01.669052,-03.089130,+01.446481
+125.202,-025.765,+022.474,+0.943,-0.072,+3.019,-13.0460,-00.2370,-14.2620,-02.815947,-01.803954,+01.366402
+125.948,-027.544,+019.127,+1.003,-0.216,+2.964,-08.2020,-03.9280,-10.8470,-02.529293,-01.009822,+00.991148
+126.730,-028.389,+016.522,+1.021,-0.380,+2.955,-07.0080,-00.0360,-10.4180,-01.440844,-00.302686,+00.637654
+127.264,-028.789,+015.096,+1.031,-0.415,+2.950,-05.3910,-01.3830,-08.5790,-00.804684,-00.168076,+00.427073
+127.637,-028.985,+014.280,+1.031,-0.405,+2.928,-05.3560,-00.3730,-09.2200,-00.369578,-00.021708,+00.260960
+127.916,-029.056,+013.829,+1.030,-0.460,+2.902,-05.3600,-01.3950,-08.6220,-00.248979,-00.004690,+00.205260
+128.147,-029.105,+013.439,+1.021,-0.484,+2.923,-04.6820,-02.0000,-08.0840,-00.241453,-00.018773,+00.173879
+128.366,-029.178,+013.054,+1.016,-0.484,+2.896,-04.8390,-02.2460,-08.0170,-00.241437,-00.003426,+00.178236
+128.609,-029.202,+012.662,+1.026,-0.519,+2.913,-04.7160,-02.1660,-07.7670,-00.245269,+00.011911,+00.194308
+128.876,-029.223,+012.253,+1.021,-0.519,+2.940,-04.7140,-01.8950,-08.0000,-00.243314,+00.024209,+00.207457
+129.127,-029.254,+011.888,+1.002,-0.524,+2.906,-04.7030,-01.5890,-08.0770,-00.185613,+00.002774,+00.173172
+129.300,-029.308,+011.622,+1.012,-0.554,+2.891,-04.6270,-01.3430,-08.1510,-00.137775,-00.039056,+00.118490
+129.399,-029.386,+011.450,+1.002,-0.563,+2.901,-04.6510,-01.4840,-08.1490,-00.089315,-00.059938,+00.073121
+129.467,-029.473,+011.338,+1.016,-0.529,+2.902,-04.5870,-01.7450,-08.0150,-00.063020,-00.069116,+00.073559
+129.589,-029.573,+011.181,+1.007,-0.544,+2.907,-04.7040,-01.6870,-08.0480,-00.100629,-00.060692,+00.130567
+129.772,-029.680,+010.954,+1.012,-0.593,+2.913,-04.5760,-01.6330,-07.9950,-00.126929,-00.069630,+00.168333
+129.991,-029.823,+010.695,+1.026,-0.574,+2.892,-04.5030,-01.6080,-08.0690,-00.135881,-00.109454,+00.201677
+130.268,-030.029,+010.389,+1.021,-0.608,+2.886,-04.5220,-01.5290,-08.1400,-00.152081,-00.157082,+00.261276
+130.607,-030.294,+010.041,+1.016,-0.613,+2.897,-04.5720,-01.4930,-07.9390,-00.160260,-00.195796,+00.309026
+130.981,-030.636,+009.705,+1.035,-0.604,+2.865,-04.5090,-01.5290,-08.1100,-00.115736,-00.267597,+00.339715
+131.423,-031.125,+009.362,+1.030,-0.608,+2.876,-04.5270,-01.4180,-08.2520,-00.091747,-00.424447,+00.427310
+131.932,-031.782,+009.036,+1.049,-0.628,+2.877,-04.7850,-01.0610,-08.2040,-00.031991,-00.545175,+00.484249
+132.408,-032.664,+008.753,+1.072,-0.654,+2.840,-04.7510,-00.5660,-08.6200,-00.038633,-00.830368,+00.412203
+132.671,-033.993,+008.594,+1.123,-0.649,+2.815,-04.6360,-00.9580,-08.3420,+00.016728,-01.296966,+00.340169
+132.892,-036.011,+008.498,+1.169,-0.665,+2.812,-04.3110,-01.3030,-08.1630,+00.004740,-02.005301,+00.478493
+133.254,-039.081,+008.194,+1.267,-0.676,+2.703,-04.5090,-01.4430,-07.5010,-00.138369,-03.016800,+00.768647
+134.043,-043.286,+007.536,+1.406,-0.712,+2.634,-04.2310,-01.2230,-08.4130,-00.126197,-03.834289,+01.159285
+135.463,-048.335,+006.133,+1.526,-0.749,+2.537,-05.0360,-01.3900,-08.6840,-00.454405,-04.588944,+01.536500
+138.221,-054.438,+003.176,+1.670,-0.830,+2.349,-08.8100,-03.9060,-09.3380,-01.002602,-05.472597,+02.175438
+143.966,-061.459,-003.030,+1.818,-0.957,+2.124,-09.2830,-05.1430,-11.2940,-01.193810,-06.578309,+03.005801
+156.808,-069.306,-016.066,+1.925,-1.048,+1.897,-15.0040,-02.2490,-13.1720,-00.877576,-07.988387,+03.552253
-175.413,-075.969,-043.038,+2.021,-1.165,+1.513,-18.9300,-06.6320,-14.8310,-00.079819,-08.561502,+03.294806
-134.372,-076.546,-084.181,+2.044,-1.306,+1.142,-15.4610,-16.1440,-22.4870,-02.189842,-06.865842,+03.433712
-116.273,-072.139,-106.937,+1.974,-1.435,+0.870,-43.8770,-11.9820,-47.0420,-04.070968,-02.666012,+02.338004
-120.991,-072.318,-105.120,+1.974,-1.391,+0.767,-06.5160,-07.1420,-20.8500,-01.436494,+02.536737,-00.379883
-130.259,-073.490,-097.245,+1.978,-1.361,+0.832,+00.8330,-04.1180,-07.4430,-00.617585,+02.395480,-00.570506
-140.562,-074.418,-087.707,+1.988,-1.291,+0.923,-01.1660,-04.2940,-07.5390,-00.188350,+02.687876,-00.768060
-154.651,-074.876,-074.177,+1.997,-1.251,+1.010,-02.1320,-04.0360,-09.1120,+00.000613,+03.448422,-00.968731
-172.507,-074.053,-056.749,+1.970,-1.210,+1.214,-03.1020,-02.5510,-09.2010,+00.344246,+04.448425,-01.142173
+170.286,-071.301,-039.406,+1.947,-1.145,+1.428,-03.4630,-00.9350,-07.8190,+01.081270,+05.122133,-01.232744
+157.472,-066.826,-025.628,+1.855,-1.053,+1.683,-05.0460,-00.8000,-08.3990,+01.818408,+05.598451,-01.300463
+148.812,-061.068,-015.394,+1.706,-0.996,+1.973,-05.8790,-00.9440,-08.1710,+02.276164,+05.971413,-01.375474
+143.221,-054.784,-007.719,+1.558,-0.894,+2.193,-05.8610,+00.1230,-06.4110,+02.731994,+05.738426,-01.475555
+139.548,-048.859,-001.331,+1.327,-0.743,+2.409,-07.6990,+00.8080,-06.5790,+03.227417,+05.015693,-01.612453
+137.019,-043.545,+004.359,+1.090,-0.640,+2.554,-11.6590,-01.6210,-10.6930,+03.358594,+04.401289,-01.662395
+135.015,-038.202,+009.296,+0.956,-0.525,+2.629,-16.3120,-04.3190,-15.1610,+03.031424,+04.568896,-02.065160
+132.905,-032.491,+013.750,+0.835,-0.414,+2.688,-17.4410,-04.2760,-14.6600,+02.725095,+04.519916,-02.705929
+130.633,-026.255,+017.960,+0.747,-0.255,+2.769,-20.9300,-03.5510,-17.5580,+02.716929,+04.996409,-03.429810
+128.447,-019.300,+021.811,+0.650,-0.104,+2.872,-18.3170,-01.9810,-12.5070,+02.527261,+05.032247,-03.829912
+126.515,-012.509,+025.401,+0.465,+0.150,+2.916,-20.4830,+03.3500,-11.6080,+02.841251,+04.695244,-03.837681
+125.181,-006.022,+028.889,+0.196,+0.376,+2.924,-22.4250,+04.0190,-04.5290,+02.670840,+04.297363,-03.320813
+124.726,-001.225,+031.939,+0.001,+0.442,+2.899,-28.2990,+16.2620,+09.1910,+02.952638,+02.795644,-01.908518
+124.321,+001.091,+036.457,-0.115,+0.691,+2.849,-29.8490,+16.3790,+16.3670,+04.180470,+00.586560,-01.146654
+123.855,+000.454,+038.744,-0.120,+0.755,+2.859,-23.5880,+00.9390,+05.5220,+00.145079,-01.298952,+00.832557
+124.337,-002.617,+035.760,-0.045,+0.660,+2.879,-07.0440,-01.5420,-23.8650,-02.892001,-01.904333,+02.547698
+125.131,-007.029,+031.434,+0.080,+0.501,+2.913,+06.4800,+00.7420,+00.2790,-04.297977,-03.776840,+03.797609
+125.470,-013.033,+028.431,+0.289,+0.365,+2.955,-10.6760,+01.4840,-16.4530,-01.534861,-04.539990,+02.246266
+125.892,-018.456,+026.852,+0.428,+0.280,+2.983,-13.0470,+03.8350,-15.9180,-01.035188,-03.756400,+02.526608
+126.484,-022.848,+024.705,+0.567,+0.229,+2.968,-14.8580,-14.1850,-11.0030,-02.256338,-02.977761,+01.610253
+126.803,-025.957,+021.177,+0.678,+0.009,+2.915,-11.9080,+02.0580,-13.6580,-03.001880,-01.828710,+01.205059
+127.515,-027.613,+017.589,+0.725,-0.105,+2.907,-07.8440,-03.2510,-10.3170,-02.527646,-00.921021,+00.846823
+128.202,-028.470,+015.154,+0.743,-0.184,+2.909,-05.4470,-00.7470,-08.5160,-01.395686,-00.434850,+00.625299
+128.700,-028.950,+013.890,+0.752,-0.274,+2.877,-06.3530,-00.4270,-10.2640,-00.621960,-00.220206,+00.406917
+129.027,-029.172,+013.349,+0.757,-0.289,+2.894,-04.9750,-01.0750,-08.4990,-00.220759,-00.113117,+00.233372
+129.239,-029.285,+013.065,+0.757,-0.299,+2.878,-05.0910,-00.7170,-08.3640,-00.138391,-00.036546,+00.132430
+129.314,-029.378,+012.945,+0.752,-0.304,+2.872,-04.5540,-01.5220,-08.2410,-00.037464,-00.111424,+00.057217
+129.301,-029.579,+012.967,+0.757,-0.294,+2.899,-04.8540,-01.7350,-08.1360,+00.033560,-00.193268,+00.018581
+129.268,-029.785,+013.037,+0.766,-0.294,+2.862,-04.7580,-02.0100,-08.0130,+00.046938,-00.178639,+00.021655
+129.259,-029.989,+013.083,+0.775,-0.279,+2.884,-04.7080,-02.0270,-07.9780,+00.030937,-00.173984,+00.038494
+129.257,-030.199,+013.132,+0.780,-0.294,+2.895,-04.8400,-01.9070,-08.0130,+00.051516,-00.182773,+00.037314
+129.240,-030.410,+013.211,+0.794,-0.279,+2.869,-04.8020,-01.9310,-07.9620,+00.065582,-00.176124,+00.028743
+129.226,-030.609,+013.298,+0.803,-0.314,+2.869,-04.7980,-01.9230,-07.9340,+00.065644,-00.175514,+00.032380
+129.229,-030.818,+013.354,+0.794,-0.304,+2.863,-04.8740,-01.9460,-07.8840,+00.040753,-00.173577,+00.052169
+129.267,-031.028,+013.363,+0.808,-0.270,+2.869,-04.8250,-01.9210,-07.9240,+00.018927,-00.172927,+00.079515
+129.344,-031.265,+013.328,+0.822,-0.280,+2.886,-04.7740,-01.8800,-07.8310,-00.008734,-00.195755,+00.122960
+129.499,-031.522,+013.205,+0.817,-0.294,+2.870,-04.8730,-02.0570,-07.8140,-00.060556,-00.181943,+00.190151
+129.781,-031.769,+012.936,+0.826,-0.299,+2.865,-04.7960,-02.0130,-07.7690,-00.128839,-00.162646,+00.292963
+130.158,-032.058,+012.601,+0.840,-0.324,+2.849,-04.8620,-01.7870,-07.8160,-00.097039,-00.200140,+00.340953
+130.535,-032.405,+012.322,+0.840,-0.324,+2.860,-05.0710,-01.4910,-07.8680,-00.051319,-00.264255,+00.324067
+130.823,-032.858,+012.100,+0.859,-0.325,+2.828,-05.0220,-01.5730,-07.9440,-00.068883,-00.389027,+00.276805
+131.056,-033.517,+011.855,+0.877,-0.330,+2.840,-05.0460,-01.7350,-08.0020,-00.090947,-00.601762,+00.283981
+131.261,-034.473,+011.654,+0.891,-0.355,+2.841,-05.0540,-01.5160,-08.0760,-00.060351,-00.916117,+00.321614
+131.393,-035.879,+011.553,+0.947,-0.351,+2.795,-05.1230,-01.2410,-07.9910,+00.004607,-01.340517,+00.318301
+131.384,-037.911,+011.599,+1.021,-0.356,+2.787,-05.0010,-01.3720,-07.5200,+00.053871,-02.000709,+00.369676
+131.348,-040.899,+011.687,+1.086,-0.357,+2.752,-05.0960,-01.3400,-07.5320,+00.101335,-02.899779,+00.607831
+131.540,-044.888,+011.800,+1.221,-0.344,+2.672,-04.9220,-01.3930,-07.8520,+00.239394,-03.644009,+00.938530
+131.986,-049.729,+011.677,+1.365,-0.400,+2.559,-06.1480,-01.7210,-08.3850,+00.128936,-04.354951,+01.241016
+132.926,-055.539,+010.932,+1.485,-0.447,+2.479,-08.1720,-02.5460,-08.0290,-00.151918,-05.231468,+01.609946
+134.328,-062.551,+009.423,+1.671,-0.459,+2.281,-09.5230,-03.8420,-09.8690,-00.180896,-06.413855,+01.806125
+137.723,-071.352,+006.128,+1.856,-0.586,+2.031,-11.8840,-03.1120,-14.7360,+00.061168,-08.095332,+02.364046
+150.836,-081.507,-006.886,+1.985,-0.683,+1.762,-15.9180,-00.0900,-14.1200,-00.249122,-09.078855,+02.697433
-103.017,-085.503,-113.167,+2.087,-0.760,+1.394,-23.6600,-07.2400,-18.5400,-00.287310,-08.554942,+02.662052
-071.613,-078.107,-144.851,+2.068,-0.875,+1.086,+06.1170,-02.8230,-20.0110,-01.714485,-05.298789,+02.650851
-072.291,-074.466,-145.888,+1.993,-0.969,+0.970,-19.0980,-10.9680,-36.0750,-01.605024,+00.297973,+00.771356
-082.233,-076.892,-138.056,+1.914,-0.973,+0.988,-00.9020,-05.5670,-13.6510,-01.624622,+03.611862,+00.419105
-098.493,-079.048,-123.615,+1.821,-1.017,+1.055,+00.4000,-02.6720,-06.1430,-01.045242,+03.376429,+00.532353
-120.859,-080.312,-102.207,+1.747,-1.010,+1.165,-01.1720,-03.5320,-06.8190,-00.240394,+03.832073,+00.239817
-150.109,-080.062,-073.411,+1.673,-1.039,+1.243,-03.1500,-04.8030,-08.7160,+00.029720,+04.641146,-00.067399
-177.298,-077.295,-046.534,+1.622,-1.073,+1.354,-03.5450,-03.9210,-07.7730,+00.309503,+05.432478,-00.402950
+165.097,-072.459,-028.673,+1.613,-1.067,+1.505,-05.3360,-02.7890,-08.0180,+01.033005,+05.923182,-00.740951
+154.385,-066.221,-016.919,+1.571,-1.026,+1.698,-06.8040,-02.9300,-08.4610,+01.741926,+06.469057,-01.041675
+147.800,-059.099,-008.672,+1.511,-0.994,+1.927,-07.5230,-02.2750,-07.4220,+02.312737,+06.676336,-01.282197
+143.690,-051.915,-001.974,+1.419,-0.948,+2.193,-07.5260,-00.4630,-05.1900,+03.275638,+06.159860,-01.537322
+140.842,-045.569,+004.361,+1.317,-0.797,+2.495,-09.3530,-02.9030,-06.1050,+03.768774,+05.072641,-01.843426
+138.606,-040.035,+009.986,+1.197,-0.621,+2.781,-17.2350,-06.5500,-14.9630,+03.447428,+04.541679,-02.199173
+136.309,-034.081,+015.027,+1.021,-0.499,+3.004,-17.8230,-06.3360,-14.1370,+03.050892,+04.704715,-02.973804
+133.790,-027.988,+019.505,+0.780,-0.278,+3.133,-23.3070,-07.3410,-16.3980,+02.563410,+04.534475,-03.647216
+131.046,-021.179,+023.163,+0.548,-0.107,+3.192,-23.0800,-03.0570,-12.2540,+02.064984,+04.749095,-04.471790
+128.327,-014.172,+026.646,+0.367,-0.016,+3.221,-24.6210,+04.0970,-09.7310,+02.446807,+04.534220,-04.569378
+126.676,-007.582,+029.286,+0.149,+0.110,+3.200,-25.1700,+04.8010,-03.0680,+01.601585,+04.247366,-03.455321
+126.278,-002.682,+030.658,-0.050,+0.152,+3.201,-27.5590,+13.2360,+08.4110,+01.182209,+03.005554,-01.812736
+126.535,-000.239,+032.963,-0.134,+0.202,+3.203,-29.8720,+18.1070,+15.5590,+02.517670,+01.235336,-00.503020
+126.823,-000.513,+034.967,-0.138,+0.346,+3.169,-18.0410,+02.7810,+08.8880,+00.700374,-00.772465,+00.936314
+127.779,-004.506,+031.626,-0.013,+0.240,+3.170,-14.0230,+02.3460,-26.4520,-02.626683,-02.057852,+02.892960
+128.900,-009.088,+028.275,+0.126,+0.170,+3.198,+06.3610,-00.1700,+02.9270,-02.567939,-03.902637,+03.218199
+128.652,-015.243,+026.755,+0.381,+0.098,+3.150,-17.8840,-00.3800,-20.6590,-00.932598,-04.679497,+02.002323
+128.974,-020.364,+025.661,+0.595,+0.036,+3.112,-12.6080,+02.6500,-14.6760,-00.729483,-03.607585,+02.306057
+129.299,-024.351,+023.774,+0.730,-0.010,+3.107,-11.7410,-12.9430,-09.3610,-02.151962,-02.869707,+01.307103
+129.763,-027.079,+020.239,+0.831,-0.150,+3.031,-10.3010,+00.7130,-11.2020,-02.903194,-01.536810,+01.165182
+130.587,-028.476,+016.950,+0.887,-0.290,+2.992,-10.3770,-04.4950,-12.0700,-02.367404,-00.720027,+00.873672
+131.267,-029.069,+015.000,+0.896,-0.364,+2.966,-07.3260,-01.4230,-10.5340,-00.991261,-00.224966,+00.492103
+131.725,-029.350,+013.986,+0.891,-0.364,+2.955,-06.0170,-00.7240,-09.5600,-00.462147,-00.073447,+00.344641
+132.012,-029.427,+013.522,+0.882,-0.428,+2.933,-05.2980,-01.4230,-08.4510,-00.201555,-00.002070,+00.180055
+132.194,-029.457,+013.273,+0.891,-0.443,+2.961,-04.8610,-00.9100,-08.4150,-00.111033,+00.003703,+00.114829
+132.246,-029.557,+013.198,+0.887,-0.429,+2.939,-04.7300,-01.5580,-08.1850,-00.014105,-00.115584,+00.040027
+132.265,-029.696,+013.172,+0.877,-0.428,+2.949,-04.8000,-02.2510,-07.8430,-00.022255,-00.116774,+00.049002
+132.305,-029.829,+013.124,+0.887,-0.428,+2.966,-04.7440,-02.0260,-07.9870,-00.024665,-00.102307,+00.059729
+132.365,-029.958,+013.046,+0.914,-0.414,+2.940,-04.7470,-02.0240,-07.9850,-00.052500,-00.090587,+00.075109
+132.450,-030.060,+012.932,+0.901,-0.424,+2.934,-04.8160,-01.9770,-08.0570,-00.058505,-00.062304,+00.079250
+132.535,-030.149,+012.821,+0.905,-0.444,+2.929,-04.8410,-01.7360,-08.0730,-00.056831,-00.059085,+00.078363
+132.610,-030.226,+012.728,+0.910,-0.429,+2.923,-04.7840,-01.7760,-08.0410,-00.048072,-00.048328,+00.067383
+132.698,-030.301,+012.617,+0.900,-0.468,+2.923,-04.6860,-02.0020,-07.8870,-00.068407,-00.043970,+00.092476
+132.838,-030.386,+012.460,+0.914,-0.459,+2.940,-04.7080,-01.8300,-07.8760,-00.073552,-00.056066,+00.132184
+132.992,-030.507,+012.311,+0.919,-0.449,+2.924,-04.7140,-01.5490,-07.9250,-00.058504,-00.091810,+00.133644
+133.148,-030.673,+012.147,+0.914,-0.473,+2.919,-04.6660,-01.5880,-07.9660,-00.079337,-00.131545,+00.154177
+133.347,-030.891,+011.954,+0.919,-0.454,+2.946,-04.7080,-01.7150,-07.9360,-00.078079,-00.166567,+00.209666
+133.626,-031.167,+011.718,+0.933,-0.434,+2.914,-04.7840,-01.7770,-08.0160,-00.069863,-00.210203,+00.268267
+133.953,-031.472,+011.476,+0.924,-0.488,+2.930,-04.8110,-01.4570,-07.9850,-00.063121,-00.233083,+00.303715
+134.262,-031.886,+011.258,+0.924,-0.508,+2.930,-05.1150,-01.6470,-07.9260,-00.033011,-00.361767,+00.298398
+134.611,-032.455,+011.051,+0.961,-0.494,+2.905,-04.9320,-01.6680,-08.0630,-00.009284,-00.495306,+00.390895
+134.969,-033.275,+010.825,+0.989,-0.509,+2.900,-05.1110,-01.2620,-08.3530,-00.021632,-00.741992,+00.348742
+135.201,-034.465,+010.675,+1.007,-0.524,+2.880,-04.9550,-01.1460,-08.1220,-00.000438,-01.156090,+00.350260
+135.252,-036.210,+010.672,+1.068,-0.485,+2.850,-04.8680,-01.1780,-07.8510,+00.030819,-01.722978,+00.310627
+135.225,-038.808,+010.699,+1.165,-0.526,+2.789,-04.8010,-01.4200,-07.4450,+00.002472,-02.569659,+00.482863
+135.426,-042.514,+010.636,+1.276,-0.527,+2.756,-04.5900,-01.4150,-07.9640,+00.149412,-03.454070,+00.878518
+136.059,-047.127,+010.270,+1.425,-0.554,+2.655,-05.2340,-01.7870,-08.5930,-00.023470,-04.148600,+01.262398
+137.483,-052.657,+008.951,+1.596,-0.626,+2.523,-06.2600,-02.8450,-08.4020,-00.284807,-04.902773,+01.816930
+140.328,-059.139,+005.837,+1.721,-0.692,+2.372,-08.6810,-04.2460,-09.7260,-00.855651,-05.771133,+02.302466
+146.720,-066.929,-001.034,+1.888,-0.804,+2.110,-10.6000,-04.9440,-12.1340,-01.153578,-07.295259,+03.116484
+162.795,-075.608,-017.231,+2.013,-0.995,+1.782,-14.0910,-00.2850,-13.7610,-00.639450,-08.541287,+03.273249
-150.262,-081.159,-064.046,+2.077,-1.156,+1.505,-21.4160,-11.0890,-16.7550,-00.442668,-08.445204,+03.138050
-103.934,-077.623,-111.620,+2.063,-1.306,+1.132,-01.6730,-10.9630,-22.1480,-03.140899,-05.807485,+03.240425
-095.861,-073.350,-123.733,+1.964,-1.450,+0.864,-24.6310,-08.9920,-39.1410,-03.078058,-00.499167,+00.838864
-103.968,-074.970,-118.317,+1.927,-1.514,+0.841,-01.7310,-06.1320,-14.4180,-01.678685,+03.096565,-00.437958
-115.754,-076.784,-108.294,+1.937,-1.509,+0.842,+00.6460,-03.2420,-06.3020,-00.979670,+02.813784,-00.457567
-130.398,-078.045,-094.743,+1.932,-1.539,+0.880,-01.2350,-03.5820,-07.1260,-00.474344,+03.113835,-00.552975
-150.788,-078.401,-075.139,+1.965,-1.524,+0.973,-02.6500,-03.9580,-08.9780,-00.259926,+03.871408,-00.654980
-174.197,-076.814,-052.321,+1.983,-1.479,+1.043,-04.2730,-02.7200,-09.8160,+00.133439,+04.902591,-00.739078
+167.074,-072.851,-033.556,+1.979,-1.433,+1.275,-04.6630,-01.9870,-08.0840,+00.862838,+05.629871,-00.813993
+155.424,-067.299,-021.094,+1.952,-1.368,+1.501,-06.5550,-02.1230,-08.1610,+01.537540,+06.008864,-00.879515
+148.321,-060.680,-012.531,+1.882,-1.276,+1.762,-08.6210,-02.0870,-09.2270,+02.108508,+06.485784,-00.968320
+143.937,-053.396,-005.859,+1.771,-1.155,+2.075,-08.9180,-00.9020,-07.3100,+02.968459,+06.573574,-01.068098
+141.268,-046.457,+000.399,+1.647,-1.009,+2.355,-08.8490,-00.6080,-04.6450,+04.043549,+05.718222,-01.316315
+139.181,-040.673,+006.547,+1.499,-0.783,+2.590,-13.1160,-06.6680,-08.9210,+03.928001,+04.545758,-01.806328
+136.866,-035.240,+011.861,+1.332,-0.562,+2.819,-19.7090,-07.8490,-16.6670,+03.153231,+04.518334,-02.759823
+133.883,-029.164,+016.928,+1.147,-0.386,+2.961,-21.7720,-05.8650,-16.6760,+02.951483,+04.603632,-03.825345
+130.751,-022.190,+021.217,+0.910,-0.171,+3.068,-23.9840,-06.5360,-15.1830,+02.216164,+05.113710,-04.595338
+127.564,-014.975,+024.410,+0.646,-0.044,+3.114,-21.5500,+05.5540,-09.4540,+02.048705,+04.451237,-04.998175
+124.674,-008.041,+028.057,+0.460,+0.107,+3.170,-26.5270,+07.9650,-07.8940,+02.761242,+04.355026,-04.637642
+123.274,-002.328,+030.298,+0.252,+0.228,+3.149,-27.0830,+13.4300,+07.6870,+01.299113,+03.169333,-02.697370
+122.991,+000.476,+032.292,+0.131,+0.298,+3.111,-32.7060,+22.8520,+16.6400,+02.296431,+01.226819,-00.860716
+123.216,+000.212,+034.562,+0.122,+0.387,+3.115,-24.9910,+07.9000,+09.7590,+01.114820,-00.777877,+01.119275
+124.415,-002.459,+032.833,+0.196,+0.352,+3.108,-02.5330,-05.9610,-19.6810,-03.710664,-01.217122,+03.118631
+125.876,-006.269,+029.826,+0.307,+0.207,+3.092,+12.4320,-07.4430,+05.8080,-03.040784,-03.338820,+03.449350
+125.991,-012.459,+027.551,+0.502,+0.121,+3.091,-08.7490,-06.7590,-12.3240,-01.172479,-05.271789,+01.735785
+125.679,-018.054,+026.424,+0.716,+0.049,+2.982,-14.4020,+10.6550,-18.8480,-00.889338,-03.963858,+02.212342
+126.292,-022.469,+025.016,+0.883,-0.037,+2.952,-15.3880,-15.6420,-11.5000,-01.429689,-02.921332,+01.706511
+126.393,-025.727,+022.270,+0.980,-0.142,+2.897,-12.7210,-04.7030,-16.3970,-03.169462,-02.127986,+01.217403
+127.177,-027.447,+018.728,+1.035,-0.292,+2.831,-07.2240,-05.0780,-10.9440,-02.682894,-00.959004,+00.963121
+127.968,-028.346,+015.989,+1.044,-0.426,+2.800,-07.1640,+01.8280,-11.0840,-01.548975,-00.335140,+00.675166
+128.483,-028.776,+014.578,+1.049,-0.485,+2.817,-05.1600,-01.8120,-08.8880,-00.802326,-00.219498,+00.411989
+128.843,-028.954,+013.828,+1.040,-0.500,+2.789,-05.3250,-01.3260,-08.4350,-00.355153,-00.017850,+00.233448
+129.065,-029.000,+013.480,+1.053,-0.525,+2.774,-04.9260,-01.2200,-08.3140,-00.156833,-00.002847,+00.148112
+129.155,-029.070,+013.344,+1.040,-0.520,+2.800,-04.7590,-01.2420,-08.3700,-00.038694,-00.069257,+00.046096
+129.196,-029.170,+013.283,+1.040,-0.515,+2.784,-04.7440,-01.9890,-08.1500,-00.049769,-00.079280,+00.060478
+129.277,-029.249,+013.140,+1.049,-0.535,+2.779,-04.6620,-02.2670,-07.8800,-00.119157,-00.046224,+00.096437
+129.417,-029.322,+012.901,+1.053,-0.530,+2.779,-04.7240,-02.2360,-07.9030,-00.160901,-00.035236,+00.130693
+129.590,-029.381,+012.626,+1.053,-0.535,+2.774,-04.8160,-01.8910,-08.0390,-00.160004,-00.016019,+00.139180
+129.743,-029.424,+012.403,+1.053,-0.550,+2.779,-04.7210,-01.6260,-08.0660,-00.112471,-00.013701,+00.115448
+129.850,-029.477,+012.259,+1.035,-0.555,+2.784,-04.6770,-01.5490,-08.0230,-00.060759,-00.032601,+00.071774
+129.909,-029.547,+012.186,+1.053,-0.550,+2.769,-04.5470,-01.7500,-08.0020,-00.030969,-00.056763,+00.052892
+129.987,-029.640,+012.111,+1.049,-0.570,+2.758,-04.6280,-01.8350,-07.9850,-00.033749,-00.074004,+00.091496
+130.105,-029.770,+012.017,+1.058,-0.540,+2.796,-04.6630,-01.5720,-08.0180,-00.024608,-00.104480,+00.120570
+130.226,-029.939,+011.936,+1.063,-0.555,+2.764,-04.6070,-01.6430,-08.0210,-00.021622,-00.140059,+00.125486
+130.364,-030.156,+011.843,+1.067,-0.580,+2.753,-04.6360,-01.6630,-08.0320,-00.018902,-00.179912,+00.147972
+130.516,-030.423,+011.732,+1.063,-0.575,+2.775,-04.5990,-01.6520,-08.0350,-00.036769,-00.212606,+00.168958
+130.703,-030.741,+011.596,+1.077,-0.560,+2.743,-04.7490,-01.5600,-08.0330,-00.031899,-00.266710,+00.199933
+130.876,-031.145,+011.480,+1.086,-0.595,+2.743,-04.6630,-01.5730,-08.1940,-00.022204,-00.347723,+00.201732
+131.078,-031.664,+011.361,+1.095,-0.580,+2.749,-04.7310,-01.6540,-08.0990,-00.009451,-00.455229,+00.272833
+131.342,-032.346,+011.201,+1.118,-0.581,+2.723,-04.4180,-01.4310,-08.0510,-00.038721,-00.624185,+00.319208
+131.493,-033.293,+011.072,+1.146,-0.581,+2.692,-04.2550,-01.2810,-08.3040,-00.043898,-00.913931,+00.264896
+131.548,-034.725,+011.041,+1.179,-0.611,+2.710,-04.7870,-01.3170,-08.2610,+00.027353,-01.419897,+00.287369
+131.553,-036.904,+011.075,+1.258,-0.597,+2.637,-04.7120,-01.5680,-07.7950,+00.015991,-02.165655,+00.441174
+131.674,-040.144,+011.032,+1.355,-0.633,+2.566,-04.9090,-01.3770,-07.5410,+00.065486,-03.127744,+00.754929
+132.176,-044.422,+010.834,+1.476,-0.654,+2.507,-04.7170,-01.7890,-08.1200,+00.077018,-03.858015,+01.184176
+133.274,-049.582,+009.934,+1.596,-0.691,+2.361,-05.0130,-01.8970,-08.2200,-00.201776,-04.604928,+01.661261
+135.532,-055.716,+007.624,+1.754,-0.773,+2.169,-08.1810,-03.3170,-08.9300,-00.689565,-05.385454,+02.149002
+140.011,-062.953,+002.763,+1.842,-0.844,+2.027,-08.7830,-04.5450,-10.6310,-00.929349,-06.643663,+02.878353
+150.788,-071.593,-008.209,+1.966,-1.005,+1.699,-13.3170,-03.5410,-11.0880,-00.720963,-08.214430,+03.395411
-179.256,-079.520,-037.762,+2.035,-1.136,+1.330,-18.6870,-06.9990,-14.7380,-00.322167,-08.710916,+03.241692
-122.667,-079.845,-094.389,+2.030,-1.266,+1.071,-17.8190,-13.6930,-21.5650,-01.493663,-07.010355,+03.263380
-103.076,-074.316,-117.733,+1.923,-1.401,+0.678,-46.2790,-17.9920,-46.1230,-03.748839,-03.471030,+02.959599
-108.126,-074.101,-115.819,+1.895,-1.416,+0.628,-10.0440,-08.9790,-25.7350,-01.813661,+02.798990,+00.014633
-120.565,-075.618,-105.267,+1.895,-1.431,+0.661,+01.3050,-04.8850,-07.0770,-01.037313,+02.993376,-00.294371
-134.179,-076.631,-092.990,+1.923,-1.396,+0.716,-00.5240,-04.2730,-06.0520,-00.691827,+03.026896,-00.504096
-151.438,-077.103,-076.766,+1.937,-1.371,+0.803,-01.5350,-04.0820,-07.3040,-00.433020,+03.579614,-00.817084
-172.325,-076.244,-056.731,+1.960,-1.346,+0.917,-03.5910,-03.2730,-09.0410,-00.126448,+04.504681,-01.063902
+167.840,-073.259,-037.268,+1.974,-1.281,+1.069,-04.0640,-01.8070,-08.2200,+00.545382,+05.351830,-01.274088
+153.862,-068.351,-022.847,+1.961,-1.215,+1.322,-05.1150,-01.0990,-08.0840,+01.339369,+05.866885,-01.346519
+145.181,-062.100,-012.950,+1.915,-1.129,+1.546,-06.9310,-01.0590,-08.9190,+01.961540,+06.321434,-01.337865
+139.983,-054.955,-005.828,+1.827,-1.043,+1.806,-07.7790,-00.2740,-07.7670,+02.586320,+06.587092,-01.300792
+136.979,-047.899,+000.027,+1.702,-0.931,+2.097,-07.4610,+00.2200,-04.9280,+03.315809,+05.886533,-01.342533
+135.067,-041.894,+005.335,+1.605,-0.786,+2.297,-10.0020,-02.5610,-07.2660,+03.463606,+04.743529,-01.473594
+133.375,-036.600,+010.278,+1.490,-0.590,+2.458,-18.4960,-05.5040,-16.7600,+03.362726,+04.466209,-02.026095
+131.361,-030.862,+015.236,+1.342,-0.365,+2.629,-16.8900,-03.1540,-12.6990,+03.362946,+04.395398,-02.760472
+129.280,-025.293,+020.035,+1.226,-0.185,+2.709,-23.0460,-02.5320,-15.7920,+03.292305,+04.160258,-03.164488
+127.450,-019.153,+024.376,+1.068,+0.059,+2.792,-21.4840,+02.3310,-12.2200,+03.164323,+04.471291,-03.481763
+126.146,-013.050,+028.800,+0.874,+0.339,+2.862,-21.2660,+09.6100,-10.4810,+03.786857,+04.201938,-03.190728
+126.091,-007.329,+032.673,+0.702,+0.465,+2.919,-22.7040,+07.4830,-05.9590,+02.789669,+04.234844,-02.152004
+127.240,-003.114,+034.447,+0.512,+0.615,+2.931,-24.5390,+13.7700,+06.3480,+01.124559,+03.107863,-00.625462
+128.833,-001.432,+035.747,+0.396,+0.656,+2.947,-27.2700,+17.8470,+14.3680,+01.345019,+01.261891,+00.812652
+130.326,-002.546,+036.614,+0.415,+0.696,+2.942,-22.3550,+04.9840,+06.2740,+00.115092,-00.647009,+02.058734
+131.898,-005.668,+033.545,+0.503,+0.586,+2.936,-09.0770,-04.9560,-21.1860,-02.464316,-01.344650,+02.542465
+133.024,-010.115,+029.691,+0.646,+0.411,+2.933,+05.3820,-04.6360,+00.6600,-03.492995,-03.756439,+03.449466
+132.630,-015.698,+027.577,+0.841,+0.300,+2.883,-13.3010,+03.2370,-16.1710,-01.442563,-04.418870,+01.797475
+133.112,-020.551,+025.982,+1.008,+0.219,+2.799,-13.2180,+04.7110,-16.1130,-01.095901,-03.211296,+02.407389
+133.671,-024.211,+023.705,+1.143,+0.113,+2.741,-12.5570,-14.1570,-10.5870,-02.381134,-02.535540,+01.242648
+134.084,-026.632,+020.277,+1.212,-0.017,+2.707,-13.1040,+01.3000,-13.9810,-02.825040,-01.229070,+01.091006
+134.835,-027.890,+016.999,+1.249,-0.141,+2.672,-06.8620,-02.2590,-10.0610,-02.310346,-00.681879,+00.841088
+135.575,-028.553,+014.712,+1.258,-0.206,+2.662,-05.3450,-01.5500,-09.0350,-01.340536,-00.323231,+00.604758
+136.116,-028.920,+013.429,+1.253,-0.280,+2.651,-06.1180,-00.3060,-10.2840,-00.628488,-00.141094,+00.428798
+136.519,-029.047,+012.769,+1.253,-0.310,+2.630,-04.9610,-00.7430,-08.5480,-00.301539,+00.005298,+00.270629
+136.813,-029.094,+012.365,+1.253,-0.315,+2.630,-05.5310,-01.2390,-08.4600,-00.192926,+00.001015,+00.197302
+136.954,-029.168,+012.152,+1.253,-0.320,+2.646,-04.8250,-01.2900,-08.2140,-00.079857,-00.082497,+00.073182
+136.959,-029.311,+012.116,+1.263,-0.305,+2.630,-04.8530,-01.5500,-08.1350,-00.005755,-00.134848,+00.011477
+136.931,-029.467,+012.138,+1.258,-0.340,+2.619,-04.7730,-01.8220,-08.0680,+00.012295,-00.134012,+00.008019
+136.920,-029.618,+012.147,+1.267,-0.340,+2.636,-04.6490,-01.9950,-08.0010,-00.001200,-00.130008,+00.027479
+136.938,-029.769,+012.132,+1.258,-0.290,+2.624,-04.6660,-01.8540,-08.0020,-00.005678,-00.124790,+00.048243
+136.965,-029.923,+012.119,+1.277,-0.330,+2.609,-04.7490,-01.7080,-08.0340,+00.000941,-00.123101,+00.044596
+136.990,-030.058,+012.105,+1.281,-0.340,+2.626,-04.8410,-01.6750,-08.0300,-00.002592,-00.102514,+00.040371
+137.026,-030.177,+012.073,+1.286,-0.330,+2.615,-04.6900,-01.8940,-07.9350,-00.019888,-00.093476,+00.059112
+137.107,-030.310,+012.004,+1.286,-0.310,+2.615,-04.6980,-01.8560,-07.9110,-00.025042,-00.111250,+00.100852
+137.229,-030.472,+011.896,+1.286,-0.340,+2.621,-04.7960,-01.7610,-07.9620,-00.060432,-00.124665,+00.134744
+137.410,-030.631,+011.700,+1.290,-0.340,+2.588,-04.8540,-01.7160,-07.9130,-00.104465,-00.096475,+00.171373
+137.641,-030.790,+011.447,+1.281,-0.340,+2.593,-04.7590,-01.6520,-07.9610,-00.121604,-00.101732,+00.221612
+137.946,-030.985,+011.133,+1.290,-0.365,+2.621,-04.8310,-01.4980,-08.0380,-00.144699,-00.135796,+00.267764
+138.268,-031.213,+010.790,+1.300,-0.355,+2.589,-04.8490,-01.4510,-07.9430,-00.151569,-00.169531,+00.280985
+138.569,-031.510,+010.484,+1.309,-0.395,+2.584,-04.7730,-01.4310,-08.0530,-00.120985,-00.246248,+00.267336
+138.879,-031.908,+010.200,+1.318,-0.400,+2.601,-04.8750,-01.5620,-07.9250,-00.098829,-00.332688,+00.305035
+139.246,-032.426,+009.923,+1.332,-0.400,+2.569,-04.9830,-01.4610,-08.0120,-00.058090,-00.431568,+00.366180
+139.638,-033.119,+009.641,+1.341,-0.440,+2.553,-04.8390,-00.7240,-08.4860,-00.073091,-00.647256,+00.387512
+139.907,-034.152,+009.407,+1.360,-0.430,+2.565,-04.9450,-01.1070,-08.1890,-00.058672,-01.002123,+00.338972
+140.086,-035.647,+009.286,+1.406,-0.441,+2.486,-04.7790,-01.3920,-07.8910,-00.000695,-01.465330,+00.378852
+140.373,-037.890,+009.096,+1.476,-0.462,+2.441,-04.8900,-01.6320,-07.7310,-00.034232,-02.191234,+00.581559
+140.912,-041.155,+008.687,+1.545,-0.458,+2.384,-04.7240,-01.4670,-07.8760,-00.031226,-03.090453,+00.932120
+141.973,-045.347,+007.885,+1.657,-0.509,+2.265,-04.6860,-01.3420,-08.5860,-00.142418,-03.800058,+01.349549
+143.853,-050.537,+006.124,+1.777,-0.585,+2.147,-05.3640,-01.6030,-08.4280,-00.412496,-04.736696,+01.875044
+147.516,-056.929,+002.330,+1.870,-0.656,+1.989,-08.0250,-04.8300,-10.7320,-00.956040,-05.795429,+02.541307
+154.994,-064.511,-005.416,+1.967,-0.772,+1.692,-10.8430,-02.5070,-11.3650,-00.940415,-07.290140,+03.199964
+170.858,-072.901,-020.628,+2.064,-0.934,+1.362,-13.5770,-02.4840,-13.8650,+00.201887,-08.649385,+03.121362
-152.920,-078.523,-055.759,+2.072,-1.019,+1.136,-23.0730,-12.5600,-19.2640,-00.197058,-07.922290,+03.220193
-116.052,-076.425,-095.103,+2.030,-1.144,+0.778,+04.9520,-09.4740,-18.5780,-05.230576,-04.873173,+03.781945
-108.235,-073.488,-107.304,+1.941,-1.263,+0.592,-16.2390,-04.4610,-34.3770,-02.626266,+00.589454,+00.399950
-117.260,-074.859,-099.555,+1.927,-1.253,+0.629,+01.9890,-05.3590,-09.0110,-00.066577,+02.546834,-00.997104
-128.135,-076.316,-088.852,+1.951,-1.178,+0.726,-01.7590,-05.6430,-08.0060,+00.123052,+02.564005,-01.112232
-144.686,-077.124,-072.518,+1.951,-1.148,+0.807,-02.0290,-03.6050,-08.6710,+00.296665,+03.507035,-01.300341
-165.714,-076.309,-051.211,+1.961,-1.078,+0.964,-01.2320,-00.4270,-07.6680,+01.056035,+04.309861,-01.364446
+176.674,-073.371,-032.208,+1.956,-1.018,+1.131,-01.5680,+00.8940,-06.4490,+02.109854,+04.665563,-01.247987
+165.402,-068.995,-018.604,+1.985,-0.957,+1.364,-03.3960,+00.6610,-07.8980,+02.739421,+04.875615,-01.242058
+158.217,-063.667,-008.677,+1.980,-0.867,+1.585,-05.1310,+01.3840,-10.7280,+03.007557,+05.264277,-01.429723
+153.707,-057.472,-001.110,+1.953,-0.736,+1.918,-06.3560,+03.5040,-11.1250,+03.268128,+05.697754,-01.444023
+151.542,-050.997,+004.636,+1.796,-0.535,+2.266,-05.7040,+05.3910,-07.9560,+03.608709,+05.426790,-01.154696
+151.091,-045.355,+009.567,+1.597,-0.334,+2.477,-08.8560,+09.9670,-10.3270,+04.330578,+04.604431,-00.679076
+152.127,-040.139,+014.125,+1.328,-0.093,+2.567,-15.1770,+05.0780,-17.8560,+04.591173,+04.763430,-00.073320
+154.215,-034.603,+017.857,+1.124,+0.003,+2.589,-15.5750,+04.1820,-15.8290,+04.244372,+05.091107,+00.082838
+156.491,-028.995,+021.358,+1.036,+0.099,+2.687,-19.4270,+01.6950,-17.8350,+04.035183,+05.335206,-00.220394
+158.502,-022.855,+025.015,+0.883,+0.344,+2.847,-16.5660,+03.1510,-12.9510,+03.932290,+05.524387,-00.911408
+160.251,-016.939,+029.013,+0.619,+0.614,+2.946,-17.2850,+08.1040,-12.8190,+04.078537,+05.123832,-01.061752
+162.440,-011.494,+032.996,+0.369,+0.815,+2.999,-18.4580,+09.0440,-09.6540,+03.671639,+04.932213,-00.666784
+165.041,-007.296,+035.771,+0.095,+1.031,+2.926,-19.9710,+11.4080,+01.7770,+02.283403,+03.734624,+00.004920
+167.025,-005.211,+038.014,-0.068,+1.146,+2.896,-29.0520,+20.7870,+13.4900,+02.235008,+01.688944,+00.438368
+167.932,-005.591,+039.774,-0.091,+1.206,+2.862,-24.5100,+08.7760,+08.6450,+00.684783,-00.540592,+01.226697
+168.497,-007.873,+038.136,-0.007,+1.200,+2.882,-13.0780,+02.1040,-04.2320,-02.225767,-01.430389,+01.631310
+169.466,-008.897,+035.989,+0.021,+1.140,+2.916,+16.1000,-29.7420,+02.9580,-01.590540,-01.487151,+00.875314
+170.501,-013.920,+031.389,+0.183,+1.020,+2.984,-07.6550,-00.6480,-10.4240,-03.862542,-03.556323,+02.719189
+171.169,-018.129,+027.724,+0.345,+0.905,+3.040,-06.7740,+05.3680,-11.9710,-02.620982,-02.716598,+02.277176
+172.403,-022.033,+024.558,+0.494,+0.775,+3.053,-14.6040,-04.0190,-13.1310,-02.442356,-02.441101,+02.201097
+172.955,-024.869,+021.114,+0.591,+0.665,+3.058,-12.2800,-00.9490,-14.7760,-03.008652,-01.798124,+01.023872
+173.398,-026.501,+017.753,+0.670,+0.545,+3.057,-11.5200,-00.3610,-14.8260,-02.568558,-00.838311,+00.696557
+173.771,-027.288,+015.498,+0.698,+0.421,+3.070,-06.9820,+00.8020,-12.0080,-01.374601,-00.416132,+00.422662
+174.044,-027.798,+014.262,+0.712,+0.386,+3.093,-05.2780,-01.3480,-08.5450,-00.740401,-00.330201,+00.243753
+174.199,-028.077,+013.711,+0.716,+0.376,+3.082,-05.1120,-02.2820,-08.4180,-00.309097,-00.165533,+00.135357
+174.278,-028.267,+013.436,+0.730,+0.341,+3.051,-04.8240,-01.7930,-08.1910,-00.159053,-00.132506,+00.074239
+174.307,-028.390,+013.296,+0.735,+0.347,+3.089,-04.5120,-01.5190,-08.2320,-00.082807,-00.091411,+00.030415
+174.269,-028.521,+013.267,+0.749,+0.341,+3.068,-04.7220,-01.6430,-08.2830,-00.018004,-00.126958,-00.020695
+174.182,-028.664,+013.311,+0.744,+0.376,+3.078,-04.6950,-02.0200,-08.2310,+00.018397,-00.133082,-00.041919
+174.091,-028.793,+013.384,+0.744,+0.341,+3.073,-04.6160,-02.0090,-07.9910,+00.027223,-00.121773,-00.040169
+173.999,-028.906,+013.478,+0.758,+0.361,+3.063,-04.5730,-01.8590,-08.1040,+00.054694,-00.110561,-00.046766
+173.910,-029.031,+013.602,+0.767,+0.351,+3.068,-04.5270,-02.0330,-08.0540,+00.078804,-00.125485,-00.031765
+173.871,-029.178,+013.712,+0.772,+0.361,+3.090,-04.5590,-02.0510,-07.9570,+00.076595,-00.138818,+00.020844
+173.885,-029.345,+013.754,+0.786,+0.366,+3.058,-04.5820,-02.4300,-07.7970,+00.016021,-00.142629,+00.062835
+173.964,-029.548,+013.697,+0.795,+0.351,+3.070,-04.4900,-02.4400,-07.8560,-00.037457,-00.170111,+00.128891
+174.167,-029.817,+013.490,+0.805,+0.376,+3.091,-04.7410,-02.0410,-07.8540,-00.129285,-00.200497,+00.245818
+174.488,-030.095,+013.129,+0.814,+0.370,+3.059,-04.6200,-02.3400,-07.7860,-00.203537,-00.182620,+00.321761
+174.948,-030.418,+012.616,+0.823,+0.331,+3.060,-04.6910,-02.2140,-07.9110,-00.249202,-00.209588,+00.437004
+175.475,-030.805,+012.072,+0.818,+0.341,+3.071,-04.6470,-01.9550,-08.0670,-00.220976,-00.274188,+00.467189
+176.012,-031.292,+011.593,+0.860,+0.300,+3.030,-04.9210,-01.6300,-08.0080,-00.150683,-00.357630,+00.468115
+176.485,-031.842,+011.234,+0.869,+0.285,+3.030,-04.9080,-01.5950,-08.0940,-00.051387,-00.408286,+00.432667
+177.017,-032.503,+010.965,+0.893,+0.270,+3.037,-05.0160,-02.0830,-07.6700,+00.059798,-00.543726,+00.532953
+177.639,-033.436,+010.723,+0.934,+0.285,+3.038,-05.7820,-01.5720,-07.9510,+00.092431,-00.805175,+00.589132
+178.113,-034.705,+010.521,+0.971,+0.265,+3.024,-05.1400,-01.5350,-07.8230,+00.055694,-01.160973,+00.506604
+178.399,-036.442,+010.441,+1.018,+0.259,+3.015,-05.2440,-01.1740,-07.6800,+00.079245,-01.651322,+00.452414
+178.548,-038.870,+010.412,+1.125,+0.272,+2.928,-04.8960,-01.5300,-07.6120,+00.013173,-02.331814,+00.521957
+178.779,-042.148,+010.327,+1.245,+0.246,+2.906,-04.8370,-01.0290,-07.6770,+00.128545,-03.036963,+00.748917
+179.146,-046.160,+010.194,+1.394,+0.240,+2.843,-05.3450,-01.4070,-07.6500,+00.055484,-03.618724,+00.920372
+179.748,-050.884,+009.706,+1.566,+0.227,+2.721,-06.9960,-01.7580,-08.1180,-00.059189,-04.239804,+01.149815
-179.299,-056.532,+008.682,+1.765,+0.165,+2.557,-07.8730,-02.5250,-07.7460,-00.322002,-05.148110,+01.306596
-177.943,-063.588,+007.417,+1.937,+0.128,+2.413,-09.2980,-03.2730,-09.2080,+00.159687,-06.578208,+01.568616
-174.426,-072.517,+004.793,+2.178,+0.065,+2.095,-11.5940,-02.8700,-13.6810,+00.817507,-08.255487,+02.245246
-160.075,-082.743,-007.921,+2.395,+0.001,+1.726,-16.4410,-01.1040,-13.1480,+01.480677,-09.110065,+02.492971
-036.189,-085.304,-129.293,+2.488,-0.071,+1.407,-21.8850,-06.6690,-21.5350,+02.521534,-08.498277,+02.258521
-015.019,-077.503,-147.407,+2.510,-0.147,+1.100,-02.5810,-06.3230,-26.2360,+01.586010,-05.138225,+02.607687
-020.024,-074.374,-141.566,+2.408,-0.240,+1.086,-20.9930,-13.1630,-41.6470,+00.681161,+01.366792,+01.495740
-035.349,-076.603,-126.012,+2.250,-0.322,+1.247,+02.5720,-07.8430,-12.6130,+00.672700,+03.991463,+00.662614
-053.277,-078.249,-107.269,+2.046,-0.314,+1.389,+00.1360,-03.7060,-07.6070,+01.412572,+03.616411,-00.027322
-076.050,-079.309,-082.711,+1.865,-0.322,+1.489,-02.1980,-03.5430,-09.6110,+02.147385,+04.151924,-00.858771
-104.627,-078.495,-052.147,+1.749,-0.280,+1.576,-03.5930,-01.0560,-10.3980,+02.172926,+04.949119,-01.337391
-126.960,-074.928,-027.684,+1.642,-0.219,+1.663,-03.5420,+03.5420,-08.9640,+02.520642,+05.273798,-01.486910
-139.317,-069.683,-012.547,+1.536,-0.163,+1.863,-05.6230,+05.1090,-10.9190,+03.113168,+05.520875,-01.518778
-145.895,-063.334,-002.900,+1.434,-0.077,+1.993,-06.6400,+04.8530,-12.9770,+03.065817,+05.966947,-01.518388
-149.226,-056.232,+003.333,+1.277,+0.024,+2.137,-07.3320,+05.3680,-12.4850,+02.851114,+06.276099,-01.476092
-150.720,-049.040,+007.944,+1.077,+0.141,+2.284,-06.4330,+07.1510,-08.6990,+03.116042,+05.966081,-01.307309
-150.790,-042.801,+011.826,+0.971,+0.236,+2.322,-09.4130,+06.5270,-10.0270,+03.425974,+05.034657,-00.755868
-149.778,-037.207,+014.948,+0.892,+0.411,+2.360,-17.4860,+01.6180,-19.0350,+03.186692,+05.070170,-00.375461
-148.294,-031.188,+017.777,+0.767,+0.551,+2.467,-17.5460,+00.7580,-15.4920,+03.204426,+05.342385,-00.551017
-147.192,-025.043,+020.712,+0.660,+0.652,+2.586,-21.3510,-02.7550,-15.8190,+02.883946,+05.408985,-01.346166
-147.045,-018.489,+023.923,+0.456,+0.838,+2.716,-19.8210,+03.1350,-10.2770,+02.916209,+05.176773,-02.400619
-147.334,-012.162,+027.416,+0.150,+1.015,+2.793,-22.7020,+07.0490,-07.2200,+02.894257,+04.694159,-02.629928
-147.372,-006.685,+029.983,-0.082,+1.131,+2.809,-23.8660,+09.8070,+02.0840,+01.774735,+03.735709,-02.075398
-147.431,-003.126,+031.606,-0.314,+1.227,+2.766,-28.7790,+15.8640,+13.5790,+01.346853,+01.896548,-01.410735
-148.184,-002.086,+032.872,-0.393,+1.278,+2.773,-26.5100,+11.1650,+13.0120,+00.633779,-00.438240,-00.747857
-148.708,-004.375,+031.360,-0.342,+1.277,+2.846,-02.0890,+08.6780,+03.7440,-02.478404,-02.920409,+02.254013
-147.856,-007.787,+028.788,-0.193,+1.197,+2.923,+07.6870,-12.6390,-05.4420,-02.704308,-02.721745,+02.755530
-147.426,-013.506,+026.047,+0.053,+1.096,+3.015,-05.5430,-04.4560,-09.8420,-01.952649,-04.833867,+02.078844
-147.055,-018.819,+024.182,+0.262,+1.060,+3.106,-14.8770,+08.6130,-16.6510,-01.310046,-03.481385,+02.412042
-146.101,-022.751,+022.013,+0.453,+0.989,+3.131,-14.1730,-13.7760,-12.3480,-02.011136,-02.525020,+01.649718
-145.629,-025.581,+018.966,+0.601,+0.834,+3.182,-11.1860,+01.8380,-14.1270,-02.764880,-01.766235,+01.207202
-144.766,-027.069,+015.612,+0.647,+0.715,+3.228,-07.2650,-01.5920,-10.4850,-02.358282,-00.835292,+00.867750
-144.071,-027.754,+013.461,+0.698,+0.615,+3.242,-06.6600,-00.9740,-09.6320,-01.201258,-00.280486,+00.517073
-143.687,-028.101,+012.351,+0.712,+0.560,+3.237,-05.3970,-00.6900,-09.5160,-00.582709,-00.172706,+00.291787
-143.433,-028.295,+011.764,+0.731,+0.536,+3.265,-05.2550,-01.3130,-08.6340,-00.323219,-00.089036,+00.198750
-143.267,-028.375,+011.427,+0.726,+0.546,+3.249,-04.3780,-01.2510,-08.3670,-00.184136,-00.043446,+00.116883
-143.165,-028.473,+011.231,+0.731,+0.511,+3.249,-04.6970,-01.6740,-08.1400,-00.100053,-00.075602,+00.083318
-143.081,-028.580,+011.065,+0.731,+0.506,+3.271,-04.9590,-02.0040,-08.0390,-00.112367,-00.071932,+00.075397
-142.983,-028.697,+010.881,+0.735,+0.511,+3.260,-04.5350,-02.0950,-07.9830,-00.114929,-00.087411,+00.107280
-142.855,-028.842,+010.692,+0.745,+0.481,+3.266,-04.6230,-02.0590,-08.0590,-00.105277,-00.112968,+00.122333
-142.713,-029.000,+010.485,+0.754,+0.481,+3.278,-04.6760,-01.7400,-08.0390,-00.133190,-00.113231,+00.137776
-142.567,-029.159,+010.263,+0.758,+0.486,+3.256,-04.6700,-01.5380,-08.0570,-00.120963,-00.117586,+00.124957
-142.444,-029.332,+010.093,+0.763,+0.486,+3.267,-04.5880,-01.7850,-08.0460,-00.085585,-00.141824,+00.115575
-142.316,-029.548,+009.944,+0.782,+0.456,+3.274,-04.6220,-01.6440,-08.0180,-00.064465,-00.183390,+00.137295
-142.146,-029.807,+009.797,+0.772,+0.476,+3.268,-04.7460,-01.6570,-08.0910,-00.048473,-00.207889,+00.182630
-141.902,-030.110,+009.608,+0.800,+0.461,+3.258,-04.5560,-01.6920,-07.9680,-00.074601,-00.244578,+00.256756
-141.557,-030.474,+009.331,+0.814,+0.436,+3.259,-04.6350,-01.7310,-08.0500,-00.098279,-00.282898,+00.341772
-141.103,-030.927,+008.994,+0.823,+0.436,+3.265,-04.7400,-01.5080,-07.9760,-00.082942,-00.377451,+00.424402
-140.601,-031.475,+008.672,+0.851,+0.425,+3.266,-05.0450,-01.0540,-08.1260,-00.028842,-00.428876,+00.441645
-140.126,-032.076,+008.465,+0.884,+0.415,+3.273,-05.6100,-01.3720,-07.9200,+00.091632,-00.483197,+00.407863
-139.710,-032.883,+008.334,+0.912,+0.435,+3.242,-04.9250,-00.7650,-08.2750,+00.052060,-00.769480,+00.385301
-139.485,-034.068,+008.294,+0.967,+0.429,+3.239,-04.7510,-01.1170,-08.0480,+00.098133,-01.149674,+00.294502
-139.406,-035.817,+008.359,+1.028,+0.414,+3.231,-04.9220,-00.9410,-07.7570,+00.089149,-01.729162,+00.261671
-139.438,-038.392,+008.406,+1.139,+0.442,+3.176,-04.7740,-00.8920,-07.4910,-00.003700,-02.567805,+00.359900
-139.274,-042.013,+008.370,+1.302,+0.425,+3.113,-04.5340,-01.6230,-07.8560,+00.115834,-03.401986,+00.714586
-138.693,-046.486,+008.004,+1.445,+0.399,+3.044,-05.1940,-01.3100,-08.0240,-00.027775,-04.072444,+01.039394
-137.437,-051.835,+006.878,+1.668,+0.366,+2.886,-06.2170,-02.4510,-08.2580,-00.210322,-04.818012,+01.500080
-135.020,-058.118,+004.203,+1.900,+0.259,+2.724,-08.3710,-03.4890,-09.2300,-00.738201,-05.709413,+01.925153
-129.431,-065.753,-001.557,+2.085,+0.192,+2.549,-09.3600,-04.9700,-11.2940,-00.752458,-07.223080,+02.790765
-114.268,-074.681,-016.585,+2.354,+0.053,+2.184,-14.9210,-03.8600,-14.4040,-00.445496,-08.914087,+03.307184
-067.390,-081.055,-062.714,+2.539,-0.094,+1.739,-19.2960,-07.9300,-15.4720,+00.271237,-09.273092,+03.013724
-015.158,-077.338,-114.622,+2.594,-0.191,+1.391,-15.1980,-14.5530,-23.4850,-01.578289,-07.083094,+03.229388
-006.349,-071.671,-127.522,+2.566,-0.360,+1.142,-39.3180,-11.2260,-47.1390,-03.368008,-01.898494,+01.825976
-012.444,-072.577,-124.040,+2.431,-0.363,+1.233,-04.5110,-06.1330,-19.9320,-01.232073,+02.901193,-00.093860
-021.637,-074.475,-115.795,+2.315,-0.337,+1.385,+00.5940,-04.7620,-08.2360,-00.253486,+02.695654,-00.342067
-033.336,-076.173,-104.558,+2.162,-0.270,+1.513,-01.6190,-04.7440,-08.6180,-00.005315,+03.162188,-00.592116
-051.485,-077.515,-086.797,+1.963,-0.238,+1.660,-02.6050,-03.7460,-09.9230,+00.118610,+04.027206,-00.906217
-076.589,-077.276,-061.811,+1.782,-0.221,+1.739,-03.5810,-01.4680,-09.5560,+00.641681,+04.957733,-01.190308
-100.007,-074.323,-037.839,+1.601,-0.164,+1.806,-04.8050,-00.1640,-09.0030,+01.348502,+05.694364,-01.304435
-115.034,-068.979,-021.492,+1.499,-0.093,+1.904,-07.2970,+00.7870,-10.7810,+02.061558,+06.301349,-01.273090
-123.632,-061.825,-010.861,+1.411,-0.042,+2.040,-08.5620,+00.4580,-10.4660,+02.624304,+07.138070,-01.252178
-128.199,-053.897,-003.593,+1.309,+0.074,+2.208,-06.3960,+01.1920,-05.4570,+03.192784,+06.924511,-01.218412
-130.662,-046.848,+002.423,+1.194,+0.230,+2.402,-09.1720,+00.6770,-06.6150,+03.784508,+05.723613,-01.383729
-132.375,-040.620,+008.120,+1.078,+0.405,+2.584,-13.3370,-02.5450,-11.6770,+03.897145,+05.120403,-01.685053
-133.747,-034.548,+013.046,+0.823,+0.676,+2.696,-18.3530,-04.9280,-17.2480,+03.376525,+05.079459,-02.105136
-135.247,-027.923,+017.502,+0.517,+0.872,+2.767,-21.7980,-05.3020,-19.3590,+03.111733,+05.424238,-02.935525
-137.076,-020.329,+021.464,+0.238,+0.994,+2.787,-22.0680,-04.0870,-15.8380,+02.621210,+05.844726,-03.965694
-139.175,-012.517,+025.123,-0.138,+1.156,+2.731,-24.0980,+04.0660,-12.3770,+02.824536,+05.387392,-04.449755
-140.856,-005.075,+028.378,-0.481,+1.208,+2.624,-27.1400,+04.8820,-04.4630,+02.254117,+04.912141,-03.905202
-141.568,+000.445,+030.376,-0.672,+1.235,+2.545,-31.7740,+15.4830,+10.8750,+01.688467,+03.158554,-02.215397
-141.949,+003.027,+033.348,-0.793,+1.285,+2.404,-34.6910,+20.1990,+19.8130,+03.062274,+00.777608,-01.180520
-142.655,+002.440,+034.953,-0.783,+1.324,+2.383,-26.3000,+02.8940,+08.7210,-00.204734,-01.527205,+00.497809
-142.353,-000.188,+032.597,-0.695,+1.299,+2.468,+00.2740,+02.5840,-27.4970,-02.837103,-01.152941,+02.153223
-141.781,-004.176,+029.986,-0.556,+1.253,+2.566,+18.5680,-05.8690,+10.7760,-03.396272,-04.209484,+03.761918
-141.606,-011.390,+027.334,-0.258,+1.192,+2.682,-16.9910,-02.9250,-19.5930,-01.182949,-05.656946,+02.189241
-141.140,-017.674,+025.711,-0.021,+1.180,+2.768,-14.4860,+06.7400,-17.5230,-01.016485,-04.298508,+02.981670
-140.481,-022.578,+023.546,+0.192,+1.123,+2.800,-18.1430,-17.2440,-11.9600,-02.311377,-03.300516,+01.660074
-140.065,-025.704,+020.033,+0.350,+0.958,+2.835,-14.5900,+03.1880,-17.2290,-03.226605,-01.652454,+01.375578
-139.230,-027.308,+016.489,+0.401,+0.834,+2.903,-07.2570,-02.7470,-10.6850,-02.606472,-00.954243,+00.957194
-138.509,-028.082,+014.051,+0.443,+0.755,+2.878,-05.8550,-01.7940,-10.2480,-01.375774,-00.403369,+00.532244
-138.061,-028.553,+012.793,+0.470,+0.690,+2.896,-05.3290,-02.0070,-09.0390,-00.741745,-00.269762,+00.393452
-137.726,-028.749,+012.143,+0.470,+0.705,+2.912,-05.1560,-01.3620,-08.4620,-00.304994,-00.054384,+00.224902
-137.534,-028.862,+011.844,+0.484,+0.675,+2.919,-04.9250,-01.3020,-08.3250,-00.123171,-00.075253,+00.124167
-137.507,-029.031,+011.800,+0.489,+0.660,+2.919,-04.7060,-01.3010,-08.2690,+00.037579,-00.179820,+00.007740
-137.603,-029.286,+011.963,+0.503,+0.660,+2.914,-05.0430,-01.5610,-08.3280,+00.131827,-00.252828,-00.052039
-137.787,-029.565,+012.229,+0.517,+0.675,+2.888,-04.8620,-02.0970,-08.0120,+00.161257,-00.271306,-00.094337
-137.965,-029.853,+012.495,+0.517,+0.680,+2.904,-04.7860,-02.3270,-07.9150,+00.148652,-00.276595,-00.063643
-138.099,-030.152,+012.713,+0.531,+0.704,+2.920,-04.8030,-02.1930,-07.8550,+00.118657,-00.269518,-00.023219
-138.160,-030.438,+012.842,+0.554,+0.709,+2.894,-04.8510,-02.1480,-07.8460,+00.064799,-00.243992,+00.029265
-138.149,-030.694,+012.868,+0.559,+0.694,+2.889,-04.8600,-02.1830,-07.8150,+00.002014,-00.193391,+00.077814
-138.031,-030.904,+012.745,+0.559,+0.704,+2.905,-04.9810,-02.2360,-07.6960,-00.083213,-00.135470,+00.155017
-137.781,-031.067,+012.478,+0.582,+0.694,+2.896,-04.9920,-02.1230,-07.7500,-00.139606,-00.075953,+00.247077
-137.409,-031.185,+012.105,+0.572,+0.669,+2.879,-04.9830,-02.0370,-07.6630,-00.170906,-00.023058,+00.318311
-136.935,-031.269,+011.599,+0.582,+0.699,+2.923,-04.8720,-01.9520,-07.7390,-00.261746,+00.010981,+00.384190
-136.392,-031.364,+011.010,+0.591,+0.654,+2.918,-04.6660,-01.8950,-07.6600,-00.257268,-00.028515,+00.429182
-135.880,-031.576,+010.527,+0.591,+0.615,+2.907,-04.8680,-01.3800,-08.0410,-00.148957,-00.158512,+00.390295
-135.488,-031.928,+010.201,+0.596,+0.614,+2.902,-05.4210,-01.5600,-07.8350,-00.088719,-00.312726,+00.312987
-135.118,-032.461,+009.918,+0.619,+0.619,+2.898,-05.1050,-02.0110,-07.7600,-00.058687,-00.478994,+00.380076
-134.759,-033.276,+009.650,+0.651,+0.614,+2.899,-04.9880,-01.7230,-08.0010,-00.037490,-00.747723,+00.333736
-134.484,-034.507,+009.461,+0.698,+0.594,+2.891,-05.0130,-01.2990,-08.0340,-00.002494,-01.218578,+00.381683
-134.361,-036.403,+009.426,+0.772,+0.637,+2.877,-05.0150,-01.0550,-07.8700,+00.046655,-01.908272,+00.366403
-134.268,-039.404,+009.405,+0.893,+0.586,+2.834,-04.5730,-01.3140,-07.4350,+00.036792,-03.012284,+00.612572
-133.895,-043.700,+009.403,+1.046,+0.575,+2.787,-04.4340,-01.6330,-08.3040,+00.274423,-03.996945,+01.006754
-132.988,-049.029,+008.923,+1.246,+0.577,+2.682,-05.9440,-02.1500,-08.9550,+00.060353,-04.805256,+01.465268
-131.045,-055.415,+007.161,+1.478,+0.520,+2.552,-08.2310,-03.5440,-09.2020,-00.469842,-05.734812,+01.985886
-127.130,-063.106,+003.089,+1.696,+0.447,+2.400,-10.2610,-05.6920,-11.5860,-00.568139,-07.085386,+02.600050
-116.928,-072.444,-006.947,+1.978,+0.334,+2.111,-13.8170,-03.5610,-10.6700,-00.425682,-08.873596,+03.280050
-082.643,-081.134,-040.609,+2.219,+0.176,+1.728,-17.7010,-05.7720,-14.5850,-00.210868,-09.434979,+03.256600
-014.352,-080.205,-108.057,+2.335,+0.095,+1.426,-21.9310,-15.8090,-23.7310,-00.121806,-07.715010,+03.078508
+002.370,-073.630,-127.286,+2.380,-0.086,+1.110,-50.7120,-21.9060,-43.0370,-03.066807,-04.438349,+03.114291
-000.338,-073.163,-127.499,+2.339,-0.155,+1.076,-12.1910,-11.2110,-29.0620,-01.974099,+02.393804,-00.078825
-009.583,-075.366,-120.481,+2.278,-0.094,+1.187,+01.3550,-05.2350,-07.5890,-01.420400,+02.823972,-00.434047
-020.876,-077.307,-110.801,+2.200,-0.049,+1.259,-01.2100,-03.5130,-06.8990,-00.937877,+02.944487,-00.589902
-038.499,-078.939,-094.342,+2.098,-0.032,+1.346,-02.3370,-03.9270,-08.3870,-00.581778,+03.693386,-00.724107
-065.261,-079.077,-068.536,+2.033,-0.007,+1.408,-04.1870,-03.3640,-09.8570,-00.296078,+04.783587,-00.802895
-092.126,-076.277,-042.216,+1.991,+0.054,+1.508,-04.2680,-02.5190,-08.3300,+00.258973,+05.754869,-00.872912
-109.067,-070.939,-025.125,+1.945,+0.135,+1.733,-06.2840,-02.3070,-08.7090,+00.982898,+06.391416,-00.927428
-118.877,-063.971,-014.423,+1.834,+0.246,+1.986,-07.8240,-02.9460,-08.5960,+01.640554,+07.033085,-01.107064
-124.726,-056.162,-007.069,+1.588,+0.477,+2.163,-08.2500,-02.7200,-07.1880,+02.221405,+07.157605,-01.297775
-128.376,-048.383,-000.871,+1.361,+0.697,+2.173,-08.4780,-00.8980,-05.1370,+03.300649,+06.648963,-01.564874
-130.907,-041.477,+005.302,+1.273,+0.862,+2.146,-09.6660,-03.7990,-05.8320,+04.022164,+05.499335,-01.913842
-133.083,-035.601,+011.034,+1.274,+1.094,+2.069,-17.4620,-08.8130,-14.4850,+03.627828,+04.672659,-02.428760
-135.494,-029.365,+016.093,+1.339,+1.401,+2.118,-19.6880,-08.4250,-15.1960,+03.100332,+04.896986,-03.355761
-138.354,-022.691,+020.371,+1.279,+1.680,+2.325,-24.7590,-11.1390,-16.9210,+02.272199,+04.880901,-04.361265
-141.825,-015.412,+023.755,+0.853,+2.066,+2.519,-22.0120,+00.6480,-10.5180,+02.131175,+04.581294,-05.336617
-145.287,-008.266,+027.824,+0.203,+2.345,+2.489,-26.6160,+04.5410,-09.9930,+03.144409,+04.290941,-05.199178
-147.263,-001.934,+030.622,-0.229,+2.349,+2.335,-26.6510,+06.5140,+00.6620,+01.618524,+03.622409,-03.477934
-147.740,+002.009,+032.239,-0.527,+2.276,+2.165,-33.2370,+19.3830,+12.8520,+01.700954,+02.117215,-01.363074
-147.464,+002.965,+034.968,-0.611,+2.271,+1.994,-28.7160,+13.7810,+14.9350,+02.311423,+00.022321,+00.452494
-146.791,+000.821,+034.896,-0.559,+2.276,+1.959,-15.0480,-09.4470,+08.9930,-02.730878,-02.236985,+01.828292
-145.181,-003.749,+030.332,-0.355,+2.245,+2.081,+04.8710,-18.9830,-11.2090,-04.257876,-02.777336,+02.814254
-144.263,-010.143,+026.893,-0.086,+2.099,+2.208,-03.3200,+04.9990,-10.5530,-01.823719,-05.780896,+02.560478
-144.108,-016.503,+025.018,+0.137,+2.057,+2.245,-19.7250,+13.0730,-20.0510,-01.424847,-04.052774,+02.393188
-143.581,-021.121,+023.936,+0.328,+2.001,+2.216,-07.5950,-06.3680,-09.8670,-00.602816,-03.349324,+01.831474
-143.577,-025.502,+023.283,+0.495,+1.974,+2.185,-04.9340,-01.5300,-06.0060,-00.574825,-03.540828,+01.512095
-142.725,-028.970,+019.738,+0.629,+1.864,+2.246,-25.3210,-19.3680,-12.0860,-03.491393,-01.290595,+01.451377
-141.517,-030.091,+015.892,+0.690,+1.750,+2.309,-09.9010,+03.4140,-11.8220,-01.987091,-00.084351,+00.865326
-140.826,-030.289,+014.094,+0.717,+1.680,+2.354,-06.7430,+00.3790,-10.4540,-00.937024,+00.061767,+00.462965
-140.355,-030.239,+013.147,+0.722,+1.651,+2.387,-04.9550,-01.4020,-08.8320,-00.473587,+00.150652,+00.304982
-140.013,-030.198,+012.586,+0.727,+1.656,+2.398,-04.7980,-00.5630,-08.5100,-00.259902,+00.039635,+00.190337
-139.879,-030.245,+012.337,+0.727,+1.621,+2.387,-04.7900,-01.1150,-08.3440,-00.106596,-00.033568,+00.070403
-139.864,-030.345,+012.270,+0.727,+1.621,+2.387,-05.0880,-01.7840,-07.9250,-00.029741,-00.083249,+00.011002
-139.854,-030.432,+012.232,+0.736,+1.646,+2.398,-04.9070,-02.1610,-07.7010,-00.028880,-00.076041,+00.034633
-139.783,-030.537,+012.129,+0.731,+1.621,+2.393,-04.9130,-02.4540,-07.6750,-00.081785,-00.068832,+00.098842
-139.623,-030.609,+011.909,+0.727,+1.611,+2.409,-04.9530,-02.1170,-07.8410,-00.143857,-00.027105,+00.151606
-139.411,-030.658,+011.597,+0.745,+1.611,+2.415,-04.8540,-01.7460,-07.8910,-00.194438,+00.002604,+00.171288
-139.215,-030.722,+011.298,+0.750,+1.611,+2.405,-04.8550,-01.5280,-07.8980,-00.155946,-00.042426,+00.137257
-139.090,-030.827,+011.081,+0.759,+1.591,+2.432,-05.0380,-01.6780,-07.8830,-00.122187,-00.082121,+00.097017
-138.983,-030.939,+010.901,+0.764,+1.591,+2.394,-04.9690,-01.8750,-07.7700,-00.100062,-00.079306,+00.104303
-138.823,-031.066,+010.689,+0.764,+1.616,+2.405,-04.7910,-01.8770,-07.7850,-00.127147,-00.095387,+00.171671
-138.568,-031.223,+010.376,+0.778,+1.576,+2.438,-04.8150,-01.7430,-07.9730,-00.182286,-00.109416,+00.242624
-138.241,-031.428,+009.995,+0.796,+1.571,+2.407,-04.8420,-01.7360,-07.9010,-00.178356,-00.152837,+00.296104
-137.894,-031.711,+009.654,+0.796,+1.536,+2.412,-04.9310,-01.3710,-07.9860,-00.107874,-00.210919,+00.279879
-137.593,-032.092,+009.414,+0.829,+1.591,+2.441,-05.0700,-01.2700,-07.9650,-00.047602,-00.325221,+00.267519
-137.308,-032.559,+009.257,+0.852,+1.560,+2.393,-05.2110,-01.5890,-07.9420,+00.015113,-00.410809,+00.293074
-136.912,-033.213,+009.120,+0.871,+1.531,+2.389,-04.9360,-01.7240,-07.8530,+00.103054,-00.594275,+00.443654
-136.360,-034.327,+008.904,+0.903,+1.515,+2.390,-04.8540,-00.1880,-08.3130,+00.034265,-01.139733,+00.532793
-136.080,-036.129,+008.764,+0.987,+1.544,+2.361,-04.4710,-01.1200,-07.8280,-00.012371,-01.831991,+00.439049
-135.831,-038.960,+008.579,+1.075,+1.503,+2.301,-04.6340,-01.1130,-07.8930,-00.016190,-02.778092,+00.637588
-135.273,-042.807,+008.265,+1.191,+1.517,+2.289,-04.6260,-01.1800,-08.2690,+00.020844,-03.530580,+00.976542
-134.237,-047.545,+007.342,+1.349,+1.465,+2.178,-05.2970,-01.5560,-08.4980,-00.260116,-04.301988,+01.352619
-132.231,-053.238,+005.256,+1.548,+1.398,+2.068,-07.8430,-03.2040,-08.7240,-00.727159,-05.077288,+01.805212
-128.294,-059.869,+000.834,+1.729,+1.346,+1.936,-08.8120,-03.8780,-09.2160,-01.052327,-06.094152,+02.503419
-119.035,-067.836,-008.801,+1.979,+1.169,+1.700,-10.7890,-05.1130,-13.5100,-01.216938,-07.833248,+03.434009
-095.315,-075.747,-032.330,+2.225,+0.977,+1.393,-16.4290,-00.2180,-13.7790,-00.567967,-08.898232,+03.662862
-045.800,-078.502,-080.624,+2.387,+0.825,+1.071,-22.6460,-13.4510,-19.3360,+00.288005,-08.817677,+03.221630
-014.533,-073.539,-113.306,+2.483,+0.620,+0.774,+02.5540,-07.9750,-21.2810,-04.433478,-05.022992,+03.697286
-010.701,-070.309,-120.440,+2.511,+0.436,+0.691,-17.2310,-09.5420,-34.4390,-02.471430,+00.772295,+00.471293
-018.703,-071.941,-114.722,+2.479,+0.427,+0.889,+00.0020,-05.5320,-12.3730,-01.296202,+02.941463,-00.347379
-028.218,-073.478,-106.702,+2.428,+0.354,+1.050,-00.8880,-03.6120,-07.9270,-00.699916,+02.769780,-00.430437
-040.967,-074.845,-094.813,+2.330,+0.307,+1.289,-02.7970,-04.5350,-09.3560,-00.157020,+03.554977,-00.701853
-060.227,-075.417,-076.302,+2.242,+0.314,+1.480,-03.0010,-04.6110,-09.0460,-00.090235,+04.643370,-00.886526
-082.414,-073.976,-054.783,+2.071,+0.336,+1.704,-03.4060,-02.9760,-07.6990,+00.273596,+05.380495,-01.029095
-100.798,-070.254,-036.407,+1.839,+0.335,+1.926,-05.8870,-02.4820,-08.1930,+01.054695,+05.986438,-01.213035
-113.716,-064.630,-022.735,+1.635,+0.367,+2.063,-06.9830,-02.7080,-08.0150,+01.723626,+06.571041,-01.419825
-122.103,-057.808,-013.048,+1.379,+0.420,+2.187,-07.6950,-02.3560,-07.5480,+02.197479,+06.777339,-01.568949
-127.371,-050.608,-005.655,+1.124,+0.487,+2.294,-07.9580,-00.6060,-05.7680,+03.084970,+06.459620,-01.659092
-130.766,-044.007,+000.974,+0.948,+0.569,+2.372,-09.4050,-02.7080,-06.2140,+03.784225,+05.421855,-01.835393
-133.304,-038.341,+006.796,+0.753,+0.719,+2.379,-15.3000,-06.7880,-13.3140,+03.474011,+04.567903,-02.150563
-135.893,-032.387,+012.179,+0.540,+0.821,+2.385,-19.3750,-05.8530,-17.2380,+03.381394,+04.965214,-03.013026
-138.449,-025.746,+017.198,+0.335,+0.917,+2.391,-23.4470,-05.5220,-19.1710,+03.186096,+05.305165,-03.540313
-140.591,-018.370,+021.342,+0.075,+0.993,+2.342,-20.3780,+00.1600,-12.2920,+02.882186,+05.384838,-03.889094
-142.604,-011.287,+025.818,-0.129,+1.045,+2.321,-24.4080,+05.9680,-11.6080,+03.752154,+04.846422,-04.026971
-143.849,-004.679,+029.773,-0.324,+1.091,+2.286,-25.5630,+05.8700,-02.7000,+02.748860,+04.285825,-03.273468
-144.288,-000.143,+032.253,-0.482,+1.127,+2.241,-32.5160,+18.6700,+10.7910,+02.114919,+02.482525,-01.777614
-144.531,+001.525,+035.153,-0.561,+1.217,+2.188,-31.2910,+19.3940,+17.4740,+02.545764,+00.155165,-00.473885
-144.822,+000.022,+035.848,-0.524,+1.222,+2.227,-11.3080,-11.5740,+05.1370,-01.228360,-01.978110,+00.832479
-144.226,-003.986,+031.369,-0.370,+1.136,+2.310,-00.7040,-07.3430,-12.1780,-03.639136,-02.653234,+01.811469
-143.738,-010.060,+027.322,-0.171,+1.006,+2.466,+01.0550,+07.1780,-03.1210,-02.670404,-05.298528,+02.693588
-143.807,-016.518,+025.486,+0.034,+0.975,+2.529,-17.0540,+11.6200,-20.7250,-01.432378,-04.519351,+02.657135
-142.822,-021.578,+023.499,+0.229,+0.909,+2.533,-19.0170,-14.4380,-14.9370,-01.941469,-03.206972,+02.213907
-142.389,-025.026,+019.904,+0.373,+0.803,+2.594,-14.0450,-00.9260,-15.2180,-03.477135,-02.172684,+01.243220
-141.438,-026.866,+015.916,+0.424,+0.669,+2.624,-08.0290,-04.2160,-10.7230,-02.787607,-00.936744,+01.076872
-140.576,-027.622,+013.293,+0.451,+0.550,+2.637,-06.7050,+00.0440,-11.3300,-01.459664,-00.326607,+00.635291
-140.098,-027.907,+012.092,+0.460,+0.501,+2.649,-05.0300,-00.6520,-08.6360,-00.627927,-00.096453,+00.352699
-139.765,-028.045,+011.468,+0.465,+0.520,+2.659,-04.8540,-00.5050,-08.6940,-00.296442,-00.061507,+00.221490
-139.525,-028.079,+011.092,+0.479,+0.500,+2.644,-04.3070,-00.8750,-08.5580,-00.198433,-00.031161,+00.178512
-139.383,-028.164,+010.857,+0.484,+0.466,+2.671,-04.6150,-01.0430,-08.5160,-00.109325,-00.052140,+00.086738
-139.334,-028.263,+010.771,+0.479,+0.491,+2.660,-04.7050,-01.7590,-08.0990,-00.028968,-00.092103,+00.038985
-139.314,-028.374,+010.748,+0.488,+0.510,+2.650,-04.6340,-01.9120,-08.0780,-00.013297,-00.088184,+00.035778
-139.274,-028.500,+010.696,+0.488,+0.461,+2.645,-04.6080,-02.0090,-08.1180,-00.035003,-00.111580,+00.057715
-139.226,-028.656,+010.642,+0.498,+0.466,+2.667,-04.5920,-01.9870,-07.9160,-00.022604,-00.133908,+00.063974
-139.183,-028.839,+010.616,+0.493,+0.505,+2.645,-04.6030,-01.5170,-08.0710,+00.008661,-00.156106,+00.058127
-139.159,-029.042,+010.635,+0.507,+0.485,+2.656,-04.6140,-01.6430,-08.0600,+00.035975,-00.181386,+00.045856
-139.137,-029.281,+010.674,+0.516,+0.470,+2.630,-04.6140,-01.9120,-07.9940,+00.048680,-00.216086,+00.064435
-139.069,-029.565,+010.685,+0.521,+0.485,+2.640,-04.6750,-01.8240,-08.0070,+00.033015,-00.246670,+00.118809
-138.913,-029.905,+010.605,+0.530,+0.470,+2.641,-04.4810,-01.8290,-07.9390,-00.023077,-00.288765,+00.211792
-138.633,-030.302,+010.404,+0.558,+0.455,+2.631,-04.6080,-01.8160,-08.0370,-00.069269,-00.310251,+00.310543
-138.233,-030.747,+010.113,+0.567,+0.450,+2.627,-04.8070,-01.6680,-07.9440,-00.077253,-00.347703,+00.412065
-137.711,-031.258,+009.755,+0.576,+0.460,+2.638,-05.0580,-01.5220,-07.8850,-00.078744,-00.383995,+00.476098
-137.192,-031.847,+009.428,+0.590,+0.440,+2.644,-04.6260,-01.2990,-07.7620,-00.050448,-00.506310,+00.452106
-136.834,-032.650,+009.208,+0.628,+0.454,+2.624,-04.5240,-01.2390,-08.1240,-00.031156,-00.766094,+00.357798
-136.610,-033.827,+009.090,+0.660,+0.449,+2.609,-04.9470,-01.2140,-08.1970,+00.018653,-01.132759,+00.309732
-136.485,-035.556,+009.072,+0.720,+0.483,+2.617,-04.8870,-01.2110,-07.9450,+00.048404,-01.710529,+00.339844
-136.429,-038.171,+009.065,+0.809,+0.457,+2.572,-04.7760,-01.1320,-07.3540,+00.015240,-02.605188,+00.458916
-136.218,-041.885,+009.044,+0.925,+0.436,+2.534,-04.5930,-01.3790,-07.8930,+00.173171,-03.499043,+00.794286
-135.574,-046.539,+008.712,+1.055,+0.420,+2.491,-05.2010,-01.4460,-07.9790,+00.057571,-04.243020,+01.185159
-134.135,-052.180,+007.507,+1.245,+0.412,+2.386,-06.4730,-02.8050,-08.2380,-00.171879,-05.077552,+01.713441
-131.443,-058.888,+004.636,+1.454,+0.335,+2.228,-08.7470,-03.4440,-08.9770,-00.688703,-06.107043,+02.123371
-125.416,-067.156,-001.517,+1.625,+0.249,+2.096,-09.1100,-05.0150,-12.0890,-00.710701,-07.875640,+02.922255
-108.014,-076.756,-018.514,+1.875,+0.180,+1.800,-16.1660,-01.0190,-15.9040,-00.121772,-09.484386,+03.241234
-047.538,-082.025,-078.096,+2.056,+0.053,+1.446,-22.3990,-12.3510,-18.4290,+00.380636,-09.427367,+03.122221
-003.579,-076.585,-122.536,+2.130,-0.038,+1.218,-04.1060,-11.0140,-27.3950,-02.872819,-05.829009,+03.138546
+000.407,-072.324,-129.992,+2.143,-0.153,+1.052,-22.6850,-11.3110,-39.3150,-02.860792,-00.030912,+00.946277
-007.664,-073.936,-124.563,+2.060,-0.157,+1.172,-00.1620,-04.9080,-14.7120,-01.645735,+02.904229,+00.016572
-017.875,-075.515,-115.924,+1.995,-0.185,+1.245,-00.6230,-03.1860,-07.9930,-00.761839,+02.716123,-00.026358
-032.010,-076.956,-102.588,+1.884,-0.154,+1.305,-01.1710,-04.3220,-07.7600,-00.173002,+03.475659,-00.315858
-052.328,-077.722,-082.871,+1.795,-0.153,+1.388,-02.0820,-04.7920,-08.5960,-00.080117,+04.165125,-00.573680
-077.418,-076.714,-058.223,+1.763,-0.162,+1.473,-04.3300,-03.3570,-09.7120,+00.342790,+05.244378,-00.915859
-099.444,-073.011,-035.973,+1.745,-0.122,+1.601,-04.5920,-01.7200,-07.9340,+01.146834,+06.080732,-01.127878
-113.170,-067.203,-021.200,+1.717,-0.081,+1.800,-07.1020,-01.6680,-09.1220,+01.858613,+06.563443,-01.176838
-121.293,-059.899,-011.351,+1.657,-0.005,+2.045,-09.4850,-01.7250,-09.8230,+02.461925,+07.233443,-01.290078
-126.057,-051.789,-003.986,+1.440,+0.197,+2.418,-08.1520,-00.3500,-05.6520,+03.347942,+07.192762,-01.394815
-128.778,-044.397,+002.602,+1.097,+0.415,+2.601,-09.1700,-01.2970,-05.4140,+04.275579,+06.001266,-01.579863
-130.655,-038.174,+008.779,+0.823,+0.606,+2.642,-14.0850,-05.4370,-11.5320,+04.177181,+04.916373,-01.874117
-132.396,-032.072,+014.242,+0.596,+0.816,+2.576,-21.0800,-07.5480,-18.7820,+03.712445,+05.148261,-02.614683
-134.459,-025.232,+019.059,+0.368,+0.957,+2.576,-23.7300,-08.2100,-18.0080,+03.048867,+05.328760,-03.599857
-136.979,-017.751,+022.846,+0.132,+1.083,+2.570,-22.4820,-02.3780,-12.7980,+02.328790,+05.207602,-04.636416
-139.980,-010.357,+026.424,-0.189,+1.185,+2.464,-26.7430,+04.0000,-09.9230,+02.504670,+04.628421,-05.056672
-142.316,-003.692,+028.704,-0.477,+1.212,+2.375,-27.3550,+07.2250,-00.1060,+01.173078,+03.819983,-03.981371
-143.595,+000.714,+029.919,-0.630,+1.164,+2.315,-34.0520,+19.5000,+12.4300,+01.304912,+02.155512,-02.131960
-144.341,+002.172,+032.233,-0.691,+1.203,+2.193,-30.7790,+17.0720,+16.6800,+02.139743,-00.165784,-00.712078
-144.937,+000.760,+032.711,-0.658,+1.233,+2.200,-24.8680,+02.7560,+03.2690,-00.915610,-01.817480,+00.716988
-144.408,-002.413,+030.347,-0.584,+1.183,+2.257,-04.5480,-06.0700,-15.1920,-01.943644,-02.245466,+01.812097
-143.498,-008.034,+027.165,-0.403,+1.161,+2.314,+04.3510,+00.1040,+01.1180,-02.281591,-05.007886,+03.158621
-143.955,-014.931,+025.750,-0.161,+1.115,+2.341,-16.8210,+07.4270,-20.0110,-01.230651,-05.138122,+02.510230
-143.157,-020.539,+024.258,-0.036,+1.049,+2.358,-20.4870,-08.9210,-18.2090,-01.374771,-03.612802,+02.573603
-142.797,-024.536,+021.395,+0.117,+0.998,+2.376,-13.5640,-03.5190,-12.8130,-02.877509,-02.794101,+01.274647
-141.867,-026.816,+017.180,+0.177,+0.859,+2.412,-07.2680,-03.8620,-08.5050,-03.157738,-01.224813,+01.197906
-140.954,-027.856,+014.025,+0.201,+0.775,+2.441,-07.1430,+02.0880,-10.0330,-01.787556,-00.348451,+00.750746
-140.467,-028.248,+012.531,+0.228,+0.760,+2.442,-05.2840,-01.2260,-08.9730,-00.818776,-00.203692,+00.331133
-140.184,-028.437,+011.810,+0.228,+0.705,+2.453,-04.5110,-01.4770,-08.1060,-00.386038,-00.081272,+00.220012
-139.973,-028.538,+011.429,+0.228,+0.720,+2.464,-05.3180,-01.1530,-08.5830,-00.177159,-00.053236,+00.151274
-139.842,-028.641,+011.223,+0.238,+0.695,+2.448,-04.9690,-01.2110,-08.4000,-00.095655,-00.077973,+00.090016
-139.770,-028.735,+011.109,+0.247,+0.690,+2.443,-04.7470,-01.7140,-08.0800,-00.065617,-00.065083,+00.068705
-139.691,-028.805,+010.999,+0.247,+0.675,+2.443,-04.7830,-02.0770,-07.9650,-00.067642,-00.043162,+00.077575
-139.592,-028.878,+010.859,+0.238,+0.695,+2.437,-04.7960,-01.9950,-08.0000,-00.089817,-00.050662,+00.095148
-139.489,-028.964,+010.715,+0.247,+0.675,+2.454,-04.6540,-01.9630,-07.9750,-00.077890,-00.067763,+00.089392
-139.392,-029.077,+010.594,+0.261,+0.670,+2.476,-04.6040,-01.6000,-07.9850,-00.055246,-00.092504,+00.090610
-139.312,-029.215,+010.517,+0.261,+0.675,+2.433,-04.6290,-01.6030,-08.0320,-00.019221,-00.116351,+00.076245
-139.247,-029.380,+010.480,+0.261,+0.675,+2.449,-04.6810,-01.6850,-08.0190,-00.001790,-00.139900,+00.080255
-139.157,-029.571,+010.432,+0.261,+0.670,+2.455,-04.6730,-01.7710,-07.8900,-00.011690,-00.159056,+00.113621
-139.000,-029.792,+010.309,+0.275,+0.690,+2.434,-04.6120,-01.8200,-07.9350,-00.057953,-00.176635,+00.177719
-138.751,-030.052,+010.085,+0.284,+0.680,+2.439,-04.5700,-01.6940,-07.8950,-00.111504,-00.208842,+00.261121
-138.405,-030.363,+009.759,+0.284,+0.645,+2.456,-04.6850,-01.5840,-07.9720,-00.139177,-00.232686,+00.322217
-138.026,-030.726,+009.426,+0.303,+0.689,+2.440,-04.9150,-01.4040,-08.0140,-00.108814,-00.284658,+00.332152
-137.665,-031.162,+009.140,+0.312,+0.699,+2.446,-05.0070,-01.5100,-08.0410,-00.074013,-00.375716,+00.331203
-137.282,-031.749,+008.900,+0.321,+0.679,+2.447,-04.8700,-01.5540,-08.1490,-00.012873,-00.523933,+00.400255
-136.840,-032.592,+008.663,+0.363,+0.654,+2.443,-04.8340,-00.4910,-08.6070,-00.007389,-00.800306,+00.441275
-136.541,-033.873,+008.503,+0.405,+0.659,+2.423,-04.5000,-01.1500,-08.2130,+00.021888,-01.267289,+00.371527
-136.351,-035.906,+008.440,+0.456,+0.658,+2.431,-04.5200,-01.1970,-08.0900,+00.028315,-02.070422,+00.445877
-136.121,-039.095,+008.314,+0.558,+0.652,+2.376,-04.5780,-01.1910,-07.5480,+00.022015,-03.177804,+00.690043
-135.514,-043.547,+008.071,+0.706,+0.640,+2.329,-04.5340,-01.5920,-08.5700,+00.136028,-04.080322,+01.096530
-134.283,-048.996,+007.171,+0.846,+0.649,+2.297,-05.4180,-01.6370,-08.7060,-00.117567,-04.948820,+01.555565
-131.739,-055.557,+004.729,+1.059,+0.596,+2.198,-07.8840,-03.5970,-09.3370,-00.654917,-05.910450,+02.140732
-126.384,-063.368,-000.825,+1.272,+0.480,+2.025,-09.1870,-05.1370,-11.8180,-00.858047,-07.363337,+02.932010
-112.803,-072.674,-014.244,+1.490,+0.417,+1.867,-14.0970,-04.2750,-13.7680,-00.448848,-09.220445,+03.425342
-072.482,-080.147,-053.722,+1.699,+0.270,+1.532,-18.2570,-07.9670,-15.6990,+00.108395,-09.630194,+03.163647
-016.930,-077.779,-109.088,+1.842,+0.113,+1.177,-16.0170,-15.2060,-25.3350,-01.645877,-07.308318,+03.152880
-004.357,-072.015,-125.911,+1.879,-0.062,+0.985,-41.5200,-15.2070,-49.8040,-03.626855,-02.586970,+01.751761
-008.303,-073.139,-125.260,+1.930,-0.132,+0.918,-03.8200,-07.4560,-20.0730,-02.056870,+02.584489,-00.675580
-015.451,-075.486,-120.072,+1.967,-0.162,+0.985,-00.1380,-02.9310,-08.3820,-01.090984,+02.484839,-00.828489
-026.732,-077.800,-109.773,+1.985,-0.181,+1.083,-01.7170,-02.5030,-08.1020,-00.343280,+03.226599,-00.861735
-047.754,-079.457,-089.249,+2.009,-0.126,+1.197,-02.2940,-02.4850,-08.6660,+00.015174,+04.119306,-00.755994
-077.077,-078.729,-060.160,+2.000,-0.145,+1.413,-03.7620,-01.4990,-09.1090,+00.429698,+05.197343,-00.633769
-100.657,-074.772,-036.161,+1.935,-0.128,+1.642,-04.2820,-01.0290,-07.8690,+01.173563,+06.016712,-00.585978
-113.860,-068.700,-021.737,+1.801,-0.036,+1.933,-06.0870,-01.4460,-08.5820,+01.881712,+06.543965,-00.628707
-121.360,-061.324,-012.339,+1.541,+0.042,+2.159,-08.1690,-01.9770,-09.7520,+02.463541,+07.194171,-00.855779
-125.912,-053.167,-005.232,+1.309,+0.144,+2.315,-07.7720,-01.3990,-07.1940,+03.105827,+07.325315,-01.131969
-128.592,-045.562,+001.009,+1.031,+0.340,+2.410,-07.7590,-00.8550,-05.1370,+03.980974,+06.196316,-01.342491
-130.552,-039.193,+007.216,+0.827,+0.481,+2.411,-12.7930,-04.8550,-09.7470,+04.280530,+05.064608,-01.851734
-132.488,-033.162,+012.929,+0.683,+0.621,+2.447,-20.3190,-07.9870,-18.4270,+03.798953,+05.050377,-02.585366
-134.736,-026.588,+018.082,+0.470,+0.812,+2.468,-22.4480,-07.2700,-17.4350,+03.331303,+05.020988,-03.516188
-137.357,-019.397,+022.371,+0.173,+0.973,+2.443,-23.8140,-06.0560,-14.3500,+02.570427,+05.154177,-04.541797
-140.465,-012.060,+026.714,-0.055,+1.069,+2.400,-25.3030,+07.3790,-11.5500,+03.519063,+04.558381,-05.192452
-142.847,-005.041,+030.980,-0.291,+1.165,+2.259,-28.2150,+05.7390,-04.2350,+02.941983,+04.151146,-04.294098
-143.935,+000.050,+033.326,-0.449,+1.216,+2.176,-33.9390,+16.2780,+10.6720,+01.722124,+02.648617,-02.477814
-144.561,+002.203,+035.827,-0.510,+1.271,+2.152,-34.3800,+19.8310,+19.8080,+02.384614,+00.301298,-00.939321
-144.943,+000.865,+036.695,-0.454,+1.309,+2.084,-26.0960,+03.4010,+07.1700,-00.658271,-01.838795,+01.186488
-144.187,-002.318,+033.826,-0.324,+1.308,+2.160,-03.3990,-09.3010,-16.9230,-02.244262,-02.075325,+01.902758
-143.019,-008.045,+029.610,-0.166,+1.188,+2.254,+02.8930,+03.3390,-00.7850,-03.791128,-04.586752,+04.288090
-143.029,-014.775,+027.637,+0.103,+1.166,+2.266,-13.0170,+07.0170,-15.9820,-01.279107,-05.116829,+02.721434
-141.904,-020.679,+025.638,+0.336,+1.119,+2.276,-21.6780,-08.3790,-16.8140,-01.719314,-03.609545,+02.925759
-141.319,-024.791,+021.807,+0.461,+1.039,+2.288,-16.8440,-05.1030,-15.4640,-03.895173,-02.657165,+01.422691
-140.401,-027.006,+017.420,+0.549,+0.909,+2.325,-09.2660,-02.7110,-12.9540,-03.054027,-01.089346,+01.215224
-139.527,-028.125,+014.306,+0.591,+0.810,+2.344,-06.2910,+02.4290,-09.8970,-01.810568,-00.497612,+00.784682
-138.979,-028.621,+012.820,+0.605,+0.770,+2.377,-06.0850,-00.8600,-10.4410,-00.779623,-00.264037,+00.429709
-138.638,-028.833,+012.162,+0.614,+0.760,+2.361,-05.5310,-01.0890,-08.7520,-00.317341,-00.076133,+00.228573
-138.442,-028.938,+011.869,+0.623,+0.750,+2.335,-04.8930,-01.4460,-08.2380,-00.106983,-00.103747,+00.131689
-138.333,-029.039,+011.745,+0.614,+0.740,+2.378,-04.8450,-01.2250,-08.3320,-00.015387,-00.119769,+00.059514
-138.364,-029.232,+011.830,+0.632,+0.745,+2.346,-04.8500,-01.4570,-08.2320,+00.102664,-00.192009,-00.012454
-138.486,-029.477,+012.031,+0.642,+0.755,+2.341,-04.8340,-01.8460,-08.0400,+00.130809,-00.242995,-00.064124
-138.617,-029.753,+012.234,+0.642,+0.745,+2.347,-04.7870,-02.3420,-07.9280,+00.107076,-00.261944,-00.030026
-138.707,-030.040,+012.385,+0.665,+0.774,+2.342,-04.7980,-02.1210,-07.9180,+00.086299,-00.254640,-00.002018
-138.742,-030.324,+012.476,+0.669,+0.755,+2.326,-04.7430,-02.1180,-07.8850,+00.044198,-00.240962,+00.052529
-138.693,-030.583,+012.458,+0.665,+0.770,+2.353,-04.8270,-02.0980,-07.8210,-00.020801,-00.194643,+00.105043
-138.551,-030.813,+012.309,+0.679,+0.779,+2.326,-04.7620,-02.1930,-07.7630,-00.093855,-00.156746,+00.178936
-138.272,-031.022,+012.023,+0.693,+0.759,+2.327,-04.9480,-02.2210,-07.6630,-00.141912,-00.125531,+00.283893
-137.858,-031.218,+011.631,+0.702,+0.744,+2.338,-04.9700,-01.9730,-07.6680,-00.169884,-00.105528,+00.369731
-137.337,-031.420,+011.145,+0.711,+0.779,+2.339,-05.0310,-01.6650,-07.7280,-00.199987,-00.091017,+00.431288
-136.765,-031.627,+010.611,+0.716,+0.710,+2.350,-04.9880,-01.4380,-07.7980,-00.189083,-00.116041,+00.454582
-136.239,-031.910,+010.167,+0.721,+0.724,+2.356,-05.5900,-01.4940,-07.6820,-00.121138,-00.211622,+00.397528
-135.837,-032.277,+009.838,+0.744,+0.709,+2.335,-05.1580,-01.4790,-07.8230,-00.090831,-00.313190,+00.325262
-135.586,-032.853,+009.596,+0.762,+0.709,+2.341,-04.8900,-01.2760,-08.1000,-00.069551,-00.562581,+00.228171
-135.407,-033.799,+009.431,+0.786,+0.699,+2.342,-04.6940,-01.3810,-08.0410,-00.039133,-00.938260,+00.282653
-135.306,-035.225,+009.384,+0.823,+0.703,+2.306,-05.0670,-01.3180,-07.9470,+00.025425,-01.415413,+00.281295
-135.298,-037.391,+009.410,+0.892,+0.703,+2.277,-04.7770,-01.3790,-07.6890,+00.005588,-02.188374,+00.364153
-135.175,-040.702,+009.354,+0.980,+0.692,+2.259,-04.6320,-01.3480,-07.6900,+00.076079,-03.222500,+00.701231
-134.619,-045.107,+009.156,+1.124,+0.690,+2.163,-04.7290,-01.4570,-08.0220,+00.148628,-04.010612,+01.117335
-133.431,-050.452,+008.297,+1.287,+0.712,+2.051,-05.6580,-02.2750,-08.2480,-00.075588,-04.805440,+01.596116
