sep=,
DeviceTag:,A,,,,,,,,,,,,,,,,,
FirmwareVersion:,2.2.1,,,,,,,,,,,,,,,,,
AppVersion:,2022.0.1,,,,,,,,,,,,,,,,,
SyncStatus:,Synced,,,,,,,,,,,,,,,,,
OutputRate:,60Hz,,,,,,,,,,,,,,,,,
FilterProfile:,General,,,,,,,,,,,,,,,,,
Measurement Mode:,Inertial Mode - Rate quantities (with mag),,,,,,,,,,,,,,,,,
StartTime:,2022-08-05 17:05:17.540 +0300,,,,,,,,,,,,,,,,,
© Xsens Technologies B. V. 2005-2022,,,,,,,,,,,,,,,,,,,

PacketCounter,SampleTimeFine,Acc_X,Acc_Y,Acc_Z,Gyr_X,Gyr_Y,Gyr_Z,Mag_X,Mag_Y,Mag_Z
1, 269599444, -5.32869815826416, 2.580421209335327, 7.841060638427734, -2.5502824783325195, -1.2671245336532593, -2.582913398742676, 0.063232421875, -0.197265625, -0.7890625
2, 269616111, -5.325314521789551, 2.5968427658081055, 7.8735175132751465, -2.53786039352417, -1.341990351676941, -2.5517680644989014, 0.064697265625, -0.19775390625, -0.791259765625
3, 269632778, -5.311295986175537, 2.573939800262451, 7.845568656921387, -2.590315341949463, -1.2533320188522339, -2.593888282775879, 0.063232421875, -0.19775390625, -0.789794921875
4, 269649445, -5.322336673736572, 2.585949420928955, 7.852545738220215, -2.527090311050415, -1.263871669769287, -2.700103998184204, 0.065185546875, -0.197265625, -0.791748046875
5, 269666112, -5.326135158538818, 2.5915606021881104, 7.865863800048828, -2.668626070022583, -1.2237621545791626, -2.7829227447509766, 0.065673828125, -0.19873046875, -0.7890625
6, 269682779, -5.331023693084717, 2.584263324737549, 7.867599010467529, -2.641002893447876, -1.371752381324768, -2.7311720848083496, 0.062255859375, -0.1962890625, -0.791259765625
7, 269699446, -5.29757833480835, 2.588836908340454, 7.859344959259033, -2.6903834342956543, -1.3563716411590576, -2.7618558406829834, 0.063720703125, -0.19677734375, -0.790283203125
8, 269716113, -5.3119797706604, 2.5918407440185547, 7.865267753601074, -2.7070188522338867, -1.1474872827529907, -2.8484907150268555, 0.064697265625, -0.1962890625, -0.791748046875
9, 269732780, -5.3331732749938965, 2.575950860977173, 7.841517448425293, -2.597461223602295, -1.1798876523971558, -2.8838751316070557, 0.064208984375, -0.1982421875, -0.79052734375
10, 269749447, -5.332566261291504, 2.5683705806732178, 7.8699750900268555, -2.547426700592041, -1.2878707647323608, -2.8439066410064697, 0.064697265625, -0.19775390625, -0.7900390625
11, 269766114, -5.300490856170654, 2.574305772781372, 7.8522233963012695, -2.5486559867858887, -1.2320735454559326, -2.785330295562744, 0.065673828125, -0.19580078125, -0.78955078125
12, 269782781, -5.324687480926514, 2.5822198390960693, 7.868218421936035, -2.588624954223633, -1.1387921571731567, -2.8533449172973633, 0.063232421875, -0.1962890625, -0.789794921875
13, 269799448, -5.327014446258545, 2.579155921936035, 7.839883804321289, -2.503577709197998, -1.2291792631149292, -2.8971939086914062, 0.064208984375, -0.19677734375, -0.791259765625
14, 269816115, -5.315743923187256, 2.5761208534240723, 7.853016376495361, -2.6378519535064697, -1.1430691480636597, -2.915454864501953, 0.062744140625, -0.19677734375, -0.793212890625
15, 269832782, -5.334049701690674, 2.5734682083129883, 7.861750602722168, -2.6264803409576416, -1.1782996654510498, -2.867816209793091, 0.063232421875, -0.1962890625, -0.791259765625
16, 269849449, -5.316516399383545, 2.567883253097534, 7.882651329040527, -2.614813804626465, -1.1859705448150635, -2.7798619270324707, 0.065185546875, -0.19677734375, -0.78955078125
17, 269866116, -5.322563648223877, 2.59293532371521, 7.845144271850586, -2.539640188217163, -1.1725367307662964, -2.862501382827759, 0.065185546875, -0.19775390625, -0.79052734375
18, 269882783, -5.3352274894714355, 2.571113348007202, 7.865627765655518, -2.6034927368164062, -1.2221741676330566, -2.7964205741882324, 0.065673828125, -0.1962890625, -0.78955078125
19, 269899450, -5.335631370544434, 2.5674731731414795, 7.8726043701171875, -2.5802109241485596, -1.2126591205596924, -2.714664936065674, 0.063720703125, -0.19580078125, -0.791259765625
20, 269916117, -5.3308186531066895, 2.5695314407348633, 7.8723554611206055, -2.584411382675171, -1.2141445875167847, -2.728726387023926, 0.064208984375, -0.19775390625, -0.790771484375
21, 269932784, -5.3225932121276855, 2.5860960483551025, 7.850523948669434, -2.531251907348633, -1.2564566135406494, -2.7000012397766113, 0.065673828125, -0.1953125, -0.791259765625
22, 269949451, -5.316736698150635, 2.5781941413879395, 7.855987548828125, -2.5796730518341064, -1.2364532947540283, -2.698899984359741, 0.065673828125, -0.197265625, -0.791015625
23, 269966118, -5.325341701507568, 2.5667715072631836, 7.859910488128662, -2.606579065322876, -1.2831323146820068, -2.6153130531311035, 0.067138671875, -0.19677734375, -0.78955078125
24, 269982785, -5.332481384277344, 2.5808141231536865, 7.868654251098633, -2.6088075637817383, -1.1889801025390625, -2.6439480781555176, 0.065673828125, -0.19580078125, -0.7900390625
25, 269999452, -5.33787202835083, 2.5724692344665527, 7.8698248863220215, -2.5599381923675537, -1.2151179313659668, -2.7094526290893555, 0.064697265625, -0.197265625, -0.790771484375
26, 270016119, -5.339367866516113, 2.5533859729766846, 7.84994649887085, -2.511876344680786, -1.3252012729644775, -2.6290929317474365, 0.064208984375, -0.19580078125, -0.790771484375
27, 270032786, -5.326831340789795, 2.5947794914245605, 7.8468017578125, -2.618053913116455, -1.225222110748291, -2.6749267578125, 0.064208984375, -0.19775390625, -0.78955078125
28, 270049453, -5.3305487632751465, 2.5717718601226807, 7.83647346496582, -2.554943799972534, -1.2173075675964355, -2.6837499141693115, 0.0673828125, -0.197265625, -0.7919921875
29, 270066120, -5.328249931335449, 2.5734355449676514, 7.837796211242676, -2.609870672225952, -1.2195618152618408, -2.717200517654419, 0.066650390625, -0.19580078125, -0.78955078125
30, 270082787, -5.336040496826172, 2.5824649333953857, 7.871039867401123, -2.685415267944336, -1.2194209098815918, -2.757425308227539, 0.065673828125, -0.1982421875, -0.791015625
31, 270099454, -5.336752891540527, 2.5718531608581543, 7.876813888549805, -2.5476956367492676, -1.228538990020752, -2.6951608657836914, 0.065673828125, -0.1962890625, -0.78955078125
32, 270116121, -5.32589054107666, 2.577558755874634, 7.857825756072998, -2.5995612144470215, -1.2090860605239868, -2.792360782623291, 0.064208984375, -0.19580078125, -0.790771484375
33, 270132788, -5.3470659255981445, 2.554161787033081, 7.8588151931762695, -2.491027593612671, -1.2188957929611206, -2.791311025619507, 0.065673828125, -0.19873046875, -0.7900390625
34, 270149455, -5.331386566162109, 2.5606443881988525, 7.861781120300293, -2.387129306793213, -1.1410458087921143, -2.610074758529663, 0.066650390625, -0.19580078125, -0.792236328125
35, 270166122, -5.335963249206543, 2.578948497772217, 7.85254430770874, -2.372593879699707, -1.0341768264770508, -2.7317097187042236, 0.064208984375, -0.19873046875, -0.79052734375
36, 270182789, -5.340366363525391, 2.58174729347229, 7.839706897735596, -2.409271717071533, -1.0326017141342163, -2.7295329570770264, 0.065185546875, -0.197265625, -0.78955078125
37, 270199456, -5.340999126434326, 2.5665369033813477, 7.864341735839844, -2.4275591373443604, -1.1263314485549927, -2.726459503173828, 0.066650390625, -0.1982421875, -0.7900390625
38, 270216123, -5.341814994812012, 2.565768003463745, 7.8445634841918945, -2.35129714012146, -1.1365251541137695, -2.621126890182495, 0.065673828125, -0.1962890625, -0.791259765625
39, 270232790, -5.3388352394104, 2.5565919876098633, 7.83894681930542, -2.372248411178589, -1.1313642263412476, -2.492384672164917, 0.067138671875, -0.1953125, -0.7900390625
40, 270249457, -5.316091537475586, 2.5799007415771484, 7.856565475463867, -2.33357310295105, -1.0803438425064087, -2.5482587814331055, 0.065185546875, -0.19677734375, -0.7880859375
41, 270266124, -5.323544979095459, 2.568847417831421, 7.8461384773254395, -2.334226369857788, -1.0291823148727417, -2.7146263122558594, 0.066162109375, -0.2001953125, -0.791015625
42, 270282791, -5.363414764404297, 2.567969799041748, 7.8425140380859375, -2.329641342163086, -1.0861705541610718, -2.614825963973999, 0.067138671875, -0.19775390625, -0.79150390625
43, 270299458, -5.347114086151123, 2.5722715854644775, 7.826897144317627, -2.3673179149627686, -1.1334004402160645, -2.603095531463623, 0.065185546875, -0.19580078125, -0.790771484375
44, 270316125, -5.329239368438721, 2.586733341217041, 7.848073482513428, -2.536349058151245, -1.2072548866271973, -2.7147417068481445, 0.065673828125, -0.1982421875, -0.7900390625
45, 270332792, -5.351344108581543, 2.562507390975952, 7.861032009124756, -2.3480441570281982, -1.0383005142211914, -2.6854662895202637, 0.06787109375, -0.1962890625, -0.79052734375
46, 270349459, -5.337603569030762, 2.580331325531006, 7.834031581878662, -2.481435775756836, -1.1228482723236084, -2.681304454803467, 0.06787109375, -0.1982421875, -0.79052734375
47, 270366126, -5.356839179992676, 2.576277256011963, 7.8472137451171875, -2.5065484046936035, -1.2636922597885132, -2.671046257019043, 0.067626953125, -0.1962890625, -0.7900390625
48, 270382793, -5.3245158195495605, 2.5837833881378174, 7.865826606750488, -2.5660853385925293, -1.2894843816757202, -2.749408483505249, 0.065673828125, -0.1982421875, -0.79052734375
49, 270399460, -5.335180759429932, 2.571425199508667, 7.8333611488342285, -2.513874053955078, -1.1864956617355347, -2.726625919342041, 0.06787109375, -0.1962890625, -0.79150390625
50, 270416127, -5.350035190582275, 2.5644519329071045, 7.845043659210205, -2.550346612930298, -1.2385663986206055, -2.8169362545013428, 0.065185546875, -0.1962890625, -0.79052734375
51, 270432794, -5.35418176651001, 2.5783684253692627, 7.848814487457275, -2.459959030151367, -1.2628215551376343, -2.7248454093933105, 0.067626953125, -0.19580078125, -0.78955078125
52, 270449461, -5.345739841461182, 2.574941396713257, 7.8375630378723145, -2.444847345352173, -1.365285038948059, -2.6436662673950195, 0.067138671875, -0.19775390625, -0.7919921875
53, 270466128, -5.352939605712891, 2.5635459423065186, 7.843214988708496, -2.447998046875, -1.3423362970352173, -2.6247639656066895, 0.068115234375, -0.1982421875, -0.78857421875
54, 270482795, -5.354400634765625, 2.578737735748291, 7.85073184967041, -2.5433664321899414, -1.2372726202011108, -2.691497802734375, 0.065673828125, -0.197265625, -0.7900390625
55, 270499462, -5.353259086608887, 2.561016082763672, 7.833415508270264, -2.475032329559326, -1.2125182151794434, -2.6965441703796387, 0.064697265625, -0.1962890625, -0.790283203125
56, 270516129, -5.336516857147217, 2.583568811416626, 7.82481050491333, -2.426252603530884, -1.165493130683899, -2.663567304611206, 0.0673828125, -0.1962890625, -0.7919921875
57, 270532796, -5.3538713455200195, 2.5743987560272217, 7.854747295379639, -2.4691030979156494, -1.1494725942611694, -2.663618564605713, 0.066650390625, -0.1953125, -0.78857421875
58, 270549463, -5.3591108322143555, 2.5765161514282227, 7.8286943435668945, -2.4934606552124023, -1.1994812488555908, -2.6599814891815186, 0.067626953125, -0.19677734375, -0.7880859375
59, 270566130, -5.3479084968566895, 2.578342914581299, 7.831623077392578, -2.459165096282959, -1.2675341367721558, -2.662466049194336, 0.067626953125, -0.19775390625, -0.7890625
60, 270582797, -5.355381011962891, 2.5744338035583496, 7.84870719909668, -2.4811666011810303, -1.2609645128250122, -2.7191853523254395, 0.066162109375, -0.19677734375, -0.78955078125
61, 270599464, -5.349967002868652, 2.5735256671905518, 7.841093063354492, -2.517613410949707, -1.1495364904403687, -2.755734920501709, 0.065185546875, -0.19775390625, -0.791748046875
62, 270616131, -5.343433856964111, 2.577394723892212, 7.837172985076904, -2.5134894847869873, -1.2232754230499268, -2.7175843715667725, 0.066162109375, -0.1982421875, -0.79052734375
63, 270632798, -5.364058971405029, 2.559539318084717, 7.8344550132751465, -2.458652973175049, -1.0782434940338135, -2.674900770187378, 0.068359375, -0.19677734375, -0.7890625
64, 270649465, -5.3400559425354, 2.5822794437408447, 7.83263635635376, -2.4718563556671143, -1.172178030014038, -2.575190544128418, 0.0693359375, -0.19775390625, -0.79443359375
65, 270666132, -5.350636005401611, 2.5636448860168457, 7.841736793518066, -2.378689765930176, -1.184216022491455, -2.5415995121002197, 0.067626953125, -0.19775390625, -0.78759765625
66, 270682799, -5.374059677124023, 2.5603890419006348, 7.8316969871521, -2.3587374687194824, -1.1335924863815308, -2.585883855819702, 0.067138671875, -0.19677734375, -0.79052734375
67, 270699466, -5.352274417877197, 2.582817316055298, 7.839223861694336, -2.3750529289245605, -1.2297170162200928, -2.5364387035369873, 0.067626953125, -0.19873046875, -0.78857421875
68, 270716133, -5.347875118255615, 2.5626955032348633, 7.822757720947266, -2.363924026489258, -1.1957415342330933, -2.5444295406341553, 0.065673828125, -0.197265625, -0.791748046875
69, 270732800, -5.354780197143555, 2.5803780555725098, 7.834345817565918, -2.4760818481445312, -1.1400597095489502, -2.645369291305542, 0.068359375, -0.197265625, -0.7890625
70, 270749467, -5.35917329788208, 2.5755207538604736, 7.850623607635498, -2.490553379058838, -1.0932269096374512, -2.572155237197876, 0.068359375, -0.19970703125, -0.7900390625
71, 270766134, -5.3535590171813965, 2.5652081966400146, 7.851482391357422, -2.395287275314331, -1.0590083599090576, -2.641143560409546, 0.067626953125, -0.1982421875, -0.787109375
72, 270782801, -5.369480133056641, 2.564953088760376, 7.821556091308594, -2.3647568225860596, -1.142966866493225, -2.595130205154419, 0.068359375, -0.1982421875, -0.7900390625
73, 270799468, -5.364742755889893, 2.5819334983825684, 7.84529972076416, -2.459062337875366, -1.096710205078125, -2.633843421936035, 0.068115234375, -0.19677734375, -0.7890625
74, 270816135, -5.360237121582031, 2.581124782562256, 7.835110664367676, -2.4143683910369873, -1.173804521560669, -2.6883859634399414, 0.066162109375, -0.19580078125, -0.791748046875
75, 270832802, -5.370445728302002, 2.577361822128296, 7.826878070831299, -2.471062660217285, -1.109042763710022, -2.6874513626098633, 0.067626953125, -0.1982421875, -0.78857421875
76, 270849469, -5.383323669433594, 2.5743408203125, 7.8665947914123535, -2.452672004699707, -1.184497594833374, -2.6336896419525146, 0.0703125, -0.1962890625, -0.79052734375
77, 270866136, -5.37484073638916, 2.5573220252990723, 7.837728023529053, -2.5051913261413574, -1.3150458335876465, -2.5458898544311523, 0.0693359375, -0.19775390625, -0.786865234375
78, 270882803, -5.35828161239624, 2.5832855701446533, 7.822076320648193, -2.5569801330566406, -1.3073363304138184, -2.541855812072754, 0.0712890625, -0.19921875, -0.789306640625
79, 270899470, -5.360738754272461, 2.56803560256958, 7.832961082458496, -2.549821376800537, -1.2918022871017456, -2.5566601753234863, 0.06884765625, -0.19775390625, -0.7900390625
80, 270916137, -5.3653788566589355, 2.569366216659546, 7.841072082519531, -2.5643820762634277, -1.2105844020843506, -2.585819959640503, 0.0693359375, -0.1962890625, -0.79150390625
81, 270932804, -5.365073204040527, 2.56874680519104, 7.8424882888793945, -2.544314384460449, -1.3157116174697876, -2.456834316253662, 0.06982421875, -0.1982421875, -0.79052734375
82, 270949471, -5.358882427215576, 2.564948797225952, 7.834646701812744, -2.5538809299468994, -1.40257728099823, -2.5058443546295166, 0.067626953125, -0.19677734375, -0.791015625
83, 270966138, -5.373205184936523, 2.562077760696411, 7.83921480178833, -2.565432548522949, -1.3724567890167236, -2.5134260654449463, 0.068115234375, -0.19921875, -0.786376953125
84, 270982805, -5.361336708068848, 2.587071657180786, 7.825062274932861, -2.6582655906677246, -1.4607821702957153, -2.5139636993408203, 0.06884765625, -0.19970703125, -0.78955078125
85, 270999472, -5.351296424865723, 2.5750107765197754, 7.829292297363281, -2.754594326019287, -1.5512844324111938, -2.593695640563965, 0.0693359375, -0.19873046875, -0.79052734375
86, 271016139, -5.351985454559326, 2.5757713317871094, 7.824419021606445, -2.7647249698638916, -1.5480061769485474, -2.547708511352539, 0.068115234375, -0.19775390625, -0.78955078125
87, 271032806, -5.35635232925415, 2.5663254261016846, 7.840365409851074, -2.6673197746276855, -1.4951672554016113, -2.520110845565796, 0.06787109375, -0.19775390625, -0.79150390625
88, 271049473, -5.369601249694824, 2.566660165786743, 7.856529235839844, -2.7120778560638428, -1.3780659437179565, -2.5511531829833984, 0.0693359375, -0.19677734375, -0.78955078125
89, 271066140, -5.380407810211182, 2.5742080211639404, 7.833306789398193, -2.6697657108306885, -1.4599241018295288, -2.510301113128662, 0.0703125, -0.19873046875, -0.7890625
90, 271082807, -5.385922908782959, 2.576420307159424, 7.820694446563721, -2.7091195583343506, -1.6436567306518555, -2.465965509414673, 0.068359375, -0.19677734375, -0.791015625
91, 271099474, -5.3639726638793945, 2.571298599243164, 7.829350471496582, -2.596026659011841, -1.664838433265686, -2.4124090671539307, 0.06982421875, -0.19970703125, -0.788330078125
92, 271116141, -5.360681056976318, 2.5543243885040283, 7.829029083251953, -2.6337287425994873, -1.4881107807159424, -2.389293909072876, 0.06787109375, -0.197265625, -0.7900390625
93, 271132808, -5.3689398765563965, 2.5692434310913086, 7.8331708908081055, -2.541548728942871, -1.5874626636505127, -2.457218647003174, 0.06787109375, -0.19873046875, -0.7900390625
94, 271149475, -5.353750228881836, 2.5712344646453857, 7.840264320373535, -2.5750372409820557, -1.5110982656478882, -2.4068899154663086, 0.06884765625, -0.19873046875, -0.79150390625
95, 271166142, -5.361390113830566, 2.5572807788848877, 7.823827266693115, -2.5827722549438477, -1.578037142753601, -2.4213991165161133, 0.068115234375, -0.1982421875, -0.7890625
96, 271182809, -5.351230621337891, 2.574767589569092, 7.796557426452637, -2.651106834411621, -1.6897339820861816, -2.337338447570801, 0.068359375, -0.19873046875, -0.78955078125
97, 271199476, -5.338907241821289, 2.5813164710998535, 7.843547344207764, -2.821200132369995, -1.7493600845336914, -2.4283525943756104, 0.068359375, -0.19921875, -0.78955078125
98, 271216143, -5.332033634185791, 2.586413860321045, 7.853897571563721, -2.7785420417785645, -1.616545557975769, -2.5794677734375, 0.06884765625, -0.197265625, -0.7890625
99, 271232810, -5.356508731842041, 2.5594279766082764, 7.827733993530273, -2.6770520210266113, -1.535340428352356, -2.6938538551330566, 0.06884765625, -0.19677734375, -0.79150390625
100, 271249477, -5.351276874542236, 2.5510785579681396, 7.8372273445129395, -2.59881854057312, -1.511405348777771, -2.5193419456481934, 0.0693359375, -0.197265625, -0.78857421875
101, 271266144, -5.357254505157471, 2.5616118907928467, 7.845785617828369, -2.547093391418457, -1.5823911428451538, -2.3874752521514893, 0.067626953125, -0.1962890625, -0.787109375
102, 271282811, -5.358423233032227, 2.559541702270508, 7.818581581115723, -2.6243672370910645, -1.6893115043640137, -2.4349100589752197, 0.066650390625, -0.19677734375, -0.78955078125
103, 271299478, -5.359768390655518, 2.5651490688323975, 7.846939563751221, -2.5837578773498535, -1.6221290826797485, -2.386091947555542, 0.068359375, -0.1962890625, -0.78955078125
104, 271316145, -5.3520426750183105, 2.561455011367798, 7.858420372009277, -2.4259581565856934, -1.5424351692199707, -2.3546271324157715, 0.0673828125, -0.19677734375, -0.79248046875
105, 271332812, -5.353614807128906, 2.5608129501342773, 7.8364715576171875, -2.326772689819336, -1.4400739669799805, -2.198773145675659, 0.068359375, -0.19677734375, -0.7890625
106, 271349479, -5.370544910430908, 2.566159963607788, 7.828556060791016, -2.369520425796509, -1.474164605140686, -2.202167272567749, 0.068603515625, -0.1962890625, -0.78857421875
107, 271366146, -5.359449863433838, 2.5524280071258545, 7.834037780761719, -2.3851189613342285, -1.6089130640029907, -2.119220495223999, 0.068115234375, -0.197265625, -0.78857421875
108, 271382813, -5.329392433166504, 2.5725409984588623, 7.844298839569092, -2.3783695697784424, -1.6128958463668823, -2.173698663711548, 0.066162109375, -0.1982421875, -0.78955078125
109, 271399480, -5.334571361541748, 2.579639196395874, 7.843658924102783, -2.328655242919922, -1.4908639192581177, -2.175952196121216, 0.06787109375, -0.19580078125, -0.791015625
110, 271416147, -5.345967769622803, 2.579983949661255, 7.835949897766113, -2.366575002670288, -1.4531620740890503, -2.218789577484131, 0.06787109375, -0.19921875, -0.791015625
111, 271432814, -5.357725620269775, 2.572807788848877, 7.834684371948242, -2.4600868225097656, -1.4608972072601318, -2.234771966934204, 0.06787109375, -0.19775390625, -0.791015625
112, 271449481, -5.364817142486572, 2.5587992668151855, 7.836233615875244, -2.4600231647491455, -1.5125452280044556, -2.206406354904175, 0.067138671875, -0.1982421875, -0.7900390625
113, 271466148, -5.331669330596924, 2.5971310138702393, 7.835072994232178, -2.4597926139831543, -1.5404630899429321, -2.195700168609619, 0.065673828125, -0.1982421875, -0.79150390625
114, 271482815, -5.333532333374023, 2.5796947479248047, 7.828069686889648, -2.425868511199951, -1.4930156469345093, -2.3317675590515137, 0.06689453125, -0.1982421875, -0.795654296875
115, 271499482, -5.3438029289245605, 2.585045337677002, 7.8299665451049805, -2.532353401184082, -1.4976131916046143, -2.419132947921753, 0.065673828125, -0.19775390625, -0.791015625
116, 271516149, -5.345122814178467, 2.5799007415771484, 7.851017475128174, -2.646714448928833, -1.3927419185638428, -2.5362470149993896, 0.066162109375, -0.197265625, -0.78955078125
117, 271532816, -5.351288318634033, 2.5754971504211426, 7.845907211303711, -2.637545108795166, -1.4642654657363892, -2.5602331161499023, 0.067138671875, -0.19970703125, -0.78955078125
118, 271549483, -5.332329273223877, 2.5753631591796875, 7.835137367248535, -2.654730796813965, -1.4043188095092773, -2.5357344150543213, 0.068115234375, -0.1962890625, -0.78857421875
119, 271566150, -5.340263366699219, 2.5758562088012695, 7.847620487213135, -2.6229841709136963, -1.341721534729004, -2.560091972351074, 0.067138671875, -0.19873046875, -0.78955078125
120, 271582817, -5.347548007965088, 2.5734715461730957, 7.847655773162842, -2.671353578567505, -1.2861418724060059, -2.724435806274414, 0.067138671875, -0.197265625, -0.791015625
121, 271599484, -5.339578151702881, 2.5779781341552734, 7.85520076751709, -2.658611297607422, -1.2874993085861206, -2.670175313949585, 0.068359375, -0.19873046875, -0.7919921875
122, 271616151, -5.350909233093262, 2.5744733810424805, 7.83898401260376, -2.6783459186553955, -1.3603546619415283, -2.604158878326416, 0.067626953125, -0.1962890625, -0.79150390625
123, 271632818, -5.3526291847229, 2.58016300201416, 7.814756393432617, -2.7498056888580322, -1.4088010787963867, -2.5966415405273438, 0.067138671875, -0.197265625, -0.79150390625
124, 271649485, -5.3510870933532715, 2.568772315979004, 7.835161209106445, -2.7635459899902344, -1.419289231300354, -2.6732356548309326, 0.067626953125, -0.1982421875, -0.7900390625
125, 271666152, -5.337152004241943, 2.5737838745117188, 7.844101905822754, -2.6559860706329346, -1.3125101327896118, -2.569927453994751, 0.066650390625, -0.19677734375, -0.78955078125
126, 271682819, -5.336205959320068, 2.570861339569092, 7.849645137786865, -2.7108356952667236, -1.2794442176818848, -2.691997528076172, 0.066650390625, -0.19677734375, -0.7880859375
127, 271699486, -5.354953765869141, 2.5743188858032227, 7.832243919372559, -2.6963391304016113, -1.280045986175537, -2.696697473526001, 0.066162109375, -0.19775390625, -0.7900390625
128, 271716153, -5.363370895385742, 2.5562777519226074, 7.8534932136535645, -2.6794345378875732, -1.2764731645584106, -2.6996428966522217, 0.067626953125, -0.19677734375, -0.791015625
129, 271732820, -5.363711833953857, 2.5605196952819824, 7.841087341308594, -2.689551591873169, -1.250860333442688, -2.5710415840148926, 0.067138671875, -0.19677734375, -0.79150390625
130, 271749487, -5.330708026885986, 2.5561769008636475, 7.827312469482422, -2.6268773078918457, -1.4169331789016724, -2.581824541091919, 0.068359375, -0.1982421875, -0.7900390625
131, 271766154, -5.352278709411621, 2.5651395320892334, 7.837409973144531, -2.614903211593628, -1.305018424987793, -2.6365973949432373, 0.067138671875, -0.197265625, -0.78955078125
132, 271782821, -5.3499979972839355, 2.583704710006714, 7.837366580963135, -2.6961214542388916, -1.357460379600525, -2.5047943592071533, 0.067138671875, -0.19921875, -0.7890625
133, 271799488, -5.359295845031738, 2.5647504329681396, 7.836791038513184, -2.6036205291748047, -1.4533926248550415, -2.5014514923095703, 0.067138671875, -0.19873046875, -0.791015625
134, 271816155, -5.350994110107422, 2.562922239303589, 7.846842288970947, -2.589559555053711, -1.3877217769622803, -2.5208022594451904, 0.066162109375, -0.19873046875, -0.79052734375
135, 271832822, -5.345020771026611, 2.5722806453704834, 7.854820251464844, -2.564471960067749, -1.4332998991012573, -2.4883511066436768, 0.06982421875, -0.19580078125, -0.79296875
136, 271849489, -5.351444721221924, 2.566494941711426, 7.82120418548584, -2.5399858951568604, -1.364619255065918, -2.4330146312713623, 0.068359375, -0.19921875, -0.7900390625
137, 271866156, -5.336728572845459, 2.5697929859161377, 7.850173473358154, -2.6505818367004395, -1.34757399559021, -2.428161144256592, 0.067138671875, -0.19921875, -0.7890625
138, 271882823, -5.360246181488037, 2.5590193271636963, 7.859110355377197, -2.5537784099578857, -1.411016583442688, -2.4691667556762695, 0.068359375, -0.197265625, -0.79052734375
139, 271899490, -5.345482349395752, 2.5686841011047363, 7.851749420166016, -2.536656618118286, -1.3493156433105469, -2.557774305343628, 0.066650390625, -0.19677734375, -0.79052734375
140, 271916157, -5.3378400802612305, 2.5845329761505127, 7.849996089935303, -2.556993246078491, -1.4342986345291138, -2.477222204208374, 0.067626953125, -0.19873046875, -0.79052734375
141, 271932824, -5.363106727600098, 2.5653820037841797, 7.844488620758057, -2.5517938137054443, -1.3256111145019531, -2.571028709411621, 0.066162109375, -0.1962890625, -0.78955078125
142, 271949491, -5.361637592315674, 2.561114549636841, 7.830540657043457, -2.538257122039795, -1.4161134958267212, -2.396042585372925, 0.06787109375, -0.19873046875, -0.78955078125
143, 271966158, -5.343239784240723, 2.5636229515075684, 7.842055797576904, -2.5001325607299805, -1.4621777534484863, -2.3535256385803223, 0.067626953125, -0.19775390625, -0.7890625
144, 271982825, -5.354404449462891, 2.5814390182495117, 7.837496280670166, -2.4910528659820557, -1.4857416152954102, -2.3767690658569336, 0.067626953125, -0.19775390625, -0.79052734375
145, 271999492, -5.338216781616211, 2.5786240100860596, 7.847076892852783, -2.5797371864318848, -1.4728713035583496, -2.4592549800872803, 0.065185546875, -0.197265625, -0.7890625
146, 272016159, -5.341389179229736, 2.565124034881592, 7.836366176605225, -2.5706446170806885, -1.4050744771957397, -2.486301898956299, 0.066650390625, -0.19775390625, -0.79052734375
147, 272032826, -5.360438823699951, 2.5540287494659424, 7.847509860992432, -2.5144755840301514, -1.4314937591552734, -2.4385085105895996, 0.066162109375, -0.1962890625, -0.79052734375
148, 272049493, -5.351964950561523, 2.570981025695801, 7.82829475402832, -2.6057209968566895, -1.5313835144042969, -2.3776655197143555, 0.067626953125, -0.19921875, -0.7890625
149, 272066160, -5.34702730178833, 2.5713629722595215, 7.846981048583984, -2.6024105548858643, -1.6345832347869873, -2.455611228942871, 0.06884765625, -0.19775390625, -0.79248046875
150, 272082827, -5.355620384216309, 2.5705208778381348, 7.828047752380371, -2.618360757827759, -1.650392770767212, -2.35306453704834, 0.068359375, -0.19873046875, -0.79052734375
151, 272099494, -5.363480567932129, 2.563433885574341, 7.866215229034424, -2.6614160537719727, -1.8441658020019531, -2.2687861919403076, 0.065185546875, -0.197265625, -0.79052734375
152, 272116161, -5.3509650230407715, 2.570788621902466, 7.853283405303955, -2.75117564201355, -2.0157454013824463, -2.153106212615967, 0.066162109375, -0.1982421875, -0.7890625
153, 272132828, -5.32689905166626, 2.5881693363189697, 7.830162525177002, -2.7531607151031494, -1.9959722757339478, -2.1985433101654053, 0.068359375, -0.19580078125, -0.791015625
154, 272149495, -5.3418707847595215, 2.5766842365264893, 7.861456871032715, -2.7263572216033936, -1.9926170110702515, -2.2769436836242676, 0.067138671875, -0.19775390625, -0.78955078125
155, 272166162, -5.376133441925049, 2.5514512062072754, 7.859714984893799, -2.7374088764190674, -2.0016329288482666, -2.131565809249878, 0.068115234375, -0.19580078125, -0.78857421875
156, 272182829, -5.357999801635742, 2.5619728565216064, 7.8616437911987305, -2.7576558589935303, -2.1597912311553955, -2.051513433456421, 0.065185546875, -0.197265625, -0.790771484375
157, 272199496, -5.337990760803223, 2.580551862716675, 7.851867198944092, -2.8461735248565674, -2.1256752014160156, -1.9543389081954956, 0.066650390625, -0.19677734375, -0.79150390625
158, 272216163, -5.316249370574951, 2.573277235031128, 7.834315299987793, -2.9600980281829834, -2.3196651935577393, -2.0362095832824707, 0.064208984375, -0.19580078125, -0.790283203125
159, 272232830, -5.350877285003662, 2.553478956222534, 7.855723857879639, -2.9551422595977783, -2.305053234100342, -2.1190924644470215, 0.066162109375, -0.19580078125, -0.791748046875
160, 272249497, -5.355215072631836, 2.5540826320648193, 7.845331192016602, -2.94875168800354, -2.2612171173095703, -1.9662102460861206, 0.065673828125, -0.19677734375, -0.7900390625
161, 272266164, -5.327471733093262, 2.5978317260742188, 7.850046634674072, -2.968755006790161, -2.273306131362915, -1.8479433059692383, 0.065673828125, -0.19482421875, -0.790771484375
162, 272282831, -5.293239593505859, 2.589186906814575, 7.832204818725586, -3.022759437561035, -2.2995333671569824, -1.9209264516830444, 0.067138671875, -0.19580078125, -0.7919921875
163, 272299498, -5.266892433166504, 2.6141979694366455, 7.862364292144775, -3.0797863006591797, -2.1662068367004395, -2.3217785358428955, 0.064697265625, -0.19677734375, -0.792236328125
164, 272316165, -5.308670997619629, 2.560171604156494, 7.864856719970703, -3.0724740028381348, -1.9254220724105835, -2.5117735862731934, 0.064697265625, -0.1943359375, -0.790771484375
165, 272332832, -5.3422417640686035, 2.545234441757202, 7.874727249145508, -2.9127018451690674, -1.8000221252441406, -2.4442453384399414, 0.062255859375, -0.1962890625, -0.790771484375
166, 272349499, -5.320208549499512, 2.5554862022399902, 7.875595569610596, -2.7686052322387695, -1.7976789474487305, -2.2478604316711426, 0.062744140625, -0.19677734375, -0.790771484375
167, 272366166, -5.300715446472168, 2.5673491954803467, 7.865358829498291, -2.8107378482818604, -1.7756389379501343, -2.250152587890625, 0.064208984375, -0.1962890625, -0.790771484375
168, 272382833, -5.337023735046387, 2.532576084136963, 7.879184722900391, -2.7151644229888916, -1.7503209114074707, -2.110473871231079, 0.065185546875, -0.19677734375, -0.791748046875
169, 272399500, -5.314574718475342, 2.561293601989746, 7.844697952270508, -2.522735595703125, -1.8298993110656738, -1.9224765300750732, 0.063720703125, -0.1962890625, -0.790283203125
170, 272416167, -5.234655857086182, 2.5889508724212646, 7.85123872756958, -2.617016553878784, -1.7126061916351318, -2.3010454177856445, 0.063720703125, -0.197265625, -0.789794921875
171, 272432834, -5.285273551940918, 2.5287845134735107, 7.858400344848633, -2.3404757976531982, -1.4556210041046143, -2.263227701187134, 0.063720703125, -0.19580078125, -0.792724609375
172, 272449501, -5.31335973739624, 2.5508577823638916, 7.869176387786865, -1.9297888278961182, -1.154185175895691, -2.0587615966796875, 0.066162109375, -0.1953125, -0.791259765625
173, 272466168, -5.326138973236084, 2.577115535736084, 7.854287147521973, -1.775984525680542, -0.9402677416801453, -2.0073952674865723, 0.066162109375, -0.19775390625, -0.791015625
174, 272482835, -5.309049129486084, 2.558584213256836, 7.8679423332214355, -1.507538080215454, -0.8715361952781677, -1.795078992843628, 0.063232421875, -0.197265625, -0.790283203125
175, 272499502, -5.3405046463012695, 2.527759075164795, 7.816476345062256, -1.0692917108535767, -0.8817043304443359, -1.415421724319458, 0.063232421875, -0.19580078125, -0.788818359375
176, 272516169, -5.278095245361328, 2.572176933288574, 7.872002601623535, -0.5531831383705139, -0.5872095823287964, -1.0293488502502441, 0.063720703125, -0.19580078125, -0.790283203125
177, 272532836, -5.315939426422119, 2.577392339706421, 7.841799259185791, -0.2427443414926529, -0.45605969429016113, -1.064361333847046, 0.063232421875, -0.19921875, -0.790283203125
178, 272549503, -5.271459579467773, 2.622894048690796, 7.855680465698242, -0.33347731828689575, -0.46401241421699524, -1.064899206161499, 0.065185546875, -0.19921875, -0.7900390625
179, 272566170, -5.340583801269531, 2.6060376167297363, 7.79052209854126, -0.7132880687713623, -1.0424753427505493, -1.2836573123931885, 0.064208984375, -0.2001953125, -0.78857421875
180, 272582837, -5.335413455963135, 2.5872464179992676, 7.837038516998291, -0.9865115284919739, -1.5692774057388306, -1.078051209449768, 0.066650390625, -0.19921875, -0.78955078125
181, 272599504, -5.347287654876709, 2.591717481613159, 7.8165364265441895, -1.1898891925811768, -2.0474278926849365, -0.8823062181472778, 0.065673828125, -0.19921875, -0.7890625
182, 272616171, -5.304401397705078, 2.5770645141601562, 7.806255340576172, -2.4885168075561523, -2.3421661853790283, -0.8879283666610718, 0.062744140625, -0.19921875, -0.7890625
183, 272632838, -5.316283702850342, 2.6564137935638428, 7.798009872436523, -1.9212086200714111, -2.94412899017334, -0.8195295929908752, 0.063720703125, -0.19970703125, -0.790771484375
184, 272649505, -5.2903361320495605, 2.591705560684204, 7.820280075073242, -2.109654426574707, -3.0574395656585693, -0.9643438458442688, 0.062255859375, -0.19873046875, -0.789306640625
185, 272666172, -5.29277229309082, 2.6008718013763428, 7.835946083068848, -2.098064422607422, -3.1142101287841797, -0.9083032011985779, 0.061767578125, -0.19921875, -0.789794921875
186, 272682839, -5.26750373840332, 2.657504081726074, 7.858985424041748, -1.9306342601776123, -3.168163537979126, -0.8687701225280762, 0.062255859375, -0.20068359375, -0.7890625
187, 272699506, -5.205974102020264, 2.716740608215332, 7.9012651443481445, -0.9390255212783813, -2.194380760192871, -1.072749376296997, 0.060791015625, -0.20068359375, -0.789306640625
188, 272716173, -5.255655288696289, 2.6335532665252686, 7.926412582397461, -0.8744559288024902, -0.8865323066711426, -1.2428433895111084, 0.061767578125, -0.2001953125, -0.790283203125
189, 272732840, -5.302971839904785, 2.6411938667297363, 7.921786308288574, 0.0564567893743515, -0.18487244844436646, -1.0569976568222046, 0.061767578125, -0.2001953125, -0.790283203125
190, 272749507, -5.325588226318359, 2.7085068225860596, 7.877587795257568, 0.2239510416984558, 0.3035297095775604, -1.151009202003479, 0.062744140625, -0.2021484375, -0.7880859375
191, 272766174, -5.285210609436035, 2.7130541801452637, 7.851159572601318, -0.12796105444431305, 0.24846237897872925, -1.3802683353424072, 0.063232421875, -0.20166015625, -0.7880859375
192, 272782841, -5.290183067321777, 2.6370913982391357, 7.859993934631348, -0.4251580536365509, 0.3869630992412567, -1.6330018043518066, 0.062255859375, -0.20263671875, -0.7880859375
193, 272799508, -5.278071403503418, 2.5992512702941895, 7.889938831329346, 0.14985351264476776, 0.7298659682273865, -1.574591875076294, 0.064208984375, -0.204345703125, -0.7890625
194, 272816175, -5.3290815353393555, 2.676703929901123, 7.8457841873168945, 0.6542699933052063, 1.0690034627914429, -1.5844782590866089, 0.062255859375, -0.204833984375, -0.7880859375
195, 272832842, -5.329287052154541, 2.723982334136963, 7.8245038986206055, 0.498403936624527, 0.8254268765449524, -1.6988390684127808, 0.062744140625, -0.205810546875, -0.7880859375
196, 272849509, -5.314104080200195, 2.786328077316284, 7.794103145599365, -0.07516046613454819, 0.45751330256462097, -2.1913585662841797, 0.064697265625, -0.206298828125, -0.78759765625
197, 272866176, -5.295274257659912, 2.7562992572784424, 7.817465305328369, -0.7395923137664795, 0.16787205636501312, -2.8575706481933594, 0.065673828125, -0.207275390625, -0.787353515625
198, 272882843, -5.253364562988281, 2.7845566272735596, 7.821374416351318, -1.0738251209259033, 0.16116149723529816, -3.261969566345215, 0.065185546875, -0.207763671875, -0.787353515625
199, 272899510, -5.246132850646973, 2.7539758682250977, 7.794130802154541, -1.2512571811676025, 0.37116000056266785, -3.930306911468506, 0.064208984375, -0.207763671875, -0.78759765625
200, 272916177, -5.288809299468994, 2.7369017601013184, 7.788820743560791, -1.3493796586990356, 0.43260496854782104, -4.486384868621826, 0.066162109375, -0.206787109375, -0.78955078125
201, 272932844, -5.29216194152832, 2.744508981704712, 7.762454986572266, -1.5099200010299683, 0.2904800772666931, -4.855297565460205, 0.065185546875, -0.207275390625, -0.786376953125
202, 272949511, -5.334437847137451, 2.70971941947937, 7.803837776184082, -1.818809151649475, 0.06694520264863968, -4.672166347503662, 0.068359375, -0.207275390625, -0.788330078125
203, 272966178, -5.29631233215332, 2.7900736331939697, 7.809573650360107, -2.1896684169769287, 0.14950774610042572, -4.574838638305664, 0.066650390625, -0.207763671875, -0.786376953125
204, 272982845, -5.281757831573486, 2.7853472232818604, 7.79988431930542, -2.2529828548431396, 0.25563400983810425, -5.062504291534424, 0.066650390625, -0.209716796875, -0.786376953125
205, 272999512, -5.312312602996826, 2.724893093109131, 7.795963287353516, -2.2162163257598877, 0.7494597434997559, -5.514991283416748, 0.06884765625, -0.206298828125, -0.789306640625
206, 273016179, -5.317624568939209, 2.6800854206085205, 7.7763519287109375, -2.102060079574585, 1.216597080230713, -5.803339004516602, 0.0703125, -0.207763671875, -0.786376953125
207, 273032846, -5.343228816986084, 2.6518843173980713, 7.796270370483398, -1.3373671770095825, 1.9004943370819092, -5.735106468200684, 0.0712890625, -0.205810546875, -0.785888671875
208, 273049513, -5.354363918304443, 2.6441781520843506, 7.779597282409668, 0.19148695468902588, 3.6029064655303955, -5.5470709800720215, 0.07373046875, -0.208251953125, -0.787109375
209, 273066180, -5.363184928894043, 2.644219398498535, 7.815837383270264, 0.18741454184055328, 4.534978866577148, -5.579688549041748, 0.07275390625, -0.208251953125, -0.791259765625
210, 273082847, -5.253963947296143, 2.78723406791687, 7.806562900543213, 1.5607038736343384, 6.626269817352295, -6.249884605407715, 0.0751953125, -0.209716796875, -0.78515625
211, 273099514, -5.32185697555542, 2.6999921798706055, 7.795416831970215, 2.9067165851593018, 9.339221000671387, -6.780850410461426, 0.077880859375, -0.21044921875, -0.78662109375
212, 273116181, -5.4530029296875, 2.6619627475738525, 7.692815780639648, 4.77347469329834, 12.850767135620117, -6.929534912109375, 0.081787109375, -0.2099609375, -0.783447265625
213, 273132848, -5.334386348724365, 2.7827062606811523, 7.8047380447387695, 6.002901554107666, 16.062597274780273, -8.084185600280762, 0.08544921875, -0.21142578125, -0.78369140625
214, 273149515, -5.387626647949219, 2.7875027656555176, 7.848201751708984, 6.969452857971191, 19.566415786743164, -9.254345893859863, 0.09130859375, -0.21484375, -0.782470703125
215, 273166182, -5.263349533081055, 2.915194034576416, 8.043749809265137, 7.7368927001953125, 24.201303482055664, -10.620013236999512, 0.095458984375, -0.216552734375, -0.77978515625
216, 273182849, -5.308890342712402, 2.728126287460327, 7.976027965545654, 10.925394058227539, 33.708641052246094, -12.626189231872559, 0.103515625, -0.218505859375, -0.778076171875
217, 273199516, -5.3003034591674805, 2.6602447032928467, 8.0829439163208, 14.699275970458984, 45.851531982421875, -13.751861572265625, 0.115478515625, -0.22216796875, -0.77392578125
218, 273216183, -5.460412979125977, 2.7691245079040527, 7.909961700439453, 20.87123680114746, 58.311851501464844, -14.791071891784668, 0.12939453125, -0.22509765625, -0.77001953125
219, 273232850, -5.602520942687988, 2.886826992034912, 7.835821628570557, 26.176925659179688, 72.01140594482422, -16.116588592529297, 0.1455078125, -0.230712890625, -0.762451171875
220, 273249517, -5.8116607666015625, 3.169792890548706, 7.900618076324463, 30.24001121520996, 88.52516174316406, -19.159822463989258, 0.166015625, -0.236328125, -0.756591796875
221, 273266184, -5.833817481994629, 3.307403802871704, 7.9976420402526855, 30.575851440429688, 105.4028549194336, -24.886383056640625, 0.189208984375, -0.242919921875, -0.74755859375
222, 273282851, -6.066512107849121, 3.1683950424194336, 7.6577677726745605, 31.172748565673828, 123.23322296142578, -33.27216339111328, 0.217041015625, -0.24853515625, -0.734619140625
223, 273299518, -6.178448677062988, 3.1894378662109375, 7.367537975311279, 36.70958709716797, 147.65623474121094, -42.41838455200195, 0.251708984375, -0.251708984375, -0.719970703125
224, 273316185, -6.860952377319336, 3.534289598464966, 7.463277816772461, 31.507781982421875, 170.64157104492188, -54.70240020751953, 0.289794921875, -0.25439453125, -0.701904296875
225, 273332852, -6.889158248901367, 3.4162044525146484, 7.37827205657959, 27.20783805847168, 199.33566284179688, -71.79727935791016, 0.335693359375, -0.253662109375, -0.681396484375
226, 273349519, -8.053595542907715, 4.134243488311768, 8.007772445678711, 23.867374420166016, 225.98411560058594, -88.47080993652344, 0.38427734375, -0.248779296875, -0.64794921875
227, 273366186, -8.376727104187012, 5.033130168914795, 7.3910746574401855, 26.241222381591797, 248.4796142578125, -110.08197021484375, 0.4375, -0.239501953125, -0.61279296875
228, 273382853, -11.969343185424805, 5.920932769775391, 8.244307518005371, 28.609012603759766, 258.50543212890625, -128.97360229492188, 0.491943359375, -0.22607421875, -0.56982421875
229, 273399520, -12.525314331054688, 6.355284690856934, 9.027779579162598, 30.87952423095703, 250.0125274658203, -133.04188537597656, 0.544189453125, -0.2109375, -0.52392578125
230, 273416187, -12.833520889282227, 5.10621976852417, 9.593940734863281, 30.908382415771484, 248.85841369628906, -138.17276000976562, 0.59423828125, -0.19091796875, -0.4736328125
231, 273432854, -13.390412330627441, 6.316253185272217, 10.204641342163086, 31.439266204833984, 237.89920043945312, -135.247314453125, 0.636962890625, -0.17138671875, -0.41943359375
232, 273449521, -10.617307662963867, 5.859475612640381, 9.6098051071167, 20.10874366760254, 212.1550750732422, -140.48971557617188, 0.671875, -0.147705078125, -0.370849609375
233, 273466188, -3.9874515533447266, 4.579725742340088, 8.288787841796875, -1.059686541557312, 198.03228759765625, -155.33554077148438, 0.70458984375, -0.119384765625, -0.320556640625
234, 273482855, -7.263708591461182, 6.017416000366211, 9.36953067779541, 10.00871467590332, 214.21417236328125, -142.42300415039062, 0.732421875, -0.08984375, -0.26708984375
235, 273499522, -15.315866470336914, 10.170448303222656, 17.883407592773438, 36.427154541015625, 85.78401184082031, -62.99620819091797, 0.750244140625, -0.07568359375, -0.23095703125
236, 273516189, -7.992714881896973, 11.429169654846191, 14.480372428894043, 3.3052337169647217, -45.23345947265625, 3.7112622261047363, 0.755615234375, -0.0791015625, -0.228271484375
237, 273532856, -1.4979935884475708, 7.942018508911133, 9.58347225189209, -55.81525421142578, -93.42574310302734, 31.689096450805664, 0.75537109375, -0.083251953125, -0.242919921875
238, 273549523, 0.3996153473854065, 4.183199882507324, 6.9518961906433105, -85.03980255126953, -95.05441284179688, 42.77946853637695, 0.755615234375, -0.08935546875, -0.262939453125
239, 273566190, -0.42179468274116516, 2.4433794021606445, 6.712055206298828, -80.32084655761719, -93.30696105957031, 58.67209243774414, 0.752685546875, -0.09912109375, -0.281982421875
240, 273582857, -2.818916082382202, 2.498781681060791, 7.849580764770508, -67.8069839477539, -108.1402359008789, 77.26919555664062, 0.751220703125, -0.109619140625, -0.308837890625
241, 273599524, -5.079117298126221, 3.2486064434051514, 9.036455154418945, -62.68130874633789, -146.34886169433594, 92.4155044555664, 0.742431640625, -0.12939453125, -0.34619140625
242, 273616191, -5.380416393280029, 3.3368520736694336, 8.8607759475708, -70.54059600830078, -194.23033142089844, 102.19847106933594, 0.722900390625, -0.146240234375, -0.39697265625
243, 273632858, -4.8026652336120605, 2.594864845275879, 7.851511478424072, -75.18860626220703, -226.7467041015625, 109.71282196044922, 0.692626953125, -0.16455078125, -0.455810546875
244, 273649525, -5.0720133781433105, 1.9661169052124023, 7.277402877807617, -71.6877670288086, -242.41879272460938, 115.44803619384766, 0.64990234375, -0.177490234375, -0.5146484375
245, 273666192, -6.469452381134033, 2.051224708557129, 7.5189032554626465, -67.60987854003906, -253.54763793945312, 117.96755981445312, 0.597900390625, -0.185546875, -0.571533203125
246, 273682859, -7.0734992027282715, 1.6767840385437012, 7.631070137023926, -62.094295501708984, -262.9427185058594, 113.6552734375, 0.541015625, -0.18896484375, -0.618896484375
247, 273699526, -7.037393093109131, 0.4696230888366699, 7.1709771156311035, -47.300899505615234, -261.4642028808594, 102.82522583007812, 0.482666015625, -0.19140625, -0.662109375
248, 273716193, -8.10789966583252, 0.31012415885925293, 7.507814884185791, -25.23562240600586, -245.2869873046875, 81.75812530517578, 0.42626953125, -0.195068359375, -0.68994140625
249, 273732860, -10.644475936889648, 1.5971680879592896, 9.684935569763184, -4.850490093231201, -231.25547790527344, 55.95689010620117, 0.37744140625, -0.197021484375, -0.70556640625
250, 273749527, -14.00164794921875, 3.4496445655822754, 11.699403762817383, 10.01024055480957, -238.49966430664062, 41.86737823486328, 0.33544921875, -0.197265625, -0.7109375
251, 273766194, -15.067635536193848, 4.053893089294434, 10.329174041748047, 21.277877807617188, -246.23501586914062, 39.67445755004883, 0.308349609375, -0.2060546875, -0.714599609375
252, 273782861, -16.194719314575195, 4.259899139404297, 7.796916484832764, 35.777915954589844, -225.4555206298828, 43.13840866088867, 0.299072265625, -0.2197265625, -0.737548828125
253, 273799528, -20.0353946685791, 6.077810764312744, 6.884756088256836, 36.74998474121094, -196.729736328125, 46.06306838989258, 0.28857421875, -0.245849609375, -0.784423828125
254, 273816195, -23.871505737304688, 6.506586074829102, 6.0236639976501465, 26.27511215209961, -194.1920166015625, 52.758216857910156, 0.253173828125, -0.27783203125, -0.8466796875
255, 273832862, -23.840085983276367, 3.77091908454895, 2.7463538646698, 32.06786346435547, -197.50502014160156, 70.8497085571289, 0.182861328125, -0.313232421875, -0.89501953125
256, 273849529, -22.318567276000977, -1.5985018014907837, -3.25831937789917, 39.605506896972656, -165.3755340576172, 70.66242980957031, 0.101318359375, -0.347412109375, -0.921630859375
257, 273866196, -23.79716682434082, -7.436335563659668, -7.087994575500488, 64.66059875488281, -129.14306640625, 52.7667350769043, 0.027099609375, -0.373046875, -0.9189453125
258, 273882863, -23.85354232788086, -7.442653179168701, -11.59035873413086, 55.794132232666016, -76.53179931640625, 0.6579918265342712, -0.019775390625, -0.39404296875, -0.90869140625
259, 273899530, -18.940513610839844, -6.2305426597595215, -12.45064640045166, 7.433477878570557, 6.439705848693848, -82.2709732055664, -0.0302734375, -0.399658203125, -0.9072265625
260, 273916197, -17.330251693725586, -2.0261662006378174, -9.101086616516113, -15.06696891784668, 86.5565414428711, -133.84518432617188, -0.00927734375, -0.401123046875, -0.90966796875
261, 273932864, -10.971179008483887, 3.7788267135620117, 3.978478193283081, -47.950321197509766, 135.2240753173828, -131.14768981933594, 0.03466796875, -0.390625, -0.9189453125
262, 273949531, -8.465889930725098, 10.999149322509766, 13.729035377502441, -52.347999572753906, 109.3897705078125, -72.6948013305664, 0.0693359375, -0.374755859375, -0.929443359375
263, 273966198, -5.023060321807861, 2.4570393562316895, 6.6357808113098145, -42.887447357177734, 113.0578842163086, -59.4045524597168, 0.0986328125, -0.3701171875, -0.9345703125
264, 273982865, -14.71817684173584, 1.2126842737197876, 16.227190017700195, -36.01519012451172, 109.1548080444336, -36.98069763183594, 0.129638671875, -0.36279296875, -0.935791015625
265, 273999532, -14.137075424194336, -0.2452627420425415, 7.759557723999023, -36.082481384277344, -7.806198596954346, -29.3946475982666, 0.13330078125, -0.349853515625, -0.9423828125
266, 274016199, -6.337952136993408, 4.387897968292236, 9.639573097229004, -16.57333755493164, -0.4840936064720154, -12.643741607666016, 0.13427734375, -0.34619140625, -0.94189453125
267, 274032866, -6.613949775695801, 2.612914562225342, 8.102169036865234, -18.534496307373047, -7.6991190910339355, -16.03771209716797, 0.1337890625, -0.33935546875, -0.947021484375
268, 274049533, -6.034788608551025, 2.626652956008911, 7.990482807159424, -14.293022155761719, -10.50144100189209, -12.992433547973633, 0.13330078125, -0.335205078125, -0.947021484375
269, 274066200, -5.477507591247559, 2.223057985305786, 8.031753540039062, -12.416913986206055, -11.162030220031738, -12.189126968383789, 0.1298828125, -0.332275390625, -0.94921875
270, 274082867, -5.545943737030029, 2.0377819538116455, 8.02030086517334, -9.237791061401367, -8.451058387756348, -9.101058006286621, 0.130859375, -0.331298828125, -0.950927734375
271, 274099534, -5.7789411544799805, 2.083786964416504, 8.125310897827148, -4.622774124145508, -5.340455055236816, -7.096744060516357, 0.124755859375, -0.330078125, -0.95556640625
272, 274116201, -5.438158988952637, 2.5090384483337402, 7.98850154876709, -3.213280200958252, -3.6936206817626953, -6.228228569030762, 0.125244140625, -0.32861328125, -0.949462890625
273, 274132868, -5.411332130432129, 2.557521343231201, 7.948781967163086, -2.1000876426696777, -1.9570921659469604, -5.921144008636475, 0.127685546875, -0.330078125, -0.949951171875
274, 274149535, -5.475459575653076, 2.5225942134857178, 7.9448771476745605, -1.6207975149154663, -0.6661864519119263, -5.697648048400879, 0.126708984375, -0.33056640625, -0.949462890625
275, 274166202, -5.455587863922119, 2.4351823329925537, 7.958346843719482, -1.0801132917404175, 0.8491827845573425, -4.856873035430908, 0.128173828125, -0.32861328125, -0.951416015625
276, 274182869, -5.3907647132873535, 2.5037925243377686, 7.952309608459473, -0.19748669862747192, 2.2076802253723145, -3.8580024242401123, 0.124755859375, -0.3310546875, -0.950439453125
277, 274199536, -5.295470714569092, 2.4114441871643066, 7.987417697906494, 0.8303573727607727, 3.582672357559204, -3.73055362701416, 0.128173828125, -0.332275390625, -0.950927734375
278, 274216203, -5.29890251159668, 2.410526990890503, 7.994852066040039, 1.668802261352539, 5.193801403045654, -3.7180681228637695, 0.129150390625, -0.330322265625, -0.950439453125
279, 274232870, -5.272836208343506, 2.526038885116577, 7.934834003448486, 2.8397507667541504, 7.363581657409668, -4.1896491050720215, 0.13427734375, -0.332763671875, -0.95068359375
280, 274249537, -5.443629741668701, 2.622648239135742, 7.791809558868408, 2.5824203491210938, 8.605926513671875, -4.802381992340088, 0.13623046875, -0.336669921875, -0.948974609375
281, 274266204, -5.466507434844971, 2.5892951488494873, 7.774908065795898, 2.323885917663574, 7.983283996582031, -5.61512565612793, 0.140869140625, -0.335693359375, -0.94677734375
282, 274282871, -5.517771244049072, 2.5059566497802734, 7.713108539581299, 2.4279625415802, 6.6291890144348145, -6.47329044342041, 0.139892578125, -0.33984375, -0.94580078125
283, 274299538, -5.507016181945801, 2.4855740070343018, 7.6942853927612305, 2.3636109828948975, 5.802487373352051, -7.197528839111328, 0.143798828125, -0.33837890625, -0.94873046875
284, 274316205, -5.442107677459717, 2.4310505390167236, 7.792916774749756, 2.1551239490509033, 6.318713188171387, -7.1871442794799805, 0.144287109375, -0.3408203125, -0.943115234375
285, 274332872, -5.425254821777344, 2.552630662918091, 7.765809059143066, 2.288226842880249, 7.93996524810791, -7.304322242736816, 0.146728515625, -0.3427734375, -0.942138671875
286, 274349539, -5.442076683044434, 2.6304988861083984, 7.7812819480896, 1.8814270496368408, 8.577960014343262, -8.466385841369629, 0.1513671875, -0.341796875, -0.93994140625
287, 274366206, -5.408054828643799, 2.6703109741210938, 7.782345294952393, 1.812592625617981, 9.356369018554688, -9.9989595413208, 0.154296875, -0.34130859375, -0.9404296875
288, 274382873, -5.395947456359863, 2.6146159172058105, 7.858870506286621, 2.524972915649414, 12.306228637695312, -10.784212112426758, 0.157470703125, -0.341796875, -0.940673828125
289, 274399540, -5.407125949859619, 2.3897252082824707, 7.746373653411865, 3.5493812561035156, 16.496479034423828, -11.418645858764648, 0.162841796875, -0.343505859375, -0.935546875
290, 274416207, -5.296837329864502, 2.4626808166503906, 7.995193004608154, 4.793230056762695, 23.760480880737305, -10.637518882751465, 0.171875, -0.344970703125, -0.935302734375
291, 274432874, -5.1966753005981445, 2.7120323181152344, 8.059446334838867, 7.922143459320068, 34.764705657958984, -12.100691795349121, 0.178955078125, -0.346923828125, -0.933837890625
292, 274449541, -5.135285377502441, 2.6717944145202637, 8.202906608581543, 12.490224838256836, 48.40728759765625, -15.667057037353516, 0.1904296875, -0.34814453125, -0.927001953125
293, 274466208, -5.250370979309082, 2.465553045272827, 8.403485298156738, 15.134750366210938, 67.12255096435547, -18.71144676208496, 0.20703125, -0.35205078125, -0.92333984375
294, 274482875, -5.405121326446533, 2.893010139465332, 8.542574882507324, 19.555818557739258, 92.26301574707031, -24.966625213623047, 0.22998046875, -0.354248046875, -0.912109375
295, 274499542, -5.637876510620117, 3.539612054824829, 8.95666217803955, 24.657859802246094, 122.50186157226562, -39.600013732910156, 0.261962890625, -0.35693359375, -0.90234375
296, 274516209, -5.548656940460205, 5.155960559844971, 8.908514022827148, 33.74356460571289, 160.07533264160156, -66.33442687988281, 0.303955078125, -0.358642578125, -0.88037109375
297, 274532876, -5.784484386444092, 5.234671592712402, 8.984378814697266, 34.99542236328125, 207.9595947265625, -107.1922607421875, 0.358154296875, -0.355712890625, -0.850341796875
298, 274549543, -6.735039710998535, 4.966876983642578, 9.930130958557129, 33.13630294799805, 273.817626953125, -156.67636108398438, 0.430419921875, -0.343994140625, -0.81103515625
299, 274566210, -6.435675144195557, 4.698293209075928, 11.321226119995117, 38.91062545776367, 344.5193176269531, -200.4482421875, 0.519287109375, -0.32177734375, -0.751953125
300, 274582877, -8.519156455993652, 5.474526882171631, 10.771065711975098, 50.764713287353516, 394.67156982421875, -227.14437866210938, 0.611328125, -0.2841796875, -0.67333984375
301, 274599544, -17.46898078918457, 7.76949405670166, 14.875844955444336, 93.4615249633789, 407.6850891113281, -224.7864532470703, 0.69873046875, -0.24951171875, -0.576171875
302, 274616211, -20.53851318359375, 8.21910285949707, 16.23506736755371, 77.24951934814453, 371.5386657714844, -211.76495361328125, 0.768798828125, -0.203857421875, -0.47412109375
303, 274632878, -14.180828094482422, 7.305796146392822, 15.525507926940918, 69.25115203857422, 289.6910400390625, -185.42764282226562, 0.81396484375, -0.158935546875, -0.386962890625
304, 274649545, 2.071371555328369, 5.26314115524292, 12.257611274719238, 53.30954360961914, 245.0310516357422, -194.86712646484375, 0.84375, -0.11279296875, -0.311279296875
305, 274666212, -11.009910583496094, 11.891935348510742, 12.155008316040039, 51.14179611206055, 257.3319396972656, -141.39501953125, 0.867919921875, -0.0673828125, -0.237060546875
306, 274682879, -15.263195991516113, 14.9370698928833, 20.11707305908203, 38.03424835205078, 45.50273132324219, 0.7178879380226135, 0.87744140625, -0.061279296875, -0.20751953125
307, 274699546, -5.026412010192871, 11.364367485046387, 13.213756561279297, -28.988330841064453, -99.8621826171875, 97.57139587402344, 0.874755859375, -0.08447265625, -0.23046875
308, 274716213, 0.5481165051460266, 5.286769866943359, 7.072072982788086, -88.00123596191406, -137.4052276611328, 135.83180236816406, 0.859375, -0.118408203125, -0.2763671875
309, 274732880, 1.7764476537704468, 1.5716842412948608, 4.403130054473877, -109.94955444335938, -129.74745178222656, 145.6240997314453, 0.83447265625, -0.156005859375, -0.32470703125
310, 274749547, 0.7641124725341797, 0.1833241581916809, 4.091435432434082, -112.4121322631836, -118.18659210205078, 147.7875518798828, 0.80126953125, -0.191162109375, -0.364990234375
311, 274766214, -1.9138702154159546, 0.1425440013408661, 5.503994464874268, -110.52751922607422, -121.50398254394531, 144.0955810546875, 0.76318359375, -0.220703125, -0.40380859375
312, 274782881, -5.293941020965576, 0.7361589074134827, 7.368650436401367, -110.04508209228516, -151.91934204101562, 139.33267211914062, 0.71923828125, -0.2392578125, -0.443603515625
313, 274799548, -7.2856364250183105, 1.1911005973815918, 8.1480131149292, -110.20071411132812, -204.4075927734375, 138.1810302734375, 0.6640625, -0.254638671875, -0.485107421875
314, 274816215, -7.53262186050415, 1.2828266620635986, 7.362995147705078, -112.00801086425781, -249.26625061035156, 137.9663848876953, 0.6025390625, -0.2626953125, -0.52734375
315, 274832882, -7.574685096740723, 1.2236782312393188, 6.112461566925049, -109.61528778076172, -271.9596252441406, 131.9997100830078, 0.538330078125, -0.265380859375, -0.568603515625
316, 274849549, -8.503486633300781, 1.3136446475982666, 5.316149711608887, -101.8261489868164, -277.79925537109375, 120.16600799560547, 0.475830078125, -0.266845703125, -0.60400390625
317, 274866216, -9.145675659179688, 1.0213557481765747, 4.728609561920166, -83.75643920898438, -271.1676330566406, 103.94593811035156, 0.417724609375, -0.264404296875, -0.631103515625
318, 274882883, -9.927558898925781, 1.4076176881790161, 4.831434726715088, -58.23306655883789, -247.53118896484375, 79.76781463623047, 0.36865234375, -0.264892578125, -0.65283203125
319, 274899550, -11.9764986038208, 2.92045521736145, 6.851027488708496, -32.21067810058594, -221.1680908203125, 51.1134147644043, 0.330078125, -0.2646484375, -0.666259765625
320, 274916217, -16.211824417114258, 4.526272296905518, 8.807574272155762, -0.8321638107299805, -222.39739990234375, 31.902597427368164, 0.298095703125, -0.2705078125, -0.67919921875
321, 274932884, -18.1481876373291, 5.6827216148376465, 7.834450721740723, 33.8192024230957, -234.43466186523438, 31.575592041015625, 0.26513671875, -0.284912109375, -0.69873046875
322, 274949551, -19.743572235107422, 7.060516357421875, 6.258812427520752, 58.382503509521484, -230.2917938232422, 39.688690185546875, 0.224365234375, -0.309326171875, -0.722900390625
323, 274966218, -22.368810653686523, 8.845544815063477, 5.438653945922852, 58.5133171081543, -229.20053100585938, 53.32912826538086, 0.164306640625, -0.334716796875, -0.744140625
324, 274982885, -22.971925735473633, 8.57652759552002, 3.984095811843872, 44.34041213989258, -238.82174682617188, 75.4588623046875, 0.092041015625, -0.356201171875, -0.755615234375
325, 274999552, -20.324167251586914, 5.016377925872803, 1.3046866655349731, 41.985435485839844, -231.97576904296875, 98.11707305908203, 0.015625, -0.371826171875, -0.753662109375
326, 275016219, -18.8295955657959, -0.7649461627006531, -1.3210108280181885, 59.761287689208984, -199.4518280029297, 111.22134399414062, -0.052734375, -0.38525390625, -0.739013671875
327, 275032886, -20.82968521118164, -6.054920673370361, -4.273627281188965, 86.44503021240234, -161.71246337890625, 102.25921630859375, -0.105712890625, -0.40234375, -0.720703125
328, 275049553, -23.408782958984375, -6.25979471206665, -8.275716781616211, 75.62000274658203, -129.2001190185547, 50.33430480957031, -0.140625, -0.41650390625, -0.69677734375
329, 275066220, -17.794147491455078, -4.68779182434082, -9.358657836914062, 1.275668740272522, -48.5139274597168, -49.49640655517578, -0.15576171875, -0.4208984375, -0.68701171875
330, 275082887, -12.703290939331055, -4.145435810089111, -8.858307838439941, -45.57231903076172, 63.76995849609375, -133.3695831298828, -0.13671875, -0.4169921875, -0.68701171875
331, 275099554, -11.335261344909668, 1.7757543325424194, 2.5637452602386475, -61.546905517578125, 119.4754867553711, -126.54264068603516, -0.10205078125, -0.40869140625, -0.694580078125
332, 275116221, -7.387247562408447, 9.738131523132324, 13.528017044067383, -64.240966796875, 97.2196273803711, -57.62267303466797, -0.076171875, -0.396484375, -0.701171875
333, 275132888, -0.12607073783874512, 2.725083827972412, 6.524223804473877, -53.72819900512695, 100.38028717041016, -47.81650924682617, -0.0576171875, -0.384521484375, -0.70361328125
334, 275149555, -7.0329484939575195, -2.4738876819610596, 9.730144500732422, -50.56710433959961, 132.8914031982422, -66.77922821044922, -0.026123046875, -0.373779296875, -0.703857421875
335, 275166222, -12.804227828979492, -0.8377315402030945, 11.87071704864502, -19.812910079956055, 105.3116683959961, -59.2053108215332, 9.765625E-4, -0.366943359375, -0.703125
336, 275182889, -8.701011657714844, 3.689337968826294, 8.361910820007324, -13.445534706115723, 81.36580657958984, -52.86458206176758, 0.023681640625, -0.364501953125, -0.70361328125
337, 275199556, -15.180994033813477, 10.137054443359375, 11.927552223205566, -62.13533020019531, 39.43992614746094, -45.291683197021484, 0.037841796875, -0.3515625, -0.705322265625
338, 275216223, -6.29925537109375, -1.0191487073898315, 9.70669937133789, -32.18264389038086, 3.6226119995117188, -26.14323616027832, 0.042236328125, -0.34619140625, -0.707763671875
339, 275232890, -5.303753852844238, 4.09662389755249, 7.792089462280273, -22.117042541503906, -4.972308158874512, -14.328394889831543, 0.042724609375, -0.340087890625, -0.7109375
340, 275249557, -6.128917217254639, 2.210226535797119, 8.166502952575684, -18.912296295166016, -9.270769119262695, -14.442009925842285, 0.043212890625, -0.336181640625, -0.71044921875
341, 275266224, -5.465170860290527, 2.4014174938201904, 8.069180488586426, -17.241004943847656, -10.500420570373535, -12.928625106811523, 0.040771484375, -0.33203125, -0.71142578125
342, 275282891, -5.684243202209473, 2.156790018081665, 8.004962921142578, -12.755677223205566, -9.726805686950684, -10.324402809143066, 0.040771484375, -0.330078125, -0.711181640625
343, 275299558, -5.241335391998291, 2.32948899269104, 8.11164379119873, -8.554954528808594, -7.170638561248779, -7.800429821014404, 0.038818359375, -0.32861328125, -0.713134765625
344, 275316225, -5.487078666687012, 2.2617297172546387, 8.04791259765625, -5.523406505584717, -4.1912126541137695, -6.390614032745361, 0.038818359375, -0.3271484375, -0.715087890625
345, 275332892, -5.38663387298584, 2.4844627380371094, 8.059564590454102, -3.0532774925231934, -1.808397889137268, -5.337546348571777, 0.038330078125, -0.328125, -0.712158203125
346, 275349559, -5.450901985168457, 2.4827892780303955, 8.036524772644043, -1.7487456798553467, -0.01584145613014698, -5.034022808074951, 0.038330078125, -0.32763671875, -0.713623046875
347, 275366226, -5.395040988922119, 2.516148805618286, 7.970025539398193, -1.1363075971603394, 0.6624020934104919, -4.4701337814331055, 0.039794921875, -0.32763671875, -0.712646484375
348, 275382893, -5.308212757110596, 2.4440770149230957, 7.998652935028076, -0.2012517899274826, 1.2302868366241455, -4.009015083312988, 0.038818359375, -0.32763671875, -0.711181640625
349, 275399560, -5.2510881423950195, 2.348323345184326, 7.982117652893066, 1.2082855701446533, 2.3910415172576904, -3.4543845653533936, 0.038818359375, -0.32861328125, -0.711669921875
350, 275416227, -5.267405986785889, 2.517188549041748, 7.939383029937744, 2.288398504257202, 3.3992724418640137, -2.7579240798950195, 0.041748046875, -0.32958984375, -0.71044921875
351, 275432894, -5.305603981018066, 2.669264078140259, 7.846841335296631, 2.105933904647827, 3.2354156970977783, -3.0174193382263184, 0.044189453125, -0.33154296875, -0.71044921875
352, 275449561, -5.344184875488281, 2.534848928451538, 7.835185527801514, 2.0786945819854736, 2.3336434364318848, -2.781871795654297, 0.045654296875, -0.33154296875, -0.708984375
353, 275466228, -5.270256996154785, 2.5057284832000732, 7.840188026428223, 2.150883913040161, 1.892195701599121, -2.443105459213257, 0.046142578125, -0.33349609375, -0.706787109375
354, 275482895, -5.2769455909729, 2.5483667850494385, 7.821018695831299, 2.337024211883545, 1.942063570022583, -1.8246999979019165, 0.04736328125, -0.334228515625, -0.708251953125
355, 275499562, -5.277005672454834, 2.5617918968200684, 7.805326461791992, 2.7532565593719482, 1.7446027994155884, -1.467582106590271, 0.046875, -0.334716796875, -0.707275390625
356, 275516229, -5.260075092315674, 2.517193555831909, 7.843301296234131, 4.265481472015381, 2.626934766769409, -0.7863099575042725, 0.046630859375, -0.338623046875, -0.706787109375
357, 275532896, -5.266120433807373, 2.523037910461426, 7.80653190612793, 4.579045295715332, 2.3659415245056152, -0.37317708134651184, 0.046875, -0.339111328125, -0.707763671875
358, 275549563, -5.245518684387207, 2.6699812412261963, 7.80564546585083, 5.338819980621338, 2.6210052967071533, 0.2643550932407379, 0.04833984375, -0.338623046875, -0.70556640625
359, 275566230, -5.214208126068115, 2.714426040649414, 7.843491077423096, 5.209565162658691, 2.5806522369384766, -0.7151705622673035, 0.04931640625, -0.341552734375, -0.70556640625
360, 275582897, -5.264235496520996, 2.746943950653076, 7.840637683868408, 5.769626617431641, 3.3344345092773438, -1.4286638498306274, 0.05078125, -0.34326171875, -0.7041015625
361, 275599564, -5.165960788726807, 2.814861297607422, 7.832667827606201, 6.182426929473877, 4.00806188583374, -2.5139129161834717, 0.04931640625, -0.345703125, -0.703857421875
362, 275616231, -5.1189751625061035, 3.032379388809204, 7.808456897735596, 5.722947120666504, 5.542173385620117, -3.773404121398926, 0.05126953125, -0.34619140625, -0.704345703125
363, 275632898, -5.07149600982666, 3.0656418800354004, 7.894766807556152, 4.553280353546143, 8.188403129577637, -6.567713737487793, 0.0537109375, -0.34765625, -0.69970703125
364, 275649565, -5.174807548522949, 2.923837184906006, 7.8997907638549805, 4.893214225769043, 12.792202949523926, -8.756464958190918, 0.05615234375, -0.34814453125, -0.697265625
365, 275666232, -5.310111045837402, 2.9611129760742188, 7.726783752441406, 4.972811222076416, 19.13434410095215, -11.114920616149902, 0.062255859375, -0.35009765625, -0.697998046875
366, 275682899, -4.949525356292725, 2.75932240486145, 8.483280181884766, 4.359405040740967, 28.222427368164062, -12.039520263671875, 0.06640625, -0.352783203125, -0.6962890625
367, 275699566, -4.857867240905762, 2.7931649684906006, 8.489958763122559, 8.675834655761719, 42.38190841674805, -14.631606101989746, 0.077392578125, -0.351806640625, -0.695556640625
368, 275716233, -5.006436824798584, 2.6424756050109863, 8.547720909118652, 19.379179000854492, 60.771827697753906, -19.382099151611328, 0.087890625, -0.3564453125, -0.68896484375
369, 275732900, -5.08497428894043, 2.668684244155884, 8.541473388671875, 30.772031784057617, 82.90938568115234, -22.797147750854492, 0.10791015625, -0.361572265625, -0.683837890625
370, 275749567, -5.36478328704834, 3.027132034301758, 8.491002082824707, 40.97400665283203, 109.24608612060547, -26.804645538330078, 0.13037109375, -0.369140625, -0.67333984375
371, 275766234, -5.231864929199219, 3.13688063621521, 9.008264541625977, 50.58877182006836, 142.6967010498047, -35.000816345214844, 0.160400390625, -0.377197265625, -0.66015625
372, 275782901, -5.013018608093262, 3.387066125869751, 8.553468704223633, 59.20016860961914, 184.62644958496094, -47.893917083740234, 0.197021484375, -0.384033203125, -0.642333984375
373, 275799568, -5.567180633544922, 3.8461952209472656, 8.781671524047852, 65.00567626953125, 238.2811737060547, -66.88238525390625, 0.244140625, -0.39111328125, -0.617431640625
374, 275816235, -6.037045955657959, 4.031160354614258, 8.745746612548828, 53.70004653930664, 298.96905517578125, -97.4195785522461, 0.302490234375, -0.389892578125, -0.582275390625
375, 275832902, -6.994743347167969, 5.175876617431641, 10.183297157287598, 44.23043441772461, 362.29595947265625, -131.50428771972656, 0.37548828125, -0.384521484375, -0.5380859375
376, 275849569, -10.27114486694336, 7.037557601928711, 10.547236442565918, 46.12907028198242, 418.6680603027344, -169.64202880859375, 0.45263671875, -0.3662109375, -0.472412109375
377, 275866236, -19.292055130004883, 9.40050983428955, 12.690556526184082, 44.086883544921875, 400.3825378417969, -176.69915771484375, 0.526611328125, -0.34423828125, -0.402099609375
378, 275882903, -20.00960350036621, 8.776785850524902, 13.343648910522461, 34.888423919677734, 341.226806640625, -167.2139892578125, 0.583740234375, -0.3115234375, -0.334716796875
379, 275899570, -13.667949676513672, 7.971826553344727, 12.90339469909668, 23.48726463317871, 276.7033996582031, -153.54824829101562, 0.627685546875, -0.2783203125, -0.26904296875
380, 275916237, -1.644816279411316, 6.813868522644043, 11.218947410583496, -21.20907211303711, 243.45201110839844, -170.4545135498047, 0.66259765625, -0.23486328125, -0.20849609375
381, 275932904, -1.8125226497650146, 0.9974269866943359, 6.096122741699219, -25.15380096435547, 274.8719177246094, -191.7849578857422, 0.6923828125, -0.185546875, -0.147705078125
382, 275949571, -19.208757400512695, 6.554633617401123, 20.439964294433594, 49.85676193237305, 129.15231323242188, -109.35066223144531, 0.709716796875, -0.147216796875, -0.086181640625
383, 275966238, -11.248772621154785, 11.240250587463379, 17.594493865966797, 50.28603744506836, -90.0465087890625, -20.666372299194336, 0.717529296875, -0.12451171875, -0.076171875
384, 275982905, -1.5898882150650024, 9.62585163116455, 9.538138389587402, -28.727109909057617, -182.47665405273438, 9.335770606994629, 0.7255859375, -0.106201171875, -0.08935546875
385, 275999572, 1.3743902444839478, 4.9654645919799805, 5.190221786499023, -89.19784545898438, -193.49264526367188, 13.48556137084961, 0.74853515625, -0.08349609375, -0.114013671875
386, 276016239, 1.4474138021469116, 2.170794725418091, 3.5927789211273193, -86.8720703125, -183.8806610107422, 38.944087982177734, 0.7783203125, -0.06884765625, -0.147216796875
387, 276032906, -0.036541007459163666, 2.5711989402770996, 3.993642568588257, -58.798728942871094, -172.5935821533203, 77.33161926269531, 0.81201171875, -0.06787109375, -0.19580078125
388, 276049573, -2.890789270401001, 4.93961238861084, 5.5347900390625, -55.032920837402344, -175.99270629882812, 106.00325012207031, 0.844970703125, -0.07958984375, -0.264892578125
389, 276066240, -5.5418877601623535, 6.052279472351074, 6.8761115074157715, -79.90495300292969, -199.76754760742188, 127.535400390625, 0.855712890625, -0.103759765625, -0.359619140625
390, 276082907, -6.891643047332764, 5.1175055503845215, 7.051215171813965, -106.29354858398438, -231.308837890625, 147.05581665039062, 0.827880859375, -0.1318359375, -0.46923828125
391, 276099574, -7.30289363861084, 3.90561580657959, 6.698216915130615, -115.62841033935547, -255.39016723632812, 156.22262573242188, 0.76416015625, -0.148681640625, -0.576171875
392, 276116241, -8.337014198303223, 2.8820810317993164, 6.731773376464844, -110.89122772216797, -270.12762451171875, 154.05421447753906, 0.6787109375, -0.150146484375, -0.662109375
393, 276132908, -9.149336814880371, 1.7788125276565552, 6.984642028808594, -91.18389129638672, -281.5673522949219, 143.1973114013672, 0.59326171875, -0.150390625, -0.72705078125
394, 276149575, -9.079461097717285, 0.6240752935409546, 6.619496822357178, -57.2537956237793, -284.1093444824219, 122.61292266845703, 0.50927734375, -0.149658203125, -0.777587890625
395, 276166242, -8.923409461975098, 0.07910851389169693, 6.372471809387207, -13.789127349853516, -263.2626953125, 91.54666900634766, 0.434326171875, -0.15185546875, -0.82177734375
396, 276182909, -11.899402618408203, 1.8370839357376099, 8.956682205200195, 26.089250564575195, -234.36758422851562, 58.12406539916992, 0.353759765625, -0.16259765625, -0.85400390625
397, 276199576, -16.018918991088867, 4.466416358947754, 11.437013626098633, 52.90656661987305, -236.5516357421875, 39.588523864746094, 0.272216796875, -0.174072265625, -0.867919921875
398, 276216243, -17.310720443725586, 5.853814125061035, 10.809161186218262, 65.16605377197266, -245.1644744873047, 34.582984924316406, 0.190673828125, -0.1875, -0.8681640625
399, 276232910, -18.05746078491211, 6.21959114074707, 8.126279830932617, 73.77938079833984, -232.0181884765625, 37.817569732666016, 0.123779296875, -0.210693359375, -0.861328125
400, 276249577, -20.52146339416504, 7.032307147979736, 5.911116600036621, 82.61914825439453, -208.72323608398438, 46.84585189819336, 0.064697265625, -0.2412109375, -0.854736328125
401, 276266244, -24.428157806396484, 7.076137065887451, 4.580644130706787, 87.5599136352539, -200.93601989746094, 67.96538543701172, 0.00390625, -0.27490234375, -0.848876953125
402, 276282911, -25.363367080688477, 3.8835299015045166, 1.6447677612304688, 87.16046142578125, -212.24526977539062, 96.92276763916016, -0.05712890625, -0.300048828125, -0.834716796875
403, 276299578, -27.321224212646484, -5.166324138641357, -4.0328168869018555, 92.31814575195312, -210.5930938720703, 117.51545715332031, -0.118408203125, -0.328125, -0.820556640625
404, 276316245, -28.1885986328125, -9.057289123535156, -11.898783683776855, 101.05665588378906, -165.7716827392578, 120.2057876586914, -0.173583984375, -0.35205078125, -0.794189453125
405, 276332912, -14.462404251098633, -9.330531120300293, -17.367233276367188, -0.8134739398956299, -24.620351791381836, -6.50147819519043, -0.195068359375, -0.35595703125, -0.78515625
406, 276349579, -14.365910530090332, -5.702683925628662, -9.06266975402832, -68.47944641113281, 94.77613830566406, -150.7564239501953, -0.16650390625, -0.34814453125, -0.7919921875
407, 276366246, -14.74940013885498, 2.4480817317962646, 4.612802505493164, -82.57811737060547, 118.39817810058594, -179.57064819335938, -0.125244140625, -0.33251953125, -0.80322265625
408, 276382913, -9.219292640686035, 9.7656888961792, 13.625232696533203, -86.77788543701172, 78.92981719970703, -112.13717651367188, -0.093017578125, -0.312255859375, -0.8115234375
409, 276399580, 2.133310556411743, 4.631772518157959, 4.795567512512207, -58.66301345825195, 94.50725555419922, -60.52184295654297, -0.0712890625, -0.291259765625, -0.8193359375
410, 276416247, -3.996175765991211, -0.3289414942264557, 8.144479751586914, -50.028682708740234, 150.59417724609375, -56.553646087646484, -0.0380859375, -0.279052734375, -0.823486328125
411, 276432914, -14.941646575927734, -2.883193254470825, 13.076115608215332, -23.951059341430664, 126.90338897705078, -53.115257263183594, -9.765625E-4, -0.267822265625, -0.822998046875
412, 276449581, -12.367587089538574, 2.729252815246582, 11.795119285583496, -10.253117561340332, 77.51885986328125, -54.51833724975586, 0.02197265625, -0.260498046875, -0.82275390625
413, 276466248, -13.131704330444336, 9.734053611755371, 8.463411331176758, -48.991947174072266, 20.790895462036133, -34.33383560180664, 0.0341796875, -0.25, -0.8251953125
414, 276482915, -6.754350662231445, -0.5211119055747986, 10.183394432067871, -24.978544235229492, 7.429868698120117, -20.01572036743164, 0.0400390625, -0.242431640625, -0.8271484375
415, 276499582, -5.5719404220581055, 3.4455394744873047, 7.828027725219727, -16.013912200927734, 0.47308626770973206, -10.399869918823242, 0.041015625, -0.237548828125, -0.8271484375
416, 276516249, -5.681132793426514, 3.247710943222046, 7.715356826782227, -14.155451774597168, -4.7587432861328125, -10.748433113098145, 0.03955078125, -0.2353515625, -0.830810546875
417, 276532916, -5.668040752410889, 2.01694917678833, 8.07535171508789, -13.344874382019043, -7.352403163909912, -10.381864547729492, 0.03955078125, -0.23193359375, -0.828857421875
418, 276549583, -5.444668769836426, 2.0827443599700928, 8.036617279052734, -6.3979644775390625, -4.793188095092773, -5.631248474121094, 0.0390625, -0.228515625, -0.830810546875
419, 276566250, -5.627988338470459, 2.4041244983673096, 8.012589454650879, -0.06702843308448792, 0.22019879519939423, -2.329782485961914, 0.03955078125, -0.22802734375, -0.829345703125
420, 276582917, -5.564753532409668, 2.5709903240203857, 7.902143955230713, 4.750612258911133, 4.779297828674316, -0.43303394317626953, 0.03857421875, -0.22998046875, -0.830322265625
421, 276599584, -5.412134170532227, 2.7859020233154297, 7.84494161605835, 6.954074859619141, 6.763913154602051, -0.5653493404388428, 0.041259765625, -0.234375, -0.828125
422, 276616251, -5.286639213562012, 2.8633315563201904, 7.845879077911377, 8.324085235595703, 8.068344116210938, -1.761322021484375, 0.042724609375, -0.2333984375, -0.82861328125
423, 276632918, -5.370821952819824, 3.047630786895752, 7.85055685043335, 8.448104858398438, 10.180715560913086, -2.9602408409118652, 0.044677734375, -0.236328125, -0.823486328125
424, 276649585, -5.705441474914551, 2.7188289165496826, 7.798751354217529, 9.427433967590332, 12.065505027770996, -2.4739582538604736, 0.048583984375, -0.239501953125, -0.823486328125
425, 276666252, -5.709585189819336, 2.8107149600982666, 7.750010967254639, 10.358942985534668, 12.934686660766602, -1.1043308973312378, 0.05224609375, -0.24365234375, -0.8232421875
426, 276682919, -5.652406692504883, 2.9325833320617676, 7.696890354156494, 11.799776077270508, 13.063891410827637, -1.0002920627593994, 0.05419921875, -0.24609375, -0.823486328125
427, 276699586, -5.563549995422363, 2.990288257598877, 7.692863464355469, 12.221505165100098, 13.773903846740723, -1.4900461435317993, 0.05712890625, -0.2490234375, -0.81884765625
428, 276716253, -5.676516056060791, 2.9639294147491455, 7.570244789123535, 11.747681617736816, 14.033770561218262, -1.6955498456954956, 0.062255859375, -0.254150390625, -0.818115234375
429, 276732920, -5.722987651824951, 2.9962990283966064, 7.44853401184082, 11.144627571105957, 13.249123573303223, -1.6312617063522339, 0.065673828125, -0.253662109375, -0.815673828125
430, 276749587, -5.804022789001465, 3.015744209289551, 7.354923725128174, 10.284832000732422, 11.5559663772583, -1.7031947374343872, 0.072265625, -0.26025390625, -0.813232421875
431, 276766254, -5.7098069190979, 3.1769306659698486, 7.295941352844238, 8.8054780960083, 8.995908737182617, -2.741379976272583, 0.07275390625, -0.26318359375, -0.813720703125
432, 276782921, -5.636639595031738, 3.2371749877929688, 7.303493499755859, 7.474537372589111, 6.33814001083374, -5.300690650939941, 0.07421875, -0.2646484375, -0.813720703125
433, 276799588, -5.685118198394775, 3.2940776348114014, 7.295797348022461, 6.283290386199951, 3.633169412612915, -8.048474311828613, 0.07568359375, -0.267333984375, -0.8115234375
434, 276816255, -5.796929359436035, 3.2307517528533936, 7.215048313140869, 2.8995444774627686, 0.47407200932502747, -9.001497268676758, 0.07470703125, -0.267822265625, -0.8125
435, 276832922, -5.8372602462768555, 3.124323606491089, 7.184711933135986, -2.3173224925994873, -3.9707894325256348, -8.862649917602539, 0.07666015625, -0.265625, -0.8125
436, 276849589, -5.770795822143555, 3.1571621894836426, 7.225661277770996, -6.366231918334961, -7.607283592224121, -8.950758934020996, 0.077392578125, -0.266845703125, -0.8134765625
437, 276866256, -5.67777681350708, 3.16701078414917, 7.328794479370117, -9.118891716003418, -10.373800277709961, -10.000711441040039, 0.076171875, -0.266845703125, -0.81396484375
438, 276882923, -5.661386966705322, 2.9877419471740723, 7.419346332550049, -9.457574844360352, -10.838140487670898, -9.616719245910645, 0.0732421875, -0.2626953125, -0.815185546875
439, 276899590, -5.548576354980469, 2.8909482955932617, 7.532270908355713, -8.509941101074219, -9.115744590759277, -8.747306823730469, 0.07421875, -0.25927734375, -0.814697265625
440, 276916257, -5.41796875, 2.9927375316619873, 7.6509175300598145, -7.5487446784973145, -4.886175632476807, -8.92359733581543, 0.06884765625, -0.259765625, -0.81494140625
441, 276932924, -5.330999374389648, 3.0721004009246826, 7.771109580993652, -4.564376354217529, 1.45468008518219, -10.050374984741211, 0.07080078125, -0.257568359375, -0.81591796875
442, 276949591, -5.1136698722839355, 3.002239465713501, 8.098461151123047, -4.110828876495361, 11.249138832092285, -10.958850860595703, 0.07470703125, -0.25830078125, -0.815673828125
443, 276966258, -5.056173324584961, 2.8145251274108887, 8.116202354431152, 0.9025108814239502, 25.632577896118164, -12.479670524597168, 0.080810546875, -0.25830078125, -0.81494140625
444, 276982925, -5.017673492431641, 2.9232470989227295, 8.358590126037598, 7.6825456619262695, 44.17952346801758, -15.642541885375977, 0.091796875, -0.2587890625, -0.813232421875
445, 276999592, -5.1166205406188965, 3.0095884799957275, 8.279500007629395, 18.091886520385742, 65.9947509765625, -20.010793685913086, 0.103759765625, -0.262451171875, -0.80908203125
446, 277016259, -5.205472946166992, 3.3699023723602295, 8.422821998596191, 29.611534118652344, 90.05664825439453, -28.383054733276367, 0.12939453125, -0.26806640625, -0.8017578125
447, 277032926, -5.318326950073242, 3.829024076461792, 8.530162811279297, 40.721275329589844, 121.47591400146484, -40.9393196105957, 0.157470703125, -0.277099609375, -0.793701171875
448, 277049593, -5.068371295928955, 3.9308907985687256, 9.207686424255371, 47.37218475341797, 161.0331573486328, -59.3242301940918, 0.194091796875, -0.283935546875, -0.7783203125
449, 277066260, -5.677123069763184, 3.687673330307007, 8.52263069152832, 56.00664138793945, 214.69491577148438, -77.37702178955078, 0.24609375, -0.292236328125, -0.75634765625
450, 277082927, -5.793426990509033, 3.8074910640716553, 8.763447761535645, 54.244415283203125, 274.5154724121094, -106.15829467773438, 0.309326171875, -0.294921875, -0.72705078125
451, 277099594, -7.374772548675537, 4.696795463562012, 9.595935821533203, 50.62332534790039, 339.01434326171875, -138.02935791015625, 0.38720703125, -0.289794921875, -0.687255859375
452, 277116261, -8.067075729370117, 5.864253520965576, 9.187134742736816, 48.75888442993164, 385.6282653808594, -170.42279052734375, 0.47216796875, -0.27685546875, -0.630126953125
453, 277132928, -17.267799377441406, 7.915931224822998, 11.407137870788574, 66.96521759033203, 391.72003173828125, -177.1342315673828, 0.55419921875, -0.260009765625, -0.55908203125
454, 277149595, -20.27256965637207, 7.935876846313477, 12.30029582977295, 57.20965576171875, 328.2779235839844, -163.11746215820312, 0.624755859375, -0.242919921875, -0.485595703125
455, 277166262, -15.485146522521973, 7.667015552520752, 12.18971061706543, 53.1478157043457, 257.0918884277344, -146.25628662109375, 0.67333984375, -0.222900390625, -0.421142578125
456, 277182929, -6.2495341300964355, 5.71287202835083, 10.993141174316406, 42.35606002807617, 210.3258056640625, -149.04798889160156, 0.709228515625, -0.19970703125, -0.3642578125
457, 277199596, 2.6527695655822754, 3.047351598739624, 6.9222869873046875, 30.70157814025879, 210.1439971923828, -164.35455322265625, 0.73828125, -0.16943359375, -0.309814453125
458, 277216263, -17.714473724365234, 9.69775104522705, 20.233619689941406, 69.1023178100586, 100.28553771972656, -98.30888366699219, 0.753662109375, -0.1474609375, -0.26220703125
459, 277232930, -9.443290710449219, 11.625741958618164, 16.540342330932617, 43.397605895996094, -99.91876220703125, -16.39459800720215, 0.748779296875, -0.14404296875, -0.2626953125
460, 277249597, 0.026203691959381104, 9.30647087097168, 8.781661033630371, -23.984874725341797, -171.59188842773438, 18.619983673095703, 0.732421875, -0.142578125, -0.283935546875
461, 277266264, 2.0719563961029053, 6.001995086669922, 4.846299171447754, -78.85623168945312, -164.69081115722656, 28.77172088623047, 0.715087890625, -0.14111328125, -0.305419921875
462, 277282931, 1.1095865964889526, 3.8261680603027344, 3.817814826965332, -91.11888122558594, -145.38706970214844, 50.53017044067383, 0.70068359375, -0.14208984375, -0.326904296875
463, 277299598, -1.0650132894515991, 3.838740587234497, 4.589444160461426, -79.53174591064453, -137.86231994628906, 87.57520294189453, 0.686767578125, -0.14404296875, -0.344970703125
464, 277316265, -3.4560258388519287, 4.941854476928711, 5.596553802490234, -79.85673522949219, -144.544189453125, 120.62383270263672, 0.6728515625, -0.15966796875, -0.361572265625
465, 277332932, -5.5101728439331055, 5.260679721832275, 6.236328601837158, -97.56771087646484, -165.2928466796875, 139.7640838623047, 0.6611328125, -0.17529296875, -0.38330078125
466, 277349599, -6.925135612487793, 4.7234649658203125, 6.415933132171631, -117.08087921142578, -189.8846893310547, 149.62171936035156, 0.6474609375, -0.196044921875, -0.40771484375
467, 277366266, -8.03286361694336, 3.8024983406066895, 6.447200298309326, -123.80555725097656, -212.65606689453125, 154.61959838867188, 0.63623046875, -0.215576171875, -0.444091796875
468, 277382933, -8.590596199035645, 3.0170035362243652, 6.147787094116211, -116.65226745605469, -231.14797973632812, 154.71426391601562, 0.615234375, -0.242431640625, -0.50048828125
469, 277399600, -8.547689437866211, 2.7114222049713135, 5.603418350219727, -102.79901885986328, -238.4115753173828, 146.46701049804688, 0.577880859375, -0.267822265625, -0.564453125
470, 277416267, -8.565898895263672, 2.898632049560547, 5.425167560577393, -89.36919403076172, -230.265380859375, 130.04884338378906, 0.5244140625, -0.283203125, -0.62841796875
471, 277432934, -9.138358116149902, 3.6565380096435547, 5.862760066986084, -79.61075592041016, -210.68582153320312, 111.75779724121094, 0.461181640625, -0.292724609375, -0.679443359375
472, 277449601, -10.61221981048584, 4.809330940246582, 6.89905309677124, -71.19622039794922, -191.36846923828125, 100.02374267578125, 0.397705078125, -0.291015625, -0.712646484375
473, 277466268, -12.360170364379883, 6.10426664352417, 7.5494489669799805, -59.0710334777832, -180.82754516601562, 101.5698013305664, 0.33447265625, -0.2890625, -0.724853515625
474, 277482935, -13.901528358459473, 7.77759313583374, 7.280020236968994, -53.44435501098633, -171.74288940429688, 115.83026885986328, 0.283447265625, -0.28857421875, -0.722412109375
475, 277499602, -14.953254699707031, 9.563502311706543, 5.6096320152282715, -71.00641632080078, -157.00933837890625, 132.79844665527344, 0.247802734375, -0.288330078125, -0.71533203125
476, 277516269, -15.016549110412598, 9.697046279907227, 2.4831061363220215, -103.25315856933594, -126.25824737548828, 142.37318420410156, 0.2255859375, -0.28564453125, -0.7197265625
477, 277532936, -16.645099639892578, 8.829835891723633, 0.3322414755821228, -119.16942596435547, -85.70635223388672, 148.1861572265625, 0.213134765625, -0.28369140625, -0.730712890625
478, 277549603, -18.328502655029297, 7.613381385803223, -0.4731607139110565, -105.94731140136719, -57.36488723754883, 160.6649169921875, 0.203857421875, -0.28076171875, -0.74560546875
479, 277566270, -17.643779754638672, 6.194513320922852, -2.0697576999664307, -83.07131958007812, -40.976844787597656, 172.69129943847656, 0.19140625, -0.28369140625, -0.76513671875
480, 277582937, -16.590744018554688, 3.5710387229919434, -4.817421913146973, -56.802825927734375, -8.690762519836426, 180.84059143066406, 0.1806640625, -0.289794921875, -0.7822265625
481, 277599604, -17.834856033325195, 1.9039381742477417, -5.54612922668457, -37.37122344970703, 30.465957641601562, 170.85012817382812, 0.171630859375, -0.296875, -0.7978515625
482, 277616271, -19.957544326782227, 0.8398334980010986, -4.500428676605225, -27.017086029052734, 42.83795166015625, 142.19065856933594, 0.169921875, -0.299560546875, -0.80859375
483, 277632938, -17.33245849609375, 1.1889607906341553, -3.527820110321045, -23.543916702270508, 40.850406646728516, 105.3953628540039, 0.1708984375, -0.30615234375, -0.818603515625
484, 277649605, -15.59251594543457, 0.22063465416431427, -2.3315627574920654, -6.788661479949951, 54.82925033569336, 71.18291473388672, 0.176513671875, -0.31005859375, -0.824462890625
485, 277666272, -10.59216022491455, -1.72404146194458, -5.953090667724609, 74.52403259277344, 95.03368377685547, 36.18143081665039, 0.191650390625, -0.328369140625, -0.822021484375
486, 277682939, -7.405735015869141, 8.839561462402344, 0.8649396896362305, 66.334716796875, 130.6900634765625, -32.488712310791016, 0.228515625, -0.354736328125, -0.8095703125
487, 277699606, -22.189964294433594, 22.09187889099121, 13.277617454528809, -74.695556640625, 60.01763916015625, -86.7807846069336, 0.261962890625, -0.33984375, -0.812744140625
488, 277716273, -8.304043769836426, -1.566835880279541, 9.78128719329834, -68.7910385131836, 12.167943954467773, -60.72720718383789, 0.2724609375, -0.31982421875, -0.814208984375
489, 277732940, -5.8145246505737305, -0.9387813806533813, 9.915132522583008, -31.57415771484375, 5.7335686683654785, -34.439231872558594, 0.279052734375, -0.307861328125, -0.817626953125
490, 277749607, -7.701627731323242, 2.0612828731536865, 7.96053409576416, -17.453519821166992, 3.4635684490203857, -17.95465850830078, 0.283203125, -0.302978515625, -0.818603515625
491, 277766274, -5.446215629577637, 2.4707489013671875, 8.126875877380371, -6.765661239624023, -1.282594919204712, -7.344533920288086, 0.2841796875, -0.30126953125, -0.82177734375
492, 277782941, -5.536353588104248, 3.658461332321167, 7.445776462554932, -0.7320622205734253, 1.905745267868042, -4.1019511222839355, 0.28564453125, -0.30126953125, -0.820556640625
493, 277799608, -5.6324896812438965, 3.7851078510284424, 7.327535629272461, -0.382909893989563, 3.2998828887939453, -3.2275590896606445, 0.28564453125, -0.30078125, -0.818603515625
494, 277816275, -5.786574363708496, 3.873931884765625, 7.232748508453369, -3.3674938678741455, 0.656165361404419, -3.8623695373535156, 0.28857421875, -0.301025390625, -0.822998046875
495, 277832942, -5.422970294952393, 3.77305269241333, 7.398543357849121, -8.414863586425781, -2.09631085395813, -6.648880481719971, 0.289794921875, -0.30029296875, -0.822509765625
496, 277849609, -5.416006565093994, 3.0190634727478027, 7.778781890869141, -8.618370056152344, -2.1313493251800537, -7.409937381744385, 0.28857421875, -0.298828125, -0.821533203125
497, 277866276, -5.757290363311768, 2.8854100704193115, 7.6463236808776855, -4.479392051696777, 0.7633160948753357, -3.6979618072509766, 0.28857421875, -0.29833984375, -0.821533203125
498, 277882943, -5.513824462890625, 3.3664755821228027, 7.531783103942871, -3.425121784210205, 2.045321226119995, -3.7684221267700195, 0.290283203125, -0.29931640625, -0.822998046875
499, 277899610, -5.588862419128418, 3.402686357498169, 7.489531993865967, -3.6165006160736084, 2.4490673542022705, -5.085875988006592, 0.292236328125, -0.29833984375, -0.821044921875
500, 277916277, -5.562789440155029, 3.331679105758667, 7.4560441970825195, -4.83128547668457, 1.760892391204834, -6.193727493286133, 0.296142578125, -0.2958984375, -0.82177734375
501, 277932944, -5.625679016113281, 3.058079719543457, 7.492160797119141, -3.949223518371582, 1.4077832698822021, -5.616905212402344, 0.292724609375, -0.29736328125, -0.819580078125
502, 277949611, -5.501500606536865, 2.993751049041748, 7.593619346618652, -2.9382126331329346, 1.85660719871521, -5.461895942687988, 0.294677734375, -0.2958984375, -0.8193359375
503, 277966278, -5.496290683746338, 2.972764730453491, 7.669565200805664, -0.5149433612823486, 4.11414909362793, -4.434173583984375, 0.295166015625, -0.29833984375, -0.82080078125
504, 277982945, -5.5770182609558105, 3.280816078186035, 7.463100433349609, 0.11755592375993729, 5.39548921585083, -4.444816589355469, 0.298095703125, -0.29638671875, -0.82080078125
505, 277999612, -5.568900108337402, 3.336347818374634, 7.371892929077148, -0.660026490688324, 4.54240608215332, -5.666412830352783, 0.30126953125, -0.29541015625, -0.8203125
506, 278016279, -5.6146368980407715, 3.2430636882781982, 7.385690689086914, -3.2787716388702393, 2.6021032333374023, -6.725024223327637, 0.3017578125, -0.29541015625, -0.82080078125
507, 278032946, -5.622138500213623, 3.193338632583618, 7.4511003494262695, -6.556634902954102, 1.0258080959320068, -7.430604934692383, 0.30224609375, -0.2958984375, -0.820068359375
508, 278049613, -5.648073673248291, 3.0979530811309814, 7.41689395904541, -8.595305442810059, 0.1597144603729248, -7.179165840148926, 0.30126953125, -0.2919921875, -0.8193359375
509, 278066280, -5.640716075897217, 3.1807475090026855, 7.444154739379883, -9.074020385742188, 0.18763233721256256, -7.627798080444336, 0.30615234375, -0.29150390625, -0.820556640625
510, 278082947, -5.639639854431152, 2.997011423110962, 7.531265735626221, -9.41625690460205, 0.3436777591705322, -8.745601654052734, 0.30615234375, -0.28857421875, -0.82080078125
511, 278099614, -5.581073760986328, 3.1012699604034424, 7.540097236633301, -9.346296310424805, 1.2214765548706055, -8.990266799926758, 0.3056640625, -0.285888671875, -0.8203125
512, 278116281, -5.700828552246094, 3.0410022735595703, 7.485382556915283, -10.073813438415527, 1.3500525951385498, -9.553313255310059, 0.3076171875, -0.282470703125, -0.81982421875
513, 278132948, -5.641458034515381, 3.108588933944702, 7.404561519622803, -11.143095016479492, 0.49562525749206543, -9.26705265045166, 0.310302734375, -0.280517578125, -0.82177734375
514, 278149615, -5.680728435516357, 3.072028398513794, 7.497843265533447, -12.755928993225098, -0.8317219018936157, -10.006134986877441, 0.309814453125, -0.279052734375, -0.8232421875
515, 278166282, -5.709164619445801, 3.0077474117279053, 7.563140869140625, -15.377320289611816, -2.334920883178711, -9.642515182495117, 0.309326171875, -0.275390625, -0.8232421875
516, 278182949, -5.770877361297607, 2.6688544750213623, 7.502205848693848, -21.146520614624023, -2.2367610931396484, -7.089658260345459, 0.310791015625, -0.26953125, -0.826904296875
517, 278199616, -5.782244682312012, 2.8399503231048584, 7.461158275604248, -20.936891555786133, -2.4569404125213623, -6.735164642333984, 0.311279296875, -0.266845703125, -0.826904296875
518, 278216283, -5.689304828643799, 2.9047582149505615, 7.558722019195557, -19.253108978271484, -1.8369966745376587, -7.20538854598999, 0.309814453125, -0.260498046875, -0.830078125
519, 278232950, -5.685042858123779, 2.7257072925567627, 7.624965190887451, -17.043352127075195, 0.287406861782074, -7.545178413391113, 0.3095703125, -0.25732421875, -0.828125
520, 278249617, -5.641221523284912, 2.4916300773620605, 7.684549331665039, -15.504022598266602, 3.5846610069274902, -7.090959548950195, 0.312744140625, -0.2548828125, -0.830078125
521, 278266284, -5.6515421867370605, 2.354262351989746, 7.715798854827881, -12.615225791931152, 7.336552143096924, -5.740323066711426, 0.313720703125, -0.25048828125, -0.83056640625
522, 278282951, -5.685460090637207, 2.393200635910034, 7.676889896392822, -11.606789588928223, 10.0610933303833, -4.26975679397583, 0.315673828125, -0.248046875, -0.82958984375
523, 278299618, -5.745849609375, 2.8429527282714844, 7.565328121185303, -11.419639587402344, 12.51634407043457, -3.2206597328186035, 0.3203125, -0.245361328125, -0.830078125
524, 278316285, -5.819858074188232, 3.0986385345458984, 7.4468512535095215, -10.13850212097168, 13.283303260803223, -6.718730449676514, 0.32373046875, -0.242919921875, -0.829833984375
525, 278332952, -5.797086238861084, 2.9904439449310303, 7.414536952972412, -8.928112030029297, 13.71826171875, -10.830177307128906, 0.326171875, -0.240966796875, -0.829345703125
526, 278349619, -5.762832164764404, 2.900941848754883, 7.625683784484863, -8.103116035461426, 15.470378875732422, -13.504997253417969, 0.331298828125, -0.237548828125, -0.8271484375
527, 278366286, -5.777572154998779, 2.702958583831787, 7.825204849243164, -8.846531867980957, 18.837947845458984, -16.15909194946289, 0.337890625, -0.236083984375, -0.8271484375
528, 278382953, -5.873874664306641, 2.52998948097229, 7.9303059577941895, -9.497847557067871, 23.884979248046875, -16.691070556640625, 0.34326171875, -0.23095703125, -0.823974609375
529, 278399620, -5.886865615844727, 2.641402006149292, 8.083621978759766, -11.735424041748047, 32.46889114379883, -21.59907341003418, 0.351806640625, -0.2265625, -0.8212890625
530, 278416287, -5.961131572723389, 2.8436200618743896, 8.289368629455566, -10.914206504821777, 45.404701232910156, -25.736923217773438, 0.36328125, -0.22119140625, -0.81591796875
531, 278432954, -5.640658855438232, 3.685438871383667, 8.528707504272461, -16.192968368530273, 57.974754333496094, -34.987693786621094, 0.376220703125, -0.215087890625, -0.8125
532, 278449621, -5.74404239654541, 3.7961368560791016, 8.781014442443848, -24.49856948852539, 77.3402328491211, -49.03807830810547, 0.393798828125, -0.2041015625, -0.8056640625
533, 278466288, -5.98719596862793, 4.607980728149414, 9.460257530212402, -33.8784065246582, 104.8089599609375, -68.08992767333984, 0.421630859375, -0.186767578125, -0.7958984375
534, 278482955, -6.195130825042725, 4.411898612976074, 9.840400695800781, -45.468116760253906, 131.17596435546875, -98.32814025878906, 0.4501953125, -0.167236328125, -0.78076171875
535, 278499622, -6.591763496398926, 6.189055919647217, 10.217639923095703, -64.61318969726562, 169.33456420898438, -131.93373107910156, 0.487548828125, -0.13232421875, -0.7607421875
536, 278516289, -8.19202709197998, 8.118605613708496, 10.749897956848145, -94.48954772949219, 201.2552490234375, -167.64820861816406, 0.529296875, -0.087158203125, -0.73583984375
537, 278532956, -11.315694808959961, 10.212785720825195, 10.895570755004883, -142.72128295898438, 210.03416442871094, -200.54649353027344, 0.574462890625, -0.023193359375, -0.69921875
538, 278549623, -10.874489784240723, 10.110763549804688, 10.007298469543457, -212.0777587890625, 204.41162109375, -226.84326171875, 0.60888671875, 0.059326171875, -0.661376953125
539, 278566290, -8.272455215454102, 7.6451005935668945, 9.4945707321167, -279.1268005371094, 197.60243225097656, -221.24423217773438, 0.634765625, 0.15576171875, -0.613037109375
540, 278582957, -8.312786102294922, 16.32605743408203, 3.411123752593994, -316.87847900390625, 187.4586944580078, -94.45020294189453, 0.65087890625, 0.24267578125, -0.559326171875
541, 278599624, -13.27215576171875, 22.941368103027344, 7.0137410163879395, -297.48681640625, 136.41879272460938, 173.77577209472656, 0.679443359375, 0.264892578125, -0.503173828125
542, 278616291, -6.30546236038208, 15.446762084960938, 2.2072103023529053, -375.9801330566406, 124.90809631347656, 277.3940124511719, 0.715576171875, 0.2626953125, -0.44580078125
543, 278632958, -8.32334041595459, 8.08040714263916, 2.55888032913208, -416.980224609375, 138.0230712890625, 310.0769958496094, 0.753662109375, 0.244140625, -0.380126953125
544, 278649625, -8.197400093078613, 2.0787429809570312, 3.9087977409362793, -400.8933410644531, 109.597900390625, 321.0205993652344, 0.788818359375, 0.211669921875, -0.319580078125
545, 278666292, -6.339871883392334, -2.543549060821533, 5.331469535827637, -336.3713073730469, 74.85440826416016, 291.2227478027344, 0.814697265625, 0.171142578125, -0.274169921875
546, 278682959, -5.155728816986084, -5.054591178894043, 6.802107810974121, -253.0967559814453, 35.828311920166016, 231.63116455078125, 0.8330078125, 0.12744140625, -0.252685546875
547, 278699626, -5.162541389465332, -4.957137107849121, 8.300140380859375, -173.81993103027344, -13.220379829406738, 153.2250518798828, 0.8427734375, 0.096923828125, -0.2421875
548, 278716293, -4.894870758056641, -2.798191785812378, 8.822361946105957, -118.71347045898438, -66.92122650146484, 73.21477508544922, 0.846435546875, 0.083251953125, -0.253662109375
549, 278732960, -4.454526901245117, -0.10967310518026352, 8.701648712158203, -90.38288116455078, -115.06327819824219, 12.632664680480957, 0.842529296875, 0.0849609375, -0.281005859375
550, 278749627, -4.453307151794434, 2.06142258644104, 8.152764320373535, -71.75428771972656, -153.65817260742188, -16.406217575073242, 0.831298828125, 0.094970703125, -0.3173828125
551, 278766294, -4.61565637588501, 3.725444793701172, 7.3228983879089355, -53.61243438720703, -182.36843872070312, -20.006427764892578, 0.817626953125, 0.1123046875, -0.35791015625
552, 278782961, -4.8992390632629395, 5.481652736663818, 6.70914363861084, -39.468589782714844, -202.65023803710938, -10.704136848449707, 0.7958984375, 0.123779296875, -0.40380859375
553, 278799628, -5.190540313720703, 6.867991924285889, 6.336787700653076, -35.79118347167969, -213.75433349609375, 2.6952672004699707, 0.77783203125, 0.1357421875, -0.447021484375
554, 278816295, -5.577113628387451, 7.5094194412231445, 6.081064224243164, -35.15508270263672, -217.84034729003906, 20.050792694091797, 0.756591796875, 0.136962890625, -0.4892578125
555, 278832962, -6.214235305786133, 7.622677803039551, 5.881242752075195, -27.961565017700195, -216.385498046875, 42.57182312011719, 0.736572265625, 0.138427734375, -0.539306640625
556, 278849629, -7.433877944946289, 7.7322492599487305, 6.186225891113281, -15.143745422363281, -210.12384033203125, 68.3493423461914, 0.720458984375, 0.129638671875, -0.584716796875
557, 278866296, -9.49187183380127, 8.156686782836914, 7.413352966308594, -4.472219944000244, -204.83749389648438, 95.7826919555664, 0.701416015625, 0.114013671875, -0.634521484375
558, 278882963, -11.157200813293457, 8.51614761352539, 8.396058082580566, -1.546074390411377, -205.31637573242188, 121.0151596069336, 0.680908203125, 0.090087890625, -0.683837890625
559, 278899630, -11.892135620117188, 8.411081314086914, 8.651744842529297, -4.531790733337402, -200.93031311035156, 139.37281799316406, 0.658935546875, 0.060302734375, -0.734619140625
560, 278916297, -12.410801887512207, 7.5351738929748535, 8.139060020446777, -10.425358772277832, -181.37400817871094, 148.8411865234375, 0.629638671875, 0.022216796875, -0.796142578125
561, 278932964, -14.63044261932373, 4.933400630950928, 7.809421062469482, -3.5364561080932617, -154.7860565185547, 151.49081420898438, 0.5791015625, -0.013427734375, -0.84521484375
562, 278949631, -18.45806121826172, 3.258695125579834, 7.967811107635498, 23.025983810424805, -145.50498962402344, 148.35702514648438, 0.52197265625, -0.04931640625, -0.87109375
563, 278966298, -21.76345443725586, 2.8528411388397217, 7.610393524169922, 46.679229736328125, -154.74252319335938, 141.29393005371094, 0.47021484375, -0.079833984375, -0.889892578125
564, 278982965, -24.38161849975586, 2.1512274742126465, 6.4016289710998535, 45.17821502685547, -180.6536407470703, 122.8566665649414, 0.41259765625, -0.107177734375, -0.907958984375
565, 278999632, -25.002538681030273, -2.8086864948272705, 2.0977818965911865, 40.238155364990234, -209.53367614746094, 93.92430114746094, 0.346435546875, -0.12939453125, -0.9248046875
566, 279016299, -27.43390464782715, -9.542193412780762, -7.711145401000977, 68.9156265258789, -215.3381805419922, 54.533348083496094, 0.275390625, -0.1484375, -0.93798828125
567, 279032966, -23.647266387939453, -9.30533504486084, -15.933815002441406, 74.27928924560547, -135.18382263183594, -9.090482711791992, 0.22216796875, -0.169677734375, -0.94482421875
568, 279049633, -15.12268352508545, -7.184852123260498, -15.064952850341797, 9.116674423217773, 26.54913330078125, -118.89854431152344, 0.2216796875, -0.168701171875, -0.94482421875
569, 279066300, -19.5115966796875, -0.3398236930370331, -1.9052761793136597, -38.978485107421875, 93.91687774658203, -166.55963134765625, 0.251708984375, -0.15234375, -0.940185546875
570, 279082967, -8.56219482421875, 6.592140197753906, 13.0703763961792, -57.54695510864258, 67.66670989990234, -125.37850189208984, 0.2802734375, -0.1318359375, -0.940673828125
571, 279099634, 5.287971019744873, 8.02145004272461, 4.314274787902832, -33.028297424316406, 89.66912078857422, -84.24708557128906, 0.3046875, -0.114501953125, -0.93701171875
572, 279116301, -4.5002946853637695, 3.8680286407470703, 7.152666091918945, -32.62972640991211, 160.93716430664062, -61.98737716674805, 0.345458984375, -0.105712890625, -0.92333984375
573, 279132968, -14.343437194824219, -1.8040850162506104, 12.548386573791504, -24.429332733154297, 147.70236206054688, -51.54664611816406, 0.390869140625, -0.100830078125, -0.908447265625
574, 279149635, -17.6386661529541, 8.319997787475586, 14.648929595947266, -40.66276931762695, 91.70307159423828, -69.01100158691406, 0.41943359375, -0.093017578125, -0.89794921875
575, 279166302, -8.736021995544434, 2.3369250297546387, 7.35946798324585, -41.66007614135742, 26.31453514099121, -30.35350799560547, 0.435546875, -0.074462890625, -0.893798828125
576, 279182969, -6.866387367248535, 2.175964117050171, 9.488770484924316, -22.478614807128906, 0.45116281509399414, -21.100542068481445, 0.43798828125, -0.06591796875, -0.893310546875
577, 279199636, -6.4340972900390625, 2.8423640727996826, 8.418434143066406, -21.09566307067871, -4.076451301574707, -16.911945343017578, 0.43701171875, -0.06005859375, -0.895263671875
578, 279216303, -6.364352703094482, 2.373565912246704, 7.992715835571289, -21.946557998657227, -7.032548904418945, -15.568644523620605, 0.437255859375, -0.053466796875, -0.89306640625
579, 279232970, -5.086482524871826, 2.753190279006958, 8.0336332321167, -22.21255111694336, -8.691617965698242, -15.428250312805176, 0.433837890625, -0.04736328125, -0.89453125
580, 279249637, -5.589193820953369, 2.4241726398468018, 7.994926929473877, -18.293346405029297, -9.627795219421387, -14.064821243286133, 0.433837890625, -0.0419921875, -0.897705078125
581, 279266304, -5.3872880935668945, 2.708763360977173, 7.985421657562256, -15.281264305114746, -8.800460815429688, -12.02753734588623, 0.430419921875, -0.035400390625, -0.89794921875
582, 279282971, -5.4592461585998535, 2.518979549407959, 7.943398952484131, -11.988882064819336, -6.992940902709961, -9.6782808303833, 0.4296875, -0.03076171875, -0.898681640625
583, 279299638, -5.315762519836426, 2.686992645263672, 7.935571193695068, -9.25662899017334, -4.4773850440979, -8.747204780578613, 0.427734375, -0.029296875, -0.899169921875
584, 279316305, -5.393494606018066, 2.5086658000946045, 7.884029388427734, -8.326383590698242, -2.9788475036621094, -7.821775436401367, 0.42822265625, -0.02783203125, -0.897216796875
585, 279332972, -5.378827095031738, 2.3308451175689697, 7.936127662658691, -6.3783063888549805, -1.8296566009521484, -6.1469221115112305, 0.42724609375, -0.0244140625, -0.897216796875
586, 279349639, -5.3152570724487305, 2.3326332569122314, 7.959104061126709, -3.9318697452545166, -0.4784836769104004, -4.679401874542236, 0.42724609375, -0.025390625, -0.898681640625
587, 279366306, -5.235747337341309, 2.3894259929656982, 7.955991268157959, -2.7676055431365967, 0.048965077847242355, -4.210227966308594, 0.427734375, -0.02392578125, -0.899658203125
588, 279382973, -5.284127712249756, 2.4955315589904785, 7.900661945343018, -2.104954481124878, 0.7377035021781921, -4.207091331481934, 0.42919921875, -0.0244140625, -0.900146484375
589, 279399640, -5.365015029907227, 2.5232300758361816, 7.855975151062012, -1.8103312253952026, 0.6640028357505798, -4.076081275939941, 0.42919921875, -0.02392578125, -0.898681640625
590, 279416307, -5.3193769454956055, 2.51876163482666, 7.797466278076172, -1.9760324954986572, -0.7661014199256897, -3.649578809738159, 0.431640625, -0.0244140625, -0.897216796875
591, 279432974, -5.204399585723877, 2.5747742652893066, 7.846886157989502, -1.5590450763702393, -1.2735276222229004, -3.7495460510253906, 0.433349609375, -0.02490234375, -0.8974609375
592, 279449641, -5.183958053588867, 2.591439962387085, 7.892301559448242, -1.379205346107483, -1.3732504844665527, -3.984618902206421, 0.4306640625, -0.02392578125, -0.897705078125
593, 279466308, -5.238149642944336, 2.4354264736175537, 7.9217634201049805, -0.4181273877620697, -0.4224174916744232, -3.8868300914764404, 0.431884765625, -0.025390625, -0.89794921875
594, 279482975, -5.218542098999023, 2.4061150550842285, 7.899464130401611, 0.09418430924415588, 0.5195600390434265, -3.614131450653076, 0.4296875, -0.0263671875, -0.896240234375
595, 279499642, -5.282547473907471, 2.3617751598358154, 7.914456367492676, 1.1167844533920288, 1.4820599555969238, -3.580118179321289, 0.432861328125, -0.02685546875, -0.89599609375
596, 279516309, -5.237680912017822, 2.4620633125305176, 7.926673412322998, 2.6958203315734863, 3.332244634628296, -3.2851366996765137, 0.431640625, -0.02734375, -0.89599609375
597, 279532976, -5.274484634399414, 2.542254686355591, 7.930520057678223, 3.3798201084136963, 5.000553607940674, -3.167548418045044, 0.433349609375, -0.029296875, -0.89501953125
598, 279549643, -5.317688941955566, 2.7016708850860596, 7.846210956573486, 2.745431900024414, 5.619740009307861, -3.7620186805725098, 0.434326171875, -0.03125, -0.893798828125
599, 279566310, -5.288641929626465, 2.773880958557129, 7.854621410369873, 1.7031103372573853, 5.608573913574219, -4.9526262283325195, 0.437255859375, -0.03125, -0.894287109375
600, 279582977, -5.150871276855469, 2.8668856620788574, 7.826854228973389, 0.5293058156967163, 6.273492813110352, -6.7649946212768555, 0.440673828125, -0.031494140625, -0.892578125
601, 279599644, -5.13276481628418, 3.0004212856292725, 7.8944525718688965, -0.4359539747238159, 8.732251167297363, -8.950617790222168, 0.443359375, -0.032470703125, -0.8896484375
602, 279616311, -5.153217315673828, 2.847114324569702, 7.919821739196777, -1.159193754196167, 14.066658973693848, -11.367185592651367, 0.447265625, -0.029541015625, -0.89306640625
603, 279632978, -4.974342346191406, 2.417942523956299, 8.306239128112793, -0.10145212709903717, 23.011558532714844, -10.327524185180664, 0.452392578125, -0.031494140625, -0.8876953125
604, 279649645, -4.897426128387451, 2.249798536300659, 8.5265474319458, 6.297461032867432, 37.24850082397461, -10.169449806213379, 0.46337890625, -0.030517578125, -0.8828125
605, 279666312, -4.871256351470947, 2.5646889209747314, 8.61300277709961, 17.353538513183594, 55.82551193237305, -15.572351455688477, 0.475341796875, -0.033447265625, -0.875
606, 279682979, -5.045252323150635, 2.855971097946167, 8.769076347351074, 26.5408878326416, 79.11027526855469, -24.305574417114258, 0.494384765625, -0.03857421875, -0.862060546875
607, 279699646, -5.212568759918213, 3.4556381702423096, 9.057960510253906, 34.94258117675781, 107.1923599243164, -36.18157196044922, 0.517822265625, -0.0390625, -0.84716796875
608, 279716313, -5.1672892570495605, 4.124273777008057, 9.583133697509766, 41.75383758544922, 140.68251037597656, -55.750823974609375, 0.55126953125, -0.040283203125, -0.824951171875
609, 279732980, -5.2336883544921875, 4.773649215698242, 9.92330551147461, 47.21827697753906, 190.37335205078125, -83.9096450805664, 0.592041015625, -0.037353515625, -0.79248046875
610, 279749647, -5.822939872741699, 4.325413227081299, 9.77301025390625, 48.67008972167969, 253.34400939941406, -121.44890594482422, 0.64697265625, -0.02490234375, -0.746826171875
611, 279766314, -6.398683071136475, 4.711666584014893, 10.280166625976562, 40.04424285888672, 324.4760437011719, -159.70101928710938, 0.71044921875, -0.001220703125, -0.68212890625
612, 279782981, -7.147033214569092, 6.265838623046875, 10.604034423828125, 38.71498107910156, 379.9466552734375, -196.23452758789062, 0.775390625, 0.036376953125, -0.601318359375
613, 279799648, -15.507696151733398, 8.446535110473633, 14.119758605957031, 74.95935821533203, 389.435302734375, -210.02920532226562, 0.833984375, 0.081298828125, -0.503662109375
614, 279816315, -18.95950698852539, 9.51201343536377, 14.92701530456543, 51.92317199707031, 341.32183837890625, -215.22483825683594, 0.87255859375, 0.132568359375, -0.418701171875
615, 279832982, -15.032851219177246, 9.065746307373047, 14.567152976989746, 36.2274055480957, 261.0191650390625, -194.2657928466797, 0.88671875, 0.187255859375, -0.348388671875
616, 279849649, -0.10009598731994629, 5.129342555999756, 9.784503936767578, 14.618623733520508, 207.52914428710938, -200.6916961669922, 0.886474609375, 0.2421875, -0.296630859375
617, 279866316, -9.508654594421387, 7.699841022491455, 10.94686508178711, 43.891761779785156, 211.56809997558594, -165.2107391357422, 0.882080078125, 0.291748046875, -0.24462890625
618, 279882983, -12.963282585144043, 12.11767578125, 17.67332649230957, 59.73054504394531, 26.332304000854492, -50.885467529296875, 0.867431640625, 0.30908203125, -0.234619140625
619, 279899650, -2.5069448947906494, 11.282048225402832, 10.663673400878906, 14.144569396972656, -83.38687896728516, 23.36975860595703, 0.84912109375, 0.30810546875, -0.2568359375
620, 279916317, 2.1178505420684814, 6.534087657928467, 5.536521911621094, -42.16048049926758, -101.36125183105469, 54.55746078491211, 0.830810546875, 0.301025390625, -0.28076171875
621, 279932984, 2.3777127265930176, 2.900568962097168, 3.572340965270996, -60.924461364746094, -90.19048309326172, 73.80236053466797, 0.81689453125, 0.29296875, -0.2919921875
622, 279949651, 0.8854566216468811, 2.0999062061309814, 3.819587230682373, -55.76292037963867, -86.37166595458984, 93.78820037841797, 0.803466796875, 0.27734375, -0.303955078125
623, 279966318, -0.5643289089202881, 2.727494239807129, 4.730177402496338, -59.272369384765625, -92.765869140625, 107.56057739257812, 0.797119140625, 0.266845703125, -0.314453125
624, 279982985, -2.5497310161590576, 3.2980873584747314, 5.974847316741943, -75.86622619628906, -109.09136962890625, 116.20486450195312, 0.795654296875, 0.253173828125, -0.321044921875
625, 279999652, -5.134525775909424, 3.4334707260131836, 7.301339149475098, -92.51477813720703, -142.18963623046875, 131.4461212158203, 0.794921875, 0.237548828125, -0.33740234375
626, 280016319, -6.247537612915039, 3.089383125305176, 7.532873153686523, -105.14335632324219, -184.34669494628906, 150.59152221679688, 0.79736328125, 0.219970703125, -0.368408203125
627, 280032986, -6.5014567375183105, 2.2146973609924316, 7.076772212982178, -110.72041320800781, -218.0872039794922, 161.98228454589844, 0.789794921875, 0.195068359375, -0.41064453125
628, 280049653, -7.310388565063477, 1.6377499103546143, 7.030552387237549, -109.36993408203125, -239.55929565429688, 163.68869018554688, 0.77734375, 0.168701171875, -0.46435546875
629, 280066320, -8.782520294189453, 0.8425653576850891, 7.669486999511719, -98.56407165527344, -254.0689697265625, 154.63388061523438, 0.755126953125, 0.144775390625, -0.529296875
630, 280082987, -10.322291374206543, -0.5788631439208984, 7.626018047332764, -71.16124725341797, -267.90570068359375, 133.11717224121094, 0.717529296875, 0.12255859375, -0.588623046875
631, 280099654, -10.870622634887695, -2.046722412109375, 7.245358467102051, -28.692237854003906, -260.88079833984375, 93.76869201660156, 0.673095703125, 0.10107421875, -0.65185546875
632, 280116321, -13.173422813415527, -1.292439579963684, 8.469963073730469, 14.132933616638184, -244.92568969726562, 36.57406234741211, 0.618408203125, 0.08154296875, -0.701904296875
633, 280132988, -16.889951705932617, 1.189391851425171, 11.186924934387207, 55.839263916015625, -248.9647979736328, -11.02946949005127, 0.5556640625, 0.0634765625, -0.7490234375
634, 280149655, -18.6038875579834, 3.407623291015625, 11.028763771057129, 96.7902603149414, -271.2738952636719, -27.833045959472656, 0.48876953125, 0.0380859375, -0.7861328125
635, 280166322, -17.76540756225586, 4.602560520172119, 8.653008460998535, 127.82714080810547, -277.7353820800781, -27.919401168823242, 0.419677734375, 0.0048828125, -0.820556640625
636, 280182989, -17.502910614013672, 4.160046577453613, 6.96054220199585, 151.44912719726562, -265.17913818359375, -18.5662784576416, 0.35595703125, -0.031005859375, -0.849365234375
637, 280199656, -16.807308197021484, 1.351846694946289, 6.139199733734131, 171.2544403076172, -244.23480224609375, -9.816600799560547, 0.29248046875, -0.074951171875, -0.871826171875
638, 280216323, -15.487140655517578, -3.4015629291534424, 4.992949962615967, 177.9574737548828, -208.63265991210938, -28.939088821411133, 0.238525390625, -0.120849609375, -0.887939453125
639, 280232990, -17.34930419921875, -12.21087646484375, 4.2460479736328125, 200.116943359375, -181.09474182128906, -69.67154693603516, 0.193359375, -0.168701171875, -0.897705078125
640, 280249657, -21.031869888305664, -10.754279136657715, 2.0854110717773438, 244.92733764648438, -193.7315216064453, -112.14232635498047, 0.1484375, -0.228515625, -0.900390625
641, 280266324, -21.696367263793945, -7.689516544342041, -5.206000328063965, 209.69418334960938, -179.61141967773438, -176.44737243652344, 0.1064453125, -0.284912109375, -0.896728515625
642, 280282991, -16.629291534423828, -8.82840633392334, -7.926635265350342, 161.9373321533203, -103.43597412109375, -236.84129333496094, 0.094482421875, -0.323486328125, -0.886474609375
643, 280299658, -15.881258010864258, -4.436850547790527, -2.7287187576293945, 163.31671142578125, -37.037803649902344, -281.0552978515625, 0.1103515625, -0.357177734375, -0.874267578125
644, 280316325, -17.448162078857422, 0.8561960458755493, 2.8004138469696045, 173.33895874023438, -40.094635009765625, -281.3593444824219, 0.138427734375, -0.387939453125, -0.853759765625
645, 280332992, -10.872640609741211, 13.427081108093262, 8.294228553771973, 45.147464752197266, -42.28167724609375, -289.1151428222656, 0.158447265625, -0.401123046875, -0.845703125
646, 280349659, -0.01972256600856781, 9.24209213256836, 15.648421287536621, -166.81024169921875, -29.00771141052246, -244.6872100830078, 0.18359375, -0.35498046875, -0.85791015625
647, 280366326, 4.6231865882873535, 12.426627159118652, 3.524758815765381, -205.68675231933594, 4.5803093910217285, -152.79180908203125, 0.197265625, -0.2900390625, -0.8759765625
648, 280382993, -2.69508695602417, 12.479656219482422, 8.832528114318848, -215.59527587890625, 114.68849182128906, -158.00013732910156, 0.231689453125, -0.234619140625, -0.88134765625
649, 280399660, -23.562334060668945, -16.025226593017578, 16.245227813720703, -72.17540740966797, 28.650209426879883, -89.96448516845703, 0.259765625, -0.18408203125, -0.8837890625
650, 280416327, -5.77528190612793, -3.181140422821045, 11.287689208984375, -24.73853874206543, -6.547647476196289, -10.542816162109375, 0.25830078125, -0.1787109375, -0.88232421875
651, 280432994, -3.581885814666748, 3.290778160095215, 8.438283920288086, -7.6188225746154785, 12.937579154968262, -2.241663694381714, 0.26123046875, -0.17724609375, -0.884521484375
652, 280449661, -6.755875587463379, 1.4911932945251465, 7.564991474151611, -5.737808704376221, 2.4799692630767822, -4.293342590332031, 0.2646484375, -0.177734375, -0.8837890625
653, 280466328, -5.94040060043335, 3.84261417388916, 7.48940896987915, -10.974076271057129, -5.913976669311523, -8.74119758605957, 0.263671875, -0.17578125, -0.889404296875
654, 280482995, -5.995270729064941, 2.2839577198028564, 7.837510585784912, -11.937402725219727, -7.572954177856445, -10.952823638916016, 0.26171875, -0.173095703125, -0.885009765625
655, 280499662, -5.630965232849121, 2.1580541133880615, 7.9241180419921875, -9.946839332580566, -5.905332088470459, -8.900290489196777, 0.26416015625, -0.168212890625, -0.885009765625
656, 280516329, -5.571128845214844, 2.6237902641296387, 7.929742813110352, -7.3839640617370605, -3.3667521476745605, -7.128912925720215, 0.2607421875, -0.16748046875, -0.886474609375
657, 280532996, -5.479738235473633, 2.95687198638916, 7.825845241546631, -7.750840663909912, -1.6045080423355103, -6.480386734008789, 0.26025390625, -0.166015625, -0.88818359375
658, 280549663, -5.519580841064453, 2.390460729598999, 7.972105503082275, -6.095247268676758, 0.26477131247520447, -5.0579071044921875, 0.26220703125, -0.16552734375, -0.883544921875
659, 280566330, -5.4867658615112305, 2.6956019401550293, 7.830771446228027, -4.368079662322998, 1.5310951471328735, -3.6881134510040283, 0.2646484375, -0.16357421875, -0.887451171875
660, 280582997, -5.4244585037231445, 3.018909215927124, 7.690779685974121, -3.8850748538970947, 1.488129734992981, -3.5548248291015625, 0.2646484375, -0.16357421875, -0.885986328125
661, 280599664, -5.435976028442383, 2.87178897857666, 7.690859794616699, -4.356528282165527, 0.5906736850738525, -3.5356924533843994, 0.2626953125, -0.16259765625, -0.884033203125
