sep=,
DeviceTag:,A,,,,,,,,,,,,,,,,,
FirmwareVersion:,2.2.1,,,,,,,,,,,,,,,,,
AppVersion:,2022.0.1,,,,,,,,,,,,,,,,,
SyncStatus:,Synced,,,,,,,,,,,,,,,,,
OutputRate:,60Hz,,,,,,,,,,,,,,,,,
FilterProfile:,General,,,,,,,,,,,,,,,,,
Measurement Mode:,Inertial Mode - Rate quantities (with mag),,,,,,,,,,,,,,,,,
StartTime:,2022-08-05 16:48:16.489 +0300,,,,,,,,,,,,,,,,,
© Xsens Technologies B. V. 2005-2022,,,,,,,,,,,,,,,,,,,

PacketCounter,SampleTimeFine,Acc_X,Acc_Y,Acc_Z,Gyr_X,Gyr_Y,Gyr_Z,Mag_X,Mag_Y,Mag_Z
1, 3543529653, -5.300050258636475, 2.151033639907837, 7.979376316070557, -2.6849539279937744, -1.2835934162139893, -2.697312116622925, 0.058349609375, -0.21142578125, -0.811767578125
2, 3543546320, -5.327605724334717, 2.138948917388916, 7.986288547515869, -2.709017038345337, -1.4345802068710327, -2.736076593399048, 0.05859375, -0.2138671875, -0.812255859375
3, 3543562987, -5.3037824630737305, 2.1106908321380615, 8.003580093383789, -2.613046407699585, -1.374377727508545, -2.5605788230895996, 0.0595703125, -0.2109375, -0.809814453125
4, 3543579654, -5.3152337074279785, 2.1246495246887207, 7.996266841888428, -2.7264466285705566, -1.3054540157318115, -2.6081416606903076, 0.055908203125, -0.21142578125, -0.8125
5, 3543596321, -5.329049587249756, 2.1250100135803223, 7.980103492736816, -2.8307793140411377, -1.5292189121246338, -2.6902809143066406, 0.056884765625, -0.2119140625, -0.81494140625
6, 3543612988, -5.312872886657715, 2.1520063877105713, 7.989596843719482, -2.995955467224121, -1.698787808418274, -2.6359050273895264, 0.05859375, -0.2109375, -0.81396484375
7, 3543629655, -5.306305885314941, 2.1415317058563232, 7.977251052856445, -3.0201597213745117, -1.8965051174163818, -2.6397855281829834, 0.05810546875, -0.21142578125, -0.81640625
8, 3543646322, -5.291541576385498, 2.141535997390747, 8.004379272460938, -2.8680074214935303, -1.8637080192565918, -2.6305394172668457, 0.05810546875, -0.21337890625, -0.812744140625
9, 3543662989, -5.280656337738037, 2.130162000656128, 7.9899821281433105, -3.013641357421875, -1.530192255973816, -2.7399826049804688, 0.0576171875, -0.2109375, -0.81494140625
10, 3543679656, -5.303689479827881, 2.123791217803955, 8.00826644897461, -2.8599905967712402, -1.2750641107559204, -2.7654285430908203, 0.05810546875, -0.2109375, -0.81494140625
11, 3543696323, -5.317347049713135, 2.09199595451355, 8.00308609008789, -2.8144006729125977, -1.062940001487732, -2.706596851348877, 0.05908203125, -0.2099609375, -0.81591796875
12, 3543712990, -5.332657337188721, 2.0911035537719727, 7.994142532348633, -2.554342031478882, -1.165185809135437, -2.54006290435791, 0.057373046875, -0.21142578125, -0.81396484375
13, 3543729657, -5.327690124511719, 2.0847790241241455, 7.985354900360107, -2.172635555267334, -1.033203363418579, -2.345021963119507, 0.05908203125, -0.212890625, -0.8154296875
14, 3543746324, -5.324193954467773, 2.095402479171753, 7.992372512817383, -1.94112229347229, -1.023675560951233, -2.0505142211914062, 0.057861328125, -0.21142578125, -0.810791015625
15, 3543762991, -5.32282018661499, 2.113844156265259, 8.0073881149292, -1.6881201267242432, -0.9918261766433716, -1.838120937347412, 0.05810546875, -0.2138671875, -0.8134765625
16, 3543779658, -5.3151984214782715, 2.125582695007324, 7.986359119415283, -1.5545117855072021, -1.1612799167633057, -1.8481228351593018, 0.056396484375, -0.21142578125, -0.81396484375
17, 3543796325, -5.306715488433838, 2.15333890914917, 8.005533218383789, -1.5978482961654663, -1.0765786170959473, -2.034608840942383, 0.0595703125, -0.212890625, -0.81494140625
18, 3543812992, -5.313782691955566, 2.141903877258301, 7.992578506469727, -1.6300945281982422, -1.0860168933868408, -1.8730952739715576, 0.05908203125, -0.2119140625, -0.8134765625
19, 3543829659, -5.307312965393066, 2.1499454975128174, 7.992619514465332, -1.7390128374099731, -1.1074546575546265, -1.9844591617584229, 0.0595703125, -0.212890625, -0.81494140625
20, 3543846326, -5.312930583953857, 2.1585774421691895, 7.978086471557617, -1.8904093503952026, -1.1957801580429077, -2.1696903705596924, 0.05908203125, -0.21142578125, -0.812255859375
21, 3543862993, -5.307008266448975, 2.1504712104797363, 7.997170925140381, -2.0604519844055176, -1.055191993713379, -2.349299192428589, 0.056884765625, -0.2138671875, -0.8134765625
22, 3543879660, -5.316092014312744, 2.1332924365997314, 7.995544910430908, -2.062129497528076, -1.01490318775177, -2.3825058937072754, 0.05810546875, -0.212890625, -0.814453125
23, 3543896327, -5.291699409484863, 2.1686127185821533, 7.962931156158447, -2.1635303497314453, -1.1595252752304077, -2.348313093185425, 0.05859375, -0.21484375, -0.812744140625
24, 3543912994, -5.306331157684326, 2.1669960021972656, 7.9794440269470215, -2.385899782180786, -1.2493106126785278, -2.471100330352783, 0.05908203125, -0.21337890625, -0.81494140625
25, 3543929661, -5.296850681304932, 2.164156913757324, 7.99845552444458, -2.4734060764312744, -1.1460531949996948, -2.5923638343811035, 0.06005859375, -0.21337890625, -0.814208984375
26, 3543946328, -5.30422830581665, 2.1429436206817627, 7.979636192321777, -2.417903184890747, -1.0681649446487427, -2.465132713317871, 0.060546875, -0.21240234375, -0.813720703125
27, 3543962995, -5.300276756286621, 2.145205020904541, 7.970402240753174, -2.519649028778076, -0.9280890226364136, -2.4287753105163574, 0.056884765625, -0.212890625, -0.8125
28, 3543979662, -5.3235344886779785, 2.1596062183380127, 7.937664985656738, -2.7670552730560303, -1.0440376996994019, -2.585115432739258, 0.05859375, -0.21533203125, -0.814208984375
29, 3543996329, -5.317709922790527, 2.181910514831543, 7.962919235229492, -3.0095818042755127, -1.2017735242843628, -2.823556900024414, 0.06005859375, -0.212890625, -0.81591796875
30, 3544012996, -5.316384315490723, 2.1415576934814453, 7.979454040527344, -3.188960313796997, -1.2980772256851196, -2.9015345573425293, 0.05810546875, -0.21337890625, -0.812255859375
31, 3544029663, -5.312087059020996, 2.1257102489471436, 7.99275016784668, -3.1923413276672363, -1.3491874933242798, -2.8549070358276367, 0.05810546875, -0.21142578125, -0.81298828125
32, 3544046330, -5.309842586517334, 2.126727342605591, 8.000724792480469, -3.083922863006592, -1.3033024072647095, -2.863769054412842, 0.060546875, -0.2138671875, -0.812744140625
33, 3544062997, -5.3133955001831055, 2.1291801929473877, 8.009089469909668, -2.9978384971618652, -1.1223998069763184, -2.847774028778076, 0.0595703125, -0.21240234375, -0.81591796875
34, 3544079664, -5.339226245880127, 2.119097948074341, 8.003157615661621, -2.9414007663726807, -1.037416696548462, -2.8385913372039795, 0.05859375, -0.21240234375, -0.813232421875
35, 3544096331, -5.337341785430908, 2.1277520656585693, 7.962453365325928, -2.7755463123321533, -1.1437993049621582, -2.623112201690674, 0.05810546875, -0.2119140625, -0.81298828125
36, 3544112998, -5.322185516357422, 2.1240642070770264, 7.969740867614746, -2.806037664413452, -1.330899715423584, -2.679062604904175, 0.05908203125, -0.21240234375, -0.813232421875
37, 3544129665, -5.3173747062683105, 2.1521224975585938, 7.968252182006836, -2.7757632732391357, -1.5388492345809937, -2.659609794616699, 0.06005859375, -0.212890625, -0.813232421875
38, 3544146332, -5.309959411621094, 2.1276490688323975, 8.005727767944336, -2.712679147720337, -1.3435908555984497, -2.7772998809814453, 0.05908203125, -0.212890625, -0.812744140625
39, 3544162999, -5.326019763946533, 2.119692087173462, 7.976691246032715, -2.639209747314453, -1.2340712547302246, -2.780015707015991, 0.0595703125, -0.21337890625, -0.812744140625
40, 3544179666, -5.31416654586792, 2.120377540588379, 8.004834175109863, -2.55234432220459, -1.2468135356903076, -2.631129026412964, 0.06005859375, -0.21484375, -0.813232421875
41, 3544196333, -5.31960916519165, 2.123547315597534, 8.00304126739502, -2.372504472732544, -1.1685025691986084, -2.6096012592315674, 0.06005859375, -0.21484375, -0.814697265625
42, 3544213000, -5.315420627593994, 2.1252028942108154, 7.996148586273193, -2.2142562866210938, -1.0455999374389648, -2.4889140129089355, 0.060546875, -0.2138671875, -0.813720703125
43, 3544229667, -5.3356757164001465, 2.107435941696167, 7.961058616638184, -2.1463186740875244, -1.1189805269241333, -2.45387601852417, 0.05908203125, -0.2119140625, -0.8134765625
44, 3544246334, -5.327339172363281, 2.12823224067688, 7.972005367279053, -2.1132652759552, -1.271209478378296, -2.387218713760376, 0.060546875, -0.212890625, -0.811279296875
45, 3544263001, -5.3299760818481445, 2.167973518371582, 7.9686784744262695, -2.20002818107605, -1.4137057065963745, -2.3665621280670166, 0.06201171875, -0.212890625, -0.814208984375
46, 3544279668, -5.31358003616333, 2.150810718536377, 7.985814094543457, -2.20253849029541, -1.5449068546295166, -2.3311400413513184, 0.057861328125, -0.2119140625, -0.812255859375
47, 3544296335, -5.316990852355957, 2.1085188388824463, 7.971341609954834, -2.149738073348999, -1.4681968688964844, -2.3760390281677246, 0.0595703125, -0.2138671875, -0.811767578125
48, 3544313002, -5.317948818206787, 2.151660680770874, 7.96308708190918, -2.211310863494873, -1.4723589420318604, -2.452300786972046, 0.05810546875, -0.21142578125, -0.81298828125
49, 3544329669, -5.335663795471191, 2.1486504077911377, 7.981278896331787, -2.2469637393951416, -1.5990264415740967, -2.5498337745666504, 0.060546875, -0.2138671875, -0.812744140625
50, 3544346336, -5.32220458984375, 2.1449079513549805, 7.993530750274658, -2.2662501335144043, -1.467466950416565, -2.519892692565918, 0.05908203125, -0.2138671875, -0.812255859375
51, 3544363003, -5.316725254058838, 2.1543939113616943, 8.028695106506348, -2.068903923034668, -1.0773084163665771, -2.4678473472595215, 0.06005859375, -0.212890625, -0.811279296875
52, 3544379670, -5.320129871368408, 2.130790948867798, 7.990828037261963, -1.8181686401367188, -0.8838558793067932, -2.515897035598755, 0.05908203125, -0.21484375, -0.812744140625
53, 3544396337, -5.337551593780518, 2.1080338954925537, 7.977330207824707, -1.535071611404419, -0.8621106743812561, -2.4218087196350098, 0.057861328125, -0.21435546875, -0.811279296875
54, 3544413004, -5.355551719665527, 2.1062090396881104, 7.974772930145264, -1.2574169635772705, -0.9167425632476807, -2.092557430267334, 0.06005859375, -0.2138671875, -0.813232421875
55, 3544429671, -5.3294758796691895, 2.116698741912842, 7.987209320068359, -1.0049655437469482, -0.8711904287338257, -1.7905198335647583, 0.06103515625, -0.21435546875, -0.812255859375
56, 3544446338, -5.332839488983154, 2.1442971229553223, 7.973881721496582, -0.8769789338111877, -1.0074243545532227, -1.6262400150299072, 0.06103515625, -0.21484375, -0.811279296875
57, 3544463005, -5.324665069580078, 2.205775499343872, 7.976302146911621, -1.0793448686599731, -1.0471112728118896, -1.6297104358673096, 0.06005859375, -0.21728515625, -0.811279296875
58, 3544479672, -5.314899921417236, 2.2081000804901123, 7.952902317047119, -1.3423230648040771, -1.035521388053894, -1.9386123418807983, 0.0595703125, -0.21630859375, -0.812744140625
59, 3544496339, -5.3059773445129395, 2.1968636512756348, 7.982023239135742, -1.6573721170425415, -0.9129390120506287, -2.1415674686431885, 0.06201171875, -0.216552734375, -0.813720703125
60, 3544513006, -5.310433864593506, 2.1921632289886475, 7.941421985626221, -1.5092027187347412, -1.1240133047103882, -2.4245877265930176, 0.0615234375, -0.21533203125, -0.812744140625
61, 3544529673, -5.291201591491699, 2.2002766132354736, 7.920980930328369, -2.1039681434631348, -1.063196063041687, -2.614877223968506, 0.06103515625, -0.21630859375, -0.813720703125
62, 3544546340, -5.311147689819336, 2.2331438064575195, 7.961795330047607, -2.4575133323669434, -1.07108473777771, -2.8898043632507324, 0.0615234375, -0.2158203125, -0.81005859375
63, 3544563007, -5.326669692993164, 2.204698324203491, 7.9703569412231445, -2.796241044998169, -1.0654371976852417, -3.1792919635772705, 0.06103515625, -0.2158203125, -0.811279296875
64, 3544579674, -5.340049743652344, 2.1943840980529785, 7.958774566650391, -2.9103074073791504, -1.2339046001434326, -3.3615643978118896, 0.06005859375, -0.21484375, -0.812744140625
65, 3544596341, -5.329448699951172, 2.1790482997894287, 7.936568260192871, -3.064072608947754, -1.5383881330490112, -3.437659502029419, 0.05908203125, -0.21484375, -0.813232421875
66, 3544613008, -5.356327056884766, 2.15518856048584, 7.9540696144104, -3.4387094974517822, -1.532433271408081, -3.487886428833008, 0.0625, -0.217529296875, -0.814697265625
67, 3544629675, -5.344422817230225, 2.1620800495147705, 7.975055694580078, -3.447251796722412, -1.7455055713653564, -3.437262773513794, 0.06298828125, -0.2138671875, -0.812744140625
68, 3544646342, -5.347891807556152, 2.169563055038452, 7.966738700866699, -3.635249137878418, -1.823380947113037, -3.4737353324890137, 0.060546875, -0.21630859375, -0.811767578125
69, 3544663009, -5.326578140258789, 2.1825897693634033, 7.972057342529297, -3.605128765106201, -2.0287437438964844, -3.5041253566741943, 0.060546875, -0.21533203125, -0.810302734375
70, 3544679676, -5.298013687133789, 2.1777985095977783, 7.98167085647583, -3.6187803745269775, -2.024402379989624, -3.397883415222168, 0.06005859375, -0.21435546875, -0.813720703125
71, 3544696343, -5.334521770477295, 2.145411968231201, 7.958887577056885, -3.609290599822998, -1.758939504623413, -3.456639051437378, 0.0595703125, -0.21337890625, -0.813720703125
72, 3544713010, -5.319019317626953, 2.1300947666168213, 7.987392902374268, -3.821197509765625, -1.8149802684783936, -3.353445529937744, 0.060546875, -0.21337890625, -0.813232421875
73, 3544729677, -5.335207462310791, 2.1334128379821777, 7.966501235961914, -3.7572810649871826, -1.6885815858840942, -3.159723997116089, 0.05810546875, -0.21435546875, -0.811767578125
74, 3544746344, -5.3374834060668945, 2.1081862449645996, 7.990575790405273, -3.5128331184387207, -1.5965676307678223, -2.916799545288086, 0.0615234375, -0.21240234375, -0.810791015625
75, 3544763011, -5.3348917961120605, 2.1046690940856934, 7.971487998962402, -3.393887758255005, -1.337956428527832, -2.8345448970794678, 0.060546875, -0.212890625, -0.811279296875
76, 3544779678, -5.335460662841797, 2.101954936981201, 8.015681266784668, -3.1792662143707275, -1.271350383758545, -2.761958360671997, 0.06005859375, -0.212890625, -0.812744140625
77, 3544796345, -5.347849369049072, 2.1300175189971924, 7.996480941772461, -2.938480854034424, -1.063759446144104, -2.641091823577881, 0.06103515625, -0.2138671875, -0.813720703125
78, 3544813012, -5.344409465789795, 2.1127288341522217, 7.969247341156006, -2.7797467708587646, -1.0330500602722168, -2.5008625984191895, 0.0595703125, -0.21484375, -0.812744140625
79, 3544829679, -5.3431878089904785, 2.1037397384643555, 7.983623027801514, -2.542752265930176, -1.108581781387329, -2.38173770904541, 0.0615234375, -0.21337890625, -0.813232421875
80, 3544846346, -5.343697547912598, 2.1060891151428223, 7.982576370239258, -2.479642629623413, -1.072109341621399, -2.235579252243042, 0.06103515625, -0.2138671875, -0.811767578125
81, 3544863013, -5.343725204467773, 2.1208364963531494, 7.9701433181762695, -2.369866132736206, -1.2069216966629028, -2.0846686363220215, 0.06103515625, -0.2109375, -0.813232421875
82, 3544879680, -5.336617946624756, 2.1260015964508057, 7.975645542144775, -2.3810458183288574, -1.3186185359954834, -2.0286152362823486, 0.06103515625, -0.2138671875, -0.813720703125
83, 3544896347, -5.319242477416992, 2.1356310844421387, 7.973761081695557, -2.378587245941162, -1.4054839611053467, -2.086230993270874, 0.0625, -0.2138671875, -0.815185546875
84, 3544913014, -5.313202381134033, 2.1465542316436768, 7.981103420257568, -2.4905407428741455, -1.3833292722702026, -2.1359198093414307, 0.0625, -0.212890625, -0.811767578125
85, 3544929681, -5.347914218902588, 2.144944667816162, 7.970306873321533, -2.589059829711914, -1.3500070571899414, -2.307781219482422, 0.06201171875, -0.2138671875, -0.812255859375
86, 3544946348, -5.340060234069824, 2.1309595108032227, 7.960310935974121, -2.5012850761413574, -1.3372647762298584, -2.358187198638916, 0.0595703125, -0.21337890625, -0.812744140625
87, 3544963015, -5.3317084312438965, 2.1471312046051025, 7.974267959594727, -2.4703962802886963, -1.4301875829696655, -2.4366514682769775, 0.0625, -0.21240234375, -0.812255859375
88, 3544979682, -5.343190670013428, 2.119819402694702, 7.965773105621338, -2.518035650253296, -1.3155837059020996, -2.2622928619384766, 0.060546875, -0.21240234375, -0.812744140625
89, 3544996349, -5.319572448730469, 2.130641460418701, 7.981495380401611, -2.4322078227996826, -1.1367428302764893, -2.2848961353302, 0.06005859375, -0.212890625, -0.812744140625
90, 3545013016, -5.3380045890808105, 2.125317096710205, 7.966382026672363, -2.3392844200134277, -1.0416043996810913, -2.3483386039733887, 0.060546875, -0.2138671875, -0.812255859375
91, 3545029683, -5.340743064880371, 2.1387648582458496, 7.956197738647461, -2.3221497535705566, -0.9821189045906067, -2.2898776531219482, 0.05908203125, -0.2138671875, -0.811279296875
92, 3545046350, -5.344269752502441, 2.146747589111328, 7.942441940307617, -2.3675098419189453, -1.0479050874710083, -2.4200544357299805, 0.0615234375, -0.21435546875, -0.813232421875
93, 3545063017, -5.355885982513428, 2.147860050201416, 7.971456050872803, -2.559413194656372, -1.0916132926940918, -2.553611993789673, 0.06201171875, -0.21240234375, -0.811767578125
94, 3545079684, -5.347076416015625, 2.120110034942627, 7.959864139556885, -2.4597415924072266, -1.2163214683532715, -2.396183729171753, 0.06201171875, -0.21337890625, -0.810791015625
95, 3545096351, -5.333505630493164, 2.1218130588531494, 7.977932453155518, -2.3576104640960693, -1.1495875120162964, -2.4263932704925537, 0.0615234375, -0.2138671875, -0.814208984375
96, 3545113018, -5.335627555847168, 2.144770383834839, 7.95111608505249, -2.387295722961426, -1.1931803226470947, -2.3980658054351807, 0.06201171875, -0.21484375, -0.815673828125
97, 3545129685, -5.339148044586182, 2.144162654876709, 7.953827857971191, -2.426035165786743, -1.1797081232070923, -2.4203362464904785, 0.06298828125, -0.21484375, -0.813232421875
98, 3545146352, -5.336501598358154, 2.1462326049804688, 7.983761310577393, -2.3598134517669678, -1.2843745946884155, -2.457192897796631, 0.06103515625, -0.21337890625, -0.811767578125
99, 3545163019, -5.36222505569458, 2.1245856285095215, 7.975190162658691, -2.4543752670288086, -1.2732841968536377, -2.4321563243865967, 0.0615234375, -0.21240234375, -0.809326171875
100, 3545179686, -5.343934059143066, 2.1267995834350586, 7.966285228729248, -2.3469297885894775, -1.3346521854400635, -2.3173727989196777, 0.0625, -0.21533203125, -0.811767578125
101, 3545196353, -5.347763538360596, 2.14080810546875, 7.958179473876953, -2.431516170501709, -1.450818657875061, -2.312225103378296, 0.0615234375, -0.21337890625, -0.812744140625
102, 3545213020, -5.3373823165893555, 2.1492509841918945, 7.958645820617676, -2.2783775329589844, -1.4221577644348145, -2.254621744155884, 0.060546875, -0.21337890625, -0.811767578125
103, 3545229687, -5.3462395668029785, 2.138824462890625, 7.984049320220947, -2.2658913135528564, -1.4291245937347412, -2.408797264099121, 0.06298828125, -0.21533203125, -0.814208984375
104, 3545246354, -5.33849573135376, 2.122342348098755, 7.967977523803711, -2.128812313079834, -1.2980387210845947, -2.286381483078003, 0.06201171875, -0.21630859375, -0.811767578125
105, 3545263021, -5.343151092529297, 2.1241931915283203, 7.988593578338623, -2.1501989364624023, -1.2404613494873047, -2.1983249187469482, 0.06005859375, -0.2158203125, -0.810302734375
106, 3545279688, -5.331216812133789, 2.1564502716064453, 7.983211040496826, -2.0949909687042236, -1.3110501766204834, -2.190154790878296, 0.06103515625, -0.21630859375, -0.811767578125
107, 3545296355, -5.35198450088501, 2.156625747680664, 7.966381072998047, -2.1385324001312256, -1.5242375135421753, -2.173698663711548, 0.060546875, -0.21337890625, -0.812255859375
108, 3545313022, -5.3399457931518555, 2.1546428203582764, 7.95511531829834, -2.356611728668213, -1.6001789569854736, -2.137981653213501, 0.0595703125, -0.2138671875, -0.812255859375
109, 3545329689, -5.338325500488281, 2.146533250808716, 7.969948768615723, -2.4475114345550537, -1.5855029821395874, -2.2553646564483643, 0.0625, -0.2138671875, -0.813232421875
110, 3545346356, -5.344460964202881, 2.1559672355651855, 7.983098983764648, -2.506471633911133, -1.5896905660629272, -2.3177058696746826, 0.06298828125, -0.21533203125, -0.812255859375
111, 3545363023, -5.344052791595459, 2.1426916122436523, 7.97382926940918, -2.5521647930145264, -1.5957609415054321, -2.301480531692505, 0.06103515625, -0.21337890625, -0.810302734375
112, 3545379690, -5.33461332321167, 2.146763324737549, 7.973057270050049, -2.5528178215026855, -1.6603689193725586, -2.2687346935272217, 0.06103515625, -0.2138671875, -0.812255859375
113, 3545396357, -5.338937282562256, 2.153348684310913, 7.978550434112549, -2.6262755393981934, -1.6314013004302979, -2.428532600402832, 0.060546875, -0.217529296875, -0.813720703125
114, 3545413024, -5.347033977508545, 2.152165412902832, 7.965554237365723, -2.5885863304138184, -1.636203646659851, -2.376270055770874, 0.06103515625, -0.2138671875, -0.811279296875
115, 3545429691, -5.3364481925964355, 2.1529693603515625, 7.957077503204346, -2.7340664863586426, -1.764856219291687, -2.290736198425293, 0.0615234375, -0.21435546875, -0.811279296875
116, 3545446358, -5.336535930633545, 2.1419262886047363, 7.978954792022705, -2.706174373626709, -1.7259889841079712, -2.250549793243408, 0.0615234375, -0.2138671875, -0.811279296875
117, 3545463025, -5.340329170227051, 2.13539457321167, 7.984812259674072, -2.5961415767669678, -1.6335010528564453, -2.212719440460205, 0.060546875, -0.2138671875, -0.811767578125
118, 3545479692, -5.356138706207275, 2.1363725662231445, 7.967162132263184, -2.638556480407715, -1.8528358936309814, -2.194035530090332, 0.060546875, -0.21484375, -0.810791015625
119, 3545496359, -5.343991756439209, 2.1512181758880615, 7.955220699310303, -2.7456812858581543, -2.2292394638061523, -2.055624008178711, 0.0625, -0.212890625, -0.812255859375
120, 3545513026, -5.341100692749023, 2.168471574783325, 7.96824312210083, -2.8894200325012207, -2.324519157409668, -2.144820213317871, 0.06005859375, -0.21630859375, -0.814208984375
121, 3545529693, -5.326568603515625, 2.151228427886963, 7.958811283111572, -2.842151165008545, -2.4178128242492676, -2.1438851356506348, 0.0595703125, -0.21240234375, -0.813232421875
122, 3545546360, -5.3224921226501465, 2.1326475143432617, 8.01006031036377, -2.685018301010132, -2.2789928913116455, -1.981168270111084, 0.05859375, -0.216796875, -0.812255859375
123, 3545563027, -5.298710823059082, 2.139402389526367, 7.994357585906982, -2.4960474967956543, -2.0943124294281006, -2.031484365463257, 0.05859375, -0.21337890625, -0.810791015625
124, 3545579694, -5.288042068481445, 2.1510729789733887, 7.988435745239258, -2.3125319480895996, -1.7051013708114624, -1.9417370557785034, 0.05810546875, -0.2158203125, -0.813232421875
125, 3545596361, -5.300578594207764, 2.1475560665130615, 7.9866623878479, -2.105415105819702, -1.453238844871521, -2.079930305480957, 0.05908203125, -0.21435546875, -0.814208984375
126, 3545613028, -5.318941593170166, 2.168541669845581, 7.986886024475098, -2.1108193397521973, -1.207126498222351, -2.1559743881225586, 0.05859375, -0.21337890625, -0.812744140625
127, 3545629695, -5.301152229309082, 2.1766343116760254, 7.977364540100098, -2.26827335357666, -1.3557184934616089, -2.1270833015441895, 0.0595703125, -0.21337890625, -0.811279296875
128, 3545646362, -5.309519290924072, 2.1488635540008545, 7.977288722991943, -2.2230796813964844, -1.3130861520767212, -2.168332576751709, 0.0595703125, -0.21484375, -0.809814453125
129, 3545663029, -5.33875036239624, 2.1492488384246826, 7.963023662567139, -2.3803932666778564, -1.5441768169403076, -2.231391429901123, 0.05859375, -0.2158203125, -0.811279296875
130, 3545679696, -5.322907447814941, 2.16103196144104, 7.976383209228516, -2.522672176361084, -1.8651041984558105, -2.2208006381988525, 0.057373046875, -0.2158203125, -0.811279296875
131, 3545696363, -5.318282604217529, 2.1544320583343506, 8.004382133483887, -2.5896363258361816, -1.7995742559432983, -2.270284414291382, 0.05810546875, -0.212890625, -0.81396484375
132, 3545713030, -5.318526268005371, 2.1645147800445557, 7.969199180603027, -2.4916677474975586, -1.7752803564071655, -2.2141923904418945, 0.05810546875, -0.21533203125, -0.812255859375
133, 3545729697, -5.329677104949951, 2.172269582748413, 7.9698076248168945, -2.6469063758850098, -1.8609166145324707, -2.3030176162719727, 0.057861328125, -0.21630859375, -0.811767578125
134, 3545746364, -5.327638626098633, 2.1635942459106445, 7.984333515167236, -2.674196243286133, -2.007779359817505, -2.3957862854003906, 0.05908203125, -0.21484375, -0.810302734375
135, 3545763031, -5.325539588928223, 2.1532280445098877, 7.964023113250732, -2.740891695022583, -2.1416313648223877, -2.3299484252929688, 0.05712890625, -0.2158203125, -0.8134765625
136, 3545779698, -5.314521312713623, 2.147606611251831, 7.992408752441406, -2.7570276260375977, -2.154066562652588, -2.1306309700012207, 0.056884765625, -0.21484375, -0.812255859375
137, 3545796365, -5.295510768890381, 2.148190498352051, 7.994387626647949, -2.666602611541748, -2.024120807647705, -2.2156782150268555, 0.057861328125, -0.21435546875, -0.812255859375
138, 3545813032, -5.281437873840332, 2.169989824295044, 8.012764930725098, -2.5528948307037354, -1.8228304386138916, -2.238588809967041, 0.0576171875, -0.21435546875, -0.813232421875
139, 3545829699, -5.312795639038086, 2.1667978763580322, 7.990173816680908, -2.4879918098449707, -1.6383930444717407, -2.216856002807617, 0.06005859375, -0.21533203125, -0.813720703125
140, 3545846366, -5.30344820022583, 2.1568822860717773, 7.9805192947387695, -2.5492706298828125, -1.8412971496582031, -2.0963995456695557, 0.057861328125, -0.21630859375, -0.811767578125
141, 3545863033, -5.28920841217041, 2.1727898120880127, 7.990346431732178, -2.7653908729553223, -2.008305072784424, -2.2002720832824707, 0.05810546875, -0.21533203125, -0.813720703125
142, 3545879700, -5.2828369140625, 2.1612496376037598, 8.0042085647583, -2.7619714736938477, -1.9234756231307983, -2.2567481994628906, 0.057861328125, -0.21240234375, -0.81298828125
143, 3545896367, -5.287675380706787, 2.1532459259033203, 8.00047779083252, -2.8546254634857178, -1.7302278280258179, -2.281682252883911, 0.0576171875, -0.21435546875, -0.812744140625
144, 3545913034, -5.284976959228516, 2.1702418327331543, 8.000444412231445, -2.7995452880859375, -1.597233772277832, -2.344241142272949, 0.05810546875, -0.21435546875, -0.813232421875
145, 3545929701, -5.292095184326172, 2.1662888526916504, 7.989872932434082, -2.741288900375366, -1.5203187465667725, -2.3565478324890137, 0.0576171875, -0.21484375, -0.812744140625
146, 3545946368, -5.306991100311279, 2.136000633239746, 8.002224922180176, -2.7087225914001465, -1.4649442434310913, -2.3725175857543945, 0.057373046875, -0.21484375, -0.812744140625
147, 3545963035, -5.309390068054199, 2.1383655071258545, 7.997162818908691, -2.5974738597869873, -1.3730072975158691, -2.263599157333374, 0.057373046875, -0.21630859375, -0.812744140625
148, 3545979702, -5.297572612762451, 2.149549961090088, 8.001677513122559, -2.2928872108459473, -1.3497507572174072, -2.1201295852661133, 0.056396484375, -0.21533203125, -0.812255859375
149, 3545996369, -5.306201934814453, 2.1427741050720215, 7.9830827713012695, -2.0438551902770996, -1.3243813514709473, -2.0690579414367676, 0.056396484375, -0.21484375, -0.8134765625
150, 3546013036, -5.286509037017822, 2.1543972492218018, 8.014257431030273, -1.96436607837677, -1.2980517148971558, -2.0288589000701904, 0.057373046875, -0.21484375, -0.8134765625
151, 3546029703, -5.3025803565979, 2.1582837104797363, 8.013264656066895, -1.871545672416687, -1.200275182723999, -2.046800374984741, 0.05859375, -0.21435546875, -0.81689453125
152, 3546046370, -5.316468238830566, 2.17010498046875, 7.998247146606445, -1.8833659887313843, -1.189095139503479, -2.0432019233703613, 0.056884765625, -0.21484375, -0.812255859375
153, 3546063037, -5.293593406677246, 2.158116102218628, 8.004912376403809, -2.064985513687134, -1.2249401807785034, -2.0449182987213135, 0.05810546875, -0.21630859375, -0.810791015625
154, 3546079704, -5.271328449249268, 2.1790971755981445, 7.975162029266357, -1.9687076807022095, -1.3471770286560059, -2.0433177947998047, 0.056884765625, -0.2158203125, -0.811279296875
155, 3546096371, -5.287118434906006, 2.1841237545013428, 7.996031761169434, -2.037233829498291, -1.4073920249938965, -2.1755168437957764, 0.056640625, -0.2158203125, -0.81494140625
156, 3546113038, -5.291305065155029, 2.1937549114227295, 7.976966857910156, -2.1858389377593994, -1.5218168497085571, -2.2848191261291504, 0.055419921875, -0.2158203125, -0.8125
157, 3546129705, -5.278864860534668, 2.196542739868164, 7.992063045501709, -2.466285228729248, -1.5482876300811768, -2.3868987560272217, 0.06005859375, -0.21630859375, -0.812255859375
158, 3546146372, -5.283202171325684, 2.1959640979766846, 8.011303901672363, -2.4345898628234863, -1.4368852376937866, -2.4807181358337402, 0.055908203125, -0.216796875, -0.811279296875
159, 3546163039, -5.281693935394287, 2.1932058334350586, 7.985286712646484, -2.4357290267944336, -1.2740141153335571, -2.6110353469848633, 0.055908203125, -0.2158203125, -0.811767578125
160, 3546179706, -5.293578147888184, 2.1849918365478516, 8.0012845993042, -2.484649658203125, -1.233648657798767, -2.5391664505004883, 0.056396484375, -0.21533203125, -0.8134765625
161, 3546196373, -5.309693336486816, 2.1735308170318604, 7.972923278808594, -2.513054370880127, -1.220470905303955, -2.575664520263672, 0.0576171875, -0.2158203125, -0.813720703125
162, 3546213040, -5.300960063934326, 2.1728479862213135, 7.997015476226807, -2.6694583892822266, -1.3823944330215454, -2.5836942195892334, 0.05810546875, -0.21533203125, -0.812744140625
163, 3546229707, -5.29774284362793, 2.1767830848693848, 7.990438938140869, -2.7462708950042725, -1.4028207063674927, -2.635713815689087, 0.05859375, -0.2158203125, -0.813720703125
164, 3546246374, -5.2980170249938965, 2.1843414306640625, 7.984138488769531, -2.7283806800842285, -1.52604341506958, -2.4908740520477295, 0.05712890625, -0.21630859375, -0.814453125
165, 3546263041, -5.322253227233887, 2.1869258880615234, 8.00240707397461, -2.7494211196899414, -1.5281819105148315, -2.4826009273529053, 0.05712890625, -0.21533203125, -0.814453125
166, 3546279708, -5.297325134277344, 2.192622423171997, 7.982932090759277, -2.785496473312378, -1.5469560623168945, -2.492103338241577, 0.056884765625, -0.21630859375, -0.812744140625
167, 3546296375, -5.297983169555664, 2.1826326847076416, 7.978684425354004, -2.768528461456299, -1.452278733253479, -2.539294481277466, 0.056396484375, -0.21484375, -0.814453125
168, 3546313042, -5.287836074829102, 2.17887806892395, 8.002622604370117, -2.7519309520721436, -1.3936383724212646, -2.5270774364471436, 0.055419921875, -0.21484375, -0.810791015625
169, 3546329709, -5.302215576171875, 2.163663864135742, 7.97309684753418, -2.685901641845703, -1.350967526435852, -2.52573299407959, 0.05859375, -0.21484375, -0.813232421875
170, 3546346376, -5.302191734313965, 2.1729624271392822, 7.977450847625732, -2.7673118114471436, -1.4288686513900757, -2.5738718509674072, 0.05712890625, -0.21533203125, -0.814453125
171, 3546363043, -5.290529251098633, 2.160264492034912, 7.999625205993652, -2.7277915477752686, -1.3765162229537964, -2.590456247329712, 0.057373046875, -0.21533203125, -0.810791015625
172, 3546379710, -5.280244827270508, 2.1819217205047607, 8.003998756408691, -2.7602427005767822, -1.4424562454223633, -2.5882277488708496, 0.056396484375, -0.21484375, -0.812255859375
173, 3546396377, -5.28164529800415, 2.1582093238830566, 8.013989448547363, -2.711014986038208, -1.290816068649292, -2.7053418159484863, 0.056884765625, -0.216796875, -0.812744140625
174, 3546413044, -5.298807621002197, 2.1747519969940186, 7.982609748840332, -2.6180922985076904, -1.3245097398757935, -2.6446268558502197, 0.057373046875, -0.2158203125, -0.812255859375
175, 3546429711, -5.298003196716309, 2.1602203845977783, 8.003050804138184, -2.556199073791504, -1.3248682022094727, -2.581632375717163, 0.0576171875, -0.2158203125, -0.81396484375
176, 3546446378, -5.2907609939575195, 2.164167642593384, 7.978362560272217, -2.6077191829681396, -1.3436808586120605, -2.495753049850464, 0.056396484375, -0.21435546875, -0.811279296875
177, 3546463045, -5.274969100952148, 2.170466423034668, 7.957590579986572, -2.5833356380462646, -1.3689606189727783, -2.559720754623413, 0.057373046875, -0.21630859375, -0.811767578125
178, 3546479712, -5.285006523132324, 2.182089328765869, 7.975428581237793, -2.6392099857330322, -1.360136866569519, -2.6085896492004395, 0.056396484375, -0.21435546875, -0.809814453125
179, 3546496379, -5.301238059997559, 2.1804087162017822, 7.998830318450928, -2.719428777694702, -1.3710607290267944, -2.5679807662963867, 0.056884765625, -0.2158203125, -0.814453125
180, 3546513046, -5.293341636657715, 2.1678555011749268, 7.975100517272949, -2.705636501312256, -1.3332436084747314, -2.575331687927246, 0.055419921875, -0.21533203125, -0.81201171875
181, 3546529713, -5.292253017425537, 2.1840853691101074, 7.98073148727417, -2.677705764770508, -1.4052537679672241, -2.5659449100494385, 0.05810546875, -0.2138671875, -0.814453125
182, 3546546380, -5.286179065704346, 2.175985336303711, 7.965176582336426, -2.7338616847991943, -1.260477900505066, -2.609729766845703, 0.057373046875, -0.21728515625, -0.811279296875
183, 3546563047, -5.300389289855957, 2.175051212310791, 7.976077079772949, -2.617886781692505, -1.229960322380066, -2.5769834518432617, 0.055908203125, -0.21337890625, -0.8115234375
184, 3546579714, -5.298791408538818, 2.173707962036133, 7.9783220291137695, -2.7289185523986816, -1.3748259544372559, -2.540677547454834, 0.056396484375, -0.21533203125, -0.811279296875
185, 3546596381, -5.30666446685791, 2.1656572818756104, 7.989182949066162, -2.697542905807495, -1.2977571487426758, -2.540344715118408, 0.056884765625, -0.216796875, -0.812255859375
186, 3546613048, -5.2982378005981445, 2.191333770751953, 7.98640775680542, -2.6812784671783447, -1.3119593858718872, -2.567507028579712, 0.05908203125, -0.2158203125, -0.812744140625
187, 3546629715, -5.277143955230713, 2.1514217853546143, 7.98129415512085, -2.6399271488189697, -1.3099745512008667, -2.5606043338775635, 0.056396484375, -0.21484375, -0.8125
188, 3546646382, -5.293292999267578, 2.1654279232025146, 8.014439582824707, -2.630424737930298, -1.1710383892059326, -2.6165170669555664, 0.0595703125, -0.21533203125, -0.811767578125
189, 3546663049, -5.293863773345947, 2.169755220413208, 7.992138385772705, -2.481499195098877, -1.041271448135376, -2.58711314201355, 0.057861328125, -0.2138671875, -0.811279296875
190, 3546679716, -5.305323600769043, 2.162513017654419, 7.976306438446045, -2.364936113357544, -1.0133280754089355, -2.5198161602020264, 0.056396484375, -0.21484375, -0.811279296875
191, 3546696383, -5.314070701599121, 2.1670401096343994, 7.995188236236572, -2.414752721786499, -1.1917204856872559, -2.4840097427368164, 0.056396484375, -0.2138671875, -0.81201171875
192, 3546713050, -5.3057379722595215, 2.167623996734619, 7.990283489227295, -2.456718683242798, -1.2290894985198975, -2.5318026542663574, 0.056884765625, -0.21533203125, -0.8134765625
193, 3546729717, -5.266626358032227, 2.183238983154297, 7.98076868057251, -2.5352864265441895, -1.2039122581481934, -2.5886120796203613, 0.056884765625, -0.21435546875, -0.81298828125
194, 3546746384, -5.3012847900390625, 2.1773877143859863, 7.995705604553223, -2.5166399478912354, -1.022945761680603, -2.695660352706909, 0.05810546875, -0.21630859375, -0.813232421875
195, 3546763051, -5.31394100189209, 2.1732842922210693, 7.997884750366211, -2.5393712520599365, -1.0986440181732178, -2.6347146034240723, 0.05810546875, -0.216796875, -0.812744140625
196, 3546779718, -5.306312561035156, 2.163628101348877, 7.9904046058654785, -2.527423143386841, -1.0363795757293701, -2.6792423725128174, 0.05810546875, -0.218994140625, -0.810791015625
197, 3546796385, -5.315855026245117, 2.1546998023986816, 7.9782938957214355, -2.4655675888061523, -1.1105409860610962, -2.611342430114746, 0.056396484375, -0.21630859375, -0.810302734375
198, 3546813052, -5.3076677322387695, 2.1619105339050293, 7.969993591308594, -2.4481258392333984, -1.1082231998443604, -2.4686288833618164, 0.057861328125, -0.21337890625, -0.811767578125
199, 3546829719, -5.316789150238037, 2.17852520942688, 7.985858917236328, -2.474724769592285, -1.2369270324707031, -2.5513453483581543, 0.057861328125, -0.21484375, -0.811767578125
200, 3546846386, -5.289426803588867, 2.201974868774414, 7.981835842132568, -2.5489120483398438, -1.253613829612732, -2.5397558212280273, 0.058349609375, -0.21337890625, -0.811279296875
201, 3546863053, -5.3063883781433105, 2.1780269145965576, 7.994102954864502, -2.57131028175354, -1.2244664430618286, -2.657829999923706, 0.0595703125, -0.2138671875, -0.812255859375
202, 3546879720, -5.328787803649902, 2.159092426300049, 8.000164031982422, -2.601930618286133, -1.3841615915298462, -2.594681978225708, 0.056884765625, -0.21533203125, -0.811767578125
203, 3546896387, -5.298981666564941, 2.170753240585327, 7.993270397186279, -2.614506483078003, -1.434349775314331, -2.510941505432129, 0.05859375, -0.2158203125, -0.812744140625
204, 3546913054, -5.305034160614014, 2.1681575775146484, 7.9900126457214355, -2.7471160888671875, -1.428343653678894, -2.5477981567382812, 0.057861328125, -0.21630859375, -0.811279296875
205, 3546929721, -5.3210835456848145, 2.1732583045959473, 7.988040924072266, -2.79374361038208, -1.5365698337554932, -2.653564929962158, 0.0595703125, -0.2158203125, -0.812255859375
206, 3546946388, -5.3190436363220215, 2.1767547130584717, 7.973936080932617, -2.8333535194396973, -1.7103519439697266, -2.6280293464660645, 0.05859375, -0.21533203125, -0.8173828125
207, 3546963055, -5.305916786193848, 2.1455745697021484, 8.007832527160645, -2.982445001602173, -1.6734569072723389, -2.6311540603637695, 0.06201171875, -0.2158203125, -0.81005859375
208, 3546979722, -5.305672645568848, 2.1694178581237793, 7.98528528213501, -2.8752174377441406, -1.5739517211914062, -2.5818753242492676, 0.05859375, -0.2138671875, -0.811767578125
209, 3546996389, -5.308756351470947, 2.157222270965576, 8.00435733795166, -2.7123725414276123, -1.382778525352478, -2.6301558017730713, 0.0576171875, -0.2158203125, -0.814453125
210, 3547013056, -5.295154094696045, 2.164513349533081, 7.975129127502441, -2.549142599105835, -1.26543390750885, -2.53572154045105, 0.0576171875, -0.2138671875, -0.8134765625
211, 3547029723, -5.312356472015381, 2.1594889163970947, 7.966021537780762, -2.5676605701446533, -1.3047112226486206, -2.5026683807373047, 0.0595703125, -0.21630859375, -0.813720703125
212, 3547046390, -5.319526195526123, 2.177468776702881, 7.9541144371032715, -2.654359817504883, -1.4936175346374512, -2.492717981338501, 0.06103515625, -0.21435546875, -0.811279296875
213, 3547063057, -5.295462608337402, 2.1715762615203857, 7.994451522827148, -2.6433846950531006, -1.521471381187439, -2.6090378761291504, 0.057861328125, -0.21484375, -0.809814453125
214, 3547079724, -5.304120063781738, 2.1730947494506836, 8.00151538848877, -2.730762481689453, -1.4691575765609741, -2.5483360290527344, 0.056396484375, -0.216796875, -0.811279296875
215, 3547096391, -5.310365200042725, 2.172394037246704, 7.983161449432373, -2.6666665077209473, -1.3400310277938843, -2.679203987121582, 0.05810546875, -0.21484375, -0.813720703125
216, 3547113058, -5.337534427642822, 2.1603269577026367, 7.985892295837402, -2.785867214202881, -1.521253228187561, -2.7107326984405518, 0.05908203125, -0.2138671875, -0.812255859375
217, 3547129725, -5.304966449737549, 2.1637423038482666, 7.950420379638672, -2.923574686050415, -1.6605865955352783, -2.6329729557037354, 0.05712890625, -0.21435546875, -0.81396484375
218, 3547146392, -5.296168804168701, 2.1718943119049072, 7.979854583740234, -3.0866119861602783, -1.8060156106948853, -2.6752851009368896, 0.05810546875, -0.212890625, -0.81591796875
219, 3547163059, -5.297104358673096, 2.1669297218322754, 7.9747090339660645, -3.181455612182617, -1.660074234008789, -2.6923940181732178, 0.05908203125, -0.21533203125, -0.810791015625
220, 3547179726, -5.307119369506836, 2.168780565261841, 7.954421043395996, -3.2963292598724365, -1.774307131767273, -2.753736972808838, 0.056884765625, -0.21435546875, -0.8125
221, 3547196393, -5.297545433044434, 2.1726396083831787, 8.020279884338379, -3.451580047607422, -1.9295839071273804, -2.8936712741851807, 0.05810546875, -0.21484375, -0.81396484375
222, 3547213060, -5.3018951416015625, 2.15942645072937, 7.986398220062256, -3.5978031158447266, -1.9579755067825317, -2.94743275642395, 0.0576171875, -0.216796875, -0.813232421875
223, 3547229727, -5.263418674468994, 2.152514934539795, 8.003976821899414, -3.383232593536377, -1.9015891551971436, -2.8622958660125732, 0.055908203125, -0.21337890625, -0.8125
224, 3547246394, -5.297793388366699, 2.134774923324585, 8.018111228942871, -3.3331987857818604, -1.6473833322525024, -2.775622844696045, 0.0576171875, -0.21435546875, -0.813232421875
225, 3547263061, -5.31339168548584, 2.125911235809326, 8.044200897216797, -2.960597515106201, -1.3469974994659424, -2.805551290512085, 0.057861328125, -0.21240234375, -0.811279296875
226, 3547279728, -5.322286605834961, 2.1048877239227295, 7.997613906860352, -2.739931583404541, -1.2214568853378296, -2.622049331665039, 0.0576171875, -0.2138671875, -0.8134765625
227, 3547296395, -5.330503463745117, 2.105757236480713, 7.9884185791015625, -2.5263729095458984, -1.414845585823059, -2.5039360523223877, 0.054931640625, -0.21484375, -0.814453125
228, 3547313062, -5.316314220428467, 2.1225433349609375, 8.014418601989746, -2.349106788635254, -1.5022999048233032, -2.2619340419769287, 0.056884765625, -0.212890625, -0.814453125
229, 3547329729, -5.296983242034912, 2.1310267448425293, 7.995865345001221, -2.3035805225372314, -1.6280200481414795, -2.2482829093933105, 0.057373046875, -0.21240234375, -0.81396484375
230, 3547346396, -5.280681610107422, 2.149104356765747, 7.980348587036133, -2.1485469341278076, -1.4020520448684692, -2.227370262145996, 0.0576171875, -0.21484375, -0.812744140625
231, 3547363063, -5.278417110443115, 2.1355533599853516, 7.99099063873291, -2.026860475540161, -1.1625090837478638, -2.1602261066436768, 0.057373046875, -0.21240234375, -0.811279296875
232, 3547379730, -5.2970757484436035, 2.151393413543701, 7.993800163269043, -1.9870587587356567, -1.0142244100570679, -2.252803325653076, 0.057373046875, -0.21435546875, -0.812255859375
233, 3547396397, -5.301727294921875, 2.1561279296875, 7.9643330574035645, -2.0540103912353516, -1.0252891778945923, -2.246387481689453, 0.057373046875, -0.2138671875, -0.81298828125
234, 3547413064, -5.283074378967285, 2.165397882461548, 8.0042724609375, -1.9987893104553223, -1.111296534538269, -2.3016340732574463, 0.056396484375, -0.2138671875, -0.8154296875
235, 3547429731, -5.283867359161377, 2.158801794052124, 8.001968383789062, -2.197582244873047, -1.1142164468765259, -2.4390974044799805, 0.056884765625, -0.21337890625, -0.81298828125
236, 3547446398, -5.291718482971191, 2.155106544494629, 8.006396293640137, -2.124560594558716, -0.9748578667640686, -2.419145345687866, 0.057373046875, -0.21533203125, -0.812744140625
237, 3547463065, -5.28166389465332, 2.1524555683135986, 7.993340492248535, -2.0094828605651855, -0.7418718338012695, -2.4417738914489746, 0.05859375, -0.21435546875, -0.811279296875
238, 3547479732, -5.302966117858887, 2.1496317386627197, 7.981787204742432, -1.9441064596176147, -0.7219964265823364, -2.3616702556610107, 0.05908203125, -0.216796875, -0.811767578125
239, 3547496399, -5.317448139190674, 2.1540687084198, 7.981908321380615, -1.8807790279388428, -0.6982662677764893, -2.2920422554016113, 0.057861328125, -0.21337890625, -0.812744140625
240, 3547513066, -5.313424110412598, 2.165853500366211, 7.971372127532959, -1.981001615524292, -0.7522962689399719, -2.1577932834625244, 0.057373046875, -0.2158203125, -0.813232421875
241, 3547529733, -5.322309970855713, 2.1744534969329834, 7.972506046295166, -2.067380666732788, -0.8939856886863708, -2.199631690979004, 0.05810546875, -0.2138671875, -0.814453125
242, 3547546400, -5.303843975067139, 2.1677303314208984, 7.992599964141846, -2.0668680667877197, -0.8041747212409973, -2.2490897178649902, 0.0576171875, -0.21484375, -0.81494140625
243, 3547563067, -5.301898002624512, 2.186736822128296, 7.985233783721924, -2.149622678756714, -0.7828777432441711, -2.299661874771118, 0.0595703125, -0.2158203125, -0.810302734375
244, 3547579734, -5.313726425170898, 2.17313289642334, 7.968846321105957, -2.137444019317627, -0.721240758895874, -2.413266897201538, 0.05810546875, -0.21533203125, -0.812255859375
245, 3547596401, -5.312636852264404, 2.1455631256103516, 7.983001232147217, -2.1262383460998535, -0.6079814434051514, -2.302863359451294, 0.0595703125, -0.21533203125, -0.814208984375
246, 3547613068, -5.33669376373291, 2.158661365509033, 7.9873528480529785, -2.103814125061035, -0.7878594398498535, -2.2315833568573, 0.06005859375, -0.2138671875, -0.813232421875
247, 3547629735, -5.3375244140625, 2.1677703857421875, 7.960805416107178, -2.2558000087738037, -0.9442633390426636, -2.2412004470825195, 0.0615234375, -0.21435546875, -0.811767578125
248, 3547646402, -5.321180820465088, 2.1813063621520996, 7.957099914550781, -2.468449592590332, -1.1542491912841797, -2.3295774459838867, 0.05859375, -0.21630859375, -0.812255859375
249, 3547663069, -5.3024115562438965, 2.2008683681488037, 7.963143825531006, -2.6761562824249268, -1.295849084854126, -2.4623031616210938, 0.05908203125, -0.21533203125, -0.811279296875
250, 3547679736, -5.307769775390625, 2.193826675415039, 7.981819152832031, -2.858710289001465, -1.3420286178588867, -2.58064603805542, 0.05908203125, -0.2158203125, -0.812255859375
251, 3547696403, -5.3122992515563965, 2.1762704849243164, 7.996815204620361, -2.9829063415527344, -1.26315438747406, -2.6706745624542236, 0.06005859375, -0.21484375, -0.811767578125
252, 3547713070, -5.331660747528076, 2.1833431720733643, 7.9742512702941895, -3.107665777206421, -1.3178119659423828, -2.7330033779144287, 0.05810546875, -0.21484375, -0.812255859375
253, 3547729737, -5.327669620513916, 2.171128511428833, 7.942749977111816, -3.0819759368896484, -1.5114820003509521, -2.7541844844818115, 0.060546875, -0.21484375, -0.813720703125
254, 3547746404, -5.324141502380371, 2.159294843673706, 7.975320816040039, -3.2234995365142822, -1.6831132173538208, -2.708543300628662, 0.060546875, -0.21484375, -0.812744140625
255, 3547763071, -5.323598384857178, 2.167032241821289, 7.9710774421691895, -3.1339192390441895, -1.748643398284912, -2.833878993988037, 0.05859375, -0.21630859375, -0.811279296875
256, 3547779738, -5.320009231567383, 2.144623041152954, 7.9922895431518555, -3.0870087146759033, -1.5995641946792603, -2.7856242656707764, 0.05908203125, -0.2138671875, -0.812255859375
257, 3547796405, -5.336600303649902, 2.141237258911133, 7.971557140350342, -2.8859364986419678, -1.4934253692626953, -2.627593755722046, 0.06005859375, -0.21484375, -0.812255859375
258, 3547813072, -5.33675479888916, 2.141542434692383, 7.963514804840088, -2.8497073650360107, -1.5498756170272827, -2.5216853618621826, 0.05859375, -0.21630859375, -0.813720703125
259, 3547829739, -5.334001064300537, 2.158003330230713, 7.966516494750977, -2.811800479888916, -1.8135967254638672, -2.4938700199127197, 0.0595703125, -0.21435546875, -0.813720703125
260, 3547846406, -5.32291841506958, 2.149364709854126, 7.96606969833374, -2.8613481521606445, -1.9539158344268799, -2.488196849822998, 0.05908203125, -0.21435546875, -0.812255859375
261, 3547863073, -5.3098955154418945, 2.155287742614746, 7.981557369232178, -3.0081348419189453, -1.9862905740737915, -2.6242387294769287, 0.058349609375, -0.21337890625, -0.810791015625
262, 3547879740, -5.298908710479736, 2.176124095916748, 7.973050117492676, -3.0553650856018066, -2.010341167449951, -2.7170722484588623, 0.057373046875, -0.21484375, -0.812744140625
263, 3547896407, -5.2883219718933105, 2.154068946838379, 7.98673677444458, -3.213228702545166, -1.8329089879989624, -2.8617711067199707, 0.05810546875, -0.21435546875, -0.812255859375
264, 3547913074, -5.308912754058838, 2.171903610229492, 7.981179237365723, -3.221501588821411, -1.8491348028182983, -2.909475088119507, 0.05908203125, -0.212890625, -0.81591796875
265, 3547929741, -5.303016662597656, 2.1322975158691406, 7.995141983032227, -3.2547342777252197, -1.7647535800933838, -2.893198013305664, 0.05859375, -0.21484375, -0.814453125
266, 3547946408, -5.300725936889648, 2.139848232269287, 7.976707935333252, -3.246448278427124, -1.8815090656280518, -2.9367010593414307, 0.05859375, -0.21337890625, -0.813232421875
267, 3547963075, -5.305469512939453, 2.1193020343780518, 7.968105792999268, -3.2429139614105225, -1.6403656005859375, -2.8586208820343018, 0.05810546875, -0.21337890625, -0.812744140625
268, 3547979742, -5.305761814117432, 2.137145757675171, 7.9813971519470215, -3.0094666481018066, -1.5347514152526855, -2.8396034240722656, 0.05908203125, -0.2138671875, -0.810791015625
269, 3547996409, -5.3139872550964355, 2.123924970626831, 8.008332252502441, -2.815399169921875, -1.406406044960022, -2.6983232498168945, 0.057861328125, -0.21240234375, -0.812255859375
270, 3548013076, -5.326606273651123, 2.103330373764038, 8.005316734313965, -2.589392900466919, -1.3762856721878052, -2.5514090061187744, 0.057373046875, -0.212890625, -0.8125
271, 3548029743, -5.315280914306641, 2.1273374557495117, 7.995554447174072, -2.4396097660064697, -1.3515437841415405, -2.5341849327087402, 0.05859375, -0.21337890625, -0.813232421875
272, 3548046410, -5.30690336227417, 2.1341240406036377, 7.994607448577881, -2.294116497039795, -1.3710862398147583, -2.364205837249756, 0.05908203125, -0.2119140625, -0.810302734375
273, 3548063077, -5.314368724822998, 2.1418771743774414, 7.970883846282959, -2.372452974319458, -1.4149863719940186, -2.3117127418518066, 0.060546875, -0.21484375, -0.811279296875
274, 3548079744, -5.300622463226318, 2.155538320541382, 7.97813606262207, -2.49358868598938, -1.5109443664550781, -2.437061309814453, 0.058837890625, -0.2119140625, -0.810302734375
275, 3548096411, -5.301787853240967, 2.1657276153564453, 7.974311351776123, -2.6983752250671387, -1.5742464065551758, -2.445833921432495, 0.057373046875, -0.2109375, -0.8134765625
276, 3548113078, -5.284243583679199, 2.16934871673584, 7.995344638824463, -2.719569683074951, -1.5495941638946533, -2.556339979171753, 0.05810546875, -0.2138671875, -0.81396484375
277, 3548129745, -5.291659832000732, 2.1513795852661133, 8.011236190795898, -2.6658213138580322, -1.3792569637298584, -2.622664213180542, 0.05859375, -0.2138671875, -0.813232421875
278, 3548146412, -5.301760196685791, 2.1348488330841064, 7.994880676269531, -2.647392988204956, -1.205039143562317, -2.6690611839294434, 0.0576171875, -0.212890625, -0.814453125
279, 3548163079, -5.305540084838867, 2.1374263763427734, 7.985649585723877, -2.5791993141174316, -1.3135218620300293, -2.5939650535583496, 0.05908203125, -0.2138671875, -0.812255859375
280, 3548179746, -5.31320858001709, 2.1433730125427246, 8.001429557800293, -2.5625381469726562, -1.3278266191482544, -2.5251309871673584, 0.05810546875, -0.21337890625, -0.812255859375
281, 3548196413, -5.3167290687561035, 2.1348869800567627, 7.985755920410156, -2.5164480209350586, -1.4076613187789917, -2.3796889781951904, 0.05810546875, -0.21435546875, -0.812744140625
282, 3548213080, -5.3106889724731445, 2.1315386295318604, 8.004594802856445, -2.4780032634735107, -1.4086858034133911, -2.3700711727142334, 0.06005859375, -0.2138671875, -0.813720703125
283, 3548229747, -5.311626434326172, 2.130598306655884, 7.994053363800049, -2.48394513130188, -1.362300992012024, -2.3573801517486572, 0.056884765625, -0.212890625, -0.81201171875
284, 3548246414, -5.3180694580078125, 2.1514861583709717, 8.002065658569336, -2.4078116416931152, -1.3418879508972168, -2.407209634780884, 0.056396484375, -0.21240234375, -0.81298828125
285, 3548263081, -5.319667339324951, 2.1431498527526855, 7.994913101196289, -2.4371252059936523, -1.450229525566101, -2.4441301822662354, 0.06005859375, -0.2138671875, -0.813232421875
286, 3548279748, -5.301963806152344, 2.1514458656311035, 7.974289417266846, -2.5432262420654297, -1.4834620952606201, -2.4904255867004395, 0.05908203125, -0.21240234375, -0.812255859375
287, 3548296415, -5.305507183074951, 2.1536166667938232, 7.990184783935547, -2.564548969268799, -1.4792104959487915, -2.3928158283233643, 0.055419921875, -0.21484375, -0.81201171875
288, 3548313082, -5.298556804656982, 2.14591908454895, 7.99189567565918, -2.6164653301239014, -1.5267090797424316, -2.452838897705078, 0.0576171875, -0.2138671875, -0.8134765625
289, 3548329749, -5.318827152252197, 2.1292076110839844, 7.990525722503662, -2.6555891036987305, -1.4596168994903564, -2.500145673751831, 0.05908203125, -0.21337890625, -0.813232421875
290, 3548346416, -5.302499294281006, 2.152186632156372, 7.99574613571167, -2.6697657108306885, -1.5018906593322754, -2.352398633956909, 0.057861328125, -0.2138671875, -0.811279296875
291, 3548363083, -5.300459861755371, 2.1508257389068604, 7.987689971923828, -2.677462100982666, -1.511994481086731, -2.4364850521087646, 0.058837890625, -0.212890625, -0.809326171875
292, 3548379750, -5.29538106918335, 2.1400115489959717, 7.982687473297119, -2.777646541595459, -1.5297443866729736, -2.5198800563812256, 0.05859375, -0.2138671875, -0.812255859375
293, 3548396417, -5.296109199523926, 2.1355080604553223, 7.992632865905762, -2.8071138858795166, -1.5386959314346313, -2.504384756088257, 0.057373046875, -0.21484375, -0.812744140625
294, 3548413084, -5.302502155303955, 2.1375153064727783, 7.98307991027832, -2.90234112739563, -1.5268239974975586, -2.5965254306793213, 0.05810546875, -0.212890625, -0.81591796875
295, 3548429751, -5.3069281578063965, 2.1373848915100098, 8.006085395812988, -2.770615816116333, -1.4476301670074463, -2.5696327686309814, 0.05810546875, -0.212890625, -0.8134765625
296, 3548446418, -5.323610305786133, 2.135896921157837, 7.989895343780518, -2.8069729804992676, -1.423374891281128, -2.4868781566619873, 0.060546875, -0.212890625, -0.814208984375
297, 3548463085, -5.302596569061279, 2.1349902153015137, 7.993878364562988, -2.5988571643829346, -1.4828987121582031, -2.404431104660034, 0.05859375, -0.2138671875, -0.813720703125
298, 3548479752, -5.296864986419678, 2.1471500396728516, 7.987829685211182, -2.7951653003692627, -1.4272806644439697, -2.5269365310668945, 0.057861328125, -0.2119140625, -0.8125
299, 3548496419, -5.290259838104248, 2.141169786453247, 8.004528999328613, -2.753314256668091, -1.2785221338272095, -2.5736284255981445, 0.057861328125, -0.21337890625, -0.811767578125
300, 3548513086, -5.312241554260254, 2.131321907043457, 7.978107929229736, -2.832828998565674, -1.3156734704971313, -2.5278584957122803, 0.056396484375, -0.21142578125, -0.8125
301, 3548529753, -5.308052062988281, 2.1487314701080322, 7.979852199554443, -2.8832597732543945, -1.3572553396224976, -2.628221273422241, 0.057373046875, -0.21240234375, -0.8125
302, 3548546420, -5.3094892501831055, 2.1166415214538574, 7.9973602294921875, -2.906477451324463, -1.4018086194992065, -2.5957186222076416, 0.05859375, -0.212890625, -0.812255859375
303, 3548563087, -5.290322780609131, 2.128331184387207, 8.00398063659668, -2.842830181121826, -1.402807593345642, -2.590635061264038, 0.057861328125, -0.21142578125, -0.81298828125
304, 3548579754, -5.293141841888428, 2.1271767616271973, 7.967769145965576, -2.84749174118042, -1.326187014579773, -2.615363836288452, 0.057373046875, -0.21240234375, -0.8134765625
305, 3548596421, -5.2968831062316895, 2.108443021774292, 7.994457721710205, -2.841614246368408, -1.3662198781967163, -2.581158399581909, 0.05810546875, -0.21435546875, -0.811279296875
306, 3548613088, -5.307053089141846, 2.141089916229248, 8.022159576416016, -2.840115547180176, -1.2661383152008057, -2.6264419555664062, 0.05810546875, -0.21240234375, -0.8134765625
307, 3548629755, -5.309762954711914, 2.116551399230957, 7.996443748474121, -2.7393813133239746, -1.325470209121704, -2.6128671169281006, 0.05859375, -0.212890625, -0.812255859375
308, 3548646422, -5.305409908294678, 2.1389172077178955, 7.986352920532227, -2.7686564922332764, -1.3069905042648315, -2.5512044429779053, 0.0576171875, -0.21142578125, -0.8154296875
309, 3548663089, -5.301901340484619, 2.136138677597046, 8.010831832885742, -2.760550022125244, -1.4289071559906006, -2.6180150508880615, 0.05859375, -0.2119140625, -0.812255859375
310, 3548679756, -5.312270164489746, 2.107419729232788, 7.999664306640625, -2.7303781509399414, -1.3445773124694824, -2.5810306072235107, 0.05908203125, -0.21240234375, -0.812744140625
311, 3548696423, -5.30233097076416, 2.1322436332702637, 7.984940052032471, -2.7419679164886475, -1.4362707138061523, -2.4986345767974854, 0.05859375, -0.21142578125, -0.81396484375
312, 3548713090, -5.314379692077637, 2.1193387508392334, 7.973514080047607, -2.6783840656280518, -1.436769962310791, -2.4178006649017334, 0.05908203125, -0.2119140625, -0.81396484375
313, 3548729757, -5.304754257202148, 2.1365041732788086, 7.9823899269104, -2.681701421737671, -1.403717041015625, -2.5218780040740967, 0.05859375, -0.21337890625, -0.813232421875
314, 3548746424, -5.304404258728027, 2.127737045288086, 7.992588043212891, -2.7184555530548096, -1.5171685218811035, -2.4660935401916504, 0.06005859375, -0.2119140625, -0.812255859375
315, 3548763091, -5.321874618530273, 2.13446307182312, 8.034558296203613, -2.7399704456329346, -1.540540099143982, -2.4905920028686523, 0.057373046875, -0.21240234375, -0.8125
316, 3548779758, -5.287836074829102, 2.118805170059204, 8.016752243041992, -2.7031264305114746, -1.4313530921936035, -2.456271171569824, 0.057861328125, -0.21142578125, -0.811279296875
317, 3548796425, -5.314555644989014, 2.1337666511535645, 7.997495651245117, -2.7315430641174316, -1.3758630752563477, -2.4675402641296387, 0.05859375, -0.21337890625, -0.811767578125
318, 3548813092, -5.334021091461182, 2.1185059547424316, 7.990304470062256, -2.6752853393554688, -1.524314522743225, -2.4807698726654053, 0.05908203125, -0.21337890625, -0.813720703125
319, 3548829759, -5.312553405761719, 2.1242363452911377, 7.992755889892578, -2.6410794258117676, -1.5669467449188232, -2.3737213611602783, 0.057861328125, -0.2119140625, -0.81298828125
320, 3548846426, -5.316686153411865, 2.1071712970733643, 8.022395133972168, -2.675631284713745, -1.6458979845046997, -2.326350688934326, 0.0576171875, -0.212890625, -0.814453125
321, 3548863093, -5.317498207092285, 2.1289358139038086, 7.983801364898682, -2.880993366241455, -1.6111668348312378, -2.398437261581421, 0.056396484375, -0.21240234375, -0.8134765625
322, 3548879760, -5.304974555969238, 2.12540340423584, 7.992251396179199, -2.8539974689483643, -1.6806029081344604, -2.4659647941589355, 0.055908203125, -0.21240234375, -0.8115234375
323, 3548896427, -5.2996506690979, 2.1148853302001953, 7.992492198944092, -2.911792516708374, -1.7816449403762817, -2.4654908180236816, 0.057373046875, -0.212890625, -0.8125
324, 3548913094, -5.298218250274658, 2.1111133098602295, 7.997686862945557, -2.934638738632202, -1.8584445714950562, -2.488952398300171, 0.057373046875, -0.2099609375, -0.814453125
325, 3548929761, -5.313343048095703, 2.133486270904541, 7.986692428588867, -3.049370765686035, -1.8045554161071777, -2.3709545135498047, 0.056396484375, -0.2119140625, -0.8125
326, 3548946428, -5.307459354400635, 2.118915319442749, 8.00238037109375, -2.9945340156555176, -1.7249255180358887, -2.4439122676849365, 0.056396484375, -0.21240234375, -0.814453125
327, 3548963095, -5.3049702644348145, 2.1022143363952637, 8.006837844848633, -2.949429988861084, -1.7978321313858032, -2.354114294052124, 0.057861328125, -0.21044921875, -0.81298828125
328, 3548979762, -5.317605495452881, 2.1120617389678955, 7.992824077606201, -2.8780863285064697, -1.8635928630828857, -2.2470920085906982, 0.057861328125, -0.21142578125, -0.8134765625
329, 3548996429, -5.315428733825684, 2.1321861743927, 7.986723899841309, -3.079735279083252, -2.05621337890625, -2.2758548259735107, 0.057373046875, -0.21142578125, -0.8125
330, 3549013096, -5.30306339263916, 2.1060760021209717, 8.021028518676758, -2.971482753753662, -2.102431297302246, -2.284166097640991, 0.056884765625, -0.20849609375, -0.81591796875
331, 3549029763, -5.328614234924316, 2.109522819519043, 8.008553504943848, -2.9725584983825684, -2.048401117324829, -2.0793159008026123, 0.056396484375, -0.21044921875, -0.81298828125
332, 3549046430, -5.3731489181518555, 2.1004385948181152, 8.014199256896973, -2.9292218685150146, -2.385835647583008, -1.8197309970855713, 0.057373046875, -0.21142578125, -0.81494140625
333, 3549063097, -5.3507399559021, 2.0985469818115234, 8.00979995727539, -3.0364878177642822, -2.64337158203125, -1.4665063619613647, 0.055908203125, -0.21240234375, -0.81298828125
334, 3549079764, -5.311920166015625, 2.0930237770080566, 8.022457122802734, -2.9660274982452393, -2.7589359283447266, -1.254305124282837, 0.057861328125, -0.21044921875, -0.81298828125
335, 3549096431, -5.211618423461914, 2.1297500133514404, 8.01374626159668, -3.208592653274536, -2.3922133445739746, -1.5740028619766235, 0.054443359375, -0.2109375, -0.8134765625
336, 3549113098, -5.2047200202941895, 2.1283860206604004, 8.050278663635254, -2.781667470932007, -1.8943794965744019, -1.708405613899231, 0.056884765625, -0.21142578125, -0.81298828125
337, 3549129765, -5.284181118011475, 2.097513198852539, 8.030020713806152, -2.5150392055511475, -1.6769659519195557, -1.6251258850097656, 0.053955078125, -0.212890625, -0.81591796875
338, 3549146432, -5.290543556213379, 2.0994808673858643, 8.010847091674805, -2.5649709701538086, -1.6372534036636353, -1.4286123514175415, 0.055419921875, -0.2109375, -0.8154296875
339, 3549163099, -5.312242031097412, 2.116992235183716, 7.989924907684326, -2.669227361679077, -1.8077058792114258, -1.460730791091919, 0.054931640625, -0.2099609375, -0.8115234375
340, 3549179766, -5.269765853881836, 2.1355838775634766, 8.002710342407227, -2.6403748989105225, -1.8463683128356934, -1.2921479940414429, 0.055908203125, -0.21044921875, -0.81298828125
341, 3549196433, -5.135361194610596, 2.1598846912384033, 7.992807388305664, -2.72292423248291, -1.7905454635620117, -1.7436741590499878, 0.053955078125, -0.2109375, -0.814453125
342, 3549213100, -5.141271114349365, 2.176706314086914, 8.017084121704102, -2.7116808891296387, -1.5068466663360596, -2.5029757022857666, 0.053955078125, -0.21044921875, -0.81396484375
343, 3549229767, -5.257572174072266, 2.0943868160247803, 8.024055480957031, -2.3924951553344727, -0.9439944624900818, -2.4861226081848145, 0.054931640625, -0.2099609375, -0.81494140625
344, 3549246434, -5.291789531707764, 2.118436574935913, 8.030339241027832, -2.224642038345337, -0.820016086101532, -2.313889741897583, 0.053955078125, -0.2099609375, -0.814453125
345, 3549263101, -5.29071044921875, 2.1249048709869385, 8.015003204345703, -2.1469204425811768, -1.0280169248580933, -2.16701340675354, 0.055419921875, -0.21044921875, -0.8125
346, 3549279768, -5.294736862182617, 2.1178395748138428, 8.02840518951416, -2.0368242263793945, -1.0735819339752197, -2.0968477725982666, 0.053955078125, -0.2109375, -0.814453125
347, 3549296435, -5.284650802612305, 2.085078716278076, 8.005064010620117, -1.7380011081695557, -1.030808687210083, -1.817823052406311, 0.052978515625, -0.2099609375, -0.816162109375
348, 3549313102, -5.286435127258301, 2.06156063079834, 8.00913143157959, -0.8080677390098572, -1.026352047920227, -1.3518637418746948, 0.055908203125, -0.2119140625, -0.814453125
349, 3549329769, -5.268637657165527, 2.1587679386138916, 8.016275405883789, -0.7566376328468323, -0.7370310425758362, -1.2522305250167847, 0.053955078125, -0.21142578125, -0.816162109375
350, 3549346436, -5.303825378417969, 2.149108409881592, 7.999680519104004, -0.9671227931976318, -0.8433108925819397, -1.2370165586471558, 0.056396484375, -0.2138671875, -0.81591796875
351, 3549363103, -5.287285327911377, 2.166048288345337, 7.972845077514648, -1.3247655630111694, -0.8204003572463989, -1.3406966924667358, 0.055908203125, -0.21240234375, -0.8115234375
352, 3549379770, -5.224031925201416, 2.200521230697632, 8.018606185913086, -1.1268692016601562, -0.9177671074867249, -1.536928415298462, 0.054931640625, -0.212890625, -0.8134765625
353, 3549396437, -5.266377925872803, 2.1311299800872803, 7.994533061981201, -1.0381338596343994, -0.7454574704170227, -1.563347578048706, 0.055419921875, -0.21337890625, -0.81201171875
354, 3549413104, -5.281167507171631, 2.17425274848938, 7.998807907104492, -1.0517085790634155, -0.4648192524909973, -1.7279990911483765, 0.056396484375, -0.21435546875, -0.8134765625
355, 3549429771, -5.248945236206055, 2.1630284786224365, 8.003220558166504, -0.7951334118843079, -0.5363426804542542, -1.5917011499404907, 0.053466796875, -0.21484375, -0.81103515625
356, 3549446438, -5.303393840789795, 2.162405014038086, 7.98653507232666, -0.6691189408302307, -0.6777759790420532, -1.5814176797866821, 0.052490234375, -0.2138671875, -0.8125
357, 3549463105, -5.275439262390137, 2.1902830600738525, 7.958101272583008, -0.9408057332038879, -0.8944979906082153, -1.848494291305542, 0.05810546875, -0.21630859375, -0.814208984375
358, 3549479772, -5.225384712219238, 2.2165207862854004, 7.975966453552246, -1.0115480422973633, -0.9535225033760071, -1.6902718544006348, 0.054931640625, -0.21435546875, -0.81201171875
359, 3549496439, -5.271538734436035, 2.0992624759674072, 7.988905429840088, -0.7080503106117249, -0.8939856886863708, -1.3157756328582764, 0.055419921875, -0.21435546875, -0.81396484375
360, 3549513106, -5.330545425415039, 2.3280210494995117, 7.889598369598389, -0.6816179156303406, -1.1795158386230469, -0.6209927201271057, 0.054443359375, -0.216796875, -0.81298828125
361, 3549529773, -5.353989601135254, 1.9874682426452637, 7.862507343292236, -1.4576314687728882, -2.3756802082061768, -0.4710303544998169, 0.054931640625, -0.21630859375, -0.8134765625
362, 3549546440, -5.419765949249268, 2.2111852169036865, 7.829075336456299, -2.4067227840423584, -4.2044525146484375, 0.46254613995552063, 0.055908203125, -0.21728515625, -0.81396484375
363, 3549563107, -5.189777374267578, 2.280402421951294, 8.051817893981934, -2.4762229919433594, -4.8655548095703125, -0.6795305609703064, 0.053466796875, -0.21484375, -0.81103515625
364, 3549579774, -5.229638576507568, 2.170501708984375, 8.094473838806152, -1.643618106842041, -3.7611098289489746, -1.2397315502166748, 0.052001953125, -0.21875, -0.8134765625
365, 3549596441, -5.275503158569336, 2.111844301223755, 8.016437530517578, -0.9670970439910889, -3.1129801273345947, -1.3223196268081665, 0.053466796875, -0.2177734375, -0.81201171875
366, 3549613108, -5.216423988342285, 2.2281038761138916, 7.993807792663574, -1.0066559314727783, -3.344736337661743, -1.3287996053695679, 0.052001953125, -0.2177734375, -0.81201171875
367, 3549629775, -5.173150539398193, 2.3403098583221436, 8.01811408996582, -2.5800955295562744, -3.198065757751465, -1.5128140449523926, 0.052490234375, -0.2177734375, -0.81396484375
368, 3549646442, -5.118929862976074, 2.39506459236145, 8.066386222839355, -2.023557424545288, -2.9326417446136475, -2.283308267593384, 0.052490234375, -0.21826171875, -0.8134765625
369, 3549663109, -5.149548530578613, 2.3459362983703613, 8.029863357543945, -2.258643388748169, -2.4091436862945557, -3.0995724201202393, 0.051025390625, -0.216796875, -0.81298828125
370, 3549679776, -5.099025726318359, 2.2353525161743164, 8.050060272216797, -2.075140953063965, -1.639737844467163, -3.4026217460632324, 0.050048828125, -0.21826171875, -0.81103515625
371, 3549696443, -5.2034173011779785, 2.1894452571868896, 8.088436126708984, -2.0260159969329834, -0.4586082100868225, -3.038754940032959, 0.050537109375, -0.219970703125, -0.8134765625
372, 3549713110, -5.263301849365234, 2.2584400177001953, 8.015604972839355, -1.377335786819458, -0.11996988952159882, -2.6971583366394043, 0.050537109375, -0.219970703125, -0.8115234375
373, 3549729777, -5.24215030670166, 2.2308738231658936, 8.021142959594727, -1.2399364709854126, 0.0931726023554802, -2.701320171356201, 0.049560546875, -0.219970703125, -0.81396484375
374, 3549746444, -5.285592079162598, 2.2132887840270996, 8.043380737304688, -1.3238433599472046, 0.12687888741493225, -2.9677047729492188, 0.053466796875, -0.21875, -0.81298828125
375, 3549763111, -5.221685886383057, 2.1870217323303223, 8.025857925415039, -0.8404167294502258, 0.45673203468322754, -3.1602869033813477, 0.051513671875, -0.221435546875, -0.8134765625
376, 3549779778, -5.249727725982666, 2.156994104385376, 8.036833763122559, -0.3660695254802704, 1.1032607555389404, -3.1454062461853027, 0.051513671875, -0.220458984375, -0.8115234375
377, 3549796445, -5.22346305847168, 2.3162882328033447, 7.993070125579834, 0.7523409724235535, 2.0225772857666016, -2.6966967582702637, 0.053466796875, -0.219482421875, -0.810302734375
378, 3549813112, -5.2459635734558105, 2.311781406402588, 7.983304023742676, 1.1709933280944824, 2.6857924461364746, -2.983123540878296, 0.052978515625, -0.220947265625, -0.811279296875
379, 3549829779, -5.246678352355957, 2.2923831939697266, 7.984053134918213, 1.6008005142211914, 3.169194459915161, -3.2554900646209717, 0.056396484375, -0.222412109375, -0.812255859375
380, 3549846446, -5.249938488006592, 2.240016222000122, 7.976868629455566, 1.9460468292236328, 3.6213228702545166, -3.299159526824951, 0.05810546875, -0.223876953125, -0.810791015625
381, 3549863113, -5.2764892578125, 2.3226656913757324, 7.968596458435059, 2.018197536468506, 4.022391319274902, -3.1403090953826904, 0.056396484375, -0.223876953125, -0.812744140625
382, 3549879780, -5.302695274353027, 2.369723320007324, 7.923604965209961, 1.8888534307479858, 3.966402292251587, -3.3830151557922363, 0.0595703125, -0.225830078125, -0.810546875
383, 3549896447, -5.343690872192383, 2.3154122829437256, 7.916686534881592, 1.579541802406311, 3.6089510917663574, -3.611339569091797, 0.05908203125, -0.225341796875, -0.81103515625
384, 3549913114, -5.286449909210205, 2.4078686237335205, 7.917717456817627, 0.8109045624732971, 3.1416094303131104, -4.169120788574219, 0.06005859375, -0.2275390625, -0.8115234375
385, 3549929781, -5.270635604858398, 2.347299575805664, 7.89756965637207, 0.5037441849708557, 3.3616349697113037, -4.772465229034424, 0.0625, -0.22705078125, -0.81103515625
386, 3549946448, -5.266480445861816, 2.370117425918579, 7.954345703125, 1.0516642332077026, 4.6996049880981445, -4.965023517608643, 0.064208984375, -0.22802734375, -0.814453125
387, 3549963115, -5.350320339202881, 2.221242904663086, 7.938323020935059, 1.8339784145355225, 6.330007553100586, -4.867578983306885, 0.066162109375, -0.22900390625, -0.812744140625
388, 3549979782, -5.386521816253662, 2.2812283039093018, 7.918514728546143, 2.554297685623169, 7.756418228149414, -4.434660911560059, 0.066650390625, -0.22998046875, -0.807373046875
389, 3549996449, -5.406033039093018, 2.4066765308380127, 7.837795257568359, 2.6685051918029785, 8.94222354888916, -4.634081840515137, 0.069091796875, -0.23046875, -0.80712890625
390, 3550013116, -5.448659420013428, 2.294569253921509, 7.846421241760254, 3.439063549041748, 10.40550422668457, -5.065630912780762, 0.072021484375, -0.23291015625, -0.80615234375
391, 3550029783, -5.509571552276611, 2.315218448638916, 7.761427879333496, 3.9655468463897705, 11.350397109985352, -5.574109077453613, 0.0751953125, -0.233642578125, -0.806884765625
392, 3550046450, -5.371616363525391, 2.467681407928467, 7.8722944259643555, 4.744237899780273, 13.756649017333984, -6.758364200592041, 0.080078125, -0.235107421875, -0.80419921875
393, 3550063117, -5.313786506652832, 2.533935546875, 7.902846336364746, 5.256636619567871, 17.310720443725586, -8.941650390625, 0.085693359375, -0.234619140625, -0.8037109375
394, 3550079784, -5.199622631072998, 2.5974762439727783, 8.12784194946289, 5.5087080001831055, 21.64574432373047, -11.509206771850586, 0.090576171875, -0.238525390625, -0.80029296875
395, 3550096451, -5.312813758850098, 2.426943302154541, 8.06522274017334, 4.808372974395752, 29.49471664428711, -12.440274238586426, 0.09716796875, -0.240234375, -0.800537109375
396, 3550113118, -5.323174953460693, 2.6561527252197266, 8.073701858520508, 6.415899276733398, 38.687164306640625, -15.674325942993164, 0.107177734375, -0.2392578125, -0.7978515625
397, 3550129785, -5.392136573791504, 2.586538791656494, 8.08901309967041, 7.851043701171875, 49.54780197143555, -18.45138168334961, 0.11962890625, -0.242431640625, -0.794921875
398, 3550146452, -5.606350898742676, 2.435391902923584, 8.012042999267578, 12.180511474609375, 63.07036209106445, -20.143259048461914, 0.13427734375, -0.242431640625, -0.790283203125
399, 3550163119, -5.63025426864624, 2.596519708633423, 8.19087028503418, 19.077241897583008, 80.75562286376953, -24.42896842956543, 0.1513671875, -0.24755859375, -0.7861328125
400, 3550179786, -5.7172932624816895, 2.564054489135742, 8.219868659973145, 20.710174560546875, 101.2587661743164, -28.67057228088379, 0.177490234375, -0.250732421875, -0.775634765625
401, 3550196453, -5.80565071105957, 2.516353130340576, 8.335871696472168, 19.19045066833496, 123.36177062988281, -33.90059280395508, 0.20556640625, -0.25390625, -0.767333984375
402, 3550213120, -6.011693477630615, 2.256181240081787, 7.955298900604248, 21.52353286743164, 152.21058654785156, -39.69773864746094, 0.240478515625, -0.25390625, -0.751953125
403, 3550229787, -6.251001358032227, 2.7270030975341797, 7.918212890625, 21.587955474853516, 189.17466735839844, -48.79278564453125, 0.282958984375, -0.254150390625, -0.735107421875
404, 3550246454, -6.699256420135498, 3.6554527282714844, 8.27233600616455, 8.750197410583496, 223.09307861328125, -69.40412902832031, 0.33203125, -0.249267578125, -0.708740234375
405, 3550263121, -7.79839563369751, 4.363794803619385, 8.674535751342773, 0.2684478759765625, 257.6983947753906, -96.41835021972656, 0.388916015625, -0.238525390625, -0.679443359375
406, 3550279788, -8.493270874023438, 4.440590858459473, 8.180265426635742, 2.5938127040863037, 289.41943359375, -123.19499206542969, 0.449951171875, -0.22607421875, -0.63671875
407, 3550296455, -12.035802841186523, 5.478551387786865, 9.917208671569824, 1.8761671781539917, 312.2020568847656, -146.3584442138672, 0.51513671875, -0.20166015625, -0.58349609375
408, 3550313122, -14.316476821899414, 5.551198482513428, 11.125042915344238, 2.441098213195801, 310.94097900390625, -148.1559600830078, 0.578125, -0.17724609375, -0.52685546875
409, 3550329789, -15.220717430114746, 4.621757507324219, 11.588279724121094, 3.438265085220337, 301.7439880371094, -143.76393127441406, 0.630615234375, -0.1494140625, -0.465576171875
410, 3550346456, -13.839881896972656, 5.761108875274658, 11.859332084655762, 5.15438985824585, 272.9480895996094, -134.93922424316406, 0.673583984375, -0.122802734375, -0.39990234375
411, 3550363123, -8.144277572631836, 4.972099781036377, 10.578116416931152, -11.682117462158203, 242.11416625976562, -139.9661102294922, 0.708251953125, -0.095458984375, -0.338623046875
412, 3550379790, -0.8509976863861084, 5.222043991088867, 7.714671611785889, -54.42310333251953, 222.17056274414062, -158.39810180664062, 0.734130859375, -0.05615234375, -0.2802734375
413, 3550396457, -15.896836280822754, 8.0968656539917, 19.4259033203125, -19.0140438079834, 165.59861755371094, -95.04497528076172, 0.75439453125, -0.030029296875, -0.22705078125
414, 3550413124, -11.361571311950684, 9.146343231201172, 19.509349822998047, 4.3650078773498535, -20.501096725463867, -11.70953369140625, 0.760986328125, -0.0244140625, -0.2177734375
415, 3550429791, -2.7185440063476562, 7.429185390472412, 12.967303276062012, -12.03675651550293, -118.94524383544922, 34.3891487121582, 0.762939453125, -0.028564453125, -0.230712890625
416, 3550446458, 0.41739147901535034, 4.740319728851318, 8.911076545715332, -31.689516067504883, -142.99769592285156, 50.862213134765625, 0.75732421875, -0.043212890625, -0.2548828125
417, 3550463125, 0.24118180572986603, 3.188981294631958, 7.305270195007324, -36.521385192871094, -144.7682647705078, 61.70289993286133, 0.752685546875, -0.052734375, -0.284912109375
418, 3550479792, -1.5541969537734985, 2.7618789672851562, 7.331538200378418, -34.67195510864258, -152.6404266357422, 75.93114471435547, 0.74560546875, -0.067138671875, -0.317138671875
419, 3550496459, -3.6988236904144287, 3.0096969604492188, 7.991722583770752, -35.12580490112305, -172.0252685546875, 91.03176879882812, 0.737548828125, -0.0859375, -0.35791015625
420, 3550513126, -5.234943389892578, 3.1892104148864746, 8.304479598999023, -41.884368896484375, -201.32394409179688, 105.93968963623047, 0.720458984375, -0.105224609375, -0.408935546875
421, 3550529793, -6.087230682373047, 2.891378164291382, 8.263829231262207, -50.681034088134766, -230.64456176757812, 120.1383285522461, 0.692626953125, -0.12890625, -0.468505859375
422, 3550546460, -6.829269886016846, 2.4235763549804688, 8.06646728515625, -57.76590347290039, -251.6258087158203, 129.89340209960938, 0.6484375, -0.1474609375, -0.529052734375
423, 3550563127, -7.759233474731445, 1.819609522819519, 8.129793167114258, -60.14688491821289, -266.5261535644531, 130.74050903320312, 0.58837890625, -0.162109375, -0.58642578125
424, 3550579794, -8.534821510314941, 0.8803610801696777, 8.22046184539795, -51.00102233886719, -277.5218200683594, 124.019287109375, 0.530029296875, -0.1669921875, -0.6357421875
425, 3550596461, -9.10440731048584, 0.41959449648857117, 8.364023208618164, -31.027996063232422, -281.86529541015625, 110.1660385131836, 0.46826171875, -0.171875, -0.678466796875
426, 3550613128, -9.356080055236816, 0.21821419894695282, 8.257046699523926, -6.998117446899414, -274.4719543457031, 89.89582824707031, 0.404052734375, -0.177001953125, -0.70751953125
427, 3550629795, -10.444046020507812, 0.6672273874282837, 8.759765625, 16.368566513061523, -254.17869567871094, 65.32968139648438, 0.347900390625, -0.184814453125, -0.720458984375
428, 3550646462, -13.506072044372559, 1.954141616821289, 10.608713150024414, 35.815826416015625, -238.18557739257812, 43.37197494506836, 0.312744140625, -0.1904296875, -0.722412109375
429, 3550663129, -15.57177734375, 2.9560554027557373, 10.621108055114746, 50.572959899902344, -236.86770629882812, 32.721923828125, 0.29248046875, -0.203857421875, -0.72998046875
430, 3550679796, -17.08231544494629, 3.113163471221924, 8.737541198730469, 65.55004119873047, -222.61703491210938, 34.46976852416992, 0.27978515625, -0.22509765625, -0.759765625
431, 3550696463, -21.192697525024414, 4.464826583862305, 7.267675876617432, 72.4500503540039, -200.560546875, 41.32891082763672, 0.25634765625, -0.259033203125, -0.81103515625
432, 3550713130, -26.656152725219727, 6.137084007263184, 6.198186874389648, 60.89165115356445, -205.7377166748047, 50.42007064819336, 0.20556640625, -0.300537109375, -0.864501953125
433, 3550729797, -27.59977149963379, 4.501436710357666, 2.653160810470581, 46.618263244628906, -229.8648223876953, 74.06525421142578, 0.121337890625, -0.3359375, -0.903564453125
434, 3550746464, -25.656089782714844, -0.7595389485359192, -3.5868008136749268, 46.85761260986328, -229.69573974609375, 104.1299057006836, 0.022705078125, -0.36669921875, -0.905517578125
435, 3550763131, -23.657085418701172, -8.126968383789062, -10.014887809753418, 56.82859802246094, -185.5023193359375, 109.78726959228516, -0.065185546875, -0.3876953125, -0.894287109375
436, 3550779798, -21.42575454711914, -9.37138843536377, -12.701416969299316, 41.74899673461914, -106.85159301757812, 61.48953628540039, -0.12158203125, -0.4033203125, -0.878662109375
437, 3550796465, -17.341726303100586, -7.485945224761963, -10.984930038452148, -24.559812545776367, 7.865859508514404, -46.418479919433594, -0.13818359375, -0.403564453125, -0.876220703125
438, 3550813132, -13.75046157836914, -6.099435329437256, -10.299328804016113, -45.06013107299805, 121.67269134521484, -137.48785400390625, -0.10546875, -0.394287109375, -0.887451171875
439, 3550829799, -9.244499206542969, 8.25121784210205, 14.617209434509277, -58.52680587768555, 134.51812744140625, -133.52891540527344, -0.063720703125, -0.3857421875, -0.902099609375
440, 3550846466, -2.6279642581939697, 12.82239055633545, 8.283370018005371, -49.7735481262207, 94.47193908691406, -100.17893981933594, -0.03125, -0.37646484375, -0.91162109375
441, 3550863133, -3.5647921562194824, 3.4264161586761475, 6.158821105957031, -52.92059326171875, 145.319091796875, -60.791595458984375, 0.001708984375, -0.36572265625, -0.91552734375
442, 3550879800, -15.30521297454834, -2.589918613433838, 14.781877517700195, -42.960391998291016, 133.76084899902344, -27.95573616027832, 0.034423828125, -0.35595703125, -0.918701171875
443, 3550896467, -12.642086029052734, -4.750217437744141, 12.765325546264648, -12.846240043640137, 83.06489562988281, -44.78178787231445, 0.05908203125, -0.3505859375, -0.92041015625
444, 3550913134, -7.150121688842773, 4.889255046844482, 8.815340042114258, 3.577376127243042, 68.07859802246094, -29.651132583618164, 0.07666015625, -0.350341796875, -0.919921875
445, 3550929801, -10.859858512878418, 6.668450355529785, 10.867816925048828, -25.844770431518555, 63.64952850341797, -23.128658294677734, 0.09326171875, -0.348388671875, -0.92333984375
446, 3550946468, -6.878562927246094, 0.3685928285121918, 7.918233394622803, -16.01259994506836, 20.613006591796875, -16.545076370239258, 0.102294921875, -0.341796875, -0.921630859375
447, 3550963135, -6.327466011047363, 2.8761041164398193, 8.437728881835938, -15.50870132446289, 15.24153995513916, -11.936017036437988, 0.10693359375, -0.3359375, -0.921142578125
448, 3550979802, -6.256617069244385, 2.0520384311676025, 8.3389892578125, -6.3751325607299805, 9.9824857711792, -5.611886501312256, 0.1083984375, -0.3349609375, -0.923095703125
449, 3550996469, -5.744604587554932, 2.278963804244995, 8.323539733886719, 3.801175355911255, 10.169134140014648, 0.40559643507003784, 0.114013671875, -0.3359375, -0.92138671875
450, 3551013136, -5.2076215744018555, 2.152069330215454, 8.32900333404541, 9.071723937988281, 11.519428253173828, 2.3931691646575928, 0.11376953125, -0.34033203125, -0.92041015625
451, 3551029803, -5.636157512664795, 2.3154525756835938, 8.032082557678223, 11.649864196777344, 12.25744915008545, 2.883589267730713, 0.117919921875, -0.343017578125, -0.919677734375
452, 3551046470, -5.747901439666748, 2.6537632942199707, 7.864682674407959, 13.118948936462402, 12.610343933105469, 2.4633235931396484, 0.117431640625, -0.346923828125, -0.917724609375
453, 3551063137, -5.6780219078063965, 2.624587297439575, 7.830255031585693, 12.808791160583496, 12.965155601501465, 1.9640288352966309, 0.122314453125, -0.3505859375, -0.914794921875
454, 3551079804, -5.475872993469238, 2.8502185344696045, 7.719306945800781, 11.40967082977295, 13.308189392089844, 0.8334830403327942, 0.1259765625, -0.35546875, -0.9111328125
455, 3551096471, -5.516897201538086, 2.6855287551879883, 7.476979732513428, 9.377604484558105, 12.71642780303955, -0.5465754270553589, 0.1298828125, -0.357666015625, -0.908447265625
456, 3551113138, -5.528233528137207, 2.7789523601531982, 7.609346866607666, 8.34040355682373, 12.532156944274902, -0.9554696083068848, 0.1318359375, -0.361083984375, -0.909912109375
457, 3551129805, -5.551424503326416, 2.995980739593506, 7.540918350219727, 7.508900165557861, 13.537557601928711, -1.5609673261642456, 0.136962890625, -0.362548828125, -0.9072265625
458, 3551146472, -5.8133544921875, 3.0880613327026367, 7.553047180175781, 7.106396198272705, 12.670809745788574, -2.3864903450012207, 0.138916015625, -0.365234375, -0.904541015625
459, 3551163139, -5.819669723510742, 3.0602686405181885, 7.389436721801758, 6.6367082595825195, 10.256142616271973, -3.139772891998291, 0.14306640625, -0.369140625, -0.9052734375
460, 3551179806, -5.634379863739014, 2.9699599742889404, 7.405825138092041, 4.8421783447265625, 8.41927433013916, -3.935020923614502, 0.14306640625, -0.37060546875, -0.9013671875
461, 3551196473, -5.58643102645874, 2.966144561767578, 7.455946922302246, 3.3747496604919434, 7.682410717010498, -5.685739994049072, 0.14794921875, -0.372802734375, -0.902099609375
462, 3551213140, -5.728357315063477, 2.82316517829895, 7.482848644256592, 2.6264488697052, 7.466444492340088, -6.082109451293945, 0.151123046875, -0.375732421875, -0.89892578125
463, 3551229807, -5.744185447692871, 2.840188503265381, 7.418670654296875, 2.443599224090576, 7.389284610748291, -5.979465007781982, 0.152099609375, -0.374267578125, -0.89697265625
464, 3551246474, -5.770589828491211, 2.927349805831909, 7.442211627960205, 1.820173740386963, 7.351314067840576, -6.06138801574707, 0.153076171875, -0.375732421875, -0.89892578125
465, 3551263141, -5.741928577423096, 3.0656392574310303, 7.3280558586120605, 0.28136199712753296, 6.874573230743408, -7.280220985412598, 0.156494140625, -0.375732421875, -0.897705078125
466, 3551279808, -5.682675838470459, 3.0180070400238037, 7.372238636016846, -1.0419249534606934, 7.042118549346924, -8.409574508666992, 0.16064453125, -0.376220703125, -0.897216796875
467, 3551296475, -5.697093486785889, 2.87355637550354, 7.298580169677734, -0.02022123523056507, 7.876195907592773, -9.234676361083984, 0.162109375, -0.375732421875, -0.8955078125
468, 3551313142, -5.629363059997559, 2.8380048274993896, 7.471715927124023, 2.2508773803710938, 9.88230037689209, -9.383102416992188, 0.1630859375, -0.376220703125, -0.89501953125
469, 3551329809, -5.519600868225098, 3.0001308917999268, 7.539611339569092, 7.477478504180908, 14.881608009338379, -11.630167007446289, 0.1689453125, -0.377197265625, -0.894287109375
470, 3551346476, -5.469723701477051, 3.1266322135925293, 7.758139610290527, 14.94316291809082, 22.608905792236328, -17.06868553161621, 0.174072265625, -0.38330078125, -0.89013671875
471, 3551363143, -5.153244972229004, 3.1159768104553223, 8.07630729675293, 16.214731216430664, 33.829708099365234, -22.008024215698242, 0.18408203125, -0.38427734375, -0.8837890625
472, 3551379810, -5.633297443389893, 2.536546230316162, 7.934343338012695, 12.968822479248047, 50.2965087890625, -21.750446319580078, 0.197998046875, -0.385986328125, -0.876708984375
473, 3551396477, -5.482183933258057, 2.863539457321167, 8.196808815002441, 14.170632362365723, 70.05244445800781, -24.452640533447266, 0.216552734375, -0.39013671875, -0.87451171875
474, 3551413144, -5.518510341644287, 2.8898370265960693, 8.176161766052246, 17.396947860717773, 96.74193572998047, -29.42738914489746, 0.239013671875, -0.38818359375, -0.859619140625
475, 3551429811, -5.626986503601074, 2.811821937561035, 7.957869529724121, 27.53373146057129, 131.97439575195312, -31.904251098632812, 0.272216796875, -0.391357421875, -0.846435546875
476, 3551446478, -5.663630485534668, 3.2490553855895996, 8.128077507019043, 35.94585037231445, 175.6206512451172, -39.582698822021484, 0.31201171875, -0.39501953125, -0.821533203125
477, 3551463145, -5.586985111236572, 3.808269500732422, 8.829771041870117, 36.022830963134766, 230.57249450683594, -53.93537521362305, 0.36572265625, -0.396728515625, -0.796875
478, 3551479812, -5.764050006866455, 3.571614980697632, 8.169512748718262, 31.350772857666016, 299.8710632324219, -74.78166198730469, 0.430908203125, -0.395751953125, -0.74755859375
479, 3551496479, -7.683575630187988, 5.5859856605529785, 9.933544158935547, 24.77891731262207, 374.4600524902344, -112.24993133544922, 0.51220703125, -0.38037109375, -0.6875
480, 3551513146, -10.595124244689941, 5.883671283721924, 10.609298706054688, 23.415868759155273, 428.7777099609375, -153.3572540283203, 0.603759765625, -0.35498046875, -0.607666015625
481, 3551529813, -21.792903900146484, 9.29620361328125, 14.447648048400879, 31.021326065063477, 441.6124267578125, -162.12869262695312, 0.693603515625, -0.3203125, -0.505859375
482, 3551546480, -21.938114166259766, 8.815592765808105, 14.42992115020752, 19.778675079345703, 372.1646423339844, -161.5192108154297, 0.75830078125, -0.282470703125, -0.405517578125
483, 3551563147, -15.6609468460083, 9.215190887451172, 14.279930114746094, 22.48307991027832, 299.3680725097656, -152.79627990722656, 0.804443359375, -0.239013671875, -0.3173828125
484, 3551579814, -6.746675491333008, 8.736865043640137, 15.678398132324219, 2.9125213623046875, 244.0308837890625, -171.7153778076172, 0.838134765625, -0.1953125, -0.24169921875
485, 3551596481, -3.336334705352783, 14.62354850769043, 17.176288604736328, -65.68206787109375, 201.62464904785156, -152.5726318359375, 0.864013671875, -0.14794921875, -0.185302734375
486, 3551613148, -16.30543327331543, 12.523898124694824, 27.712377548217773, -81.01151275634766, -29.412752151489258, -38.43729782104492, 0.87646484375, -0.12744140625, -0.17919921875
487, 3551629815, -0.986055850982666, 6.953045845031738, 16.538618087768555, -76.88111877441406, -190.1414337158203, 24.844703674316406, 0.867919921875, -0.132568359375, -0.232421875
488, 3551646482, 3.7151358127593994, 4.026573657989502, 9.513983726501465, -70.80424499511719, -214.97024536132812, 35.00386047363281, 0.84521484375, -0.14306640625, -0.3017578125
489, 3551663149, 3.243758201599121, 2.5764894485473633, 6.50240421295166, -62.09848403930664, -200.02230834960938, 31.65488052368164, 0.812255859375, -0.15478515625, -0.36376953125
490, 3551679816, 0.04109741747379303, 2.579413652420044, 6.480910778045654, -46.55194091796875, -190.72695922851562, 39.82221984863281, 0.7705078125, -0.16064453125, -0.416015625
491, 3551696483, -4.10156774520874, 4.383638381958008, 7.7685346603393555, -42.467864990234375, -207.77304077148438, 56.37197494506836, 0.72216796875, -0.170166015625, -0.4619140625
492, 3551713150, -6.316059112548828, 5.734382152557373, 8.146153450012207, -57.54270553588867, -245.74990844726562, 74.33097839355469, 0.66552734375, -0.1787109375, -0.508056640625
493, 3551729817, -6.44851016998291, 5.438735485076904, 7.285767078399658, -75.83858489990234, -278.996337890625, 93.78140258789062, 0.6005859375, -0.182861328125, -0.55078125
494, 3551746484, -6.328811168670654, 4.301455497741699, 6.165755271911621, -80.40841674804688, -290.1195983886719, 111.89789581298828, 0.53662109375, -0.188232421875, -0.590576171875
495, 3551763151, -6.827608108520508, 3.3144068717956543, 5.856775283813477, -69.47183227539062, -286.1695861816406, 121.43734741210938, 0.4755859375, -0.19140625, -0.619384765625
496, 3551779818, -7.835893630981445, 2.993957042694092, 6.525486946105957, -51.775394439697266, -275.9902038574219, 117.28888702392578, 0.4169921875, -0.19775390625, -0.641845703125
497, 3551796485, -9.230216979980469, 2.8464832305908203, 7.4009246826171875, -30.58757209777832, -263.28460693359375, 102.57939147949219, 0.3720703125, -0.20703125, -0.66162109375
498, 3551813152, -11.75390911102295, 3.175316333770752, 9.131132125854492, -2.1423277854919434, -250.93280029296875, 84.59814453125, 0.330078125, -0.220458984375, -0.675537109375
499, 3551829819, -14.563023567199707, 3.9577863216400146, 10.644936561584473, 34.07929229736328, -246.0314483642578, 70.61848449707031, 0.296142578125, -0.244384765625, -0.698974609375
500, 3551846486, -18.93355369567871, 5.440005779266357, 11.402438163757324, 64.38152313232422, -243.9473876953125, 61.14762496948242, 0.251953125, -0.27197265625, -0.733642578125
501, 3551863153, -25.246051788330078, 5.491718292236328, 10.763469696044922, 84.782958984375, -249.54698181152344, 59.468505859375, 0.185302734375, -0.306640625, -0.75244140625
502, 3551879820, -30.351720809936523, 4.628556728363037, 7.384209632873535, 101.32838439941406, -276.20587158203125, 65.06871795654297, 0.09716796875, -0.34130859375, -0.76171875
503, 3551896487, -31.04535675048828, 2.420466184616089, 1.16726815700531, 107.98970794677734, -298.1915588378906, 66.39583587646484, 0.010498046875, -0.36962890625, -0.749755859375
504, 3551913154, -28.941452026367188, -4.440572738647461, -5.381722927093506, 117.04920959472656, -279.8597717285156, 66.53562927246094, -0.06201171875, -0.39208984375, -0.722412109375
505, 3551929821, -31.614011764526367, -12.143582344055176, -13.697447776794434, 131.05569458007812, -230.57875061035156, 52.15857696533203, -0.119140625, -0.417236328125, -0.69287109375
506, 3551946488, -26.85179328918457, -14.353541374206543, -23.782997131347656, 37.91705322265625, -93.64266967773438, -29.44130516052246, -0.142333984375, -0.427001953125, -0.67236328125
507, 3551963155, -19.45003318786621, -12.263642311096191, -19.303129196166992, -69.99834442138672, 82.92800903320312, -156.14451599121094, -0.1201171875, -0.422119140625, -0.67578125
508, 3551979822, -14.024470329284668, -0.5954917669296265, 7.459338188171387, -88.99191284179688, 147.34579467773438, -193.286865234375, -0.072998046875, -0.40283203125, -0.681640625
509, 3551996489, -9.461061477661133, 13.814203262329102, 15.447296142578125, -80.0027847290039, 68.9639663696289, -122.90260314941406, -0.041748046875, -0.3896484375, -0.68603515625
510, 3552013156, -1.1756246089935303, 3.6416687965393066, 4.915384769439697, -61.9537353515625, 96.34638214111328, -82.89207458496094, -0.01904296875, -0.375732421875, -0.68994140625
511, 3552029823, -13.68361759185791, -4.734323501586914, 13.759040832519531, -38.89676284790039, 135.84359741210938, -33.51915740966797, 0.010986328125, -0.3642578125, -0.687744140625
512, 3552046490, -10.656747817993164, -2.9900264739990234, 10.690509796142578, -11.950413703918457, 92.44564819335938, -51.43754196166992, 0.033935546875, -0.361083984375, -0.685546875
513, 3552063157, -14.057856559753418, 12.650797843933105, 11.372024536132812, -42.59933853149414, 68.0230484008789, -49.63322067260742, 0.0537109375, -0.35302734375, -0.68359375
514, 3552079824, -8.304214477539062, -3.4345357418060303, 9.711033821105957, -31.683565139770508, 19.077791213989258, -27.192665100097656, 0.062255859375, -0.34521484375, -0.685302734375
515, 3552096491, -6.204102993011475, 3.434373378753662, 8.438884735107422, -15.823678970336914, 5.646795749664307, -13.427132606506348, 0.066162109375, -0.343017578125, -0.685302734375
516, 3552113158, -6.002180099487305, 1.9113523960113525, 8.333041191101074, -8.493163108825684, 1.9953902959823608, -9.695345878601074, 0.066650390625, -0.338623046875, -0.686767578125
517, 3552129825, -5.640192985534668, 2.1415793895721436, 8.258943557739258, -1.2523330450057983, 1.0325183868408203, -5.913933753967285, 0.066650390625, -0.341552734375, -0.686767578125
518, 3552146492, -5.648252964019775, 2.2248284816741943, 8.115781784057617, 1.5864442586898804, 2.53810977935791, -4.022871971130371, 0.068603515625, -0.341064453125, -0.686279296875
519, 3552163159, -5.611725330352783, 2.468768358230591, 8.076488494873047, 5.015972137451172, 5.790820598602295, -2.454106569290161, 0.07080078125, -0.34228515625, -0.690185546875
520, 3552179826, -5.492066383361816, 2.571631669998169, 7.970091819763184, 5.604182720184326, 7.739090919494629, -1.961152195930481, 0.07421875, -0.34326171875, -0.68310546875
521, 3552196493, -5.579484462738037, 2.614640712738037, 7.875317096710205, 2.6405863761901855, 7.265049457550049, -3.3787384033203125, 0.07421875, -0.34326171875, -0.681640625
522, 3552213160, -5.46718168258667, 2.952842950820923, 7.721718788146973, -0.7542173266410828, 5.637631416320801, -5.753868579864502, 0.076171875, -0.3447265625, -0.678955078125
523, 3552229827, -5.577376842498779, 2.588669776916504, 7.739035129547119, -3.6471211910247803, 3.244508981704712, -7.029074668884277, 0.07763671875, -0.34423828125, -0.681884765625
524, 3552246494, -5.500962734222412, 2.4348862171173096, 7.834847927093506, -5.22920560836792, 1.2731373310089111, -6.648341655731201, 0.07861328125, -0.3447265625, -0.680908203125
525, 3552263161, -5.518911838531494, 2.3180723190307617, 7.8843913078308105, -4.939806938171387, 0.37163394689559937, -6.3221755027771, 0.078125, -0.3427734375, -0.679931640625
526, 3552279828, -5.508862495422363, 2.403730630874634, 7.762782096862793, -4.722700595855713, -0.38416486978530884, -5.6067352294921875, 0.078125, -0.34423828125, -0.681396484375
527, 3552296495, -5.427163124084473, 2.383112668991089, 7.801127910614014, -4.07551908493042, -1.103190302848816, -5.331706523895264, 0.080810546875, -0.34228515625, -0.681396484375
528, 3552313162, -5.374490737915039, 2.6431891918182373, 7.729544162750244, -5.336369037628174, -2.401024580001831, -6.2607316970825195, 0.080078125, -0.341796875, -0.682373046875
529, 3552329829, -5.400797367095947, 2.604046583175659, 7.731197357177734, -5.850019454956055, -3.775364398956299, -7.152297019958496, 0.07958984375, -0.34130859375, -0.680908203125
530, 3552346496, -5.420028209686279, 2.408984899520874, 7.7744832038879395, -6.115201473236084, -4.96193790435791, -8.030878067016602, 0.081298828125, -0.3408203125, -0.682861328125
531, 3552363163, -5.400111198425293, 2.3390445709228516, 7.867740154266357, -6.11641788482666, -4.876583576202393, -8.114107131958008, 0.081298828125, -0.3408203125, -0.684814453125
532, 3552379830, -5.372465133666992, 2.4848737716674805, 7.876976490020752, -5.814802646636963, -4.344658851623535, -8.897254943847656, 0.08056640625, -0.337646484375, -0.682373046875
533, 3552396497, -5.351792335510254, 2.2981276512145996, 7.819983959197998, -4.172399520874023, -3.5804131031036377, -9.026917457580566, 0.082763671875, -0.337646484375, -0.684326171875
534, 3552413164, -5.206884860992432, 2.2948355674743652, 7.890814304351807, -2.5012214183807373, -1.6274440288543701, -9.056089401245117, 0.081787109375, -0.339111328125, -0.684814453125
535, 3552429831, -5.0601677894592285, 2.4272677898406982, 8.142263412475586, -1.1811044216156006, 2.8261125087738037, -10.205626487731934, 0.081298828125, -0.336181640625, -0.681884765625
536, 3552446498, -5.002366542816162, 2.605997085571289, 8.23464298248291, -0.08564896136522293, 11.610857009887695, -12.780428886413574, 0.085205078125, -0.337158203125, -0.682861328125
537, 3552463165, -5.049797534942627, 2.790178060531616, 8.178336143493652, 3.1895010471343994, 22.978212356567383, -17.476428985595703, 0.089599609375, -0.337158203125, -0.68017578125
538, 3552479832, -4.587038516998291, 2.3324737548828125, 8.9981107711792, 0.6613308191299438, 39.46259689331055, -20.05938720703125, 0.09912109375, -0.33740234375, -0.67822265625
539, 3552496499, -4.52134370803833, 2.6629879474639893, 9.097858428955078, 8.260327339172363, 66.80249786376953, -23.76818084716797, 0.11474609375, -0.3369140625, -0.67529296875
540, 3552513166, -4.617728233337402, 3.4542534351348877, 9.264410018920898, 18.272432327270508, 102.54115295410156, -34.735294342041016, 0.13525390625, -0.340576171875, -0.6669921875
541, 3552529833, -5.327993869781494, 3.527336597442627, 9.618080139160156, 25.491605758666992, 142.8031005859375, -55.25146484375, 0.163330078125, -0.342041015625, -0.656982421875
542, 3552546500, -4.90733003616333, 3.335402250289917, 9.901691436767578, 28.57311248779297, 189.7698211669922, -80.93730926513672, 0.20703125, -0.3408203125, -0.64306640625
543, 3552563167, -4.850958824157715, 2.7903127670288086, 10.046539306640625, 34.26869583129883, 266.18951416015625, -110.99893188476562, 0.261474609375, -0.338623046875, -0.62158203125
544, 3552579834, -5.441821575164795, 3.2788279056549072, 10.82309341430664, 25.96114730834961, 352.3824768066406, -147.9375762939453, 0.3330078125, -0.328369140625, -0.57958984375
545, 3552596501, -6.932460308074951, 5.015806198120117, 12.075593948364258, 10.792160034179688, 429.7651062011719, -187.1022491455078, 0.414306640625, -0.306396484375, -0.528076171875
546, 3552613168, -9.968939781188965, 4.889787197113037, 10.795536994934082, 11.024994850158691, 482.1380310058594, -215.78427124023438, 0.5009765625, -0.27392578125, -0.455078125
547, 3552629835, -21.97696876525879, 6.538469314575195, 14.037943840026855, 37.538368225097656, 466.6161804199219, -189.84915161132812, 0.57861328125, -0.2353515625, -0.367919921875
548, 3552646502, -21.110721588134766, 8.344151496887207, 15.331341743469238, 13.816250801086426, 375.5861511230469, -170.80653381347656, 0.634033203125, -0.198486328125, -0.28564453125
549, 3552663169, -10.568538665771484, 5.930891513824463, 14.382258415222168, -9.82558536529541, 296.1466369628906, -160.59690856933594, 0.6708984375, -0.154296875, -0.21142578125
550, 3552679836, 4.664619445800781, 8.75873851776123, 11.950583457946777, -57.76848220825195, 262.8533020019531, -175.4228057861328, 0.70068359375, -0.105224609375, -0.147705078125
551, 3552696503, -18.946226119995117, 17.433799743652344, 23.4937686920166, -87.16796875, 164.6519317626953, -59.03512191772461, 0.712890625, -0.061767578125, -0.082275390625
552, 3552713170, -12.406776428222656, 12.624655723571777, 22.053171157836914, -104.33879089355469, -122.85021209716797, 67.57435607910156, 0.728759765625, -0.04833984375, -0.0732421875
553, 3552729837, -0.964034914970398, 6.211312770843506, 11.177716255187988, -121.41851043701172, -236.7790069580078, 111.80963897705078, 0.750244140625, -0.044677734375, -0.10107421875
554, 3552746504, 2.024547815322876, 2.392246723175049, 5.588699817657471, -120.7725830078125, -242.9915008544922, 109.65406036376953, 0.785400390625, -0.044189453125, -0.1484375
555, 3552763171, 2.4248387813568115, 0.13003802299499512, 3.4195809364318848, -93.614501953125, -215.46270751953125, 105.83137512207031, 0.826416015625, -0.051025390625, -0.21728515625
556, 3552779838, 0.4399244487285614, 0.6510099172592163, 3.8291866779327393, -62.89496994018555, -186.84841918945312, 101.73979187011719, 0.85546875, -0.067138671875, -0.301025390625
557, 3552796505, -3.006514549255371, 2.5968689918518066, 5.725590229034424, -57.502899169921875, -176.2122344970703, 93.63381958007812, 0.8544921875, -0.0830078125, -0.40185546875
558, 3552813172, -7.1331257820129395, 3.6128294467926025, 8.014427185058594, -67.37088012695312, -201.10076904296875, 88.8615493774414, 0.822021484375, -0.099365234375, -0.503662109375
559, 3552829839, -9.419623374938965, 3.6203885078430176, 8.891919136047363, -70.70298767089844, -250.10671997070312, 95.74451446533203, 0.751708984375, -0.1025390625, -0.59375
560, 3552846506, -9.256388664245605, 3.2760398387908936, 8.058429718017578, -63.397483825683594, -291.8467712402344, 105.5569839477539, 0.66845703125, -0.101806640625, -0.671142578125
561, 3552863173, -8.643126487731934, 3.0683693885803223, 6.8815155029296875, -52.35272216796875, -308.0946350097656, 109.80509185791016, 0.583251953125, -0.10009765625, -0.732666015625
562, 3552879840, -8.628673553466797, 2.800045967102051, 6.383465766906738, -38.353397369384766, -300.8417663574219, 105.11358642578125, 0.503173828125, -0.1025390625, -0.78564453125
563, 3552896507, -9.54128360748291, 2.1549036502838135, 6.470145225524902, -19.120845794677734, -276.6863708496094, 92.05577087402344, 0.417724609375, -0.110595703125, -0.83203125
564, 3552913174, -12.456972122192383, 1.812170386314392, 8.109911918640137, 11.125758171081543, -244.28173828125, 72.39454650878906, 0.33056640625, -0.11865234375, -0.86083984375
565, 3552929841, -17.38504981994629, 2.7252306938171387, 10.244997024536133, 49.6800651550293, -235.13388061523438, 55.35738754272461, 0.248291015625, -0.128173828125, -0.86328125
566, 3552946508, -21.139493942260742, 3.817701578140259, 9.950969696044922, 81.7171401977539, -241.80279541015625, 48.981380462646484, 0.178466796875, -0.15283203125, -0.865234375
567, 3552963175, -24.390954971313477, 5.246615409851074, 7.057856559753418, 98.03670501708984, -243.57286071777344, 52.32477569580078, 0.110107421875, -0.18798828125, -0.86328125
568, 3552979842, -27.577964782714844, 6.4207940101623535, 3.1838934421539307, 90.39279174804688, -240.34999084472656, 54.58558654785156, 0.04345703125, -0.22412109375, -0.862060546875
569, 3552996509, -28.272945404052734, 2.742553949356079, -1.8067750930786133, 84.8018798828125, -239.31687927246094, 67.70682525634766, -0.02587890625, -0.252685546875, -0.853271484375
570, 3553013176, -26.052528381347656, -4.207929611206055, -7.58367395401001, 103.54470825195312, -218.02639770507812, 88.34007263183594, -0.087890625, -0.283203125, -0.8349609375
571, 3553029843, -25.128158569335938, -11.324102401733398, -12.093278884887695, 139.129150390625, -164.23097229003906, 91.92494201660156, -0.13818359375, -0.31494140625, -0.81640625
572, 3553046510, -20.251449584960938, -7.559916019439697, -13.778834342956543, 79.41118621826172, -58.59017562866211, 17.067914962768555, -0.16455078125, -0.340087890625, -0.797119140625
573, 3553063177, -18.388761520385742, -7.501431941986084, -12.178786277770996, -57.52253723144531, 68.68172454833984, -124.12479400634766, -0.14794921875, -0.33837890625, -0.80078125
574, 3553079844, -15.570173263549805, -2.1973111629486084, 4.580986022949219, -93.41222381591797, 100.0812759399414, -170.26414489746094, -0.112060546875, -0.315673828125, -0.8115234375
575, 3553096511, -4.405340671539307, 10.629751205444336, 13.69500732421875, -76.39495849609375, 60.74712371826172, -96.35282135009766, -0.08642578125, -0.297607421875, -0.819091796875
576, 3553113178, 1.289746642112732, 4.86709451675415, 4.959056377410889, -46.53583908081055, 102.65567779541016, -53.994834899902344, -0.06494140625, -0.285400390625, -0.82177734375
577, 3553129845, -13.762909889221191, -2.996323823928833, 13.361571311950684, -43.33124542236328, 117.87692260742188, -35.27387619018555, -0.03515625, -0.2685546875, -0.82666015625
578, 3553146512, -11.702555656433105, -4.211063385009766, 11.718903541564941, -21.152719497680664, 75.54179382324219, -50.98157501220703, -0.01318359375, -0.259765625, -0.82958984375
579, 3553163179, -5.319552898406982, 5.1158127784729, 7.6591877937316895, -6.585991382598877, 70.95596313476562, -42.2546272277832, 0.006591796875, -0.255859375, -0.828857421875
580, 3553179846, -12.414515495300293, 8.449535369873047, 11.114996910095215, -57.84537887573242, 64.39373016357422, -44.30082702636719, 0.027099609375, -0.242431640625, -0.8291015625
581, 3553196513, -8.229084014892578, -1.128567099571228, 8.965500831604004, -49.39569854736328, 10.799910545349121, -39.21356964111328, 0.037109375, -0.23095703125, -0.829833984375
582, 3553213180, -6.411935329437256, 3.287982702255249, 8.274478912353516, -32.57918167114258, -2.4789907932281494, -23.81991195678711, 0.03564453125, -0.220458984375, -0.835693359375
583, 3553229847, -5.9394965171813965, 1.7321027517318726, 8.389209747314453, -21.155384063720703, -1.617625117301941, -14.473322868347168, 0.03759765625, -0.2138671875, -0.83837890625
584, 3553246514, -5.690443515777588, 2.303598165512085, 8.263781547546387, -12.079764366149902, 0.907926082611084, -8.381762504577637, 0.037109375, -0.2099609375, -0.837890625
585, 3553263181, -5.736023426055908, 1.7572190761566162, 8.211310386657715, -2.694507598876953, 3.9859960079193115, -3.610917091369629, 0.03759765625, -0.208984375, -0.837890625
586, 3553279848, -5.5473856925964355, 2.0366744995117188, 8.189896583557129, 5.24080228805542, 7.7516937255859375, -1.318234920501709, 0.041259765625, -0.21240234375, -0.837158203125
587, 3553296515, -5.561854362487793, 2.1217947006225586, 7.930389404296875, 9.731546401977539, 9.359125137329102, 0.32692715525627136, 0.044677734375, -0.21337890625, -0.8359375
588, 3553313182, -5.554505825042725, 2.357313394546509, 7.842334270477295, 12.08292293548584, 10.204216957092285, 1.0789679288864136, 0.046142578125, -0.217529296875, -0.83349609375
589, 3553329849, -5.5481414794921875, 2.373185634613037, 7.888879776000977, 12.093912124633789, 10.39600658416748, 0.41307559609413147, 0.045654296875, -0.218994140625, -0.833251953125
590, 3553346516, -5.446197032928467, 2.5421581268310547, 7.862544059753418, 11.282999038696289, 11.06883716583252, 0.09976794570684433, 0.05078125, -0.223876953125, -0.83056640625
591, 3553363183, -5.504861831665039, 2.7879037857055664, 7.753359317779541, 9.214743614196777, 10.70577621459961, -0.5416833758354187, 0.0537109375, -0.2255859375, -0.83056640625
592, 3553379850, -5.622059345245361, 2.7922308444976807, 7.602960586547852, 6.750326633453369, 9.680497169494629, -0.9061905741691589, 0.05419921875, -0.22802734375, -0.8310546875
593, 3553396517, -5.6323161125183105, 2.8296923637390137, 7.592677593231201, 4.212873935699463, 7.336933135986328, -1.5152475833892822, 0.059814453125, -0.2314453125, -0.8271484375
594, 3553413184, -5.639354705810547, 2.734823226928711, 7.575079917907715, 1.2266243696212769, 4.5334296226501465, -2.230072259902954, 0.061279296875, -0.232666015625, -0.82666015625
595, 3553429851, -5.572880744934082, 2.670011520385742, 7.62640905380249, -0.6708477735519409, 2.266371726989746, -2.652540922164917, 0.059814453125, -0.233642578125, -0.8271484375
596, 3553446518, -5.526848793029785, 2.6189661026000977, 7.719764232635498, -1.1733051538467407, 1.1123278141021729, -3.5107972621917725, 0.062744140625, -0.234130859375, -0.8271484375
597, 3553463185, -5.551605701446533, 2.6221864223480225, 7.607367515563965, -0.7652818560600281, -0.24689359962940216, -4.17138671875, 0.060791015625, -0.233642578125, -0.826171875
598, 3553479852, -5.638016700744629, 2.574108839035034, 7.641404628753662, -0.7163103818893433, -1.1847666501998901, -4.1650471687316895, 0.061279296875, -0.235107421875, -0.82763671875
599, 3553496519, -5.563866138458252, 2.66186785697937, 7.6120500564575195, -0.2549743950366974, -1.600178837776184, -3.8594112396240234, 0.064697265625, -0.235107421875, -0.826904296875
600, 3553513186, -5.429790496826172, 2.733518123626709, 7.661880016326904, 0.49326851963996887, -0.8985319137573242, -3.996157169342041, 0.062255859375, -0.235595703125, -0.82763671875
601, 3553529853, -5.329658508300781, 2.737382650375366, 7.70732307434082, 1.6345833539962769, 1.3464021682739258, -4.863006591796875, 0.062255859375, -0.235595703125, -0.82666015625
602, 3553546520, -5.300424575805664, 2.719174861907959, 7.760136604309082, 2.931854248046875, 3.9585139751434326, -6.413228988647461, 0.064208984375, -0.237060546875, -0.826416015625
603, 3553563187, -5.327596187591553, 2.661201000213623, 7.851736068725586, 4.394443035125732, 9.21035099029541, -7.215010643005371, 0.066162109375, -0.237548828125, -0.825927734375
604, 3553579854, -5.32914924621582, 2.751199722290039, 7.822397708892822, 6.9828314781188965, 16.172513961791992, -8.41353988647461, 0.07275390625, -0.23876953125, -0.82373046875
605, 3553596521, -5.306063175201416, 2.581480026245117, 7.835951805114746, 11.968361854553223, 25.97877311706543, -11.492955207824707, 0.077392578125, -0.24267578125, -0.822021484375
606, 3553613188, -4.935491561889648, 3.2497518062591553, 8.621662139892578, 18.468690872192383, 37.23142623901367, -18.961641311645508, 0.087890625, -0.247802734375, -0.819580078125
607, 3553629855, -5.068060398101807, 2.4983620643615723, 8.448533058166504, 14.221055030822754, 57.97439193725586, -20.434532165527344, 0.100341796875, -0.249755859375, -0.8154296875
608, 3553646522, -4.965069770812988, 2.7605481147766113, 8.642640113830566, 23.035770416259766, 84.38874053955078, -25.62204360961914, 0.120361328125, -0.25537109375, -0.811279296875
609, 3553663189, -4.999370574951172, 2.725696086883545, 8.551644325256348, 32.34696578979492, 117.92910766601562, -30.773155212402344, 0.1474609375, -0.259521484375, -0.80126953125
610, 3553679856, -5.347044467926025, 2.958238124847412, 8.692322731018066, 37.52311706542969, 162.5348663330078, -39.50792694091797, 0.18505859375, -0.266845703125, -0.789794921875
611, 3553696523, -5.123428821563721, 3.1805121898651123, 8.94992446899414, 41.172550201416016, 214.72509765625, -53.0792121887207, 0.234619140625, -0.271484375, -0.7705078125
612, 3553713190, -5.170945644378662, 2.941807508468628, 8.276558876037598, 41.71134948730469, 279.3752746582031, -70.97702026367188, 0.294677734375, -0.27734375, -0.744384765625
613, 3553729857, -6.033890724182129, 4.572994709014893, 9.136573791503906, 31.62482452392578, 355.8280944824219, -101.37843322753906, 0.371337890625, -0.275146484375, -0.7021484375
614, 3553746524, -9.004325866699219, 5.896343231201172, 10.988712310791016, 20.483774185180664, 419.8206481933594, -142.8368377685547, 0.460693359375, -0.261962890625, -0.64453125
615, 3553763191, -15.319575309753418, 7.226762771606445, 11.957170486450195, 18.29698944091797, 460.4447937011719, -167.0508270263672, 0.5546875, -0.239501953125, -0.571533203125
616, 3553779858, -21.800813674926758, 6.968389511108398, 12.946419715881348, 20.24315071105957, 399.7265930175781, -151.64138793945312, 0.629150390625, -0.2138671875, -0.48486328125
617, 3553796525, -19.937902450561523, 7.63720178604126, 13.708642959594727, 20.199203491210938, 313.6490478515625, -138.49586486816406, 0.6865234375, -0.193603515625, -0.412109375
618, 3553813192, -11.24524974822998, 8.385320663452148, 12.989653587341309, 5.19480562210083, 240.9109344482422, -141.064697265625, 0.720947265625, -0.17041015625, -0.34521484375
619, 3553829859, 4.826459884643555, 5.024527072906494, 9.657538414001465, -30.31873893737793, 203.24740600585938, -157.7788543701172, 0.7470703125, -0.13427734375, -0.29345703125
620, 3553846526, -19.13644790649414, 7.6243391036987305, 24.2138729095459, 7.089773654937744, 106.4393539428711, -101.82579040527344, 0.762451171875, -0.107421875, -0.247314453125
621, 3553863193, -8.32091999053955, 9.571704864501953, 19.89073944091797, 24.015226364135742, -131.18785095214844, -24.986385345458984, 0.7548828125, -0.099853515625, -0.249267578125
622, 3553879860, 1.5903725624084473, 8.063264846801758, 10.594075202941895, -14.776299476623535, -213.9866485595703, -4.639276504516602, 0.737548828125, -0.099853515625, -0.278564453125
623, 3553896527, 3.0684852600097656, 5.502192497253418, 6.180791854858398, -57.36473083496094, -208.83985900878906, -7.17156457901001, 0.71826171875, -0.093505859375, -0.30908203125
624, 3553913194, 2.0752670764923096, 3.6199774742126465, 4.676914691925049, -63.26782989501953, -187.55068969726562, 13.448537826538086, 0.70556640625, -0.08837890625, -0.332763671875
625, 3553929861, -0.17474590241909027, 3.778848648071289, 5.129203796386719, -48.236934661865234, -170.8841552734375, 54.23137664794922, 0.692138671875, -0.087890625, -0.35498046875
626, 3553946528, -2.9337034225463867, 5.42864465713501, 6.2349700927734375, -50.296730041503906, -166.4970245361328, 94.16242980957031, 0.678466796875, -0.103515625, -0.372314453125
627, 3553963195, -6.361277103424072, 6.199145793914795, 7.306204319000244, -79.44754791259766, -183.02044677734375, 124.47817993164062, 0.672607421875, -0.12060546875, -0.392822265625
628, 3553979862, -8.188359260559082, 5.221595764160156, 7.452859878540039, -111.51224517822266, -214.70143127441406, 145.09580993652344, 0.66455078125, -0.1435546875, -0.42919921875
629, 3553996529, -8.46604061126709, 3.6334095001220703, 6.693426132202148, -126.71363067626953, -240.45730590820312, 154.2256317138672, 0.650634765625, -0.1708984375, -0.483154296875
630, 3554013196, -8.326501846313477, 2.3384251594543457, 5.688180923461914, -122.80740356445312, -249.04605102539062, 152.5856475830078, 0.618408203125, -0.196044921875, -0.5546875
631, 3554029863, -8.608397483825684, 1.9700515270233154, 5.476879119873047, -105.94403839111328, -243.30018615722656, 142.4114532470703, 0.564697265625, -0.211181640625, -0.623779296875
632, 3554046530, -9.00822925567627, 2.570042610168457, 5.717423915863037, -88.7027587890625, -228.06861877441406, 127.97825622558594, 0.49853515625, -0.21875, -0.677734375
633, 3554063197, -9.261228561401367, 3.7194724082946777, 6.242857456207275, -77.7578125, -203.99554443359375, 116.04263305664062, 0.429931640625, -0.223388671875, -0.712158203125
634, 3554079864, -11.0477294921875, 5.002566814422607, 6.798191547393799, -68.50965118408203, -176.8397216796875, 114.21931457519531, 0.369140625, -0.221923828125, -0.716064453125
635, 3554096531, -13.82196044921875, 6.9503045082092285, 6.455718517303467, -65.63339233398438, -153.8832550048828, 123.53203582763672, 0.330078125, -0.2236328125, -0.711669921875
636, 3554113198, -16.542842864990234, 9.162299156188965, 5.416991233825684, -84.35453033447266, -129.955078125, 134.2078857421875, 0.309814453125, -0.23193359375, -0.705810546875
637, 3554129865, -18.41880226135254, 11.759044647216797, 2.413165330886841, -131.34068298339844, -102.5803451538086, 138.5526885986328, 0.30029296875, -0.232421875, -0.71142578125
638, 3554146532, -18.030750274658203, 14.734360694885254, -2.7630467414855957, -197.22425842285156, -59.775577545166016, 146.15122985839844, 0.299560546875, -0.22021484375, -0.72998046875
639, 3554163199, -17.645931243896484, 16.303661346435547, -9.612431526184082, -255.06776428222656, 4.990166187286377, 184.06085205078125, 0.30419921875, -0.19775390625, -0.758544921875
640, 3554179866, -21.944425582885742, 13.24550724029541, -14.114551544189453, -269.7674255371094, 78.72466278076172, 240.10342407226562, 0.31884765625, -0.1689453125, -0.7802734375
641, 3554196533, -29.831144332885742, 3.5621721744537354, -14.783500671386719, -206.9681854248047, 105.13141632080078, 286.8144836425781, 0.334228515625, -0.1513671875, -0.796630859375
642, 3554213200, -29.3892765045166, -5.773653984069824, -14.761662483215332, -81.60493469238281, 99.00241088867188, 297.4181823730469, 0.348388671875, -0.158203125, -0.801513671875
643, 3554229867, -39.090885162353516, -4.886868953704834, -8.134349822998047, -26.962854385375977, 81.97440338134766, 214.86497497558594, 0.3603515625, -0.179931640625, -0.802490234375
644, 3554246534, -20.21678924560547, 10.144145011901855, -10.665180206298828, -55.04186248779297, 33.523704528808594, 152.73854064941406, 0.365478515625, -0.1865234375, -0.806640625
645, 3554263201, -7.984479904174805, 6.999714374542236, 3.5897772312164307, -97.700439453125, -35.867897033691406, 130.0879669189453, 0.35400390625, -0.184326171875, -0.813720703125
646, 3554279868, 4.79903507232666, 5.040611743927002, 15.746641159057617, -10.825736999511719, -63.76582717895508, 26.108861923217773, 0.337646484375, -0.186279296875, -0.82177734375
647, 3554296535, -9.121424674987793, 7.760427474975586, 5.577864170074463, -14.723337173461914, -32.68860626220703, -23.09137725830078, 0.32958984375, -0.1806640625, -0.82568359375
648, 3554313202, -4.986046314239502, 0.5214279890060425, 9.094598770141602, -1.276926040649414, -22.65763282775879, -23.749826431274414, 0.323486328125, -0.1796875, -0.825927734375
649, 3554329869, -7.512409687042236, 0.11538462340831757, 7.796769142150879, 5.604506492614746, -14.852105140686035, -8.554381370544434, 0.321533203125, -0.18017578125, -0.827880859375
650, 3554346536, -5.8902812004089355, 1.9937676191329956, 8.259208679199219, 8.451458930969238, -6.6930108070373535, -0.0510077178478241, 0.320068359375, -0.18310546875, -0.828369140625
651, 3554363203, -5.532292366027832, 2.8686869144439697, 7.924498081207275, 10.584855079650879, 2.0036373138427734, 1.7955598831176758, 0.321044921875, -0.187744140625, -0.827880859375
652, 3554379870, -5.7959818840026855, 3.1671621799468994, 7.477734565734863, 10.347923278808594, 3.9080827236175537, 1.6072806119918823, 0.319580078125, -0.190673828125, -0.82568359375
653, 3554396537, -5.495223522186279, 3.2310924530029297, 7.691639423370361, 8.610856056213379, 3.9239749908447266, -1.2728105783462524, 0.322509765625, -0.1943359375, -0.826171875
654, 3554413204, -5.601212024688721, 2.766115188598633, 7.792786121368408, 9.240382194519043, 7.4360551834106445, -3.5889430046081543, 0.325439453125, -0.19580078125, -0.823974609375
655, 3554429871, -5.891848564147949, 2.234851121902466, 7.625389575958252, 10.443681716918945, 10.15375804901123, -0.6057279706001282, 0.32861328125, -0.200927734375, -0.82177734375
656, 3554446538, -5.587735652923584, 2.7677838802337646, 7.6961517333984375, 13.200373649597168, 15.369338035583496, 2.6696603298187256, 0.33154296875, -0.204833984375, -0.819580078125
657, 3554463205, -5.535050392150879, 3.2324161529541016, 7.5998311042785645, 15.417221069335938, 20.196983337402344, 0.6707661151885986, 0.336181640625, -0.204833984375, -0.819091796875
