sep=,
DeviceTag:,A,,,,,,,,,,,,,,,,,
FirmwareVersion:,2.2.1,,,,,,,,,,,,,,,,,
AppVersion:,2022.0.1,,,,,,,,,,,,,,,,,
SyncStatus:,Synced,,,,,,,,,,,,,,,,,
OutputRate:,60Hz,,,,,,,,,,,,,,,,,
FilterProfile:,General,,,,,,,,,,,,,,,,,
Measurement Mode:,Inertial Mode - Rate quantities (with mag),,,,,,,,,,,,,,,,,
StartTime:,2022-08-05 16:58:30.534 +0300,,,,,,,,,,,,,,,,,
© Xsens Technologies B. V. 2005-2022,,,,,,,,,,,,,,,,,,,

PacketCounter,SampleTimeFine,Acc_X,Acc_Y,Acc_Z,Gyr_X,Gyr_Y,Gyr_Z,Mag_X,Mag_Y,Mag_Z
1, 4157575267, -5.320001125335693, 2.5397961139678955, 7.883206367492676, -2.123075008392334, -0.779112696647644, -2.9456143379211426, 0.0693359375, -0.19091796875, -0.8056640625
2, 4157591934, -5.339856147766113, 2.526655912399292, 7.893007755279541, -2.04995059967041, -0.8093740940093994, -2.7170207500457764, 0.06787109375, -0.19140625, -0.80419921875
3, 4157608601, -5.32378625869751, 2.5215837955474854, 7.864823818206787, -2.057032823562622, -0.8505849242210388, -2.669701099395752, 0.06640625, -0.189697265625, -0.804443359375
4, 4157625268, -5.325326442718506, 2.5263478755950928, 7.873549938201904, -2.162761688232422, -0.8820372223854065, -2.6224586963653564, 0.06787109375, -0.1904296875, -0.8037109375
5, 4157641935, -5.320865154266357, 2.5328752994537354, 7.872132778167725, -2.1529271602630615, -0.8721893429756165, -2.713243246078491, 0.06640625, -0.1923828125, -0.8037109375
6, 4157658602, -5.326460361480713, 2.534447431564331, 7.8499369621276855, -2.093594789505005, -0.8278664350509644, -2.6015841960906982, 0.0654296875, -0.189208984375, -0.803466796875
7, 4157675269, -5.319322109222412, 2.5316162109375, 7.873040676116943, -2.1568710803985596, -0.8228207230567932, -2.6399776935577393, 0.06787109375, -0.190673828125, -0.80224609375
8, 4157691936, -5.324443817138672, 2.5414814949035645, 7.851579666137695, -2.188643455505371, -0.9966029524803162, -2.6138527393341064, 0.0673828125, -0.19140625, -0.804931640625
9, 4157708603, -5.321441650390625, 2.5387301445007324, 7.864429473876953, -2.3118791580200195, -1.020358681678772, -2.6565747261047363, 0.06689453125, -0.19091796875, -0.804931640625
10, 4157725270, -5.336480140686035, 2.5412895679473877, 7.856233596801758, -2.2815537452697754, -1.0084744691848755, -2.7505223751068115, 0.068359375, -0.19140625, -0.805908203125
11, 4157741937, -5.31833028793335, 2.537111520767212, 7.872092247009277, -2.311892032623291, -1.1357824802398682, -2.6521310806274414, 0.068359375, -0.18994140625, -0.805908203125
12, 4157758604, -5.343832969665527, 2.5375478267669678, 7.8637375831604, -2.3884100914001465, -1.177531123161316, -2.6855556964874268, 0.06884765625, -0.19140625, -0.8046875
13, 4157775271, -5.328331470489502, 2.52949595451355, 7.880945205688477, -2.363642454147339, -1.3161214590072632, -2.6264798641204834, 0.068359375, -0.1923828125, -0.8056640625
14, 4157791938, -5.355711936950684, 2.533937931060791, 7.851129531860352, -2.354306697845459, -1.22263503074646, -2.6677422523498535, 0.06982421875, -0.19091796875, -0.80322265625
15, 4157808605, -5.333526611328125, 2.5408425331115723, 7.852382183074951, -2.3614144325256348, -1.2188829183578491, -2.5318665504455566, 0.0654296875, -0.19189453125, -0.802734375
16, 4157825272, -5.2923264503479, 2.547292709350586, 7.866247177124023, -2.3573544025421143, -1.1793879270553589, -2.6791903972625732, 0.06787109375, -0.19189453125, -0.806884765625
17, 4157841939, -5.316307544708252, 2.5537095069885254, 7.863731861114502, -2.2953333854675293, -1.0478156805038452, -2.8045010566711426, 0.06787109375, -0.193359375, -0.8046875
18, 4157858606, -5.34574556350708, 2.519979476928711, 7.86686897277832, -2.1199758052825928, -0.9616287350654602, -2.6924452781677246, 0.0703125, -0.1923828125, -0.8056640625
19, 4157875273, -5.3401288986206055, 2.5446455478668213, 7.856384754180908, -2.143244981765747, -0.9985877275466919, -2.613186836242676, 0.06884765625, -0.19189453125, -0.80419921875
20, 4157891940, -5.340555191040039, 2.5486714839935303, 7.841458797454834, -2.2672107219696045, -1.0710718631744385, -2.563971996307373, 0.0693359375, -0.1923828125, -0.8046875
21, 4157908607, -5.354587078094482, 2.5406789779663086, 7.85969877243042, -2.3064491748809814, -1.1156764030456543, -2.5414586067199707, 0.0703125, -0.19189453125, -0.80517578125
22, 4157925274, -5.33935022354126, 2.5415358543395996, 7.8687968254089355, -2.2671592235565186, -1.0481868982315063, -2.408118724822998, 0.06884765625, -0.193359375, -0.80517578125
23, 4157941941, -5.339325428009033, 2.537297487258911, 7.876955509185791, -2.227062702178955, -1.047738790512085, -2.543546199798584, 0.0693359375, -0.1923828125, -0.80224609375
24, 4157958608, -5.357080459594727, 2.5379676818847656, 7.86175012588501, -2.263432502746582, -0.9895465970039368, -2.5269360542297363, 0.06982421875, -0.193359375, -0.80517578125
25, 4157975275, -5.349676609039307, 2.545807361602783, 7.831809997558594, -2.3411672115325928, -1.0791910886764526, -2.462059259414673, 0.06787109375, -0.1923828125, -0.80224609375
26, 4157991942, -5.328432083129883, 2.5582275390625, 7.846247673034668, -2.4366257190704346, -1.1053800582885742, -2.637134313583374, 0.06982421875, -0.19140625, -0.802734375
27, 4158008609, -5.323921203613281, 2.5532209873199463, 7.8495965003967285, -2.465658187866211, -1.2428563833236694, -2.6742095947265625, 0.0712890625, -0.19287109375, -0.8037109375
28, 4158025276, -5.368415355682373, 2.538367509841919, 7.8451313972473145, -2.4394948482513428, -1.083852767944336, -2.7131662368774414, 0.0703125, -0.1923828125, -0.80517578125
29, 4158041943, -5.361992359161377, 2.5134661197662354, 7.854929447174072, -2.510352373123169, -1.1325041055679321, -2.6492371559143066, 0.06982421875, -0.19482421875, -0.80322265625
30, 4158058610, -5.362775802612305, 2.5425899028778076, 7.857639789581299, -2.4920005798339844, -1.3661431074142456, -2.5084564685821533, 0.0693359375, -0.1923828125, -0.8037109375
31, 4158075277, -5.359647750854492, 2.5303938388824463, 7.838927268981934, -2.5099806785583496, -1.3584208488464355, -2.4911937713623047, 0.068359375, -0.19384765625, -0.80322265625
32, 4158091944, -5.344457626342773, 2.5346286296844482, 7.843637466430664, -2.5921335220336914, -1.4844096899032593, -2.496239423751831, 0.0673828125, -0.19140625, -0.8046875
33, 4158108611, -5.332369804382324, 2.5424211025238037, 7.856529712677002, -2.65529465675354, -1.6204516887664795, -2.579685926437378, 0.06787109375, -0.19384765625, -0.80126953125
34, 4158125278, -5.338720798492432, 2.5287744998931885, 7.847412109375, -2.583437919616699, -1.4369237422943115, -2.5128750801086426, 0.0693359375, -0.1904296875, -0.8056640625
35, 4158141945, -5.3436174392700195, 2.5297415256500244, 7.851891040802002, -2.551281452178955, -1.4277675151824951, -2.4949207305908203, 0.0693359375, -0.19189453125, -0.8037109375
36, 4158158612, -5.354867458343506, 2.5244131088256836, 7.860860824584961, -2.6787302494049072, -1.4971266984939575, -2.5377449989318848, 0.06884765625, -0.19140625, -0.8037109375
37, 4158175279, -5.340122699737549, 2.5322771072387695, 7.857013702392578, -2.5966286659240723, -1.471718668937683, -2.434410572052002, 0.06982421875, -0.19189453125, -0.802734375
38, 4158191946, -5.332888603210449, 2.5324621200561523, 7.844573497772217, -2.719505548477173, -1.5145303010940552, -2.558850049972534, 0.06884765625, -0.19189453125, -0.802734375
39, 4158208613, -5.331131458282471, 2.547583818435669, 7.875654697418213, -2.555328130722046, -1.4237333536148071, -2.5552258491516113, 0.068359375, -0.1923828125, -0.8037109375
40, 4158225280, -5.342090606689453, 2.525294780731201, 7.8541178703308105, -2.626262664794922, -1.368640422821045, -2.6050679683685303, 0.06640625, -0.19140625, -0.803955078125
41, 4158241947, -5.352646827697754, 2.532329559326172, 7.871068000793457, -2.633549213409424, -1.244431495666504, -2.6451258659362793, 0.0673828125, -0.1904296875, -0.804931640625
42, 4158258614, -5.343489646911621, 2.5299770832061768, 7.857004165649414, -2.571028470993042, -1.260144829750061, -2.4945621490478516, 0.0693359375, -0.1904296875, -0.8056640625
43, 4158275281, -5.337253570556641, 2.537236452102661, 7.862616539001465, -2.5487327575683594, -1.2792776823043823, -2.5506792068481445, 0.068359375, -0.1923828125, -0.80224609375
44, 4158291948, -5.341454029083252, 2.5350475311279297, 7.850474834442139, -2.5428287982940674, -1.1890568733215332, -2.574998378753662, 0.068359375, -0.193359375, -0.80322265625
45, 4158308615, -5.362678050994873, 2.513535499572754, 7.848530292510986, -2.5203025341033936, -1.292083978652954, -2.511056423187256, 0.06982421875, -0.19140625, -0.8037109375
46, 4158325282, -5.3428449630737305, 2.529891014099121, 7.852982044219971, -2.562871217727661, -1.3566280603408813, -2.4643776416778564, 0.06689453125, -0.19287109375, -0.804931640625
47, 4158341949, -5.339295387268066, 2.5271570682525635, 7.860188961029053, -2.5271799564361572, -1.4231184720993042, -2.4623281955718994, 0.0673828125, -0.19189453125, -0.80419921875
48, 4158358616, -5.3343825340271, 2.5439205169677734, 7.837667465209961, -2.688847303390503, -1.4265508651733398, -2.4683475494384766, 0.072021484375, -0.19140625, -0.8046875
49, 4158375283, -5.354186534881592, 2.545318126678467, 7.846567630767822, -2.5999841690063477, -1.4232723712921143, -2.5517680644989014, 0.0693359375, -0.19287109375, -0.80224609375
50, 4158391950, -5.355790615081787, 2.5406734943389893, 7.86905574798584, -2.637096881866455, -1.4136931896209717, -2.5046920776367188, 0.0703125, -0.190185546875, -0.80126953125
51, 4158408617, -5.336588382720947, 2.5418307781219482, 7.855531215667725, -2.579212188720703, -1.4594758749008179, -2.4765946865081787, 0.068359375, -0.19140625, -0.80322265625
52, 4158425284, -5.339656352996826, 2.5505599975585938, 7.856324672698975, -2.612431526184082, -1.4003487825393677, -2.5248615741729736, 0.06884765625, -0.19091796875, -0.80517578125
53, 4158441951, -5.346275329589844, 2.5444366931915283, 7.866752624511719, -2.630437135696411, -1.3162238597869873, -2.5762407779693604, 0.06787109375, -0.1923828125, -0.80517578125
54, 4158458618, -5.34850549697876, 2.5354292392730713, 7.86090612411499, -2.5725784301757812, -1.3515183925628662, -2.558286666870117, 0.06884765625, -0.19091796875, -0.80224609375
55, 4158475285, -5.346492767333984, 2.5275354385375977, 7.837270259857178, -2.6001505851745605, -1.3838800191879272, -2.4956891536712646, 0.06787109375, -0.1923828125, -0.8017578125
56, 4158491952, -5.347562313079834, 2.535076379776001, 7.84868049621582, -2.6087820529937744, -1.440535306930542, -2.444002389907837, 0.068359375, -0.19287109375, -0.80322265625
57, 4158508619, -5.339271068572998, 2.5424790382385254, 7.859318733215332, -2.6411051750183105, -1.466045618057251, -2.520366668701172, 0.0693359375, -0.19287109375, -0.80224609375
58, 4158525286, -5.3388190269470215, 2.5322940349578857, 7.84285831451416, -2.7128336429595947, -1.4691574573516846, -2.4403016567230225, 0.0673828125, -0.1923828125, -0.8037109375
59, 4158541953, -5.330228328704834, 2.5344951152801514, 7.842489242553711, -2.62595534324646, -1.4228624105453491, -2.5384366512298584, 0.068359375, -0.193359375, -0.80322265625
60, 4158558620, -5.339914321899414, 2.539051055908203, 7.863910675048828, -2.677744150161743, -1.4114265441894531, -2.5427908897399902, 0.06884765625, -0.19287109375, -0.8037109375
61, 4158575287, -5.3570146560668945, 2.5441489219665527, 7.8317365646362305, -2.585820198059082, -1.3714065551757812, -2.5807487964630127, 0.06982421875, -0.1943359375, -0.80419921875
62, 4158591954, -5.353636264801025, 2.5307977199554443, 7.839443683624268, -2.4967002868652344, -1.2827482223510742, -2.4797322750091553, 0.068359375, -0.19189453125, -0.80224609375
63, 4158608621, -5.352329254150391, 2.5482747554779053, 7.858529567718506, -2.5212886333465576, -1.3238308429718018, -2.4871084690093994, 0.07177734375, -0.19140625, -0.80322265625
64, 4158625288, -5.355507850646973, 2.532665491104126, 7.848187446594238, -2.545544385910034, -1.2593766450881958, -2.5673022270202637, 0.06689453125, -0.19189453125, -0.802734375
65, 4158641955, -5.350422382354736, 2.547585964202881, 7.8552632331848145, -2.5152573585510254, -1.3446285724639893, -2.5511021614074707, 0.0693359375, -0.19189453125, -0.80322265625
66, 4158658622, -5.3452348709106445, 2.532991886138916, 7.863466739654541, -2.6373910903930664, -1.3991705179214478, -2.5133614540100098, 0.06982421875, -0.193359375, -0.8046875
67, 4158675289, -5.353275775909424, 2.519038677215576, 7.848040580749512, -2.5572237968444824, -1.4065345525741577, -2.4917831420898438, 0.06787109375, -0.19287109375, -0.80126953125
68, 4158691956, -5.356903553009033, 2.542585611343384, 7.85457181930542, -2.577751636505127, -1.339198350906372, -2.4273154735565186, 0.0693359375, -0.1923828125, -0.80419921875
69, 4158708623, -5.344152450561523, 2.5340497493743896, 7.846128940582275, -2.571643590927124, -1.4118620157241821, -2.4479727745056152, 0.0673828125, -0.19140625, -0.80224609375
70, 4158725290, -5.335299491882324, 2.528815269470215, 7.844849109649658, -2.5020153522491455, -1.31963050365448, -2.5015923976898193, 0.06884765625, -0.19140625, -0.80419921875
71, 4158741957, -5.3543267250061035, 2.534379243850708, 7.861299991607666, -2.4854819774627686, -1.2834908962249756, -2.4111154079437256, 0.0693359375, -0.19140625, -0.8046875
72, 4158758624, -5.3575758934021, 2.527207136154175, 7.8675713539123535, -2.4851107597351074, -1.301253318786621, -2.449906349182129, 0.06982421875, -0.19140625, -0.8037109375
73, 4158775291, -5.363293170928955, 2.52880597114563, 7.8760294914245605, -2.519841432571411, -1.4094926118850708, -2.4858789443969727, 0.06787109375, -0.19384765625, -0.8046875
74, 4158791958, -5.357264041900635, 2.532195806503296, 7.849639892578125, -2.618809461593628, -1.477904200553894, -2.3694441318511963, 0.0703125, -0.193359375, -0.801025390625
75, 4158808625, -5.341128826141357, 2.5423340797424316, 7.844890117645264, -2.6503515243530273, -1.6716258525848389, -2.390279769897461, 0.06787109375, -0.1923828125, -0.80419921875
76, 4158825292, -5.3414306640625, 2.5393118858337402, 7.8450798988342285, -2.638812780380249, -1.6263682842254639, -2.498211622238159, 0.06982421875, -0.193359375, -0.80419921875
77, 4158841959, -5.332034111022949, 2.5274269580841064, 7.8427629470825195, -2.6791913509368896, -1.5329843759536743, -2.5337367057800293, 0.068359375, -0.1923828125, -0.80322265625
78, 4158858626, -5.348996162414551, 2.5388309955596924, 7.841311931610107, -2.630322217941284, -1.5140950679779053, -2.4805009365081787, 0.07080078125, -0.19287109375, -0.80517578125
79, 4158875293, -5.351265907287598, 2.521291732788086, 7.857132911682129, -2.680330753326416, -1.5686626434326172, -2.526270627975464, 0.0712890625, -0.19384765625, -0.802734375
80, 4158891960, -5.333572864532471, 2.529006242752075, 7.830324172973633, -2.6451005935668945, -1.5922008752822876, -2.528473377227783, 0.0703125, -0.19189453125, -0.80322265625
81, 4158908627, -5.330872058868408, 2.5434045791625977, 7.875323295593262, -2.670713186264038, -1.5097663402557373, -2.452019453048706, 0.06884765625, -0.1904296875, -0.8037109375
82, 4158925294, -5.342287540435791, 2.516305446624756, 7.868658065795898, -2.6068737506866455, -1.515132188796997, -2.389639377593994, 0.068359375, -0.19140625, -0.80419921875
83, 4158941961, -5.344012260437012, 2.536599636077881, 7.843989849090576, -2.576061725616455, -1.6067360639572144, -2.3165793418884277, 0.07080078125, -0.19091796875, -0.80322265625
84, 4158958628, -5.344674587249756, 2.5449490547180176, 7.858375072479248, -2.661736249923706, -1.57949697971344, -2.399397850036621, 0.0703125, -0.19287109375, -0.8017578125
85, 4158975295, -5.3444390296936035, 2.5460355281829834, 7.871776580810547, -2.681137800216675, -1.637778639793396, -2.4068515300750732, 0.068359375, -0.19189453125, -0.80224609375
86, 4158991962, -5.333587169647217, 2.5293407440185547, 7.850902080535889, -2.6823673248291016, -1.5684195756912231, -2.4761080741882324, 0.0673828125, -0.193359375, -0.8037109375
87, 4159008629, -5.332332611083984, 2.541233539581299, 7.8542656898498535, -2.661390542984009, -1.5503242015838623, -2.3890891075134277, 0.0673828125, -0.1923828125, -0.802734375
88, 4159025296, -5.333984375, 2.543487310409546, 7.867588520050049, -2.6791017055511475, -1.5052714347839355, -2.4186718463897705, 0.06982421875, -0.19189453125, -0.8037109375
89, 4159041963, -5.345092296600342, 2.549009084701538, 7.854006290435791, -2.6300148963928223, -1.4854214191436768, -2.441671848297119, 0.06787109375, -0.1904296875, -0.8046875
90, 4159058630, -5.341353893280029, 2.530782699584961, 7.868070602416992, -2.7572076320648193, -1.5388624668121338, -2.4569754600524902, 0.0703125, -0.19189453125, -0.802734375
91, 4159075297, -5.3483171463012695, 2.5260064601898193, 7.844257354736328, -2.700411319732666, -1.5318702459335327, -2.4733548164367676, 0.06982421875, -0.19140625, -0.80224609375
92, 4159091964, -5.310739517211914, 2.5416600704193115, 7.861851692199707, -2.6441402435302734, -1.550093650817871, -2.509404420852661, 0.06689453125, -0.193359375, -0.802734375
93, 4159108631, -5.337904453277588, 2.5317578315734863, 7.857325553894043, -2.713858127593994, -1.3722901344299316, -2.4858922958374023, 0.06787109375, -0.19287109375, -0.8037109375
94, 4159125298, -5.330102920532227, 2.5402262210845947, 7.847857475280762, -2.645369529724121, -1.5187820196151733, -2.5734105110168457, 0.072265625, -0.19091796875, -0.80224609375
95, 4159141965, -5.3399553298950195, 2.537748336791992, 7.868509292602539, -2.6303608417510986, -1.3894506692886353, -2.568634033203125, 0.06982421875, -0.19189453125, -0.8037109375
96, 4159158632, -5.3340067863464355, 2.5385255813598633, 7.861267566680908, -2.5871646404266357, -1.393843173980713, -2.4444637298583984, 0.0673828125, -0.19384765625, -0.8037109375
97, 4159175299, -5.340782165527344, 2.530871868133545, 7.866201400756836, -2.6371095180511475, -1.4057661294937134, -2.4698073863983154, 0.0703125, -0.19384765625, -0.802734375
98, 4159191966, -5.3470306396484375, 2.527251720428467, 7.856858730316162, -2.6379036903381348, -1.4939249753952026, -2.4584097862243652, 0.068359375, -0.19189453125, -0.8017578125
99, 4159208633, -5.3371195793151855, 2.5359046459198, 7.85623836517334, -2.591109037399292, -1.5580079555511475, -2.4880690574645996, 0.06591796875, -0.1923828125, -0.803955078125
100, 4159225300, -5.330599784851074, 2.5332911014556885, 7.8588714599609375, -2.673774480819702, -1.5264915227890015, -2.4708449840545654, 0.06982421875, -0.1923828125, -0.8046875
101, 4159241967, -5.341116428375244, 2.5274269580841064, 7.862255096435547, -2.685811996459961, -1.4433655738830566, -2.49175763130188, 0.0703125, -0.19091796875, -0.80517578125
102, 4159258634, -5.334352016448975, 2.5202372074127197, 7.84348726272583, -2.5994715690612793, -1.430495023727417, -2.5536251068115234, 0.06591796875, -0.190673828125, -0.804443359375
103, 4159275301, -5.335130214691162, 2.5302913188934326, 7.858248233795166, -2.597269058227539, -1.4874067306518555, -2.5176005363464355, 0.0673828125, -0.1923828125, -0.8017578125
104, 4159291968, -5.320692539215088, 2.531172513961792, 7.867612361907959, -2.706801652908325, -1.4287662506103516, -2.50543475151062, 0.0673828125, -0.19189453125, -0.80322265625
105, 4159308635, -5.3244452476501465, 2.522584915161133, 7.871546745300293, -2.637314558029175, -1.3804991245269775, -2.471177577972412, 0.06982421875, -0.1904296875, -0.802734375
106, 4159325302, -5.333625793457031, 2.5382535457611084, 7.854703426361084, -2.5456080436706543, -1.3116521835327148, -2.5597589015960693, 0.06787109375, -0.19091796875, -0.805908203125
107, 4159341969, -5.3527679443359375, 2.5227279663085938, 7.873086929321289, -2.570119619369507, -1.3116649389266968, -2.525822401046753, 0.06787109375, -0.1923828125, -0.8056640625
108, 4159358636, -5.3458170890808105, 2.531991958618164, 7.876198768615723, -2.4808719158172607, -1.4283050298690796, -2.426150321960449, 0.06982421875, -0.18994140625, -0.80615234375
109, 4159375303, -5.334953784942627, 2.530592918395996, 7.865484237670898, -2.5758697986602783, -1.378514289855957, -2.5163328647613525, 0.068359375, -0.1923828125, -0.80224609375
110, 4159391970, -5.332704067230225, 2.5378124713897705, 7.862742900848389, -2.5793018341064453, -1.3549761772155762, -2.516179084777832, 0.06640625, -0.19287109375, -0.80322265625
111, 4159408637, -5.329824924468994, 2.533698797225952, 7.852602005004883, -2.591442108154297, -1.3658998012542725, -2.5527541637420654, 0.06787109375, -0.1923828125, -0.8017578125
112, 4159425304, -5.357564926147461, 2.5313310623168945, 7.853283882141113, -2.58918833732605, -1.3672829866409302, -2.5991644859313965, 0.06884765625, -0.19140625, -0.80224609375
113, 4159441971, -5.344892978668213, 2.5243349075317383, 7.843006610870361, -2.530406951904297, -1.4221069812774658, -2.468757390975952, 0.06640625, -0.19140625, -0.804443359375
114, 4159458638, -5.331023693084717, 2.54072904586792, 7.862009048461914, -2.6095759868621826, -1.4386143684387207, -2.4281740188598633, 0.068359375, -0.1904296875, -0.80419921875
115, 4159475305, -5.338109016418457, 2.5246386528015137, 7.8580145835876465, -2.634343385696411, -1.4256671667099, -2.4325666427612305, 0.0693359375, -0.19287109375, -0.802734375
116, 4159491972, -5.339057445526123, 2.5352139472961426, 7.875298976898193, -2.641822099685669, -1.4204035997390747, -2.5082390308380127, 0.06884765625, -0.18994140625, -0.80419921875
117, 4159508639, -5.334197044372559, 2.5376389026641846, 7.864259243011475, -2.6350090503692627, -1.4128479957580566, -2.575382947921753, 0.06787109375, -0.19140625, -0.80419921875
118, 4159525306, -5.345617294311523, 2.5414199829101562, 7.853813171386719, -2.6890006065368652, -1.3974930047988892, -2.523940086364746, 0.06884765625, -0.18994140625, -0.805419921875
119, 4159541973, -5.3414788246154785, 2.542656421661377, 7.850922584533691, -2.730557680130005, -1.3969296216964722, -2.4859049320220947, 0.0673828125, -0.19091796875, -0.8046875
120, 4159558640, -5.339152812957764, 2.5263876914978027, 7.846206188201904, -2.6692404747009277, -1.4631513357162476, -2.598895311355591, 0.068359375, -0.19140625, -0.806396484375
121, 4159575307, -5.340285778045654, 2.5239429473876953, 7.8641510009765625, -2.6552817821502686, -1.4881876707077026, -2.509058713912964, 0.068359375, -0.19189453125, -0.80322265625
122, 4159591974, -5.3399176597595215, 2.538530111312866, 7.856815338134766, -2.651362895965576, -1.4445947408676147, -2.4805517196655273, 0.068359375, -0.19287109375, -0.80517578125
123, 4159608641, -5.3264007568359375, 2.543574333190918, 7.851130962371826, -2.61727237701416, -1.3454737663269043, -2.5009522438049316, 0.06787109375, -0.190673828125, -0.8017578125
124, 4159625308, -5.3298492431640625, 2.5148062705993652, 7.861144542694092, -2.6282858848571777, -1.3239717483520508, -2.5514094829559326, 0.0693359375, -0.19140625, -0.80517578125
125, 4159641975, -5.344554424285889, 2.5252912044525146, 7.850244998931885, -2.6610448360443115, -1.2873201370239258, -2.5420734882354736, 0.06689453125, -0.19091796875, -0.8037109375
126, 4159658642, -5.343912601470947, 2.521253824234009, 7.847187519073486, -2.58807373046875, -1.3035839796066284, -2.515167236328125, 0.0703125, -0.19140625, -0.80224609375
127, 4159675309, -5.352392196655273, 2.5197603702545166, 7.846944808959961, -2.6839041709899902, -1.386979103088379, -2.4441306591033936, 0.0693359375, -0.1904296875, -0.8017578125
128, 4159691976, -5.320826053619385, 2.5266411304473877, 7.873863220214844, -2.6669609546661377, -1.4023211002349854, -2.5880484580993652, 0.0673828125, -0.19140625, -0.804931640625
129, 4159708643, -5.3394775390625, 2.5055789947509766, 7.862613201141357, -2.62874698638916, -1.413731575012207, -2.5480926036834717, 0.068359375, -0.19189453125, -0.8046875
130, 4159725310, -5.347754001617432, 2.528959274291992, 7.852448463439941, -2.6494545936584473, -1.4225422143936157, -2.4565012454986572, 0.0673828125, -0.19140625, -0.8046875
131, 4159741977, -5.347369194030762, 2.526730537414551, 7.856931686401367, -2.6763482093811035, -1.453751564025879, -2.4965856075286865, 0.06689453125, -0.19189453125, -0.805419921875
132, 4159758644, -5.32188081741333, 2.550252676010132, 7.868248462677002, -2.669970750808716, -1.4811443090438843, -2.5868701934814453, 0.0693359375, -0.19140625, -0.8037109375
133, 4159775311, -5.338964939117432, 2.546264171600342, 7.842565059661865, -2.7081847190856934, -1.452278733253479, -2.5051019191741943, 0.06787109375, -0.19091796875, -0.8046875
134, 4159791978, -5.32405424118042, 2.530015468597412, 7.854626178741455, -2.6748499870300293, -1.3572810888290405, -2.480680227279663, 0.06787109375, -0.19287109375, -0.802734375
135, 4159808645, -5.33530330657959, 2.524517059326172, 7.874639987945557, -2.6304244995117188, -1.349251627922058, -2.5030527114868164, 0.0673828125, -0.188720703125, -0.804443359375
136, 4159825312, -5.336557865142822, 2.525951385498047, 7.865569591522217, -2.6364431381225586, -1.3462547063827515, -2.5582096576690674, 0.06689453125, -0.19140625, -0.804931640625
137, 4159841979, -5.342545509338379, 2.516669511795044, 7.866935729980469, -2.643000364303589, -1.3710991144180298, -2.4984679222106934, 0.06787109375, -0.1904296875, -0.806884765625
138, 4159858646, -5.352441787719727, 2.5280354022979736, 7.873325824737549, -2.5521907806396484, -1.3855961561203003, -2.5608222484588623, 0.0673828125, -0.19140625, -0.8046875
139, 4159875313, -5.331425666809082, 2.5265917778015137, 7.879008769989014, -2.6321661472320557, -1.3654388189315796, -2.5974481105804443, 0.06884765625, -0.19189453125, -0.80419921875
140, 4159891980, -5.329099655151367, 2.523650884628296, 7.858665466308594, -2.6014177799224854, -1.4171251058578491, -2.4887218475341797, 0.068359375, -0.19091796875, -0.8037109375
141, 4159908647, -5.330449104309082, 2.530860185623169, 7.875580787658691, -2.624969244003296, -1.4194176197052002, -2.502732753753662, 0.06689453125, -0.19189453125, -0.80224609375
142, 4159925314, -5.344149112701416, 2.5303964614868164, 7.871939659118652, -2.4848034381866455, -1.3962379693984985, -2.4567320346832275, 0.0673828125, -0.19140625, -0.80419921875
143, 4159941981, -5.341753005981445, 2.5354132652282715, 7.857264518737793, -2.578904867172241, -1.2861546277999878, -2.5338006019592285, 0.0673828125, -0.19140625, -0.802734375
144, 4159958648, -5.338776588439941, 2.5393152236938477, 7.844731330871582, -2.571476936340332, -1.306273341178894, -2.538090705871582, 0.06787109375, -0.19287109375, -0.80419921875
145, 4159975315, -5.334475994110107, 2.5299229621887207, 7.8789777755737305, -2.624610662460327, -1.322371006011963, -2.5069971084594727, 0.06884765625, -0.19189453125, -0.80322265625
146, 4159991982, -5.339040279388428, 2.5331928730010986, 7.838256359100342, -2.6735310554504395, -1.328364372253418, -2.660097122192383, 0.068359375, -0.190185546875, -0.802734375
147, 4160008649, -5.341772556304932, 2.5331668853759766, 7.855642795562744, -2.7942047119140625, -1.4214023351669312, -2.6382999420166016, 0.0693359375, -0.189697265625, -0.8037109375
148, 4160025316, -5.33736515045166, 2.506300449371338, 7.858158111572266, -2.7314023971557617, -1.3455889225006104, -2.5106210708618164, 0.068359375, -0.1904296875, -0.80322265625
149, 4160041983, -5.348207950592041, 2.543300151824951, 7.8644328117370605, -2.635572910308838, -1.2732460498809814, -2.677206516265869, 0.06787109375, -0.1923828125, -0.80517578125
150, 4160058650, -5.332216739654541, 2.528968572616577, 7.868227481842041, -2.6637980937957764, -1.2793545722961426, -2.655973196029663, 0.0712890625, -0.19189453125, -0.80517578125
151, 4160075317, -5.336910247802734, 2.5172767639160156, 7.868384838104248, -2.657087564468384, -1.2585314512252808, -2.606374502182007, 0.068359375, -0.19140625, -0.80419921875
152, 4160091984, -5.323920249938965, 2.5228822231292725, 7.865257740020752, -2.5249385833740234, -1.1501511335372925, -2.490719795227051, 0.06982421875, -0.193359375, -0.80322265625
153, 4160108651, -5.331698894500732, 2.5367848873138428, 7.859045028686523, -2.566354274749756, -1.1647248268127441, -2.499223470687866, 0.06884765625, -0.1923828125, -0.80517578125
154, 4160125318, -5.361351490020752, 2.519124984741211, 7.856563568115234, -2.5368359088897705, -1.1270612478256226, -2.6061949729919434, 0.06640625, -0.188720703125, -0.804931640625
155, 4160141985, -5.344843864440918, 2.5142252445220947, 7.848711013793945, -2.4931020736694336, -1.2136578559875488, -2.5821828842163086, 0.0703125, -0.1904296875, -0.80517578125
156, 4160158652, -5.3526692390441895, 2.50622296333313, 7.863108158111572, -2.469461441040039, -1.2705564498901367, -2.475172758102417, 0.0673828125, -0.19091796875, -0.805419921875
157, 4160175319, -5.343883991241455, 2.5032382011413574, 7.855899810791016, -2.4856483936309814, -1.4432501792907715, -2.3358654975891113, 0.06982421875, -0.19140625, -0.80322265625
158, 4160191986, -5.331873416900635, 2.5435574054718018, 7.860785484313965, -2.531277656555176, -1.367154836654663, -2.415764570236206, 0.06884765625, -0.1904296875, -0.80322265625
159, 4160208653, -5.320011615753174, 2.536550760269165, 7.8536248207092285, -2.5275766849517822, -1.2890231609344482, -2.5249640941619873, 0.068359375, -0.19091796875, -0.805419921875
160, 4160225320, -5.3372907638549805, 2.5271964073181152, 7.863491535186768, -2.60573410987854, -1.2457634210586548, -2.6170547008514404, 0.06884765625, -0.19091796875, -0.8037109375
161, 4160241987, -5.338699817657471, 2.5286831855773926, 7.853446006774902, -2.58506441116333, -1.101192593574524, -2.6046581268310547, 0.068359375, -0.189208984375, -0.805908203125
162, 4160258654, -5.349672794342041, 2.5191726684570312, 7.856853485107422, -2.449432373046875, -1.055576205253601, -2.623035430908203, 0.068359375, -0.19091796875, -0.8037109375
163, 4160275321, -5.350592613220215, 2.526150703430176, 7.867331504821777, -2.5381290912628174, -1.1312617063522339, -2.6531171798706055, 0.06884765625, -0.19140625, -0.80322265625
164, 4160291988, -5.344168663024902, 2.5145952701568604, 7.881280899047852, -2.60554838180542, -1.1678431034088135, -2.6063804626464844, 0.0703125, -0.1923828125, -0.80224609375
165, 4160308655, -5.340439319610596, 2.51377534866333, 7.855238914489746, -2.689128875732422, -1.230408787727356, -2.624661684036255, 0.068359375, -0.19189453125, -0.8017578125
166, 4160325322, -5.3326568603515625, 2.5294694900512695, 7.849990367889404, -2.6758360862731934, -1.3512237071990967, -2.6628119945526123, 0.06689453125, -0.190673828125, -0.80322265625
167, 4160341989, -5.317045211791992, 2.523615837097168, 7.839427947998047, -2.7809760570526123, -1.2826073169708252, -2.637967348098755, 0.06884765625, -0.189697265625, -0.8046875
168, 4160358656, -5.340995788574219, 2.518993854522705, 7.852416515350342, -2.667729616165161, -1.257481336593628, -2.6037232875823975, 0.06787109375, -0.190185546875, -0.80419921875
169, 4160375323, -5.360099792480469, 2.5124192237854004, 7.848491191864014, -2.8461852073669434, -1.3192588090896606, -2.6829686164855957, 0.06884765625, -0.189697265625, -0.80419921875
170, 4160391990, -5.351189136505127, 2.5277345180511475, 7.842958927154541, -2.7328243255615234, -1.436923861503601, -2.6457407474517822, 0.07080078125, -0.19091796875, -0.80322265625
171, 4160408657, -5.343510627746582, 2.5233898162841797, 7.867025852203369, -2.8109424114227295, -1.5278102159500122, -2.62446928024292, 0.06982421875, -0.19140625, -0.80224609375
172, 4160425324, -5.350576877593994, 2.5068483352661133, 7.871150493621826, -2.8296523094177246, -1.4240148067474365, -2.70747971534729, 0.06787109375, -0.189697265625, -0.8037109375
173, 4160441991, -5.350003242492676, 2.4860341548919678, 7.8764448165893555, -2.676949977874756, -1.3590741157531738, -2.4885942935943604, 0.068359375, -0.19091796875, -0.8046875
174, 4160458658, -5.347676753997803, 2.5021352767944336, 7.84807014465332, -2.611240863800049, -1.396993637084961, -2.509737730026245, 0.07177734375, -0.1904296875, -0.8037109375
175, 4160475325, -5.341408729553223, 2.513735294342041, 7.867897033691406, -2.561603307723999, -1.2996270656585693, -2.5210325717926025, 0.07080078125, -0.19189453125, -0.8046875
176, 4160491992, -5.357232093811035, 2.508362293243408, 7.872349739074707, -2.5430593490600586, -1.2195103168487549, -2.5368740558624268, 0.06982421875, -0.189697265625, -0.8017578125
177, 4160508659, -5.350992202758789, 2.516555070877075, 7.871120929718018, -2.4735212326049805, -1.255688190460205, -2.5124523639678955, 0.06689453125, -0.190185546875, -0.803955078125
178, 4160525326, -5.335272789001465, 2.531039237976074, 7.8654327392578125, -2.4640953540802, -1.1057898998260498, -2.5346457958221436, 0.06787109375, -0.1923828125, -0.8046875
179, 4160541993, -5.3417792320251465, 2.5102384090423584, 7.852095603942871, -2.495394229888916, -1.1259087324142456, -2.6008801460266113, 0.0703125, -0.19140625, -0.8046875
180, 4160558660, -5.331917762756348, 2.5210578441619873, 7.870204448699951, -2.4576668739318848, -1.0000606775283813, -2.6648991107940674, 0.068359375, -0.18994140625, -0.804931640625
181, 4160575327, -5.357181549072266, 2.515798807144165, 7.872561454772949, -2.4612908363342285, -1.0626965761184692, -2.677692413330078, 0.06982421875, -0.1904296875, -0.8046875
182, 4160591994, -5.35420560836792, 2.526038885116577, 7.838560104370117, -1.915381908416748, -0.48219749331474304, -2.6018147468566895, 0.07080078125, -0.1904296875, -0.8017578125
183, 4160608661, -5.352956295013428, 2.523297071456909, 7.848053455352783, -2.426035165786743, -1.032960295677185, -2.653360605239868, 0.0703125, -0.19189453125, -0.8017578125
184, 4160625328, -5.349005699157715, 2.5119545459747314, 7.843984603881836, -2.525630235671997, -1.0628886222839355, -2.700129508972168, 0.06982421875, -0.189697265625, -0.80419921875
185, 4160641995, -5.331933975219727, 2.5273540019989014, 7.871151924133301, -2.5153720378875732, -0.9478108286857605, -2.6663718223571777, 0.0703125, -0.18994140625, -0.80419921875
186, 4160658662, -5.344827175140381, 2.5205163955688477, 7.8505635261535645, -2.422128915786743, -0.9318797588348389, -2.7678749561309814, 0.0693359375, -0.189208984375, -0.80419921875
187, 4160675329, -5.342054843902588, 2.543792963027954, 7.840514183044434, -2.487518310546875, -0.8625462055206299, -2.924394369125366, 0.0712890625, -0.19091796875, -0.8046875
188, 4160691996, -5.3769755363464355, 2.499119758605957, 7.862705230712891, -2.573218584060669, -0.809668779373169, -2.9437832832336426, 0.07080078125, -0.19140625, -0.8017578125
189, 4160708663, -5.377042293548584, 2.5065672397613525, 7.821175575256348, -2.510441780090332, -0.9582609534263611, -2.8147850036621094, 0.07080078125, -0.19140625, -0.8046875
190, 4160725330, -5.35180139541626, 2.5257861614227295, 7.843640327453613, -2.4316699504852295, -1.1348861455917358, -2.754863739013672, 0.0693359375, -0.189697265625, -0.802734375
191, 4160741997, -5.358880043029785, 2.526954412460327, 7.824392318725586, -2.496751546859741, -1.1553376913070679, -2.7437219619750977, 0.07080078125, -0.19091796875, -0.8046875
192, 4160758664, -5.37816858291626, 2.511389970779419, 7.838923454284668, -2.5298051834106445, -1.0155564546585083, -2.791208505630493, 0.07177734375, -0.189208984375, -0.8046875
193, 4160775331, -5.37954044342041, 2.4995627403259277, 7.839694499969482, -2.493345260620117, -1.1229889392852783, -2.6061818599700928, 0.06982421875, -0.19189453125, -0.80517578125
194, 4160791998, -5.3747477531433105, 2.498875856399536, 7.850632667541504, -2.5235040187835693, -1.2199459075927734, -2.4946131706237793, 0.07080078125, -0.19091796875, -0.802734375
195, 4160808665, -5.355950355529785, 2.522120475769043, 7.85012674331665, -2.541240930557251, -1.3044548034667969, -2.4498932361602783, 0.0703125, -0.19140625, -0.80322265625
196, 4160825332, -5.3568949699401855, 2.5072720050811768, 7.851924419403076, -2.52020001411438, -1.2354670763015747, -2.505972385406494, 0.06982421875, -0.19140625, -0.80322265625
197, 4160841999, -5.358363151550293, 2.530714273452759, 7.845634460449219, -2.5506021976470947, -1.2073187828063965, -2.607232093811035, 0.0712890625, -0.18994140625, -0.80322265625
198, 4160858666, -5.372587203979492, 2.5052058696746826, 7.845447063446045, -2.6274406909942627, -1.1646480560302734, -2.7060205936431885, 0.0712890625, -0.1904296875, -0.80419921875
199, 4160875333, -5.39442253112793, 2.5019967555999756, 7.833914756774902, -2.6935856342315674, -1.2533831596374512, -2.7022809982299805, 0.07177734375, -0.19189453125, -0.8037109375
200, 4160892000, -5.3724565505981445, 2.4984679222106934, 7.8515496253967285, -2.676361083984375, -1.3055946826934814, -2.6587138175964355, 0.07080078125, -0.19189453125, -0.8017578125
201, 4160908667, -5.376285076141357, 2.5053977966308594, 7.831027507781982, -2.7220027446746826, -1.3864156007766724, -2.627556085586548, 0.07275390625, -0.18994140625, -0.80224609375
202, 4160925334, -5.391474723815918, 2.4694669246673584, 7.835530757904053, -2.6746835708618164, -1.4847683906555176, -2.4871857166290283, 0.07080078125, -0.19287109375, -0.80322265625
203, 4160942001, -5.366098403930664, 2.540955066680908, 7.822179317474365, -2.6983625888824463, -1.472909688949585, -2.5721044540405273, 0.07080078125, -0.1923828125, -0.8046875
204, 4160958668, -5.371500492095947, 2.522710084915161, 7.850926399230957, -2.78462553024292, -1.4120664596557617, -2.697490930557251, 0.06982421875, -0.190185546875, -0.80224609375
205, 4160975335, -5.3674139976501465, 2.505920886993408, 7.851684093475342, -2.710080146789551, -1.2967967987060547, -2.631500482559204, 0.06982421875, -0.18994140625, -0.80419921875
206, 4160992002, -5.3650970458984375, 2.518796682357788, 7.844552993774414, -2.7087225914001465, -1.1643534898757935, -2.6718661785125732, 0.0712890625, -0.19189453125, -0.80517578125
207, 4161008669, -5.38002872467041, 2.5052051544189453, 7.854376316070557, -2.547823667526245, -1.1591157913208008, -2.6453182697296143, 0.07080078125, -0.189208984375, -0.80322265625
208, 4161025336, -5.377191066741943, 2.5064735412597656, 7.833209037780762, -2.557863712310791, -1.2478123903274536, -2.7643275260925293, 0.072265625, -0.19287109375, -0.802734375
209, 4161042003, -5.384226322174072, 2.5062966346740723, 7.850575923919678, -2.653834819793701, -1.2182682752609253, -2.7436838150024414, 0.0703125, -0.19189453125, -0.80615234375
210, 4161058670, -5.371885299682617, 2.516421318054199, 7.837554454803467, -2.760550022125244, -1.245123267173767, -2.662824869155884, 0.0712890625, -0.19091796875, -0.8046875
211, 4161075337, -5.3721489906311035, 2.5055956840515137, 7.849323272705078, -2.6924071311950684, -1.3204244375228882, -2.7152280807495117, 0.072021484375, -0.19384765625, -0.8046875
212, 4161092004, -5.364880084991455, 2.501283884048462, 7.819701194763184, -2.7742395401000977, -1.451087474822998, -2.6671910285949707, 0.07275390625, -0.1904296875, -0.801513671875
213, 4161108671, -5.3669047355651855, 2.497105598449707, 7.847799301147461, -2.7193520069122314, -1.5074357986450195, -2.585961103439331, 0.07177734375, -0.1904296875, -0.80224609375
214, 4161125338, -5.36625337600708, 2.513530731201172, 7.823635101318359, -2.781052827835083, -1.3843026161193848, -2.558529853820801, 0.072265625, -0.19091796875, -0.80322265625
215, 4161142005, -5.365655422210693, 2.511019706726074, 7.8310465812683105, -2.9519660472869873, -1.4627666473388672, -2.623034715652466, 0.0703125, -0.19091796875, -0.8037109375
216, 4161158672, -5.375119686126709, 2.5153117179870605, 7.853342056274414, -2.902815103530884, -1.5039392709732056, -2.670776605606079, 0.0703125, -0.18994140625, -0.8037109375
217, 4161175339, -5.3722028732299805, 2.473965644836426, 7.858060836791992, -2.949122667312622, -1.5611834526062012, -2.6783580780029297, 0.072509765625, -0.18994140625, -0.8046875
218, 4161192006, -5.387148857116699, 2.496736764907837, 7.840334892272949, -2.939274787902832, -1.4792484045028687, -2.5602710247039795, 0.072509765625, -0.19189453125, -0.80322265625
219, 4161208673, -5.363061904907227, 2.4961113929748535, 7.835083484649658, -2.92771053314209, -1.6286602020263672, -2.567288637161255, 0.07177734375, -0.19189453125, -0.799560546875
220, 4161225340, -5.366812229156494, 2.50451397895813, 7.877782821655273, -2.842574119567871, -1.6487278938293457, -2.480064630508423, 0.07080078125, -0.18994140625, -0.802734375
221, 4161242007, -5.370981693267822, 2.504060745239258, 7.852473258972168, -2.866912841796875, -1.7774252891540527, -2.5416183471679688, 0.0712890625, -0.189697265625, -0.80322265625
222, 4161258674, -5.367297172546387, 2.4934611320495605, 7.821336269378662, -2.920705556869507, -1.8089609146118164, -2.4382517337799072, 0.0693359375, -0.189208984375, -0.80419921875
223, 4161275341, -5.367325782775879, 2.4875054359436035, 7.84293270111084, -2.912471294403076, -1.855345368385315, -2.4557199478149414, 0.072265625, -0.188720703125, -0.8046875
224, 4161292008, -5.37434720993042, 2.4978079795837402, 7.8522748947143555, -3.005624532699585, -1.9048547744750977, -2.365921974182129, 0.07080078125, -0.189208984375, -0.8037109375
225, 4161308675, -5.389898300170898, 2.4846534729003906, 7.850088596343994, -3.011592149734497, -2.0089704990386963, -2.322943925857544, 0.07177734375, -0.189208984375, -0.802734375
226, 4161325342, -5.389394283294678, 2.477250814437866, 7.869065761566162, -2.867213249206543, -2.136777639389038, -2.0984740257263184, 0.0693359375, -0.189697265625, -0.8017578125
227, 4161342009, -5.362176418304443, 2.512023448944092, 7.852968692779541, -2.861104726791382, -2.281886577606201, -2.059453010559082, 0.07177734375, -0.18994140625, -0.80517578125
228, 4161358676, -5.339930057525635, 2.4919488430023193, 7.853877544403076, -2.8283333778381348, -2.1761701107025146, -2.0711066722869873, 0.06982421875, -0.18994140625, -0.8046875
229, 4161375343, -5.346410751342773, 2.4985268115997314, 7.844062805175781, -2.878265380859375, -2.1182215213775635, -2.094017267227173, 0.06884765625, -0.1904296875, -0.8046875
230, 4161392010, -5.3430376052856445, 2.4853968620300293, 7.861825942993164, -2.7414557933807373, -2.0468389987945557, -2.13974928855896, 0.06787109375, -0.188720703125, -0.80224609375
231, 4161408677, -5.364651203155518, 2.490285634994507, 7.836047172546387, -2.6426548957824707, -1.9994556903839111, -2.0515904426574707, 0.07080078125, -0.19189453125, -0.8056640625
232, 4161425344, -5.347635746002197, 2.487494468688965, 7.875054359436035, -2.698131799697876, -2.015489101409912, -2.0070114135742188, 0.07080078125, -0.189697265625, -0.80126953125
233, 4161442011, -5.343445777893066, 2.491560697555542, 7.86505126953125, -2.620512008666992, -1.925857424736023, -1.9180710315704346, 0.07080078125, -0.189453125, -0.8056640625
234, 4161458678, -5.34952449798584, 2.506420373916626, 7.873764514923096, -2.541944980621338, -1.8188730478286743, -1.9152536392211914, 0.0703125, -0.188720703125, -0.8046875
235, 4161475345, -5.384341716766357, 2.491842031478882, 7.881863594055176, -2.4696919918060303, -1.903792142868042, -1.8292335271835327, 0.06884765625, -0.189208984375, -0.80322265625
236, 4161492012, -5.380953311920166, 2.4981977939605713, 7.87249755859375, -2.448612689971924, -2.0652289390563965, -1.6336292028427124, 0.068359375, -0.189208984375, -0.806396484375
237, 4161508679, -5.3342108726501465, 2.507967948913574, 7.869688510894775, -2.5094170570373535, -2.226550817489624, -1.4650081396102905, 0.06689453125, -0.189697265625, -0.804931640625
238, 4161525346, -5.335322856903076, 2.4982054233551025, 7.873668670654297, -2.528869867324829, -2.3020055294036865, -1.4415467977523804, 0.06787109375, -0.188720703125, -0.80322265625
239, 4161542013, -5.3097381591796875, 2.5162975788116455, 7.851955890655518, -2.4553487300872803, -2.3481340408325195, -1.4183290004730225, 0.06787109375, -0.189697265625, -0.8037109375
240, 4161558680, -5.3012213706970215, 2.5286407470703125, 7.880359172821045, -2.509878158569336, -2.1638762950897217, -1.6908609867095947, 0.06787109375, -0.189697265625, -0.804931640625
241, 4161575347, -5.303023815155029, 2.5166468620300293, 7.883421897888184, -2.411717176437378, -1.7856148481369019, -1.7144114971160889, 0.068359375, -0.188232421875, -0.805419921875
242, 4161592014, -5.3193182945251465, 2.4934334754943848, 7.871406555175781, -2.2620880603790283, -1.5597366094589233, -1.7292670011520386, 0.06787109375, -0.189208984375, -0.804443359375
243, 4161608681, -5.303347110748291, 2.5124452114105225, 7.846259593963623, -2.1866331100463867, -1.6886323690414429, -1.7470293045043945, 0.06689453125, -0.189208984375, -0.803955078125
244, 4161625348, -5.271299839019775, 2.546804428100586, 7.8860883712768555, -2.236564874649048, -1.3978643417358398, -2.1828293800354004, 0.06884765625, -0.19140625, -0.80322265625
245, 4161642015, -5.306492328643799, 2.514840841293335, 7.866687297821045, -2.0735528469085693, -0.9711950421333313, -2.2207233905792236, 0.0673828125, -0.19140625, -0.80322265625
246, 4161658682, -5.321666717529297, 2.493643045425415, 7.879796028137207, -1.764113187789917, -0.6431092619895935, -2.159355640411377, 0.06640625, -0.188232421875, -0.803955078125
247, 4161675349, -5.333048343658447, 2.4977915287017822, 7.847691059112549, -1.4358478784561157, -0.5347035527229309, -1.9228734970092773, 0.06982421875, -0.19091796875, -0.80517578125
248, 4161692016, -5.350789546966553, 2.509234666824341, 7.84947395324707, -1.3475353717803955, -0.6705917119979858, -1.884172797203064, 0.0703125, -0.19091796875, -0.802734375
249, 4161708683, -5.332070827484131, 2.519737958908081, 7.837126731872559, -1.393241286277771, -0.6626646518707275, -1.794938087463379, 0.06689453125, -0.19189453125, -0.80224609375
250, 4161725350, -5.313179016113281, 2.562066078186035, 7.855666637420654, -1.4025260210037231, -0.7319469451904297, -1.8674603700637817, 0.06640625, -0.19091796875, -0.804443359375
251, 4161742017, -5.327416896820068, 2.542982339859009, 7.844450950622559, -1.4530339241027832, -0.6995725035667419, -1.990554928779602, 0.06640625, -0.19140625, -0.805419921875
252, 4161758684, -5.332894325256348, 2.5440855026245117, 7.83638858795166, -1.513877034187317, -0.7971185445785522, -2.137444019317627, 0.0673828125, -0.1904296875, -0.8037109375
253, 4161775351, -5.341686725616455, 2.5454018115997314, 7.849006652832031, -1.6110581159591675, -0.792591392993927, -2.1364641189575195, 0.068359375, -0.1923828125, -0.80419921875
254, 4161792018, -5.357039451599121, 2.536196231842041, 7.8645853996276855, -1.4719874858856201, -0.8206822276115417, -2.201181173324585, 0.0673828125, -0.1943359375, -0.802734375
255, 4161808685, -5.334117889404297, 2.53159761428833, 7.852414608001709, -1.4961276054382324, -0.9494115710258484, -2.0890231132507324, 0.06884765625, -0.19140625, -0.80126953125
256, 4161825352, -5.356671333312988, 2.5361082553863525, 7.866295337677002, -1.3797048330307007, -0.9032061696052551, -1.958936095237732, 0.06982421875, -0.19384765625, -0.80224609375
257, 4161842019, -5.338888168334961, 2.5467910766601562, 7.828962326049805, -1.1782737970352173, -0.9190861582756042, -1.8904860019683838, 0.0673828125, -0.19189453125, -0.80322265625
258, 4161858686, -5.3051910400390625, 2.562042236328125, 7.853565692901611, -1.0191805362701416, -0.6300852298736572, -1.8182456493377686, 0.068359375, -0.1923828125, -0.80322265625
259, 4161875353, -5.319500923156738, 2.556950807571411, 7.848957538604736, -0.5693190097808838, -0.38499724864959717, -1.742713451385498, 0.06884765625, -0.19287109375, -0.8017578125
260, 4161892020, -5.354877471923828, 2.5265002250671387, 7.8390374183654785, 0.0275912806391716, -0.20764215290546417, -1.5561635494232178, 0.06982421875, -0.19677734375, -0.80322265625
261, 4161908687, -5.334352970123291, 2.5939645767211914, 7.835016250610352, 0.650069534778595, 1.9849842647090554E-4, -1.4467461109161377, 0.06884765625, -0.19677734375, -0.802734375
262, 4161925354, -5.348977088928223, 2.5692763328552246, 7.822416305541992, 0.7607163190841675, -0.2233683466911316, -1.4120793342590332, 0.0703125, -0.19580078125, -0.800537109375
263, 4161942021, -5.345950603485107, 2.558412551879883, 7.829464435577393, 1.1213047504425049, -0.36276546120643616, -1.1753796339035034, 0.07177734375, -0.19775390625, -0.801025390625
264, 4161958688, -5.385447978973389, 2.5593855381011963, 7.7395782470703125, 1.569040298461914, -0.6542891263961792, -0.7959145903587341, 0.0693359375, -0.197265625, -0.8017578125
265, 4161975355, -5.360416889190674, 2.5524649620056152, 7.746374607086182, 1.8554414510726929, -0.8850980401039124, -0.20622064173221588, 0.07080078125, -0.19873046875, -0.800537109375
266, 4161992022, -5.33500862121582, 2.6228179931640625, 7.796701431274414, 1.825218677520752, -1.2897275686264038, -0.06828346103429794, 0.06884765625, -0.19970703125, -0.801025390625
267, 4162008689, -5.369757652282715, 2.600768566131592, 7.73213529586792, 1.1101759672164917, -1.5539222955703735, -0.12951059639453888, 0.07080078125, -0.201416015625, -0.798095703125
268, 4162025356, -5.344691276550293, 2.583615303039551, 7.782461166381836, 1.9850672483444214, -1.532740831375122, 0.5449293851852417, 0.07080078125, -0.200439453125, -0.800537109375
269, 4162042023, -5.344438076019287, 2.7315549850463867, 7.794289588928223, 1.7406071424484253, -1.4857414960861206, 0.17787379026412964, 0.0703125, -0.203857421875, -0.801513671875
270, 4162058690, -5.396655559539795, 2.6734070777893066, 7.766906261444092, 0.8968862295150757, -2.169177770614624, 0.10060027986764908, 0.0693359375, -0.200439453125, -0.801025390625
271, 4162075357, -5.352147579193115, 2.7349605560302734, 7.756802558898926, 0.2984071671962738, -2.5198540687561035, 0.0664457455277443, 0.0673828125, -0.202880859375, -0.801513671875
272, 4162092024, -5.261073112487793, 2.8554840087890625, 7.839824199676514, -0.2749779522418976, -2.7290589809417725, -0.35082995891571045, 0.068359375, -0.204833984375, -0.801513671875
273, 4162108691, -5.263983249664307, 2.8055403232574463, 7.842181205749512, -0.39488375186920166, -2.1895012855529785, -1.2322781085968018, 0.06884765625, -0.205322265625, -0.800537109375
274, 4162125358, -5.254457473754883, 2.7113614082336426, 7.8674702644348145, -0.24488301575183868, -1.2554576396942139, -1.5255180597305298, 0.0673828125, -0.204833984375, -0.799072265625
275, 4162142025, -5.243432998657227, 2.6785550117492676, 7.910162448883057, -0.3167266249656677, -0.10973761230707169, -1.8329472541809082, 0.06884765625, -0.206787109375, -0.801513671875
276, 4162158692, -5.285203456878662, 2.7280609607696533, 7.883059501647949, 0.41066762804985046, 1.059975266456604, -1.7859224081039429, 0.0673828125, -0.206787109375, -0.802001953125
277, 4162175359, -5.324387073516846, 2.7650632858276367, 7.846010208129883, 0.9792054891586304, 1.7229598760604858, -1.7386667728424072, 0.0693359375, -0.20947265625, -0.800537109375
278, 4162192026, -5.3642048835754395, 2.79604434967041, 7.806161403656006, 1.1873725652694702, 2.1565568447113037, -2.056699514389038, 0.06884765625, -0.208251953125, -0.800537109375
279, 4162208693, -5.323009014129639, 2.8329005241394043, 7.807404518127441, 1.0973314046859741, 2.2511324882507324, -2.2458627223968506, 0.072509765625, -0.2099609375, -0.80126953125
280, 4162225360, -5.329416751861572, 2.8237836360931396, 7.810993194580078, 1.1129424571990967, 2.469980239868164, -2.829371213912964, 0.07177734375, -0.2109375, -0.796875
281, 4162242027, -5.349632263183594, 2.818488121032715, 7.776490688323975, 0.6669995784759521, 2.225442886352539, -3.2857894897460938, 0.0712890625, -0.20947265625, -0.796875
282, 4162258694, -5.368741989135742, 2.7974650859832764, 7.730078220367432, 0.39298203587532043, 2.3714990615844727, -3.4625678062438965, 0.072021484375, -0.212890625, -0.7978515625
283, 4162275361, -5.383517265319824, 2.804389476776123, 7.724515438079834, 0.18980933725833893, 2.31302547454834, -3.6828503608703613, 0.072021484375, -0.21337890625, -0.79931640625
284, 4162292028, -5.3564934730529785, 2.8016467094421387, 7.733996868133545, -0.07444331794977188, 2.38531756401062, -3.9003663063049316, 0.073974609375, -0.21337890625, -0.80029296875
285, 4162308695, -5.361310005187988, 2.8131797313690186, 7.726484298706055, 0.27915921807289124, 2.5443079471588135, -4.3452839851379395, 0.075439453125, -0.217529296875, -0.796630859375
286, 4162325362, -5.37946081161499, 2.813720226287842, 7.695713043212891, 0.27925530076026917, 2.8003134727478027, -4.6829752922058105, 0.079833984375, -0.21435546875, -0.796630859375
287, 4162342029, -5.3983330726623535, 2.83833646774292, 7.663429260253906, -0.22408553957939148, 2.7371082305908203, -4.704593181610107, 0.076904296875, -0.2158203125, -0.7939453125
288, 4162358696, -5.389595985412598, 2.8299238681793213, 7.691844463348389, -0.5441291332244873, 3.0544495582580566, -5.132619380950928, 0.077880859375, -0.2158203125, -0.798583984375
289, 4162375363, -5.407345294952393, 2.816375970840454, 7.716346263885498, -0.8937807679176331, 3.725040912628174, -5.520113468170166, 0.0810546875, -0.216064453125, -0.79736328125
290, 4162392030, -5.403702259063721, 2.84989857673645, 7.695499897003174, -0.9969873428344727, 5.0597453117370605, -6.4197611808776855, 0.08447265625, -0.215087890625, -0.79833984375
291, 4162408697, -5.41550874710083, 2.9438774585723877, 7.718815803527832, -0.79004967212677, 6.392503261566162, -8.050381660461426, 0.0849609375, -0.217041015625, -0.79638671875
292, 4162425364, -5.4080915451049805, 2.817277193069458, 7.7133660316467285, -0.8509054780006409, 7.884994983673096, -8.896306991577148, 0.0849609375, -0.216064453125, -0.79541015625
293, 4162442031, -5.477954864501953, 2.858006477355957, 7.712740898132324, 0.5317776799201965, 10.179692268371582, -9.739019393920898, 0.087890625, -0.216064453125, -0.793701171875
294, 4162458698, -5.40277624130249, 2.7742137908935547, 7.805532932281494, 1.95849609375, 12.325797080993652, -11.20838451385498, 0.093505859375, -0.215576171875, -0.795166015625
295, 4162475365, -5.391185760498047, 2.6449527740478516, 7.9060139656066895, 1.3983397483825684, 15.709554672241211, -10.773059844970703, 0.097900390625, -0.216552734375, -0.79248046875
296, 4162492032, -5.445138931274414, 2.696558713912964, 7.867559432983398, 4.01511287689209, 22.022403717041016, -9.543030738830566, 0.1044921875, -0.219482421875, -0.792724609375
297, 4162508699, -5.482512474060059, 2.734121561050415, 7.78115177154541, 7.325059413909912, 28.372217178344727, -10.37032413482666, 0.110595703125, -0.218994140625, -0.786376953125
298, 4162525366, -5.552933216094971, 2.7417919635772705, 7.760427474975586, 10.034920692443848, 35.06396484375, -10.737141609191895, 0.1181640625, -0.22216796875, -0.78515625
299, 4162542033, -5.6352458000183105, 2.759521722793579, 7.651636123657227, 13.057525634765625, 42.15452194213867, -11.348211288452148, 0.130615234375, -0.224365234375, -0.7822265625
300, 4162558700, -5.695122718811035, 2.818351984024048, 7.562971115112305, 16.35179328918457, 49.818321228027344, -11.987874984741211, 0.14111328125, -0.228271484375, -0.78125
301, 4162575367, -5.789668560028076, 2.9297268390655518, 7.573464870452881, 20.013057708740234, 60.3251953125, -13.114768028259277, 0.154296875, -0.23193359375, -0.774658203125
302, 4162592034, -5.893921852111816, 3.1785271167755127, 7.52891206741333, 22.8465633392334, 71.65866088867188, -16.942821502685547, 0.171630859375, -0.236572265625, -0.77001953125
303, 4162608701, -6.029471397399902, 3.171694755554199, 7.431268692016602, 24.977453231811523, 84.2922134399414, -22.236875534057617, 0.1923828125, -0.24072265625, -0.76025390625
304, 4162625368, -6.084537506103516, 3.1565513610839844, 7.598388671875, 25.238208770751953, 98.0980224609375, -26.62392807006836, 0.2177734375, -0.246826171875, -0.751708984375
305, 4162642035, -6.157130718231201, 3.035022020339966, 7.289721965789795, 28.367891311645508, 116.93778228759766, -32.152339935302734, 0.240478515625, -0.250244140625, -0.739501953125
306, 4162658702, -6.250690937042236, 3.029512882232666, 7.11922025680542, 31.643596649169922, 139.70130920410156, -38.7577018737793, 0.2724609375, -0.25146484375, -0.725341796875
307, 4162675369, -6.817304611206055, 3.2063684463500977, 7.070180416107178, 31.278148651123047, 164.99256896972656, -47.81119918823242, 0.307861328125, -0.254638671875, -0.70654296875
308, 4162692036, -6.8332438468933105, 3.1419732570648193, 7.021674633026123, 27.423259735107422, 191.4010467529297, -61.89914321899414, 0.352783203125, -0.2568359375, -0.683349609375
309, 4162708703, -7.308261394500732, 3.1528449058532715, 7.099420547485352, 22.132841110229492, 224.6193084716797, -77.02574157714844, 0.398193359375, -0.2490234375, -0.652587890625
310, 4162725370, -8.290005683898926, 4.219250679016113, 7.643017768859863, 22.2132568359375, 256.93194580078125, -92.14995574951172, 0.45263671875, -0.242431640625, -0.61572265625
311, 4162742037, -9.040369033813477, 5.182722568511963, 7.1778035163879395, 24.42434310913086, 288.7964782714844, -117.24861145019531, 0.508544921875, -0.231201171875, -0.570556640625
312, 4162758704, -14.115559577941895, 6.589991092681885, 9.49197769165039, 27.844905853271484, 306.87298583984375, -137.19656372070312, 0.569580078125, -0.212646484375, -0.512451171875
313, 4162775371, -15.447619438171387, 6.4327521324157715, 10.48801326751709, 37.72031021118164, 310.5145263671875, -135.49826049804688, 0.62255859375, -0.195068359375, -0.448974609375
314, 4162792038, -16.551122665405273, 5.6966118812561035, 10.911251068115234, 40.522300720214844, 297.86639404296875, -129.95932006835938, 0.667724609375, -0.17138671875, -0.380126953125
315, 4162808705, -14.376325607299805, 6.494513988494873, 11.10409927368164, 42.98197937011719, 270.3349914550781, -120.81636047363281, 0.70654296875, -0.152587890625, -0.3134765625
316, 4162825372, -8.751119613647461, 5.927664756774902, 10.895233154296875, 22.51229476928711, 238.5457763671875, -128.82237243652344, 0.7333984375, -0.130859375, -0.250732421875
317, 4162842039, 0.3135928809642792, 2.9961295127868652, 5.438229560852051, -10.721339225769043, 213.0906982421875, -141.37518310546875, 0.75634765625, -0.10107421875, -0.194580078125
318, 4162858706, -16.77495574951172, 7.342390537261963, 15.99125862121582, 36.75952911376953, 189.9652557373047, -102.99494171142578, 0.775390625, -0.07568359375, -0.13671875
319, 4162875373, -14.462959289550781, 9.129528999328613, 17.441089630126953, 51.35232162475586, -3.1224546432495117, -25.588008880615234, 0.782470703125, -0.069091796875, -0.115966796875
320, 4162892040, -6.079982280731201, 8.537735939025879, 12.371228218078613, 20.622577667236328, -121.79280853271484, 19.81458282470703, 0.785400390625, -0.07275390625, -0.134765625
321, 4162908707, -1.4300528764724731, 5.589058876037598, 8.010954856872559, -21.246856689453125, -157.68202209472656, 36.17302703857422, 0.78466796875, -0.08251953125, -0.1640625
322, 4162925374, -0.17896276712417603, 3.208296775817871, 5.9874091148376465, -40.778648376464844, -158.9210968017578, 43.698726654052734, 0.783447265625, -0.09326171875, -0.199951171875
323, 4162942041, -1.0696945190429688, 2.4414706230163574, 5.808701038360596, -41.26777648925781, -156.97288513183594, 55.42865753173828, 0.777587890625, -0.1025390625, -0.23876953125
324, 4162958708, -3.033294677734375, 2.760427951812744, 6.559889793395996, -40.0568962097168, -164.91615295410156, 69.77081298828125, 0.771484375, -0.1171875, -0.277587890625
325, 4162975375, -5.406574249267578, 3.429150104522705, 7.661355972290039, -44.7310676574707, -191.01571655273438, 86.01083374023438, 0.7568359375, -0.138427734375, -0.328857421875
326, 4162992042, -6.615175724029541, 3.7949366569519043, 7.9354939460754395, -58.114803314208984, -230.0753936767578, 103.58006286621094, 0.73291015625, -0.15771484375, -0.389404296875
327, 4163008709, -6.440843105316162, 3.312947988510132, 7.296753406524658, -72.4922103881836, -261.6935119628906, 119.50080108642578, 0.692626953125, -0.1728515625, -0.456787109375
328, 4163025376, -6.400289058685303, 2.4594719409942627, 6.633840560913086, -80.36163330078125, -276.99432373046875, 130.44125366210938, 0.639892578125, -0.1845703125, -0.519775390625
329, 4163042043, -7.191245079040527, 1.5550178289413452, 6.721751689910889, -78.11737823486328, -282.4033508300781, 133.50552368164062, 0.584228515625, -0.193115234375, -0.574462890625
330, 4163058710, -8.2450532913208, 0.8039414286613464, 7.091613292694092, -65.2420654296875, -285.796630859375, 128.29640197753906, 0.525390625, -0.198486328125, -0.623779296875
331, 4163075377, -8.655312538146973, 0.0014634579420089722, 7.1614155769348145, -44.550315856933594, -282.84222412109375, 112.45421600341797, 0.462158203125, -0.20263671875, -0.662109375
332, 4163092044, -9.539691925048828, -0.4166928231716156, 7.536160945892334, -18.79236602783203, -262.8482360839844, 81.81414794921875, 0.406982421875, -0.20849609375, -0.68017578125
333, 4163108711, -12.495513916015625, 0.9630716443061829, 9.9544095993042, 9.39216136932373, -242.52127075195312, 43.9468879699707, 0.371337890625, -0.208740234375, -0.68505859375
334, 4163125378, -16.79038429260254, 3.2698681354522705, 12.009302139282227, 30.716699600219727, -246.39144897460938, 17.067644119262695, 0.35498046875, -0.2158203125, -0.69384765625
335, 4163142045, -18.84400177001953, 4.384333610534668, 10.568283081054688, 46.53620529174805, -251.73388671875, 7.22960090637207, 0.346923828125, -0.232421875, -0.73486328125
336, 4163158712, -20.513839721679688, 5.650815486907959, 7.296936511993408, 59.98979187011719, -235.45645141601562, 5.7744903564453125, 0.324462890625, -0.264404296875, -0.804443359375
337, 4163175379, -23.63631820678711, 7.632546901702881, 3.7581467628479004, 62.88243865966797, -210.49392700195312, 12.588107109069824, 0.27197265625, -0.3046875, -0.866943359375
338, 4163192046, -28.17245864868164, 7.385929584503174, 0.9011732339859009, 66.57411193847656, -202.0714111328125, 46.129859924316406, 0.189208984375, -0.348388671875, -0.90625
339, 4163208713, -29.27699089050293, 3.6150949001312256, -3.5655014514923096, 81.59358978271484, -215.44569396972656, 103.37122344970703, 0.0869140625, -0.391357421875, -0.908447265625
340, 4163225380, -28.360692977905273, -3.5250895023345947, -8.763750076293945, 81.78312683105469, -204.5592498779297, 142.09190368652344, -0.0107421875, -0.421142578125, -0.894287109375
341, 4163242047, -23.389488220214844, -8.837075233459473, -12.364424705505371, 62.903289794921875, -143.53652954101562, 123.49120330810547, -0.087890625, -0.438720703125, -0.8720703125
342, 4163258714, -16.20736312866211, -8.672066688537598, -17.17622947692871, -49.0052490234375, 2.0020039081573486, -18.23320198059082, -0.109619140625, -0.429443359375, -0.869384765625
343, 4163275381, -18.640335083007812, -6.652619361877441, -6.801658630371094, -80.72647857666016, 98.12767028808594, -140.7914276123047, -0.083740234375, -0.4150390625, -0.87890625
344, 4163292048, -11.48067855834961, 5.410885810852051, 16.750490188598633, -87.77058410644531, 75.22684478759766, -126.41216278076172, -0.047119140625, -0.394775390625, -0.888671875
345, 4163308715, 5.112592697143555, 6.976019382476807, 5.732159614562988, -40.230369567871094, 48.711097717285156, -71.26488494873047, -0.030517578125, -0.38134765625, -0.89794921875
346, 4163325382, -1.513376235961914, 0.3058117628097534, 6.0469441413879395, -15.257282257080078, 138.65625, -32.064781188964844, -0.0048828125, -0.380126953125, -0.898681640625
347, 4163342049, -14.68392276763916, -4.2213544845581055, 13.292803764343262, -8.949901580810547, 135.19375610351562, -29.9626407623291, 0.02978515625, -0.376953125, -0.896728515625
348, 4163358716, -10.086878776550293, -0.536653459072113, 10.656440734863281, 8.93743896484375, 98.30032348632812, -55.69530487060547, 0.057861328125, -0.376953125, -0.894287109375
349, 4163375383, -10.716909408569336, 12.553131103515625, 11.47002124786377, -20.51540756225586, 94.18936157226562, -46.29497528076172, 0.0810546875, -0.378662109375, -0.89306640625
350, 4163392050, -9.539084434509277, 1.1977194547653198, 7.268420696258545, -24.566856384277344, 43.031978607177734, -25.71274185180664, 0.099609375, -0.36572265625, -0.895751953125
351, 4163408717, -7.7602715492248535, 4.489673614501953, 8.67776870727539, -22.495267868041992, 18.553630828857422, -18.774890899658203, 0.106689453125, -0.361328125, -0.8955078125
352, 4163425384, -6.6286702156066895, 2.7313292026519775, 8.41154670715332, -17.803665161132812, 3.5183916091918945, -14.245786666870117, 0.108642578125, -0.354736328125, -0.8974609375
353, 4163442051, -5.990486145019531, 2.372896671295166, 8.237838745117188, -10.92783260345459, -1.0349969863891602, -8.94758415222168, 0.109130859375, -0.352294921875, -0.89599609375
354, 4163458718, -5.742498874664307, 2.2639057636260986, 8.202521324157715, -6.254288196563721, 0.27031004428863525, -6.10618257522583, 0.110107421875, -0.351318359375, -0.903564453125
355, 4163475385, -5.65548849105835, 2.248518705368042, 8.146403312683105, 0.23318444192409515, 3.502915143966675, -2.845072031021118, 0.111572265625, -0.349853515625, -0.899169921875
356, 4163492052, -5.582489967346191, 2.4564223289489746, 7.844058036804199, 5.174835681915283, 6.250338554382324, -0.49581068754196167, 0.11376953125, -0.351318359375, -0.89794921875
357, 4163508719, -5.447720527648926, 2.98616886138916, 7.714822292327881, 7.249793529510498, 6.934154510498047, 0.07016602903604507, 0.11328125, -0.354736328125, -0.896484375
358, 4163525386, -5.3786516189575195, 3.157233476638794, 7.518731594085693, 6.336538791656494, 6.713531970977783, -1.5103684663772583, 0.1142578125, -0.357421875, -0.894287109375
359, 4163542053, -5.493499279022217, 3.0059001445770264, 7.570166110992432, 4.574179172515869, 5.712189674377441, -3.3338263034820557, 0.11767578125, -0.3583984375, -0.893310546875
360, 4163558720, -5.531903266906738, 2.945458173751831, 7.601044654846191, 2.108315944671631, 4.395209789276123, -3.1057066917419434, 0.11767578125, -0.359375, -0.894775390625
361, 4163575387, -5.533625602722168, 3.029625415802002, 7.632065773010254, 1.1172837018966675, 3.575680732727051, -3.7034435272216797, 0.1201171875, -0.35888671875, -0.896728515625
362, 4163592054, -5.588799476623535, 3.064500570297241, 7.576254844665527, 0.04936207830905914, 2.1435587406158447, -4.91959810256958, 0.122314453125, -0.361328125, -0.89208984375
363, 4163608721, -5.600214004516602, 3.061232566833496, 7.486782073974609, -1.1259983777999878, 0.05710991472005844, -6.076728343963623, 0.1220703125, -0.3623046875, -0.890380859375
364, 4163625388, -5.582886219024658, 3.047935724258423, 7.5286335945129395, -2.999093532562256, -1.6121788024902344, -7.313259601593018, 0.122802734375, -0.3623046875, -0.8916015625
365, 4163642055, -5.616326332092285, 2.978189468383789, 7.515862464904785, -4.897085666656494, -3.2981481552124023, -7.713586330413818, 0.123779296875, -0.36181640625, -0.889892578125
366, 4163658722, -5.55463171005249, 2.8434553146362305, 7.555812835693359, -5.189070224761963, -4.683207035064697, -7.093746662139893, 0.12060546875, -0.36083984375, -0.89404296875
367, 4163675389, -5.416379928588867, 2.9304540157318115, 7.5985493659973145, -5.813483238220215, -4.727414131164551, -7.458791255950928, 0.121826171875, -0.361328125, -0.89111328125
368, 4163692056, -5.317012310028076, 3.13100528717041, 7.596827983856201, -7.399526596069336, -5.304572582244873, -9.698395729064941, 0.121826171875, -0.359375, -0.89208984375
369, 4163708723, -5.301068305969238, 2.9898481369018555, 7.653228759765625, -6.754341125488281, -4.541467189788818, -10.991785049438477, 0.1181640625, -0.35595703125, -0.89208984375
370, 4163725390, -5.430300235748291, 2.7614951133728027, 7.699515342712402, -4.571920871734619, -2.5909178256988525, -11.672469139099121, 0.12060546875, -0.354248046875, -0.892578125
371, 4163742057, -5.211275100708008, 2.9073965549468994, 7.811788558959961, -1.987687110900879, 1.1370826959609985, -12.284239768981934, 0.1220703125, -0.35400390625, -0.892578125
372, 4163758724, -5.256357192993164, 2.880383253097534, 7.821218013763428, 0.10061315447092056, 7.742282390594482, -13.069260597229004, 0.125732421875, -0.3544921875, -0.890869140625
373, 4163775391, -5.290674686431885, 2.8478682041168213, 7.835707187652588, 4.863054275512695, 17.153623580932617, -15.213203430175781, 0.131103515625, -0.35546875, -0.8876953125
374, 4163792058, -4.795555114746094, 3.097867488861084, 8.531737327575684, 10.529781341552734, 29.035823822021484, -19.213979721069336, 0.138671875, -0.35693359375, -0.888916015625
375, 4163808725, -5.091129302978516, 2.2775180339813232, 8.523421287536621, 9.733980178833008, 49.61599349975586, -17.169902801513672, 0.14990234375, -0.357666015625, -0.88525390625
376, 4163825392, -4.9649200439453125, 2.5673701763153076, 8.630805015563965, 20.31700897216797, 74.51215362548828, -20.350082397460938, 0.1708984375, -0.360595703125, -0.875732421875
377, 4163842059, -5.042099952697754, 2.904480218887329, 8.577815055847168, 33.68337631225586, 104.84795379638672, -25.474834442138672, 0.19482421875, -0.3662109375, -0.863525390625
378, 4163858726, -5.343732833862305, 3.67751407623291, 8.48721981048584, 44.75901412963867, 140.2437286376953, -37.157196044921875, 0.23046875, -0.371826171875, -0.84716796875
379, 4163875393, -5.005041599273682, 3.97332763671875, 9.239710807800293, 51.75527572631836, 180.88577270507812, -57.646358489990234, 0.27490234375, -0.376708984375, -0.825927734375
380, 4163892060, -5.458893775939941, 3.4221034049987793, 8.641332626342773, 57.337005615234375, 236.1250457763672, -79.07421875, 0.33349609375, -0.38134765625, -0.794677734375
381, 4163908727, -5.657769203186035, 3.3853049278259277, 8.971176147460938, 49.89825439453125, 301.2073669433594, -107.57169342041016, 0.40625, -0.377685546875, -0.753662109375
382, 4163925394, -7.420322418212891, 4.7214789390563965, 10.064929008483887, 45.643043518066406, 372.8939514160156, -141.76895141601562, 0.494140625, -0.36474609375, -0.69140625
383, 4163942061, -8.85595703125, 6.135087013244629, 10.217761993408203, 41.595436096191406, 425.3050231933594, -175.3482666015625, 0.587646484375, -0.33935546875, -0.611572265625
384, 4163958728, -20.16695213317871, 8.890459060668945, 13.73061752319336, 58.97089767456055, 438.8300476074219, -178.20306396484375, 0.6806640625, -0.306884765625, -0.515625
385, 4163975395, -21.661108016967773, 8.821954727172852, 14.300559043884277, 45.19381332397461, 382.21832275390625, -165.8012237548828, 0.750732421875, -0.26953125, -0.416015625
386, 4163992062, -14.876232147216797, 8.529584884643555, 14.164605140686035, 32.884849548339844, 312.3291320800781, -151.0642852783203, 0.801513671875, -0.232177734375, -0.325927734375
387, 4164008729, -3.0502471923828125, 6.365623474121094, 13.339164733886719, 7.332642078399658, 275.603759765625, -159.9827117919922, 0.83935546875, -0.193359375, -0.250244140625
388, 4164025396, 0.20350566506385803, 7.2177863121032715, 9.096084594726562, -20.9656982421875, 281.7294616699219, -163.5150604248047, 0.8701171875, -0.145263671875, -0.177734375
389, 4164042063, -20.085905075073242, 12.755451202392578, 23.665386199951172, -1.037598967552185, 119.22382354736328, -64.02050018310547, 0.886474609375, -0.12451171875, -0.12841796875
390, 4164058730, -10.107378959655762, 12.28945541381836, 19.664857864379883, -21.478099822998047, -114.39549255371094, 33.43144226074219, 0.88671875, -0.1318359375, -0.153564453125
391, 4164075397, -1.1816418170928955, 7.930052757263184, 10.95776081085205, -72.76683044433594, -206.09010314941406, 64.2454833984375, 0.87255859375, -0.153076171875, -0.220458984375
392, 4164092064, 0.45552897453308105, 4.53965425491333, 6.66952657699585, -104.64926147460938, -221.60675048828125, 59.12418746948242, 0.841552734375, -0.17041015625, -0.291259765625
393, 4164108731, 0.11695218086242676, 2.516680955886841, 4.91819953918457, -105.56681060791016, -221.07415771484375, 59.05867385864258, 0.800537109375, -0.18212890625, -0.358154296875
394, 4164125398, -1.4173640012741089, 1.4947779178619385, 5.0415215492248535, -79.58841705322266, -219.01438903808594, 74.45671081542969, 0.75244140625, -0.192138671875, -0.41455078125
395, 4164142065, -3.440969705581665, 2.3029160499572754, 5.825855255126953, -53.52925109863281, -223.86366271972656, 91.60218811035156, 0.70166015625, -0.2041015625, -0.4609375
396, 4164158732, -5.454250335693359, 3.453977108001709, 6.831288814544678, -47.98284149169922, -240.18417358398438, 101.00785827636719, 0.6455078125, -0.216552734375, -0.49951171875
397, 4164175399, -6.790359973907471, 3.7270328998565674, 7.550174713134766, -56.57923126220703, -264.3011779785156, 105.71539306640625, 0.586181640625, -0.225830078125, -0.5400390625
398, 4164192066, -7.489597320556641, 3.2634055614471436, 7.619461536407471, -62.187950134277344, -285.3238220214844, 108.96114349365234, 0.526123046875, -0.230712890625, -0.57568359375
399, 4164208733, -7.910105228424072, 2.4886486530303955, 7.300995349884033, -55.813655853271484, -298.87847900390625, 109.18062591552734, 0.465087890625, -0.238037109375, -0.606689453125
400, 4164225400, -8.586678504943848, 1.9496288299560547, 7.379718780517578, -36.251136779785156, -301.82415771484375, 104.2176742553711, 0.408203125, -0.245849609375, -0.630615234375
401, 4164242067, -9.083105087280273, 1.4029347896575928, 7.0558905601501465, -8.717207908630371, -292.10821533203125, 92.22450256347656, 0.355712890625, -0.257080078125, -0.65283203125
402, 4164258734, -10.798455238342285, 1.7706116437911987, 8.065713882446289, 23.39525604248047, -263.12066650390625, 72.10009002685547, 0.31201171875, -0.2724609375, -0.670166015625
403, 4164275401, -15.645377159118652, 3.308994770050049, 10.179001808166504, 54.67048263549805, -244.34185791015625, 57.45671463012695, 0.27734375, -0.29638671875, -0.694580078125
404, 4164292068, -20.56777572631836, 4.169959545135498, 10.033485412597656, 83.89494323730469, -239.04159545898438, 58.900787353515625, 0.223388671875, -0.330810546875, -0.718017578125
405, 4164308735, -26.599151611328125, 5.618414402008057, 7.289867401123047, 100.5108413696289, -238.4789276123047, 73.6412124633789, 0.1533203125, -0.36865234375, -0.73583984375
406, 4164325402, -30.87738800048828, 7.730876922607422, 2.3495895862579346, 78.64518737792969, -240.6653594970703, 82.83592224121094, 0.073486328125, -0.396240234375, -0.7333984375
407, 4164342069, -31.396987915039062, 5.727530002593994, -4.362561225891113, 37.83048629760742, -237.36293029785156, 99.49583435058594, -0.00146484375, -0.41259765625, -0.7216796875
408, 4164358736, -28.317054748535156, -0.967402458190918, -9.86257553100586, 18.806154251098633, -201.22634887695312, 127.3119125366211, -0.065673828125, -0.416015625, -0.708984375
409, 4164375403, -25.372568130493164, -10.024003028869629, -17.58032989501953, 1.531982183456421, -88.94366455078125, 102.45499420166016, -0.10498046875, -0.41064453125, -0.695068359375
410, 4164392070, -25.50200843811035, -13.265955924987793, -19.49654769897461, -8.698858261108398, 36.06096267700195, 8.374433517456055, -0.109619140625, -0.41064453125, -0.689208984375
411, 4164408737, -20.00892448425293, -10.268245697021484, -11.997633934020996, -44.348392486572266, 130.95896911621094, -116.03376770019531, -0.079833984375, -0.40234375, -0.69189453125
412, 4164425404, -11.742316246032715, 9.553436279296875, 20.170883178710938, -79.14732360839844, 107.2460708618164, -139.5299530029297, -0.041748046875, -0.3896484375, -0.694091796875
413, 4164442071, -3.2547972202301025, 10.348116874694824, 6.515748500823975, -49.62305450439453, 75.3376235961914, -101.67362976074219, -0.01806640625, -0.378173828125, -0.700927734375
414, 4164458738, -5.8757500648498535, 2.043546438217163, 7.299421787261963, -48.87718200683594, 131.192626953125, -44.82897186279297, 0.010986328125, -0.363525390625, -0.699462890625
415, 4164475405, -14.4136962890625, -2.288883924484253, 15.388803482055664, -34.33689498901367, 110.95526885986328, -38.7183952331543, 0.03466796875, -0.358154296875, -0.6982421875
416, 4164492072, -14.582079887390137, 3.117004156112671, 8.417485237121582, -48.031490325927734, 8.429204940795898, -42.03932571411133, 0.047119140625, -0.34814453125, -0.700439453125
417, 4164508739, -6.383527755737305, 2.3125407695770264, 9.704146385192871, -25.981233596801758, -1.0648518800735474, -19.40005111694336, 0.0478515625, -0.341064453125, -0.7041015625
418, 4164525406, -6.774394512176514, 2.4557268619537354, 8.446260452270508, -17.344717025756836, -4.597627639770508, -12.419475555419922, 0.0478515625, -0.339111328125, -0.705078125
419, 4164542073, -5.997775554656982, 2.733356475830078, 8.268237113952637, -12.703015327453613, -5.274133682250977, -9.454643249511719, 0.04833984375, -0.333984375, -0.70458984375
420, 4164558740, -5.280993938446045, 2.7733078002929688, 7.9088263511657715, -13.334741592407227, -4.96578311920166, -10.620176315307617, 0.0478515625, -0.33251953125, -0.709228515625
421, 4164575407, -5.688754081726074, 2.5415942668914795, 7.881192684173584, -11.510613441467285, -4.583191394805908, -9.535091400146484, 0.04736328125, -0.32958984375, -0.708740234375
422, 4164592074, -5.318578243255615, 2.715911626815796, 7.9305500984191895, -7.317962169647217, -3.315629482269287, -8.317407608032227, 0.048828125, -0.328125, -0.710205078125
423, 4164608741, -5.395073413848877, 2.66517972946167, 7.938700199127197, -5.231331825256348, -0.9915191531181335, -7.218276500701904, 0.0517578125, -0.32666015625, -0.708251953125
424, 4164625408, -5.431974411010742, 2.75705885887146, 7.918996810913086, -3.9177706241607666, 0.9165827035903931, -7.205890655517578, 0.0498046875, -0.328125, -0.707763671875
425, 4164642075, -5.4259796142578125, 2.587909460067749, 7.850863933563232, -3.636402130126953, 1.463221788406372, -6.6823930740356445, 0.05126953125, -0.32861328125, -0.707763671875
426, 4164658742, -5.282356262207031, 2.503520965576172, 7.857828617095947, -2.012953519821167, 2.163869857788086, -5.402742862701416, 0.0537109375, -0.32861328125, -0.708251953125
427, 4164675409, -5.317835330963135, 2.332820415496826, 7.85327672958374, -0.27349239587783813, 2.845628499984741, -3.9073195457458496, 0.052734375, -0.326171875, -0.708251953125
428, 4164692076, -5.405014514923096, 2.508103847503662, 7.811112403869629, 0.7930076122283936, 3.1742970943450928, -3.041456937789917, 0.0537109375, -0.326171875, -0.707763671875
429, 4164708743, -5.34304666519165, 2.7875583171844482, 7.76229190826416, 0.9088476300239563, 2.4359793663024902, -2.8290252685546875, 0.0546875, -0.32861328125, -0.705078125
430, 4164725410, -5.266592025756836, 2.9155304431915283, 7.775991439819336, -0.12258238345384598, 0.25640231370925903, -4.192222595214844, 0.056396484375, -0.32861328125, -0.7080078125
431, 4164742077, -5.32143497467041, 2.597109317779541, 7.797476768493652, 0.3001232147216797, -0.1453648954629898, -4.331312656402588, 0.058837890625, -0.3310546875, -0.70703125
432, 4164758744, -5.313936710357666, 2.5670785903930664, 7.808371067047119, 1.2887091636657715, 0.3685859143733978, -3.9544341564178467, 0.057373046875, -0.332275390625, -0.705078125
433, 4164775411, -5.402319431304932, 2.5525124073028564, 7.809011936187744, 1.8822070360183716, 1.508171796798706, -3.64650559425354, 0.057861328125, -0.331787109375, -0.70703125
434, 4164792078, -5.324950218200684, 2.594966173171997, 7.801865577697754, 2.106760025024414, 2.2498581409454346, -3.4835963249206543, 0.057373046875, -0.332275390625, -0.704345703125
435, 4164808745, -5.268278121948242, 2.688825845718384, 7.799656867980957, 3.641524314880371, 3.715942144393921, -3.4594311714172363, 0.057373046875, -0.334228515625, -0.702392578125
436, 4164825412, -5.30486536026001, 2.5952999591827393, 7.832103729248047, 6.665240287780762, 6.060639381408691, -3.772329330444336, 0.061767578125, -0.335205078125, -0.70263671875
437, 4164842079, -5.284493923187256, 2.769310235977173, 7.820744037628174, 8.819681167602539, 8.79514217376709, -4.347591400146484, 0.062255859375, -0.335205078125, -0.7001953125
438, 4164858746, -5.335115432739258, 2.883021593093872, 7.776660442352295, 9.730189323425293, 11.347132682800293, -5.469250679016113, 0.066162109375, -0.340087890625, -0.698486328125
439, 4164875413, -5.201361179351807, 3.161419153213501, 7.835554599761963, 9.019043922424316, 15.669979095458984, -9.102803230285645, 0.0673828125, -0.34228515625, -0.698974609375
440, 4164892080, -4.8831377029418945, 3.191002607345581, 8.3336820602417, 8.400777816772461, 23.186965942382812, -13.608295440673828, 0.0751953125, -0.34326171875, -0.696533203125
441, 4164908747, -4.8589301109313965, 2.581864833831787, 8.463597297668457, 10.514520645141602, 37.977603912353516, -14.893097877502441, 0.083740234375, -0.345703125, -0.69384765625
442, 4164925414, -4.944100856781006, 2.2946717739105225, 8.622843742370605, 19.703086853027344, 59.35297775268555, -16.37015151977539, 0.096435546875, -0.348388671875, -0.689453125
443, 4164942081, -4.975131511688232, 2.4322245121002197, 8.658783912658691, 32.34477996826172, 85.83649444580078, -17.670936584472656, 0.11328125, -0.35400390625, -0.6806640625
444, 4164958748, -5.059810161590576, 3.2543132305145264, 8.721061706542969, 46.13832092285156, 118.43096160888672, -23.725147247314453, 0.136474609375, -0.362548828125, -0.671142578125
445, 4164975415, -4.928921699523926, 4.419094562530518, 9.036240577697754, 53.42107009887695, 155.70559692382812, -40.61526107788086, 0.16943359375, -0.368896484375, -0.658935546875
446, 4164992082, -4.862860202789307, 4.097736358642578, 8.641437530517578, 59.03317642211914, 205.05210876464844, -66.69046783447266, 0.210693359375, -0.376953125, -0.637939453125
447, 4165008749, -5.788876533508301, 4.096623420715332, 9.146393775939941, 58.4233283996582, 267.65869140625, -94.94401550292969, 0.265625, -0.379150390625, -0.60888671875
448, 4165025416, -6.14549446105957, 4.436825275421143, 9.684854507446289, 51.00913619995117, 344.8250427246094, -133.37173461914062, 0.33203125, -0.373291015625, -0.570068359375
449, 4165042083, -7.867552280426025, 6.168071269989014, 10.895349502563477, 49.62582778930664, 407.618896484375, -173.08944702148438, 0.413330078125, -0.362548828125, -0.511962890625
450, 4165058750, -15.033921241760254, 8.178088188171387, 12.981204986572266, 66.27596282958984, 442.96075439453125, -191.56373596191406, 0.4970703125, -0.338623046875, -0.444091796875
451, 4165075417, -21.647247314453125, 9.568102836608887, 15.073334693908691, 64.56376647949219, 401.6154479980469, -184.33514404296875, 0.56591796875, -0.3115234375, -0.364013671875
452, 4165092084, -18.047130584716797, 9.549568176269531, 14.883663177490234, 54.05713653564453, 326.0645446777344, -168.6918182373047, 0.61962890625, -0.27783203125, -0.287109375
453, 4165108751, -6.659275054931641, 7.385181903839111, 14.090482711791992, 35.663578033447266, 272.4213562011719, -172.16705322265625, 0.656982421875, -0.240478515625, -0.21826171875
454, 4165125418, 6.83218240737915, 6.155033111572266, 7.812243461608887, -8.781157493591309, 277.96697998046875, -206.29788208007812, 0.68798828125, -0.189208984375, -0.15234375
455, 4165142085, -20.31471824645996, 12.553757667541504, 23.125816345214844, 1.184841275215149, 196.2227325439453, -144.0125274658203, 0.711181640625, -0.13818359375, -0.08251953125
456, 4165158752, -14.446839332580566, 13.016416549682617, 23.267324447631836, 5.625909805297852, -82.2087631225586, -13.537181854248047, 0.71875, -0.1103515625, -0.066650390625
457, 4165175419, -2.409942865371704, 9.671002388000488, 12.952899932861328, -29.46213150024414, -222.84469604492188, 58.480140686035156, 0.732666015625, -0.09765625, -0.084228515625
458, 4165192086, 1.9806934595108032, 5.770514965057373, 6.749067306518555, -71.08968353271484, -243.8669891357422, 76.69859313964844, 0.7626953125, -0.088134765625, -0.119140625
459, 4165208753, 2.7347354888916016, 3.1292600631713867, 4.081286907196045, -86.974365234375, -220.7154998779297, 85.36186981201172, 0.80078125, -0.087646484375, -0.173095703125
460, 4165225420, 0.7034280300140381, 2.5086495876312256, 4.05630350112915, -85.83323669433594, -191.01727294921875, 100.47545623779297, 0.83447265625, -0.097900390625, -0.24609375
461, 4165242087, -3.137075901031494, 3.605961799621582, 5.662874221801758, -88.81755828857422, -181.29315185546875, 115.24237060546875, 0.85302734375, -0.11767578125, -0.3388671875
462, 4165258754, -6.416911602020264, 4.355067729949951, 7.377745151519775, -102.08116149902344, -202.99008178710938, 128.40065002441406, 0.836181640625, -0.141845703125, -0.447021484375
463, 4165275421, -7.792892932891846, 3.8188138008117676, 7.764763355255127, -114.28076934814453, -239.35894775390625, 141.0760955810547, 0.77587890625, -0.15966796875, -0.55224609375
464, 4165292088, -7.713255882263184, 2.748872756958008, 7.004279613494873, -115.34752655029297, -266.72186279296875, 146.78074645996094, 0.694580078125, -0.1611328125, -0.638671875
465, 4165308755, -8.055554389953613, 1.9590502977371216, 6.437103748321533, -104.82605743408203, -279.0703125, 141.71669006347656, 0.607666015625, -0.15625, -0.705078125
466, 4165325422, -8.241519927978516, 1.414450764656067, 6.226264953613281, -83.63388061523438, -280.10986328125, 126.88241577148438, 0.529296875, -0.152587890625, -0.75927734375
467, 4165342089, -8.326022148132324, 1.1017452478408813, 6.124126434326172, -56.0643196105957, -266.8135681152344, 103.4172134399414, 0.449462890625, -0.15087890625, -0.80810546875
468, 4165358756, -10.114931106567383, 1.2513779401779175, 7.506994724273682, -20.42486572265625, -236.6770477294922, 74.58012390136719, 0.370849609375, -0.1494140625, -0.842041015625
469, 4165375423, -14.996960639953613, 2.863337278366089, 10.217059135437012, 22.304441452026367, -224.3250732421875, 50.75641632080078, 0.286376953125, -0.14990234375, -0.854248046875
470, 4165392090, -18.931377410888672, 4.989679336547852, 10.728556632995605, 63.612728118896484, -233.85523986816406, 42.6325569152832, 0.213623046875, -0.16845703125, -0.854736328125
471, 4165408757, -23.20619010925293, 7.417632102966309, 8.902029037475586, 88.82402801513672, -241.38528442382812, 49.01316833496094, 0.145263671875, -0.19873046875, -0.852783203125
472, 4165425424, -27.095205307006836, 10.108397483825684, 5.294369220733643, 77.78726196289062, -251.5260009765625, 54.20222091674805, 0.074462890625, -0.231689453125, -0.8505859375
473, 4165442091, -27.677656173706055, 8.100434303283691, -0.07024645805358887, 55.144107818603516, -256.8982849121094, 63.7227897644043, 0.001220703125, -0.25439453125, -0.847412109375
474, 4165458758, -25.511152267456055, 2.280515670776367, -5.125577449798584, 69.26554107666016, -236.31961059570312, 95.76407623291016, -0.06787109375, -0.27587890625, -0.83349609375
475, 4165475425, -25.66459083557129, -6.479837417602539, -9.274742126464844, 105.2559814453125, -189.70619201660156, 127.84767150878906, -0.124755859375, -0.302001953125, -0.815185546875
476, 4165492092, -26.84166145324707, -8.812734603881836, -14.15648078918457, 103.4923324584961, -105.73097229003906, 100.86857604980469, -0.1640625, -0.328125, -0.794677734375
477, 4165508759, -20.333852767944336, -9.872483253479004, -18.92179298400879, -5.54419469833374, 34.994422912597656, -47.69235610961914, -0.1650390625, -0.33154296875, -0.78857421875
478, 4165525426, -16.502857208251953, -6.972713947296143, -9.314093589782715, -86.81036376953125, 129.9459686279297, -195.5113983154297, -0.127197265625, -0.3173828125, -0.79833984375
479, 4165542093, -12.63796329498291, 8.941516876220703, 17.76231575012207, -101.86697387695312, 112.8335189819336, -177.2779998779297, -0.08544921875, -0.294677734375, -0.80859375
480, 4165558760, -3.2510788440704346, 9.395915031433105, 8.462577819824219, -64.4276351928711, 88.88628387451172, -90.33558654785156, -0.055419921875, -0.2763671875, -0.814453125
481, 4165575427, -5.277193546295166, 0.053535837680101395, 7.407212734222412, -54.24199676513672, 143.2496337890625, -44.2940559387207, -0.022705078125, -0.259033203125, -0.81884765625
482, 4165592094, -13.820493698120117, -5.637884616851807, 13.28007984161377, -26.16707420349121, 127.68206787109375, -34.85171890258789, 0.010009765625, -0.245849609375, -0.821533203125
483, 4165608761, -15.836898803710938, 5.773122787475586, 14.549692153930664, -33.8946418762207, 68.56058502197266, -65.96504974365234, 0.033447265625, -0.23828125, -0.82080078125
484, 4165625428, -9.00222396850586, 4.842907905578613, 5.700533390045166, -44.475379943847656, 3.4129068851470947, -28.78942108154297, 0.0380859375, -0.225341796875, -0.822509765625
485, 4165642095, -6.37220573425293, 2.3591160774230957, 9.559426307678223, -29.57334327697754, -5.9407525062561035, -20.718107223510742, 0.0390625, -0.21875, -0.825439453125
486, 4165658762, -6.822603702545166, 1.9827972650527954, 8.452672004699707, -19.108509063720703, -7.207876682281494, -12.73974323272705, 0.0400390625, -0.21240234375, -0.82666015625
487, 4165675429, -5.636669635772705, 2.840317726135254, 7.9574995040893555, -14.288973808288574, -8.207460403442383, -11.487144470214844, 0.037109375, -0.210205078125, -0.826171875
488, 4165692096, -5.6910905838012695, 2.3085644245147705, 7.966732978820801, -11.159489631652832, -6.984039306640625, -10.82503890991211, 0.03759765625, -0.207275390625, -0.8271484375
489, 4165708763, -5.365261554718018, 2.458878993988037, 7.9381561279296875, -8.438709259033203, -3.9139420986175537, -8.398407936096191, 0.03662109375, -0.204833984375, -0.827880859375
490, 4165725430, -5.37650203704834, 2.302128791809082, 7.9796319007873535, -3.3965258598327637, 0.08262017369270325, -5.837442398071289, 0.037109375, -0.204833984375, -0.828857421875
491, 4165742097, -5.4213128089904785, 2.3806495666503906, 7.942822456359863, 0.3788822889328003, 2.9073681831359863, -4.461399555206299, 0.04150390625, -0.202392578125, -0.8271484375
492, 4165758764, -5.511443614959717, 2.5412213802337646, 7.826910972595215, 2.602423667907715, 5.034964084625244, -2.7633800506591797, 0.03955078125, -0.207275390625, -0.828125
493, 4165775431, -5.520009517669678, 2.746816873550415, 7.802568435668945, 2.3507015705108643, 4.955193042755127, -2.765531301498413, 0.04150390625, -0.207763671875, -0.82763671875
494, 4165792098, -5.498069763183594, 2.6999545097351074, 7.812748432159424, 1.2029454708099365, 4.063820838928223, -3.1892809867858887, 0.04150390625, -0.207763671875, -0.823974609375
495, 4165808765, -5.460232734680176, 2.612220287322998, 7.7654500007629395, 0.6366357207298279, 2.9720916748046875, -3.343738555908203, 0.04443359375, -0.208740234375, -0.824951171875
496, 4165825432, -5.395021915435791, 2.5993165969848633, 7.784535884857178, 0.9847379326820374, 2.4205474853515625, -2.7207729816436768, 0.044677734375, -0.20849609375, -0.828125
497, 4165842099, -5.412922382354736, 2.628563165664673, 7.742019176483154, 1.3796600103378296, 2.1392815113067627, -2.290095329284668, 0.046142578125, -0.20947265625, -0.826416015625
498, 4165858766, -5.4670515060424805, 2.800291061401367, 7.690690517425537, 1.0491282939910889, 0.7673500776290894, -2.669201612472534, 0.045654296875, -0.2099609375, -0.824951171875
499, 4165875433, -5.390879154205322, 2.7910821437835693, 7.717338562011719, -0.034897301346063614, -0.5054921507835388, -3.457547903060913, 0.046142578125, -0.21240234375, -0.823974609375
500, 4165892100, -5.403540134429932, 2.731048583984375, 7.72032356262207, -1.0014694929122925, -1.3618913888931274, -4.2802414894104, 0.046630859375, -0.2138671875, -0.8232421875
501, 4165908767, -5.396397590637207, 2.6020727157592773, 7.763067245483398, -1.2410378456115723, -1.6837531328201294, -4.479379177093506, 0.047607421875, -0.2109375, -0.82373046875
502, 4165925434, -5.3869829177856445, 2.640238046646118, 7.759627819061279, -1.6099121570587158, -1.6747890710830688, -4.529439926147461, 0.048583984375, -0.21142578125, -0.822265625
503, 4165942101, -5.331621170043945, 2.707930088043213, 7.791224002838135, -1.1976882219314575, -1.0704699754714966, -4.705628871917725, 0.046630859375, -0.21337890625, -0.82373046875
504, 4165958768, -5.218175411224365, 2.65261173248291, 7.8282341957092285, -0.11785686016082764, 0.4413517415523529, -5.402731418609619, 0.048583984375, -0.212890625, -0.82373046875
505, 4165975435, -5.208779335021973, 2.57279634475708, 7.904143333435059, 2.365544557571411, 3.7530994415283203, -5.772270679473877, 0.047607421875, -0.2119140625, -0.82470703125
506, 4165992102, -5.293540954589844, 2.588942766189575, 7.874489784240723, 6.008518218994141, 8.254663467407227, -6.0274658203125, 0.051513671875, -0.2138671875, -0.82275390625
507, 4166008769, -5.217596054077148, 2.8019139766693115, 7.902955055236816, 9.265385627746582, 13.856184959411621, -6.603845119476318, 0.052978515625, -0.21630859375, -0.820068359375
508, 4166025436, -5.258245944976807, 3.068317174911499, 7.825308799743652, 11.118658065795898, 20.40918731689453, -10.323247909545898, 0.0615234375, -0.220458984375, -0.81982421875
509, 4166042103, -5.145770072937012, 2.795001745223999, 8.204623222351074, 10.465012550354004, 29.22458267211914, -12.652993202209473, 0.066650390625, -0.222412109375, -0.819091796875
510, 4166058770, -4.8923749923706055, 2.5090885162353516, 8.511719703674316, 14.772125244140625, 44.00244903564453, -13.761292457580566, 0.07763671875, -0.22705078125, -0.819091796875
511, 4166075437, -4.752556800842285, 2.948291778564453, 8.701977729797363, 23.410846710205078, 66.22161865234375, -18.977108001708984, 0.0927734375, -0.231689453125, -0.81103515625
512, 4166092104, -4.871067047119141, 3.3245933055877686, 8.689781188964844, 34.70421600341797, 96.6475601196289, -27.466875076293945, 0.11474609375, -0.23779296875, -0.80712890625
513, 4166108771, -5.121171474456787, 3.565464973449707, 8.885748863220215, 44.31494903564453, 131.8101806640625, -39.97211456298828, 0.14599609375, -0.24560546875, -0.79541015625
514, 4166125438, -4.869490146636963, 3.4468834400177, 9.281490325927734, 49.51643753051758, 174.15960693359375, -56.284210205078125, 0.18603515625, -0.2568359375, -0.780517578125
515, 4166142105, -5.499841213226318, 3.257016897201538, 9.19683837890625, 62.06130599975586, 235.44154357910156, -73.68669128417969, 0.2392578125, -0.265625, -0.761474609375
516, 4166158772, -5.228811264038086, 3.739746570587158, 9.3606595993042, 62.7703742980957, 307.47357177734375, -102.89168548583984, 0.3095703125, -0.27294921875, -0.727294921875
517, 4166175439, -7.247931957244873, 5.490440845489502, 11.263941764831543, 54.377506256103516, 379.3551940917969, -138.1143341064453, 0.39208984375, -0.26904296875, -0.679931640625
518, 4166192106, -9.36204719543457, 6.608480453491211, 11.117317199707031, 49.98125457763672, 435.4148254394531, -171.67532348632812, 0.48486328125, -0.252197265625, -0.614990234375
519, 4166208773, -19.495553970336914, 8.594925880432129, 13.499086380004883, 55.75873565673828, 421.3943176269531, -173.54025268554688, 0.572021484375, -0.23681640625, -0.537841796875
520, 4166225440, -19.23764991760254, 8.384138107299805, 13.736400604248047, 35.12010955810547, 354.85162353515625, -161.12660217285156, 0.640869140625, -0.21435546875, -0.460693359375
521, 4166242107, -12.00043773651123, 7.151437759399414, 12.549033164978027, 31.90158462524414, 296.2124938964844, -147.9779052734375, 0.68994140625, -0.18896484375, -0.38427734375
522, 4166258774, -0.8534780144691467, 4.767878532409668, 12.71982479095459, 30.711034774780273, 269.68218994140625, -155.1412353515625, 0.727294921875, -0.163330078125, -0.316650390625
523, 4166275441, 0.30273357033729553, 7.574497222900391, 12.949076652526855, 49.822998046875, 260.1522521972656, -126.47233581542969, 0.75244140625, -0.135009765625, -0.2431640625
524, 4166292108, -20.035907745361328, 16.981664657592773, 25.69658088684082, 37.62594985961914, 34.18487548828125, -4.614311695098877, 0.76123046875, -0.129638671875, -0.20458984375
525, 4166308775, -5.751392364501953, 14.08010196685791, 16.56432342529297, -56.28326416015625, -165.5065155029297, 77.7986831665039, 0.747314453125, -0.143798828125, -0.218994140625
526, 4166325442, 1.229274868965149, 7.0853705406188965, 8.983953475952148, -144.94854736328125, -212.19241333007812, 82.56423950195312, 0.7275390625, -0.154296875, -0.252685546875
527, 4166342109, 1.7548913955688477, 2.5425117015838623, 5.569518089294434, -173.59588623046875, -197.3402862548828, 71.80978393554688, 0.711181640625, -0.154541015625, -0.2861328125
528, 4166358776, 0.1108914464712143, 0.2324381023645401, 4.749905109405518, -151.4237518310547, -177.79550170898438, 80.07388305664062, 0.697998046875, -0.1591796875, -0.312744140625
529, 4166375443, -2.9701595306396484, 0.5575076937675476, 6.025462627410889, -106.15621185302734, -172.21946716308594, 98.35771942138672, 0.684326171875, -0.170654296875, -0.335693359375
530, 4166392110, -6.312373638153076, 2.6883227825164795, 7.542899131774902, -83.66947174072266, -192.01278686523438, 107.52395629882812, 0.674560546875, -0.189697265625, -0.361083984375
531, 4166408777, -8.23631763458252, 3.7873146533966064, 8.12999439239502, -89.87285614013672, -230.80056762695312, 105.01593780517578, 0.66552734375, -0.212158203125, -0.397705078125
532, 4166425444, -8.424674987792969, 3.3110828399658203, 7.463591575622559, -99.17498779296875, -263.3682556152344, 98.04801177978516, 0.650146484375, -0.2333984375, -0.461669921875
533, 4166442111, -8.011331558227539, 2.4831809997558594, 6.252976894378662, -93.75342559814453, -276.9549255371094, 90.49920654296875, 0.61328125, -0.252685546875, -0.541259765625
534, 4166458778, -7.835015296936035, 2.3805179595947266, 5.54719352722168, -74.94876861572266, -272.61566162109375, 83.6098861694336, 0.558349609375, -0.26123046875, -0.610595703125
535, 4166475445, -8.064146995544434, 3.0834176540374756, 5.356387138366699, -57.386314392089844, -253.37669372558594, 75.88672637939453, 0.486572265625, -0.26318359375, -0.666259765625
536, 4166492112, -9.501026153564453, 4.1489033699035645, 6.093662738800049, -42.879119873046875, -224.42788696289062, 69.9637222290039, 0.41796875, -0.264404296875, -0.693359375
537, 4166508779, -11.825878143310547, 5.700492858886719, 7.010682106018066, -22.666587829589844, -200.87789916992188, 74.93119049072266, 0.360107421875, -0.265869140625, -0.695068359375
538, 4166525446, -16.397409439086914, 10.163893699645996, 7.464512348175049, -4.718957901000977, -189.20492553710938, 104.92342376708984, 0.322265625, -0.277099609375, -0.68798828125
539, 4166542113, -21.557491302490234, 16.201351165771484, 5.569889068603516, -45.742454528808594, -184.36251831054688, 162.35433959960938, 0.294189453125, -0.29345703125, -0.68701171875
540, 4166558780, -23.567798614501953, 17.263872146606445, 0.9126100540161133, -120.49645233154297, -177.60675048828125, 230.97296142578125, 0.262939453125, -0.302001953125, -0.708740234375
541, 4166575447, -22.022550582885742, 14.532012939453125, -6.324631214141846, -160.62364196777344, -139.94326782226562, 290.19158935546875, 0.2255859375, -0.305908203125, -0.74755859375
542, 4166592114, -22.489349365234375, 11.933631896972656, -11.64458179473877, -147.37045288085938, -59.642982482910156, 332.19024658203125, 0.1884765625, -0.303955078125, -0.77197265625
543, 4166608781, -24.276620864868164, 10.702049255371094, -14.292275428771973, -131.7327423095703, 14.045531272888184, 344.421875, 0.15869140625, -0.30126953125, -0.80029296875
544, 4166625448, -22.481971740722656, 4.5707221031188965, -14.906660079956055, -99.68839263916016, 81.32732391357422, 326.0532531738281, 0.140380859375, -0.2978515625, -0.817138671875
545, 4166642115, -19.27089500427246, -0.6373329758644104, -12.526758193969727, -23.302383422851562, 137.72119140625, 276.9038391113281, 0.145263671875, -0.303466796875, -0.821533203125
546, 4166658782, -15.501315116882324, 0.7656023502349854, -8.546786308288574, 35.014102935791016, 167.59848022460938, 216.18569946289062, 0.16259765625, -0.323486328125, -0.817626953125
547, 4166675449, -13.701305389404297, -1.8709280490875244, -8.289280891418457, 124.75704193115234, 215.26478576660156, 119.30853271484375, 0.19873046875, -0.36376953125, -0.798095703125
548, 4166692116, -27.01228904724121, 23.15319061279297, 14.189813613891602, -77.21598815917969, 149.58555603027344, -35.52001190185547, 0.245361328125, -0.3642578125, -0.791015625
549, 4166708783, -6.528557777404785, 5.320719242095947, 9.932913780212402, -58.059871673583984, -8.304166793823242, -73.94358825683594, 0.2568359375, -0.34619140625, -0.795166015625
550, 4166725450, -7.371339321136475, 0.24525697529315948, 10.467344284057617, -53.09724807739258, 48.83335876464844, -56.73006057739258, 0.27197265625, -0.328125, -0.794921875
551, 4166742117, -8.8600492477417, 0.7579994201660156, 8.756369590759277, -11.016325950622559, 17.40150260925293, -21.727821350097656, 0.281982421875, -0.32421875, -0.792724609375
552, 4166758784, -6.1610002517700195, 3.2620809078216553, 8.169923782348633, 1.522824764251709, 21.27480697631836, -5.337246894836426, 0.286376953125, -0.3232421875, -0.79541015625
553, 4166775451, -5.677816867828369, 5.070162773132324, 6.7369561195373535, 1.681251049041748, 15.389358520507812, -3.3141582012176514, 0.28955078125, -0.325927734375, -0.7939453125
554, 4166792118, -5.470447540283203, 5.601937294006348, 6.709412097930908, -10.34084415435791, 10.530571937561035, -11.259214401245117, 0.29638671875, -0.32275390625, -0.793212890625
555, 4166808785, -5.356502056121826, 5.021490097045898, 6.94362211227417, -18.022907257080078, 6.347706317901611, -17.905010223388672, 0.300537109375, -0.3173828125, -0.7919921875
556, 4166825452, -5.5410003662109375, 4.257775783538818, 7.2790913581848145, -22.497745513916016, 3.4456169605255127, -20.673397064208984, 0.302490234375, -0.3134765625, -0.795654296875
557, 4166842119, -5.3402533531188965, 4.5173211097717285, 6.895044803619385, -29.20771598815918, 1.124595284461975, -24.00082015991211, 0.303955078125, -0.305419921875, -0.796875
558, 4166858786, -5.091036796569824, 4.732398509979248, 6.640609264373779, -43.39482498168945, -0.16620241105556488, -29.153562545776367, 0.306884765625, -0.2958984375, -0.7978515625
559, 4166875453, -5.661099433898926, 3.5873050689697266, 7.370420932769775, -41.952178955078125, 2.4952497482299805, -27.565568923950195, 0.3115234375, -0.281982421875, -0.802001953125
560, 4166892120, -6.100055694580078, 2.7605366706848145, 7.901551723480225, -35.19013595581055, 1.6587400436401367, -22.810081481933594, 0.3134765625, -0.2724609375, -0.801025390625
561, 4166908787, -6.0255608558654785, 2.575680732727051, 7.730607986450195, -20.892221450805664, -0.2277613878250122, -12.956645965576172, 0.31494140625, -0.265869140625, -0.803466796875
562, 4166925454, -5.862309455871582, 2.9518654346466064, 7.480546951293945, -11.892751693725586, 1.0138089656829834, -6.815608024597168, 0.31689453125, -0.263916015625, -0.802978515625
563, 4166942121, -5.614243984222412, 3.59848952293396, 7.1135783195495605, -10.433760643005371, 0.0032592173665761948, -6.209136486053467, 0.31640625, -0.26171875, -0.8037109375
564, 4166958788, -5.469818115234375, 3.888822078704834, 6.991515636444092, -14.378371238708496, -4.2332329750061035, -9.998825073242188, 0.31494140625, -0.2578125, -0.8056640625
565, 4166975455, -5.779890060424805, 3.3267619609832764, 7.141006946563721, -14.368474006652832, -6.3274970054626465, -10.99312686920166, 0.3154296875, -0.25439453125, -0.80615234375
566, 4166992122, -5.592392444610596, 3.244349241256714, 7.364870548248291, -13.276559829711914, -6.230269908905029, -9.1254301071167, 0.3173828125, -0.250244140625, -0.807861328125
567, 4167008789, -5.671132564544678, 2.924647569656372, 7.588470935821533, -9.550841331481934, -3.3236212730407715, -8.150452613830566, 0.314453125, -0.247314453125, -0.806396484375
568, 4167025456, -5.501340866088867, 3.2459003925323486, 7.586653709411621, -6.928954601287842, 0.20640641450881958, -7.449174404144287, 0.31689453125, -0.249755859375, -0.806396484375
569, 4167042123, -5.568952560424805, 3.4451467990875244, 7.4163103103637695, -8.212010383605957, 1.0546352863311768, -8.807403564453125, 0.31787109375, -0.247314453125, -0.807373046875
570, 4167058790, -5.69146203994751, 3.3941233158111572, 7.300232410430908, -9.268628120422363, -0.26349082589149475, -10.53397274017334, 0.31689453125, -0.24169921875, -0.807861328125
571, 4167075457, -5.791432857513428, 2.927415132522583, 7.443787097930908, -8.619893074035645, -0.31148895621299744, -9.819605827331543, 0.31884765625, -0.2421875, -0.806884765625
572, 4167092124, -5.65431547164917, 3.0454254150390625, 7.488299369812012, -6.370406150817871, 1.4183743000030518, -7.647341251373291, 0.319091796875, -0.2392578125, -0.808349609375
573, 4167108791, -5.364101409912109, 3.3062515258789062, 7.560333251953125, -6.223836898803711, 3.480632781982422, -8.187063217163086, 0.320556640625, -0.23876953125, -0.808837890625
574, 4167125458, -5.450634956359863, 3.4102184772491455, 7.5954179763793945, -7.678602695465088, 5.2078142166137695, -11.272285461425781, 0.322998046875, -0.23828125, -0.806396484375
575, 4167142125, -5.7325544357299805, 3.1462526321411133, 7.483882427215576, -8.56538200378418, 6.354190826416016, -12.85013484954834, 0.326416015625, -0.23486328125, -0.8076171875
576, 4167158792, -5.6675848960876465, 2.868558406829834, 7.893293857574463, -9.145562171936035, 10.616673469543457, -12.085006713867188, 0.32958984375, -0.2314453125, -0.80859375
577, 4167175459, -5.615354537963867, 2.7294304370880127, 7.708475589752197, -4.903021812438965, 18.971878051757812, -11.094032287597656, 0.33349609375, -0.230224609375, -0.8056640625
578, 4167192126, -5.5956034660339355, 2.7635018825531006, 7.787318706512451, -0.5731627941131592, 28.310861587524414, -10.012765884399414, 0.340087890625, -0.227294921875, -0.802978515625
579, 4167208793, -5.708841800689697, 2.9680604934692383, 7.690639972686768, 1.5901151895523071, 37.776634216308594, -8.758604049682617, 0.35107421875, -0.22900390625, -0.799560546875
580, 4167225460, -5.754247665405273, 3.164191722869873, 7.5474629402160645, 3.115687608718872, 46.0028076171875, -9.225983619689941, 0.363037109375, -0.2275390625, -0.7939453125
581, 4167242127, -5.900426387786865, 3.3083038330078125, 7.376836776733398, 3.8378427028656006, 54.75901412963867, -10.50326919555664, 0.37353515625, -0.228515625, -0.78857421875
582, 4167258794, -5.877560138702393, 3.4944982528686523, 7.4952311515808105, 5.7120490074157715, 64.93004608154297, -14.688464164733887, 0.38916015625, -0.22998046875, -0.7822265625
583, 4167275461, -6.020801067352295, 3.611666202545166, 7.516561985015869, 6.308731555938721, 75.90897369384766, -20.628074645996094, 0.407958984375, -0.22802734375, -0.771484375
584, 4167292128, -6.275451183319092, 3.6983747482299805, 7.637303352355957, 4.982488632202148, 88.42984008789062, -29.143020629882812, 0.424560546875, -0.22314453125, -0.761962890625
585, 4167308795, -6.137608528137207, 3.495065927505493, 7.468416690826416, 3.020897150039673, 103.41512298583984, -38.484188079833984, 0.453125, -0.2216796875, -0.748291015625
586, 4167325462, -6.529147624969482, 3.5454015731811523, 7.646154403686523, -2.607538938522339, 125.31094360351562, -48.500938415527344, 0.478515625, -0.212890625, -0.7294921875
587, 4167342129, -7.024803638458252, 4.302680969238281, 7.730816841125488, -14.555109024047852, 149.0879364013672, -69.2970962524414, 0.514404296875, -0.200927734375, -0.71044921875
588, 4167358796, -7.285826206207275, 4.681783676147461, 7.855996608734131, -23.63546371459961, 173.24337768554688, -100.67169189453125, 0.55224609375, -0.180908203125, -0.685791015625
589, 4167375463, -8.246252059936523, 6.469019412994385, 8.385941505432129, -44.943817138671875, 193.8781280517578, -135.22271728515625, 0.5966796875, -0.14697265625, -0.656494140625
590, 4167392130, -9.592583656311035, 7.5531907081604, 9.358734130859375, -74.12554168701172, 201.73635864257812, -178.17718505859375, 0.638671875, -0.101318359375, -0.6220703125
591, 4167408797, -11.229487419128418, 8.88261890411377, 11.018393516540527, -110.86054229736328, 209.79115295410156, -218.9915008544922, 0.6767578125, -0.03466796875, -0.58203125
592, 4167425464, -12.103965759277344, 9.060319900512695, 11.933286666870117, -127.02034759521484, 227.07070922851562, -244.54380798339844, 0.711181640625, 0.038818359375, -0.53759765625
593, 4167442131, -14.559013366699219, 12.801090240478516, 12.945196151733398, -166.9596710205078, 233.19801330566406, -263.2922058105469, 0.738037109375, 0.125244140625, -0.48193359375
594, 4167458798, -9.631985664367676, 11.186840057373047, 12.528989791870117, -206.35317993164062, 231.65985107421875, -268.8197326660156, 0.7509765625, 0.21728515625, -0.419921875
595, 4167475465, 4.07194185256958, 10.41119384765625, 6.501200199127197, -271.29949951171875, 228.5859375, -252.3821563720703, 0.75244140625, 0.310546875, -0.347900390625
596, 4167492132, -19.049285888671875, 21.38496208190918, 9.94257640838623, -250.42697143554688, 261.0982666015625, -48.88570022583008, 0.766357421875, 0.36474609375, -0.25732421875
597, 4167508799, -17.067825317382812, 24.35106086730957, 18.647302627563477, -295.63470458984375, 50.480045318603516, 177.3112335205078, 0.78759765625, 0.35546875, -0.204345703125
598, 4167525466, -5.7209858894348145, 11.807398796081543, 9.634349822998047, -381.2189636230469, -50.711647033691406, 258.57928466796875, 0.810546875, 0.31982421875, -0.176025390625
599, 4167542133, -3.08962082862854, 0.4424045979976654, 6.23831844329834, -360.2200012207031, -77.46553039550781, 257.2660217285156, 0.8330078125, 0.275634765625, -0.156494140625
600, 4167558800, -2.3217506408691406, -4.38447904586792, 5.9756879806518555, -252.0615997314453, -100.57379913330078, 246.96937561035156, 0.85302734375, 0.225341796875, -0.162109375
601, 4167575467, -1.7704609632492065, -2.598086357116699, 6.8071746826171875, -163.21803283691406, -118.2369155883789, 202.73770141601562, 0.86279296875, 0.179443359375, -0.183349609375
602, 4167592134, -2.950181484222412, -0.27439582347869873, 7.952969551086426, -133.60096740722656, -143.4000701904297, 134.04525756835938, 0.865234375, 0.149658203125, -0.216552734375
603, 4167608801, -5.4858808517456055, 1.1320583820343018, 9.127297401428223, -123.02012634277344, -186.27633666992188, 80.19511413574219, 0.857666015625, 0.140869140625, -0.253662109375
604, 4167625468, -6.240639686584473, 1.6621038913726807, 8.62999153137207, -98.76971435546875, -236.1963653564453, 58.50038146972656, 0.84423828125, 0.14013671875, -0.302978515625
605, 4167642135, -5.938684940338135, 2.971785068511963, 7.524665355682373, -67.0935287475586, -272.96710205078125, 56.43479919433594, 0.82666015625, 0.137939453125, -0.360595703125
606, 4167658802, -5.642918586730957, 4.526461601257324, 6.264501571655273, -49.86948013305664, -289.1374206542969, 58.24051284790039, 0.8046875, 0.13916015625, -0.4287109375
607, 4167675469, -5.764305114746094, 5.137270450592041, 5.638368606567383, -42.62858200073242, -288.5368347167969, 60.844207763671875, 0.786865234375, 0.13720703125, -0.495849609375
608, 4167692136, -6.837155818939209, 5.288356781005859, 5.976361274719238, -28.480392456054688, -278.4186706542969, 66.31462860107422, 0.760009765625, 0.133056640625, -0.56591796875
609, 4167708803, -9.067867279052734, 6.029262542724609, 7.1868462562561035, -7.1710944175720215, -268.9119873046875, 75.2232437133789, 0.733642578125, 0.122802734375, -0.634765625
610, 4167725470, -11.943663597106934, 7.417940616607666, 8.988751411437988, 10.307464599609375, -269.51617431640625, 87.9557876586914, 0.700927734375, 0.107421875, -0.71337890625
611, 4167742137, -14.387419700622559, 8.985946655273438, 10.71898365020752, 20.406330108642578, -278.1170349121094, 108.17859649658203, 0.6474609375, 0.082763671875, -0.802001953125
612, 4167758804, -17.643550872802734, 9.571534156799316, 12.026199340820312, 19.953275680541992, -283.3540954589844, 141.51112365722656, 0.5673828125, 0.05712890625, -0.874267578125
613, 4167775471, -21.477991104125977, 8.3807954788208, 11.098443984985352, 6.018998622894287, -286.1678771972656, 176.97059631347656, 0.4794921875, 0.02783203125, -0.921142578125
614, 4167792138, -23.03407859802246, 6.279994010925293, 7.924914836883545, -23.849145889282227, -280.73388671875, 188.67356872558594, 0.39404296875, 0.00830078125, -0.953369140625
615, 4167808805, -23.300466537475586, 3.5642707347869873, 3.9463706016540527, -49.030372619628906, -255.74034118652344, 177.7601776123047, 0.307373046875, -0.001953125, -0.97607421875
616, 4167825472, -22.799970626831055, -0.1519707292318344, -2.0978140830993652, -50.878562927246094, -196.1226043701172, 136.55093383789062, 0.235107421875, -4.8828125E-4, -0.982421875
617, 4167842139, -27.458160400390625, -8.357882499694824, -7.634540557861328, -0.9269248843193054, -128.13551330566406, 86.55514526367188, 0.185791015625, -0.003662109375, -0.986328125
618, 4167858806, -31.447906494140625, -12.998435020446777, -12.40921688079834, 63.29423522949219, -78.87699890136719, 27.48634147644043, 0.150634765625, -0.0234375, -0.985595703125
619, 4167875473, -24.946720123291016, -13.1713228225708, -15.987178802490234, 52.77898406982422, 21.45318603515625, -79.61358642578125, 0.14501953125, -0.034912109375, -0.983642578125
620, 4167892140, -23.924055099487305, -9.102246284484863, -12.553499221801758, 100.0452880859375, 105.50043487548828, -192.38832092285156, 0.170166015625, -0.04296875, -0.982666015625
621, 4167908807, -13.26171588897705, 15.41472339630127, 16.01079750061035, 91.97322845458984, 118.16731262207031, -205.28736877441406, 0.20947265625, -0.052490234375, -0.98095703125
622, 4167925474, 0.18369866907596588, 24.544328689575195, 2.726362705230713, 38.83245086669922, 96.92512512207031, -119.17265319824219, 0.237060546875, -0.05615234375, -0.97900390625
623, 4167942141, -6.245643615722656, 13.636990547180176, 5.482573509216309, 17.094385147094727, 185.2312774658203, -17.577184677124023, 0.28125, -0.058349609375, -0.970458984375
624, 4167958808, -13.435253143310547, 0.02392374910414219, 11.751352310180664, -7.925344467163086, 151.7188720703125, -10.48328971862793, 0.326904296875, -0.0595703125, -0.9619140625
625, 4167975475, -9.17947006225586, -2.7818520069122314, 10.587904930114746, 31.392154693603516, 115.29331970214844, -31.132368087768555, 0.364501953125, -0.064453125, -0.95263671875
626, 4167992142, -16.493499755859375, 12.07697868347168, 12.210041999816895, -7.791806697845459, 83.07242584228516, -31.366933822631836, 0.39306640625, -0.05810546875, -0.9453125
627, 4168008809, -7.0796799659729, 1.5635496377944946, 8.804362297058105, -6.93200159072876, 41.3721923828125, -20.061145782470703, 0.40478515625, -0.0556640625, -0.94287109375
628, 4168025476, -6.525564193725586, 3.6466753482818604, 7.987234115600586, -1.799861192703247, 27.187110900878906, -11.037044525146484, 0.415771484375, -0.05419921875, -0.940185546875
629, 4168042143, -5.802378177642822, 3.6215171813964844, 7.89911413192749, 2.0384984016418457, 19.401973724365234, -5.441938400268555, 0.420654296875, -0.056640625, -0.937255859375
630, 4168058810, -5.7246294021606445, 3.4335334300994873, 7.664099216461182, 1.494995355606079, 15.376960754394531, -5.519298076629639, 0.4267578125, -0.0537109375, -0.9326171875
631, 4168075477, -5.289239406585693, 3.4507241249084473, 7.410721778869629, 0.14834249019622803, 15.898887634277344, -5.575326442718506, 0.43017578125, -0.05419921875, -0.93310546875
632, 4168092144, -5.130865573883057, 3.875178813934326, 7.397059917449951, -7.845327854156494, 21.426448822021484, -11.34826946258545, 0.434814453125, -0.0546875, -0.930419921875
633, 4168108811, -5.671655654907227, 3.531629800796509, 7.601293087005615, -8.12381649017334, 21.686994552612305, -10.491971969604492, 0.440673828125, -0.05029296875, -0.92724609375
634, 4168125478, -5.339189052581787, 3.918455123901367, 7.30347204208374, -7.838911056518555, 21.26605796813965, -9.453116416931152, 0.451171875, -0.047607421875, -0.926025390625
635, 4168142145, -5.289236068725586, 3.9744088649749756, 7.092376232147217, -12.923134803771973, 19.310760498046875, -12.457597732543945, 0.455322265625, -0.043701171875, -0.9228515625
636, 4168158812, -5.688604354858398, 3.6619489192962646, 7.433887958526611, -10.704730987548828, 15.884979248046875, -12.245530128479004, 0.459228515625, -0.038818359375, -0.92138671875
637, 4168175479, -5.793254375457764, 3.2810890674591064, 7.363250732421875, 2.517563819885254, 13.360003471374512, -5.704989910125732, 0.462646484375, -0.039794921875, -0.918212890625
638, 4168192146, -5.314522743225098, 3.634364128112793, 7.2679314613342285, 5.649807453155518, 15.00085735321045, -4.506993770599365, 0.46826171875, -0.040771484375, -0.91650390625
639, 4168208813, -5.464552879333496, 3.891766309738159, 7.21491003036499, 6.760794162750244, 16.769878387451172, -6.185640811920166, 0.47314453125, -0.044189453125, -0.917236328125
640, 4168225480, -5.832866668701172, 3.8322505950927734, 7.108297348022461, 6.871006488800049, 17.320234298706055, -7.60531759262085, 0.478759765625, -0.044189453125, -0.909912109375
641, 4168242147, -6.030680179595947, 3.7579598426818848, 6.897581100463867, 4.3882737159729, 15.502046585083008, -9.494586944580078, 0.483642578125, -0.0458984375, -0.909912109375
642, 4168258814, -5.9617695808410645, 3.8549818992614746, 6.762147426605225, -0.528211236000061, 11.785215377807617, -12.16069221496582, 0.48681640625, -0.046875, -0.9072265625
643, 4168275481, -6.068032264709473, 3.7552855014801025, 6.752297878265381, -4.453667163848877, 7.912363529205322, -12.136368751525879, 0.48876953125, -0.044921875, -0.9072265625
644, 4168292148, -5.894111156463623, 3.854783296585083, 6.970889568328857, -7.747014999389648, 4.738410472869873, -12.009815216064453, 0.49267578125, -0.040283203125, -0.908203125
645, 4168308815, -6.049884796142578, 3.623366594314575, 7.035787105560303, -8.069074630737305, 2.631181478500366, -11.475861549377441, 0.4921875, -0.038818359375, -0.906494140625
646, 4168325482, -5.9265336990356445, 3.565220594406128, 6.99957799911499, -7.1067986488342285, 1.1823149919509888, -12.327412605285645, 0.49365234375, -0.035888671875, -0.9072265625
647, 4168342149, -5.940037250518799, 3.550386667251587, 7.002658367156982, -3.550896167755127, 0.2771744430065155, -14.32888126373291, 0.49462890625, -0.035888671875, -0.906982421875
648, 4168358816, -5.771376132965088, 3.562983274459839, 7.267060279846191, 1.6754754781723022, 2.269383192062378, -15.068245887756348, 0.494140625, -0.033447265625, -0.90625
649, 4168375483, -5.64138650894165, 3.3467698097229004, 7.557840824127197, 1.573831558227539, 7.927707672119141, -13.547517776489258, 0.495849609375, -0.034423828125, -0.905029296875
650, 4168392150, -5.6059746742248535, 3.080707550048828, 7.636507987976074, 1.0475167036056519, 20.8167667388916, -11.59923267364502, 0.501220703125, -0.031982421875, -0.90283203125
651, 4168408817, -5.537622451782227, 3.264301300048828, 7.602246284484863, 6.348596096038818, 36.322181701660156, -11.972143173217773, 0.509765625, -0.031982421875, -0.8974609375
652, 4168425484, -5.6072187423706055, 3.2385358810424805, 7.595916271209717, 12.642916679382324, 54.82393264770508, -14.201563835144043, 0.522705078125, -0.031982421875, -0.88818359375
653, 4168442151, -5.406722545623779, 3.809939384460449, 7.9124579429626465, 14.907548904418945, 78.06805419921875, -19.06792449951172, 0.539306640625, -0.035888671875, -0.876953125
654, 4168458818, -5.259617328643799, 4.6188812255859375, 7.941713809967041, 18.308101654052734, 107.05840301513672, -29.826370239257812, 0.566162109375, -0.0341796875, -0.8603515625
655, 4168475485, -5.393588542938232, 4.78340482711792, 7.729488849639893, 24.413410186767578, 140.4163818359375, -45.35690689086914, 0.59765625, -0.0341796875, -0.832763671875
656, 4168492152, -5.357320785522461, 4.833820819854736, 8.18070125579834, 32.042724609375, 182.1990966796875, -68.93379211425781, 0.636962890625, -0.03125, -0.8017578125
657, 4168508819, -5.705104351043701, 3.5983452796936035, 7.960581302642822, 43.73844528198242, 245.1825714111328, -92.06181335449219, 0.688232421875, -0.019287109375, -0.7548828125
658, 4168525486, -7.239583969116211, 4.631402015686035, 9.240389823913574, 43.47260284423828, 315.75201416015625, -128.76901245117188, 0.749267578125, -0.007568359375, -0.68994140625
659, 4168542153, -9.272066116333008, 6.522757530212402, 10.858363151550293, 43.06977462768555, 374.7335205078125, -169.17332458496094, 0.8125, 0.024658203125, -0.598876953125
