sep=,
DeviceTag:,A,,,,,,,,,,,,,,,,,
FirmwareVersion:,2.2.1,,,,,,,,,,,,,,,,,
AppVersion:,2022.0.1,,,,,,,,,,,,,,,,,
SyncStatus:,Synced,,,,,,,,,,,,,,,,,
OutputRate:,60Hz,,,,,,,,,,,,,,,,,
FilterProfile:,General,,,,,,,,,,,,,,,,,
Measurement Mode:,Inertial Mode - Rate quantities (with mag),,,,,,,,,,,,,,,,,
StartTime:,2022-08-05 17:04:28.227 +0300,,,,,,,,,,,,,,,,,
© Xsens Technologies B. V. 2005-2022,,,,,,,,,,,,,,,,,,,

PacketCounter,SampleTimeFine,Acc_X,Acc_Y,Acc_Z,Gyr_X,Gyr_Y,Gyr_Z,Mag_X,Mag_Y,Mag_Z
1, 220298458, -5.352154731750488, 2.4850869178771973, 7.844512462615967, -2.603364944458008, -1.4766108989715576, -2.5344667434692383, 0.068359375, -0.190673828125, -0.79931640625
2, 220315125, -5.346190929412842, 2.4876415729522705, 7.873135566711426, -2.5595157146453857, -1.5877187252044678, -2.4014344215393066, 0.0693359375, -0.19482421875, -0.800048828125
3, 220331792, -5.349410533905029, 2.503098487854004, 7.856815338134766, -2.506510019302368, -1.6838558912277222, -2.312199354171753, 0.06884765625, -0.190185546875, -0.7998046875
4, 220348459, -5.337270736694336, 2.521709680557251, 7.877508163452148, -2.546504259109497, -1.8309240341186523, -2.2807469367980957, 0.068359375, -0.19189453125, -0.80126953125
5, 220365126, -5.337515354156494, 2.4951491355895996, 7.892356872558594, -2.5814402103424072, -1.6832669973373413, -2.2952566146850586, 0.06640625, -0.1923828125, -0.80078125
6, 220381793, -5.341415882110596, 2.48518705368042, 7.886200428009033, -2.4108080863952637, -1.6949843168258667, -2.361593246459961, 0.06787109375, -0.19189453125, -0.80078125
7, 220398460, -5.33646821975708, 2.51122784614563, 7.881363391876221, -2.455591917037964, -1.7071762084960938, -2.3264529705047607, 0.0673828125, -0.19140625, -0.80078125
8, 220415127, -5.330138683319092, 2.506922483444214, 7.874650001525879, -2.4679243564605713, -1.6173266172409058, -2.298534870147705, 0.068359375, -0.19091796875, -0.80078125
9, 220431794, -5.327751636505127, 2.4993627071380615, 7.8754682540893555, -2.344356060028076, -1.559967041015625, -2.4093611240386963, 0.068359375, -0.190185546875, -0.80029296875
10, 220448461, -5.336625099182129, 2.5091793537139893, 7.891687393188477, -2.301762104034424, -1.4117591381072998, -2.307985782623291, 0.06787109375, -0.1904296875, -0.804931640625
11, 220465128, -5.335323810577393, 2.5050017833709717, 7.87742805480957, -2.270796537399292, -1.538477897644043, -2.2547497749328613, 0.06884765625, -0.190185546875, -0.80126953125
12, 220481795, -5.331483364105225, 2.4959464073181152, 7.856064319610596, -2.2167279720306396, -1.399067997932434, -2.293412208557129, 0.068359375, -0.19091796875, -0.80126953125
13, 220498462, -5.3384294509887695, 2.5008463859558105, 7.904125213623047, -2.1794357299804688, -1.3001903295516968, -2.2264606952667236, 0.06689453125, -0.190673828125, -0.80126953125
14, 220515129, -5.328702449798584, 2.5044755935668945, 7.87137508392334, -2.1781165599823, -1.3041857481002808, -2.3100733757019043, 0.068359375, -0.19140625, -0.802734375
15, 220531796, -5.340092658996582, 2.524838447570801, 7.872419357299805, -2.207148790359497, -1.296271562576294, -2.300045967102051, 0.0673828125, -0.1923828125, -0.7998046875
16, 220548463, -5.323034286499023, 2.523590564727783, 7.880512237548828, -2.4042770862579346, -1.325918436050415, -2.444373846054077, 0.0693359375, -0.190185546875, -0.798095703125
17, 220565130, -5.349766731262207, 2.4961957931518555, 7.878490924835205, -2.4472293853759766, -1.3606746196746826, -2.5220696926116943, 0.068359375, -0.1923828125, -0.798583984375
18, 220581797, -5.31704044342041, 2.5095643997192383, 7.845860958099365, -2.4236016273498535, -1.293236494064331, -2.464992046356201, 0.06591796875, -0.19189453125, -0.80078125
19, 220598464, -5.327057361602783, 2.527968406677246, 7.875215530395508, -2.428007125854492, -1.4723460674285889, -2.61234188079834, 0.068359375, -0.19140625, -0.8017578125
20, 220615131, -5.339252471923828, 2.511617422103882, 7.89431095123291, -2.588740110397339, -1.3928828239440918, -2.6756696701049805, 0.0673828125, -0.1923828125, -0.80126953125
21, 220631798, -5.3470916748046875, 2.5070126056671143, 7.866224765777588, -2.5864477157592773, -1.4721285104751587, -2.647329092025757, 0.06640625, -0.19287109375, -0.798828125
22, 220648465, -5.338840007781982, 2.516305685043335, 7.860353946685791, -2.6740174293518066, -1.5393747091293335, -2.5196878910064697, 0.06640625, -0.19189453125, -0.80029296875
23, 220665132, -5.32090425491333, 2.5276947021484375, 7.88333797454834, -2.6939826011657715, -1.518743634223938, -2.620166778564453, 0.06689453125, -0.19140625, -0.80029296875
24, 220681799, -5.316242218017578, 2.5231199264526367, 7.867557525634766, -2.7906312942504883, -1.3777709007263184, -2.8152198791503906, 0.06640625, -0.19189453125, -0.802734375
25, 220698466, -5.31608772277832, 2.5253207683563232, 7.8710737228393555, -2.841613531112671, -1.307144045829773, -2.844226121902466, 0.0673828125, -0.19189453125, -0.8017578125
26, 220715133, -5.355209827423096, 2.5004899501800537, 7.865153789520264, -2.7466418743133545, -1.2222251892089844, -2.8880109786987305, 0.06787109375, -0.19287109375, -0.80029296875
27, 220731800, -5.345513343811035, 2.497485399246216, 7.857872009277344, -2.748255729675293, -1.2454560995101929, -2.71250057220459, 0.068359375, -0.1923828125, -0.80078125
28, 220748467, -5.3442206382751465, 2.5083954334259033, 7.868057727813721, -2.766056776046753, -1.2973090410232544, -2.6663079261779785, 0.0673828125, -0.191162109375, -0.80078125
29, 220765134, -5.327261924743652, 2.5057311058044434, 7.867733478546143, -2.8451740741729736, -1.371598482131958, -2.790951728820801, 0.06884765625, -0.19091796875, -0.7998046875
30, 220781801, -5.347268581390381, 2.5150341987609863, 7.8637566566467285, -2.9330899715423584, -1.4905694723129272, -2.7389965057373047, 0.06689453125, -0.191162109375, -0.80126953125
31, 220798468, -5.338507652282715, 2.503013849258423, 7.875054836273193, -2.99330472946167, -1.528578758239746, -2.7718193531036377, 0.068359375, -0.190185546875, -0.7998046875
32, 220815135, -5.322072982788086, 2.5111093521118164, 7.876998424530029, -2.9026999473571777, -1.5367618799209595, -2.6548585891723633, 0.06640625, -0.1923828125, -0.80078125
33, 220831802, -5.3160295486450195, 2.519409656524658, 7.880382061004639, -2.7829477787017822, -1.3777581453323364, -2.6661152839660645, 0.0693359375, -0.189697265625, -0.79931640625
34, 220848469, -5.3460307121276855, 2.483429431915283, 7.888375282287598, -2.6365203857421875, -1.2373367547988892, -2.7593846321105957, 0.06787109375, -0.19091796875, -0.80078125
35, 220865136, -5.350640296936035, 2.4790875911712646, 7.876260280609131, -2.717507839202881, -1.2042838335037231, -2.7548766136169434, 0.06787109375, -0.190185546875, -0.80078125
36, 220881803, -5.3468122482299805, 2.4858100414276123, 7.860048294067383, -2.7239491939544678, -1.3354462385177612, -2.5784308910369873, 0.0693359375, -0.189208984375, -0.8037109375
37, 220898470, -5.330521106719971, 2.487109661102295, 7.869978904724121, -2.565957546234131, -1.4038194417953491, -2.5977046489715576, 0.06982421875, -0.189697265625, -0.8017578125
38, 220915137, -5.347671031951904, 2.4952502250671387, 7.853428840637207, -2.503065347671509, -1.3720979690551758, -2.5065741539001465, 0.0693359375, -0.190185546875, -0.80029296875
39, 220931804, -5.336514949798584, 2.4871296882629395, 7.881844997406006, -2.3891525268554688, -1.3024569749832153, -2.3832106590270996, 0.06884765625, -0.1923828125, -0.80029296875
40, 220948471, -5.343650817871094, 2.4845705032348633, 7.888204574584961, -2.316168785095215, -1.3188105821609497, -2.2780702114105225, 0.06787109375, -0.19140625, -0.80029296875
41, 220965138, -5.343562126159668, 2.4965949058532715, 7.884963035583496, -2.2060859203338623, -1.2191261053085327, -2.2885842323303223, 0.068359375, -0.1904296875, -0.80224609375
42, 220981805, -5.357494354248047, 2.490215539932251, 7.857117652893066, -2.162480115890503, -1.194243311882019, -2.2998666763305664, 0.068359375, -0.19140625, -0.80224609375
43, 220998472, -5.333052635192871, 2.525986671447754, 7.85757303237915, -2.3043360710144043, -1.2658566236495972, -2.321509838104248, 0.06884765625, -0.19140625, -0.80126953125
44, 221015139, -5.333368301391602, 2.509920835494995, 7.85467004776001, -2.3516039848327637, -1.3686145544052124, -2.284588575363159, 0.06884765625, -0.1923828125, -0.7998046875
45, 221031806, -5.317455768585205, 2.5140841007232666, 7.884579658508301, -2.300673723220825, -1.3281465768814087, -2.348428249359131, 0.068359375, -0.19189453125, -0.7998046875
46, 221048473, -5.336843013763428, 2.505122661590576, 7.850498199462891, -2.265110492706299, -1.1236931085586548, -2.4799623489379883, 0.06884765625, -0.191162109375, -0.79931640625
47, 221065140, -5.340348720550537, 2.498697519302368, 7.866767406463623, -2.32865571975708, -1.2752306461334229, -2.4228718280792236, 0.06884765625, -0.191162109375, -0.798828125
48, 221081807, -5.3131937980651855, 2.536217212677002, 7.868135929107666, -2.3447532653808594, -1.1801819801330566, -2.454695701599121, 0.0703125, -0.19287109375, -0.800048828125
49, 221098474, -5.326327323913574, 2.512511968612671, 7.8621602058410645, -2.39608097076416, -1.073377013206482, -2.6632471084594727, 0.0673828125, -0.1923828125, -0.80029296875
50, 221115141, -5.325468063354492, 2.5207605361938477, 7.871482849121094, -2.4963674545288086, -1.073530673980713, -2.6618640422821045, 0.068359375, -0.191162109375, -0.79833984375
51, 221131808, -5.3427205085754395, 2.518481492996216, 7.854897499084473, -2.513643264770508, -1.1107715368270874, -2.774585485458374, 0.06982421875, -0.19140625, -0.80029296875
52, 221148475, -5.34713888168335, 2.5013952255249023, 7.845029830932617, -2.5131051540374756, -1.1350524425506592, -2.7870588302612305, 0.06884765625, -0.190673828125, -0.80078125
53, 221165142, -5.356251239776611, 2.500450372695923, 7.855699062347412, -2.430197238922119, -1.0144805908203125, -2.8763577938079834, 0.06787109375, -0.1923828125, -0.80126953125
54, 221181809, -5.339461326599121, 2.4970858097076416, 7.850829124450684, -2.387385129928589, -0.9997020363807678, -2.7353081703186035, 0.0693359375, -0.19287109375, -0.80078125
55, 221198476, -5.340826034545898, 2.4966084957122803, 7.840342998504639, -2.234260082244873, -1.1602298021316528, -2.595053195953369, 0.06787109375, -0.189697265625, -0.80078125
56, 221215143, -5.353418827056885, 2.484675884246826, 7.867969989776611, -2.333265781402588, -1.214298129081726, -2.539588689804077, 0.06884765625, -0.19140625, -0.79931640625
57, 221231810, -5.354316234588623, 2.5126094818115234, 7.868833541870117, -2.5833356380462646, -1.4051513671875, -2.5458643436431885, 0.0703125, -0.19189453125, -0.80126953125
58, 221248477, -5.360985279083252, 2.52813720703125, 7.890594005584717, -2.1242148876190186, -1.600115180015564, -2.4221417903900146, 0.06884765625, -0.19287109375, -0.80029296875
59, 221265144, -5.336676120758057, 2.483914613723755, 7.846745014190674, -2.433462381362915, -1.4960503578186035, -2.4715356826782227, 0.0693359375, -0.1923828125, -0.80078125
60, 221281811, -5.327392578125, 2.5059778690338135, 7.885636806488037, -2.4507899284362793, -1.456722378730774, -2.453543186187744, 0.0693359375, -0.19189453125, -0.7998046875
61, 221298478, -5.333526611328125, 2.519467830657959, 7.851991176605225, -2.491194248199463, -1.361724853515625, -2.5574796199798584, 0.06982421875, -0.190673828125, -0.7998046875
62, 221315145, -5.354154109954834, 2.483015775680542, 7.852780342102051, -2.3764872550964355, -1.1577069759368896, -2.652848482131958, 0.06884765625, -0.19140625, -0.798828125
63, 221331812, -5.350584983825684, 2.4998700618743896, 7.835348606109619, -2.415316104888916, -1.3311048746109009, -2.5105953216552734, 0.06787109375, -0.19287109375, -0.798828125
64, 221348479, -5.330677509307861, 2.526662588119507, 7.860162734985352, -2.4956889152526855, -1.3367141485214233, -2.5010292530059814, 0.06884765625, -0.19140625, -0.798583984375
65, 221365146, -5.325376033782959, 2.508208751678467, 7.876596927642822, -2.5869853496551514, -1.2330851554870605, -2.651862621307373, 0.068359375, -0.19189453125, -0.80078125
66, 221381813, -5.3536858558654785, 2.5071911811828613, 7.844274997711182, -2.5631911754608154, -1.3155708312988281, -2.675746440887451, 0.06884765625, -0.19140625, -0.80029296875
67, 221398480, -5.358760356903076, 2.5218100547790527, 7.8779683113098145, -2.6092941761016846, -1.3197842836380005, -2.6417324542999268, 0.06787109375, -0.191162109375, -0.798828125
68, 221415147, -5.356431007385254, 2.504403829574585, 7.8758978843688965, -2.656728744506836, -1.300702691078186, -2.6234962940216064, 0.07080078125, -0.1904296875, -0.800048828125
69, 221431814, -5.342628002166748, 2.4984288215637207, 7.857190132141113, -2.6201541423797607, -1.3011125326156616, -2.6180150508880615, 0.0712890625, -0.19384765625, -0.801025390625
70, 221448481, -5.361876487731934, 2.4906342029571533, 7.84987211227417, -2.348722457885742, -1.2126972675323486, -2.5586190223693848, 0.068359375, -0.19287109375, -0.7998046875
71, 221465148, -5.353911399841309, 2.477027416229248, 7.867637634277344, -2.3926615715026855, -1.4294064044952393, -2.4729833602905273, 0.0693359375, -0.19287109375, -0.80126953125
72, 221481815, -5.3653059005737305, 2.500662088394165, 7.890585899353027, -2.369135856628418, -1.4264992475509644, -2.39512038230896, 0.0673828125, -0.19189453125, -0.80078125
73, 221498482, -5.333782196044922, 2.4863076210021973, 7.824676990509033, -2.268580913543701, -1.4483087062835693, -2.3162333965301514, 0.0703125, -0.1904296875, -0.8017578125
74, 221515149, -5.3385009765625, 2.5338082313537598, 7.874170303344727, -2.4768378734588623, -1.4678510427474976, -2.387218952178955, 0.07177734375, -0.19384765625, -0.799560546875
75, 221531816, -5.347758769989014, 2.497504711151123, 7.866842269897461, -2.577892780303955, -1.5225598812103271, -2.4650559425354004, 0.0693359375, -0.1943359375, -0.800048828125
76, 221548483, -5.343894004821777, 2.519447088241577, 7.875829219818115, -2.5060107707977295, -1.3800251483917236, -2.397080183029175, 0.06787109375, -0.19287109375, -0.798095703125
77, 221565150, -5.357874870300293, 2.5069849491119385, 7.852677345275879, -2.461956739425659, -1.3960072994232178, -2.35937762260437, 0.06689453125, -0.1923828125, -0.79931640625
78, 221581817, -5.340871810913086, 2.5098586082458496, 7.867305755615234, -2.6021225452423096, -1.4529190063476562, -2.376577377319336, 0.06884765625, -0.19140625, -0.802734375
79, 221598484, -5.33390474319458, 2.5223190784454346, 7.864297866821289, -2.6877329349517822, -1.320603847503662, -2.53249454498291, 0.0673828125, -0.19189453125, -0.7998046875
80, 221615151, -5.339085102081299, 2.4984874725341797, 7.845501899719238, -2.598562479019165, -1.324919581413269, -2.5660598278045654, 0.06884765625, -0.1904296875, -0.80224609375
81, 221631818, -5.345781326293945, 2.49692440032959, 7.844903469085693, -2.6139297485351562, -1.5022746324539185, -2.4668874740600586, 0.0703125, -0.1943359375, -0.798095703125
82, 221648485, -5.356719970703125, 2.5220773220062256, 7.867347717285156, -2.5648815631866455, -1.5772687196731567, -2.4274566173553467, 0.0693359375, -0.19140625, -0.799072265625
83, 221665152, -5.364327907562256, 2.5028083324432373, 7.846249580383301, -2.5234532356262207, -1.5287452936172485, -2.2931692600250244, 0.0703125, -0.19140625, -0.80224609375
84, 221681819, -5.33384895324707, 2.519746780395508, 7.858591556549072, -2.4129979610443115, -1.6041747331619263, -2.289083957672119, 0.06884765625, -0.191162109375, -0.79931640625
85, 221698486, -5.326137542724609, 2.509195327758789, 7.866468906402588, -2.4378936290740967, -1.578587532043457, -2.3718769550323486, 0.06787109375, -0.19189453125, -0.79931640625
86, 221715153, -5.330785751342773, 2.5066418647766113, 7.860069274902344, -2.4261887073516846, -1.38705575466156, -2.2909536361694336, 0.06884765625, -0.19189453125, -0.80029296875
87, 221731820, -5.340853691101074, 2.5067827701568604, 7.861944198608398, -2.3854644298553467, -1.4267042875289917, -2.2939887046813965, 0.06689453125, -0.19482421875, -0.7998046875
88, 221748487, -5.349773406982422, 2.5233335494995117, 7.85035514831543, -2.474494218826294, -1.4099279642105103, -2.4036879539489746, 0.06640625, -0.191162109375, -0.7998046875
89, 221765154, -5.348997116088867, 2.5080389976501465, 7.862269401550293, -2.5815045833587646, -1.465328574180603, -2.460062026977539, 0.0673828125, -0.19189453125, -0.80224609375
90, 221781821, -5.330861568450928, 2.524685859680176, 7.877701759338379, -2.602442502975464, -1.3449870347976685, -2.5685696601867676, 0.06787109375, -0.1923828125, -0.79931640625
91, 221798488, -5.331343650817871, 2.5176150798797607, 7.880709648132324, -2.5842580795288086, -1.258428931236267, -2.629861354827881, 0.068359375, -0.19140625, -0.80029296875
92, 221815155, -5.350343704223633, 2.505291223526001, 7.850597858428955, -2.5427777767181396, -1.2416142225265503, -2.6452672481536865, 0.0693359375, -0.1923828125, -0.80126953125
93, 221831822, -5.342138290405273, 2.530334711074829, 7.873376369476318, -2.6732876300811768, -1.3203222751617432, -2.719531297683716, 0.0693359375, -0.19091796875, -0.79931640625
94, 221848489, -5.344314098358154, 2.5031697750091553, 7.862288951873779, -2.730198860168457, -1.354848027229309, -2.6830461025238037, 0.06787109375, -0.19384765625, -0.80029296875
95, 221865156, -5.367942810058594, 2.508742570877075, 7.861462593078613, -2.4962525367736816, -1.3571275472640991, -2.6439738273620605, 0.06689453125, -0.193359375, -0.80029296875
96, 221881823, -5.370327949523926, 2.485644578933716, 7.8494648933410645, -2.426367998123169, -1.509535789489746, -2.4442074298858643, 0.068359375, -0.19189453125, -0.7998046875
97, 221898490, -5.356612205505371, 2.508761405944824, 7.852559566497803, -2.432143449783325, -1.4045875072479248, -2.3264524936676025, 0.07080078125, -0.19189453125, -0.800048828125
98, 221915157, -5.359289169311523, 2.515047550201416, 7.831756591796875, -2.3945443630218506, -1.4556338787078857, -2.275073766708374, 0.0712890625, -0.19189453125, -0.800048828125
99, 221931824, -5.346075534820557, 2.5155582427978516, 7.865301609039307, -2.345700740814209, -1.4944242238998413, -2.282667875289917, 0.068359375, -0.193359375, -0.7998046875
100, 221948491, -5.351445198059082, 2.4997482299804688, 7.865118026733398, -2.3751044273376465, -1.5136722326278687, -2.251023292541504, 0.06884765625, -0.1923828125, -0.80126953125
101, 221965158, -5.352646350860596, 2.5003745555877686, 7.8732452392578125, -2.3532307147979736, -1.5119303464889526, -2.233901023864746, 0.068359375, -0.190185546875, -0.80078125
102, 221981825, -5.336590766906738, 2.52022647857666, 7.854874610900879, -2.436216115951538, -1.6271748542785645, -2.2011682987213135, 0.06787109375, -0.193359375, -0.79931640625
103, 221998492, -5.323688507080078, 2.537484645843506, 7.866079807281494, -2.499082088470459, -1.7138608694076538, -2.29599928855896, 0.06884765625, -0.19189453125, -0.8017578125
104, 222015159, -5.313680648803711, 2.5257184505462646, 7.863382339477539, -2.5051145553588867, -1.4222861528396606, -2.4362545013427734, 0.0703125, -0.1923828125, -0.800048828125
105, 222031826, -5.343050003051758, 2.5121333599090576, 7.863166809082031, -2.5350303649902344, -1.2810578346252441, -2.5735387802124023, 0.0693359375, -0.19384765625, -0.798095703125
106, 222048493, -5.345935344696045, 2.515749931335449, 7.866549968719482, -2.628131866455078, -1.3093212842941284, -2.542252540588379, 0.06884765625, -0.1943359375, -0.8017578125
107, 222065160, -5.346296787261963, 2.5299572944641113, 7.856233596801758, -2.6119961738586426, -1.3273910284042358, -2.6078596115112305, 0.0703125, -0.193359375, -0.80126953125
108, 222081827, -5.343282222747803, 2.5211801528930664, 7.865371227264404, -2.695071220397949, -1.3381484746932983, -2.650505304336548, 0.06689453125, -0.193359375, -0.79931640625
109, 222098494, -5.343443393707275, 2.509572744369507, 7.8563761711120605, -2.634676456451416, -1.3794490098953247, -2.6937906742095947, 0.06884765625, -0.190673828125, -0.7998046875
110, 222115161, -5.344533920288086, 2.5191490650177, 7.869174957275391, -2.5407419204711914, -1.3919479846954346, -2.6214475631713867, 0.0693359375, -0.193359375, -0.80126953125
111, 222131828, -5.355893611907959, 2.504411458969116, 7.857432842254639, -2.5521392822265625, -1.4701820611953735, -2.5017080307006836, 0.07080078125, -0.19384765625, -0.800537109375
112, 222148495, -5.356777667999268, 2.5054075717926025, 7.846937656402588, -2.4540679454803467, -1.5285532474517822, -2.372555732727051, 0.0693359375, -0.19287109375, -0.797119140625
113, 222165162, -5.333221435546875, 2.5051722526550293, 7.86419153213501, -2.3813278675079346, -1.4919910430908203, -2.3860535621643066, 0.07080078125, -0.193359375, -0.80126953125
114, 222181829, -5.337124347686768, 2.5253894329071045, 7.859009742736816, -2.1788852214813232, -1.6293776035308838, -2.2044596672058105, 0.068359375, -0.193359375, -0.8017578125
115, 222198496, -5.324801445007324, 2.5218961238861084, 7.867549419403076, -2.3554208278656006, -1.4599493741989136, -2.3492605686187744, 0.06982421875, -0.19287109375, -0.798583984375
116, 222215163, -5.331527233123779, 2.515263319015503, 7.859329700469971, -2.4003708362579346, -1.3805245161056519, -2.3581483364105225, 0.06982421875, -0.193359375, -0.799072265625
117, 222231830, -5.336863994598389, 2.503272533416748, 7.876575946807861, -2.3543834686279297, -1.3968911170959473, -2.376051902770996, 0.06884765625, -0.19287109375, -0.80224609375
118, 222248497, -5.327589511871338, 2.5329296588897705, 7.870959281921387, -2.443784475326538, -1.390961766242981, -2.4599461555480957, 0.06884765625, -0.193359375, -0.80224609375
119, 222265164, -5.334079265594482, 2.5298609733581543, 7.864087104797363, -2.446345806121826, -1.2702746391296387, -2.5042049884796143, 0.06884765625, -0.1923828125, -0.80029296875
120, 222281831, -5.364311218261719, 2.5317699909210205, 7.841548919677734, -2.4981861114501953, -1.3589715957641602, -2.5039491653442383, 0.0693359375, -0.1923828125, -0.799072265625
121, 222298498, -5.326820373535156, 2.5270650386810303, 7.868748664855957, -2.582746744155884, -1.4057788848876953, -2.5505897998809814, 0.06884765625, -0.19091796875, -0.80224609375
122, 222315165, -5.3398637771606445, 2.5214662551879883, 7.892312526702881, -2.3605690002441406, -1.27205491065979, -2.5405750274658203, 0.06787109375, -0.193359375, -0.79931640625
123, 222331832, -5.342030048370361, 2.5125763416290283, 7.865175247192383, -2.361901044845581, -1.3059916496276855, -2.450469732284546, 0.068359375, -0.19189453125, -0.798583984375
124, 222348499, -5.340963363647461, 2.534450054168701, 7.845660209655762, -2.3854517936706543, -1.2120953798294067, -2.4555022716522217, 0.06689453125, -0.19482421875, -0.80078125
125, 222365166, -5.346113204956055, 2.5234808921813965, 7.860495090484619, -2.3324203491210938, -1.0826231241226196, -2.5151796340942383, 0.0673828125, -0.19140625, -0.80224609375
126, 222381833, -5.347469329833984, 2.5298357009887695, 7.856619358062744, -2.4107954502105713, -1.273758053779602, -2.60410737991333, 0.0693359375, -0.19287109375, -0.7998046875
127, 222398500, -5.33756685256958, 2.525930881500244, 7.858905792236328, -2.474775791168213, -1.3770155906677246, -2.5124523639678955, 0.06884765625, -0.19140625, -0.80029296875
128, 222415167, -5.358951091766357, 2.5214953422546387, 7.860720157623291, -2.474135637283325, -1.4823224544525146, -2.482421636581421, 0.0693359375, -0.1943359375, -0.799072265625
129, 222431834, -5.359707832336426, 2.5011026859283447, 7.884821891784668, -2.4469220638275146, -1.4494996070861816, -2.4132416248321533, 0.0703125, -0.1943359375, -0.8017578125
130, 222448501, -5.354198932647705, 2.5130300521850586, 7.862502574920654, -2.418120861053467, -1.5762696266174316, -2.2712063789367676, 0.0673828125, -0.19384765625, -0.79931640625
131, 222465168, -5.324264049530029, 2.5304484367370605, 7.863868713378906, -2.363847255706787, -1.5431009531021118, -2.2514586448669434, 0.06787109375, -0.19384765625, -0.798583984375
132, 222481835, -5.322649955749512, 2.5387470722198486, 7.862907409667969, -2.41689133644104, -1.4010275602340698, -2.3778576850891113, 0.06689453125, -0.1953125, -0.80029296875
133, 222498502, -5.340688228607178, 2.5399374961853027, 7.870523452758789, -2.448330879211426, -1.3858904838562012, -2.3447020053863525, 0.06982421875, -0.193359375, -0.800048828125
134, 222515169, -5.335434436798096, 2.524177074432373, 7.877573490142822, -2.470357656478882, -1.1098238229751587, -2.457282543182373, 0.06982421875, -0.1923828125, -0.80029296875
135, 222531836, -5.3394927978515625, 2.5001354217529297, 7.860226154327393, -2.2844221591949463, -1.2257853746414185, -2.417480230331421, 0.06787109375, -0.193359375, -0.798828125
136, 222548503, -5.336956977844238, 2.5223147869110107, 7.83655309677124, -2.2914786338806152, -1.242958664894104, -2.1582155227661133, 0.06982421875, -0.19384765625, -0.799072265625
137, 222565170, -5.3298444747924805, 2.5441339015960693, 7.855758190155029, -2.248833656311035, -1.2557778358459473, -2.2701432704925537, 0.068359375, -0.193359375, -0.799072265625
138, 222581837, -5.3524322509765625, 2.526156187057495, 7.853374481201172, -2.3546009063720703, -1.3359583616256714, -2.3421788215637207, 0.06787109375, -0.1943359375, -0.798095703125
139, 222598504, -5.364290237426758, 2.5171592235565186, 7.851566314697266, -2.272064208984375, -1.2792774438858032, -2.3680477142333984, 0.0693359375, -0.193359375, -0.80126953125
140, 222615171, -5.341082572937012, 2.5241470336914062, 7.843574523925781, -2.1429760456085205, -1.2792518138885498, -2.1610076427459717, 0.07080078125, -0.1943359375, -0.798095703125
141, 222631838, -5.33857536315918, 2.5290510654449463, 7.863765716552734, -2.275521993637085, -1.265638828277588, -2.2522270679473877, 0.07080078125, -0.19140625, -0.796630859375
142, 222648505, -5.348832607269287, 2.533710241317749, 7.851553916931152, -2.1428864002227783, -1.1470133066177368, -2.24878191947937, 0.06884765625, -0.1943359375, -0.798583984375
143, 222665172, -5.351222038269043, 2.5320420265197754, 7.86619234085083, -2.175901412963867, -1.3190797567367554, -2.2192506790161133, 0.06982421875, -0.19482421875, -0.799072265625
144, 222681839, -5.335793972015381, 2.5459272861480713, 7.847155570983887, -2.2038190364837646, -1.332756757736206, -2.2728452682495117, 0.06787109375, -0.19384765625, -0.797607421875
145, 222698506, -5.332085609436035, 2.5436251163482666, 7.861800193786621, -2.32004976272583, -1.3097822666168213, -2.359287977218628, 0.0703125, -0.193359375, -0.799072265625
146, 222715173, -5.351778030395508, 2.542837381362915, 7.85747766494751, -2.357956647872925, -1.281774878501892, -2.3995132446289062, 0.0693359375, -0.1943359375, -0.798583984375
147, 222731840, -5.362066268920898, 2.529754400253296, 7.835066795349121, -2.4787840843200684, -1.4593092203140259, -2.3433313369750977, 0.0703125, -0.1943359375, -0.799072265625
148, 222748507, -5.35176420211792, 2.536822557449341, 7.862555980682373, -2.439059019088745, -1.6154059171676636, -2.2692854404449463, 0.06884765625, -0.19580078125, -0.798095703125
149, 222765174, -5.334260940551758, 2.543572187423706, 7.856054782867432, -2.619680166244507, -1.6567577123641968, -2.330282211303711, 0.06982421875, -0.19384765625, -0.800537109375
150, 222781841, -5.331751823425293, 2.546050548553467, 7.827536582946777, -2.5937600135803223, -1.6056091785430908, -2.3104066848754883, 0.06640625, -0.19580078125, -0.80029296875
151, 222798508, -5.341061592102051, 2.536499500274658, 7.876029968261719, -2.581683397293091, -1.525902271270752, -2.4679501056671143, 0.06689453125, -0.1943359375, -0.7998046875
152, 222815175, -5.328610420227051, 2.5472381114959717, 7.850752353668213, -2.5562119483947754, -1.4238357543945312, -2.4438233375549316, 0.0693359375, -0.1943359375, -0.798095703125
153, 222831842, -5.359527111053467, 2.541499137878418, 7.848331451416016, -2.6690359115600586, -1.6130880117416382, -2.466055154800415, 0.06787109375, -0.19384765625, -0.79931640625
154, 222848509, -5.356235504150391, 2.531679153442383, 7.840398788452148, -2.6601223945617676, -1.7084057331085205, -2.3818788528442383, 0.07080078125, -0.19384765625, -0.797607421875
155, 222865176, -5.327540397644043, 2.5366899967193604, 7.867042541503906, -2.6834559440612793, -1.6738542318344116, -2.351412534713745, 0.06884765625, -0.19580078125, -0.798583984375
156, 222881843, -5.335585117340088, 2.536137104034424, 7.853453636169434, -2.824004650115967, -1.7108770608901978, -2.471202850341797, 0.06884765625, -0.193359375, -0.80029296875
157, 222898510, -5.3339972496032715, 2.5267391204833984, 7.874205112457275, -2.758104085922241, -1.7165507078170776, -2.411461591720581, 0.06884765625, -0.193359375, -0.7998046875
158, 222915177, -5.3455023765563965, 2.526885747909546, 7.8633856773376465, -2.8211491107940674, -1.9369219541549683, -2.3119943141937256, 0.06787109375, -0.1923828125, -0.797607421875
159, 222931844, -5.333627223968506, 2.517516851425171, 7.874364376068115, -2.7990450859069824, -1.9134351015090942, -2.2937963008880615, 0.06884765625, -0.19384765625, -0.798583984375
160, 222948511, -5.325319290161133, 2.536452054977417, 7.87145471572876, -2.678832530975342, -1.8676782846450806, -2.130221366882324, 0.06640625, -0.193359375, -0.797607421875
161, 222965178, -5.342517375946045, 2.5257513523101807, 7.86995267868042, -2.6254937648773193, -1.7574666738510132, -2.2362449169158936, 0.0673828125, -0.1953125, -0.8017578125
162, 222981845, -5.344113349914551, 2.5258519649505615, 7.86497688293457, -2.447382688522339, -1.7240163087844849, -1.9228476285934448, 0.0673828125, -0.19384765625, -0.798583984375
163, 222998512, -5.325536727905273, 2.527609348297119, 7.867404460906982, -2.325146436691284, -1.813071846961975, -1.9177894592285156, 0.06640625, -0.1943359375, -0.79931640625
164, 223015179, -5.299685955047607, 2.5515120029449463, 7.857026100158691, -2.355830430984497, -1.7780208587646484, -1.898310661315918, 0.06640625, -0.19580078125, -0.7998046875
165, 223031846, -5.316892623901367, 2.559683322906494, 7.842519760131836, -2.463186264038086, -1.6901692152023315, -2.0596964359283447, 0.0654296875, -0.19580078125, -0.798828125
166, 223048513, -5.312409400939941, 2.541830062866211, 7.868499279022217, -2.4456028938293457, -1.7093274593353271, -2.225397825241089, 0.068359375, -0.19384765625, -0.798583984375
167, 223065180, -5.311733722686768, 2.5441477298736572, 7.878936767578125, -2.5278708934783936, -1.6746609210968018, -2.244837999343872, 0.06787109375, -0.1943359375, -0.79931640625
168, 223081847, -5.3116374015808105, 2.570422887802124, 7.895511150360107, -2.5471959114074707, -1.6185306310653687, -2.3154520988464355, 0.06640625, -0.19580078125, -0.80078125
169, 223098514, -5.305968284606934, 2.5621578693389893, 7.845052719116211, -2.6265828609466553, -1.6389312744140625, -2.432246446609497, 0.06640625, -0.193359375, -0.79833984375
170, 223115181, -5.331607818603516, 2.5361886024475098, 7.849816799163818, -2.6216397285461426, -1.6528518199920654, -2.4653635025024414, 0.06591796875, -0.1953125, -0.80126953125
171, 223131848, -5.324039936065674, 2.5270321369171143, 7.8627777099609375, -2.5651891231536865, -1.6374201774597168, -2.366741895675659, 0.06640625, -0.19287109375, -0.79931640625
172, 223148515, -5.309009552001953, 2.5364325046539307, 7.876746654510498, -2.459369659423828, -1.5599157810211182, -2.277097225189209, 0.0654296875, -0.19580078125, -0.79931640625
173, 223165182, -5.327787399291992, 2.54001784324646, 7.883331298828125, -2.3422048091888428, -1.4713343381881714, -2.275381326675415, 0.06591796875, -0.19482421875, -0.80029296875
174, 223181849, -5.334076404571533, 2.5494067668914795, 7.858922004699707, -2.3970415592193604, -1.6656835079193115, -2.1445000171661377, 0.068359375, -0.19189453125, -0.7998046875
175, 223198516, -5.3209710121154785, 2.5376594066619873, 7.85398530960083, -2.4031240940093994, -1.761065125465393, -2.191704273223877, 0.06640625, -0.1923828125, -0.8017578125
176, 223215183, -5.3005900382995605, 2.5590713024139404, 7.863741874694824, -2.398745059967041, -1.6360753774642944, -2.077446222305298, 0.064697265625, -0.1943359375, -0.798828125
177, 223231850, -5.284797191619873, 2.5569846630096436, 7.855324745178223, -2.4375224113464355, -1.5770379304885864, -2.2364113330841064, 0.0654296875, -0.193359375, -0.79931640625
178, 223248517, -5.3083271980285645, 2.5589330196380615, 7.871851921081543, -2.602954864501953, -1.5096126794815063, -2.4017927646636963, 0.06591796875, -0.1943359375, -0.80029296875
179, 223265184, -5.314229488372803, 2.567255973815918, 7.878926753997803, -2.7530324459075928, -1.559416651725769, -2.5643436908721924, 0.06640625, -0.1953125, -0.7998046875
180, 223281851, -5.306610584259033, 2.5454254150390625, 7.876387596130371, -2.732478141784668, -1.5486845970153809, -2.6983237266540527, 0.0654296875, -0.1943359375, -0.80126953125
181, 223298518, -5.31712007522583, 2.5440430641174316, 7.858693599700928, -2.854689121246338, -1.703961730003357, -2.7714993953704834, 0.06689453125, -0.1943359375, -0.80126953125
182, 223315185, -5.2924723625183105, 2.544102191925049, 7.872836589813232, -2.855598211288452, -1.5563684701919556, -2.760472536087036, 0.06689453125, -0.1953125, -0.80517578125
183, 223331852, -5.311254978179932, 2.5452117919921875, 7.890117168426514, -2.7598836421966553, -1.3919093608856201, -2.754812002182007, 0.06689453125, -0.1943359375, -0.80078125
184, 223348519, -5.309573173522949, 2.5250134468078613, 7.888216495513916, -2.6349706649780273, -1.2050777673721313, -2.763584852218628, 0.06591796875, -0.19287109375, -0.79931640625
185, 223365186, -5.337011814117432, 2.527998685836792, 7.856383800506592, -2.545928478240967, -1.2203686237335205, -2.6392738819122314, 0.063720703125, -0.1953125, -0.798828125
186, 223381853, -5.32314395904541, 2.5365002155303955, 7.858028888702393, -2.524106025695801, -1.1765577793121338, -2.5886502265930176, 0.06591796875, -0.19384765625, -0.8017578125
187, 223398520, -5.308370590209961, 2.5518274307250977, 7.863085746765137, -2.4069154262542725, -1.121925950050354, -2.522620439529419, 0.0654296875, -0.1943359375, -0.79931640625
188, 223415187, -5.308236122131348, 2.5403854846954346, 7.874990463256836, -2.35351300239563, -1.0771292448043823, -2.495727300643921, 0.06884765625, -0.1953125, -0.800537109375
189, 223431854, -5.305394649505615, 2.5536930561065674, 7.88554048538208, -2.3178083896636963, -1.1613695621490479, -2.5307652950286865, 0.06591796875, -0.1943359375, -0.80126953125
190, 223448521, -5.319857597351074, 2.528008460998535, 7.857826232910156, -2.326068878173828, -1.173356294631958, -2.5199055671691895, 0.06640625, -0.1953125, -0.80078125
191, 223465188, -5.311631202697754, 2.534480571746826, 7.854997158050537, -2.3960423469543457, -1.2365554571151733, -2.4298510551452637, 0.06591796875, -0.19384765625, -0.8017578125
192, 223481855, -5.3216471672058105, 2.565267324447632, 7.870891571044922, -2.439443349838257, -1.3076947927474976, -2.460432767868042, 0.0673828125, -0.1953125, -0.799072265625
193, 223498522, -5.346992015838623, 2.5345709323883057, 7.880952835083008, -2.368547201156616, -1.4323519468307495, -2.5147573947906494, 0.06640625, -0.19580078125, -0.79931640625
194, 223515189, -5.33029842376709, 2.553814649581909, 7.860236167907715, -2.337324857711792, -1.3974416255950928, -2.474775552749634, 0.06640625, -0.19482421875, -0.79931640625
195, 223531856, -5.331045627593994, 2.537689447402954, 7.855660438537598, -2.243685245513916, -1.431045413017273, -2.3586349487304688, 0.06787109375, -0.19580078125, -0.798095703125
196, 223548523, -5.327230453491211, 2.5404343605041504, 7.853360652923584, -2.2784290313720703, -1.4488465785980225, -2.3968496322631836, 0.06689453125, -0.1943359375, -0.7998046875
197, 223565190, -5.341092586517334, 2.5338640213012695, 7.859283924102783, -2.2712576389312744, -1.4960891008377075, -2.315823793411255, 0.064453125, -0.19482421875, -0.80078125
198, 223581857, -5.316074848175049, 2.5341062545776367, 7.87457799911499, -2.14863657951355, -1.463688850402832, -2.2837817668914795, 0.06640625, -0.19482421875, -0.7998046875
199, 223598524, -5.309922695159912, 2.5535356998443604, 7.861300468444824, -2.0686094760894775, -1.3446025848388672, -2.275047779083252, 0.064208984375, -0.193359375, -0.8017578125
200, 223615191, -5.31369686126709, 2.5542986392974854, 7.871100425720215, -1.987007737159729, -1.27822744846344, -2.223438262939453, 0.0673828125, -0.193359375, -0.798828125
201, 223631858, -5.311099529266357, 2.5821733474731445, 7.8795647621154785, -1.9999547004699707, -1.2833753824234009, -2.2586429119110107, 0.06689453125, -0.19775390625, -0.799072265625
202, 223648525, -5.329185485839844, 2.5722665786743164, 7.865494251251221, -2.123971700668335, -1.3293375968933105, -2.3440873622894287, 0.06591796875, -0.1953125, -0.79833984375
203, 223665192, -5.326175689697266, 2.54569935798645, 7.865542888641357, -2.196455478668213, -1.3473432064056396, -2.4235246181488037, 0.06640625, -0.19482421875, -0.80078125
204, 223681859, -5.322657108306885, 2.5527637004852295, 7.879626274108887, -2.216651439666748, -1.359893560409546, -2.4808332920074463, 0.06591796875, -0.197265625, -0.7998046875
205, 223698526, -5.309885025024414, 2.56256103515625, 7.877066135406494, -2.3212661743164062, -1.268315315246582, -2.4563863277435303, 0.0654296875, -0.1962890625, -0.80029296875
206, 223715193, -5.3200225830078125, 2.5792012214660645, 7.869602203369141, -2.3201262950897217, -1.1540697813034058, -2.4389564990997314, 0.06689453125, -0.19482421875, -0.798828125
207, 223731860, -5.330418109893799, 2.5747392177581787, 7.858777046203613, -2.2878670692443848, -1.1685664653778076, -2.43026065826416, 0.0673828125, -0.19580078125, -0.799560546875
208, 223748527, -5.3220601081848145, 2.5650854110717773, 7.85366678237915, -2.4255480766296387, -1.2552911043167114, -2.56402325630188, 0.06640625, -0.19677734375, -0.80029296875
209, 223765194, -5.332924842834473, 2.5527725219726562, 7.857799530029297, -2.325223207473755, -1.2663943767547607, -2.4414923191070557, 0.0673828125, -0.19580078125, -0.798583984375
210, 223781861, -5.3367228507995605, 2.557070255279541, 7.8543314933776855, -2.3584301471710205, -1.3575884103775024, -2.4730727672576904, 0.0654296875, -0.19482421875, -0.80029296875
211, 223798528, -5.308167457580566, 2.570091485977173, 7.893285274505615, -2.402317762374878, -1.3563717603683472, -2.4700889587402344, 0.06640625, -0.1953125, -0.802734375
212, 223815195, -5.329090595245361, 2.555807590484619, 7.88646936416626, -2.42864727973938, -1.3059786558151245, -2.491769790649414, 0.0673828125, -0.19580078125, -0.799560546875
213, 223831862, -5.337479114532471, 2.5532617568969727, 7.866939067840576, -2.317859411239624, -1.2160780429840088, -2.4273922443389893, 0.068359375, -0.19580078125, -0.80029296875
214, 223848529, -5.338900089263916, 2.5756053924560547, 7.857429504394531, -2.294347047805786, -1.210161566734314, -2.355523109436035, 0.06689453125, -0.1982421875, -0.799560546875
215, 223865196, -5.31423807144165, 2.5803167819976807, 7.846644878387451, -2.2895190715789795, -1.189658522605896, -2.403021812438965, 0.0673828125, -0.1962890625, -0.799560546875
216, 223881863, -5.336521148681641, 2.5671799182891846, 7.8755202293396, -2.272089719772339, -1.2355437278747559, -2.352872133255005, 0.06640625, -0.19482421875, -0.79931640625
217, 223898530, -5.3151984214782715, 2.5665032863616943, 7.849766731262207, -2.2515738010406494, -1.285654902458191, -2.2961528301239014, 0.0673828125, -0.197265625, -0.798583984375
218, 223915197, -5.335015773773193, 2.5811755657196045, 7.857420444488525, -2.233337640762329, -1.285219669342041, -2.3385417461395264, 0.0673828125, -0.197265625, -0.799560546875
219, 223931864, -5.34572172164917, 2.5439469814300537, 7.864892482757568, -2.287111520767212, -1.4670313596725464, -2.297523021697998, 0.06689453125, -0.19775390625, -0.799560546875
220, 223948531, -5.342531681060791, 2.5668516159057617, 7.851359844207764, -2.455259323120117, -1.5794198513031006, -2.2447099685668945, 0.068359375, -0.1962890625, -0.798583984375
221, 223965198, -5.319831848144531, 2.567000150680542, 7.850439071655273, -2.513822555541992, -1.6236658096313477, -2.2823092937469482, 0.06494140625, -0.19677734375, -0.80029296875
222, 223981865, -5.332027435302734, 2.5721046924591064, 7.850220203399658, -2.555251121520996, -1.6349738836288452, -2.3947362899780273, 0.0654296875, -0.19775390625, -0.8017578125
223, 223998532, -5.3157219886779785, 2.569518804550171, 7.881111145019531, -2.5148086547851562, -1.646768569946289, -2.2614989280700684, 0.0673828125, -0.1962890625, -0.799560546875
224, 224015199, -5.310179710388184, 2.5697739124298096, 7.867398738861084, -2.553279161453247, -1.5715569257736206, -2.306347131729126, 0.06494140625, -0.19580078125, -0.798828125
225, 224031866, -5.34266996383667, 2.5768184661865234, 7.849476337432861, -2.4655680656433105, -1.6028428077697754, -2.27467679977417, 0.0693359375, -0.19775390625, -0.799072265625
226, 224048533, -5.324594497680664, 2.585726499557495, 7.868098735809326, -2.610971689224243, -1.7229408025741577, -2.257234573364258, 0.06640625, -0.19775390625, -0.80029296875
227, 224065200, -5.309056282043457, 2.58284592628479, 7.872591018676758, -3.035156488418579, -1.5105987787246704, -2.1068625450134277, 0.06640625, -0.19677734375, -0.8017578125
228, 224081867, -5.302797794342041, 2.5780982971191406, 7.872247219085693, -2.7264723777770996, -1.5668572187423706, -2.3366212844848633, 0.06591796875, -0.1962890625, -0.798095703125
229, 224098534, -5.317926406860352, 2.5643975734710693, 7.850744724273682, -2.6350600719451904, -1.5904717445373535, -2.412921190261841, 0.0654296875, -0.19482421875, -0.79736328125
230, 224115201, -5.315918445587158, 2.5836708545684814, 7.859668731689453, -2.713550567626953, -1.5249420404434204, -2.467181921005249, 0.06787109375, -0.1962890625, -0.799072265625
231, 224131868, -5.292077541351318, 2.567627429962158, 7.858888149261475, -2.667691230773926, -1.4651236534118652, -2.4226672649383545, 0.0654296875, -0.19580078125, -0.80078125
232, 224148535, -5.299806118011475, 2.5521347522735596, 7.888527870178223, -2.645932674407959, -1.3217562437057495, -2.4534149169921875, 0.06787109375, -0.19775390625, -0.799560546875
233, 224165202, -5.311670303344727, 2.5653445720672607, 7.859436511993408, -2.613955497741699, -1.2703644037246704, -2.4798474311828613, 0.06396484375, -0.197265625, -0.8017578125
234, 224181869, -5.3123369216918945, 2.5851025581359863, 7.874405860900879, -2.554905414581299, -1.3474971055984497, -2.4321694374084473, 0.063720703125, -0.19384765625, -0.798828125
235, 224198536, -5.307205677032471, 2.563119649887085, 7.848913669586182, -2.526693105697632, -1.4532264471054077, -2.4977381229400635, 0.068359375, -0.19482421875, -0.80078125
236, 224215203, -5.329408645629883, 2.535691738128662, 7.870238304138184, -2.3737213611602783, -1.4567992687225342, -2.34842848777771, 0.06689453125, -0.1962890625, -0.798583984375
237, 224231870, -5.3113017082214355, 2.5828676223754883, 7.86388635635376, -2.404148817062378, -1.4566709995269775, -2.2302770614624023, 0.0693359375, -0.1962890625, -0.800048828125
238, 224248537, -5.308045864105225, 2.5889410972595215, 7.849571228027344, -2.3913168907165527, -1.391064167022705, -2.3483388423919678, 0.06591796875, -0.19775390625, -0.798583984375
239, 224265204, -5.311279296875, 2.5769286155700684, 7.874191761016846, -2.435959815979004, -1.3145463466644287, -2.459779977798462, 0.0654296875, -0.1962890625, -0.80029296875
240, 224281871, -5.3276286125183105, 2.5490570068359375, 7.876800537109375, -2.4303510189056396, -1.3724950551986694, -2.4324252605438232, 0.06689453125, -0.1953125, -0.798583984375
241, 224298538, -5.321017265319824, 2.5875988006591797, 7.847469806671143, -2.357994794845581, -1.427767276763916, -2.3370819091796875, 0.065185546875, -0.19677734375, -0.796142578125
242, 224315205, -5.3082661628723145, 2.579737901687622, 7.859883785247803, -2.4611244201660156, -1.4066623449325562, -2.296678066253662, 0.068359375, -0.19677734375, -0.799560546875
243, 224331872, -5.304693698883057, 2.5831234455108643, 7.860938549041748, -2.4181976318359375, -1.368166446685791, -2.4434902667999268, 0.06640625, -0.19580078125, -0.80126953125
244, 224348539, -5.332815647125244, 2.5775346755981445, 7.882274150848389, -2.4241394996643066, -1.3400307893753052, -2.3788561820983887, 0.064697265625, -0.197265625, -0.797607421875
245, 224365206, -5.330602169036865, 2.583548069000244, 7.872045993804932, -2.3940443992614746, -1.3884003162384033, -2.367522716522217, 0.06689453125, -0.1982421875, -0.798583984375
246, 224381873, -5.339354038238525, 2.5555903911590576, 7.868997097015381, -2.590071678161621, -1.4785443544387817, -2.325108051300049, 0.06640625, -0.1962890625, -0.798828125
247, 224398540, -5.3228302001953125, 2.583578586578369, 7.846746921539307, -2.6185147762298584, -1.6815892457962036, -2.210209846496582, 0.064453125, -0.197265625, -0.79931640625
248, 224415207, -5.326914310455322, 2.588266611099243, 7.861013412475586, -2.777646541595459, -1.9442728757858276, -2.1488802433013916, 0.0673828125, -0.1962890625, -0.80029296875
249, 224431874, -5.328352928161621, 2.591747760772705, 7.872915267944336, -2.94470477104187, -2.0739240646362305, -2.2369747161865234, 0.06640625, -0.197265625, -0.798095703125
250, 224448541, -5.286782264709473, 2.5981273651123047, 7.871732234954834, -2.9107038974761963, -1.8927912712097168, -2.3168606758117676, 0.06591796875, -0.19580078125, -0.797607421875
251, 224465208, -5.285521984100342, 2.5931003093719482, 7.874671936035156, -2.994252920150757, -1.7835019826889038, -2.5179333686828613, 0.063720703125, -0.1962890625, -0.798828125
252, 224481875, -5.31148624420166, 2.5755584239959717, 7.860281467437744, -3.065225124359131, -1.643067479133606, -2.69549298286438, 0.064208984375, -0.19580078125, -0.79931640625
253, 224498542, -5.332036018371582, 2.5364396572113037, 7.875167369842529, -2.968153238296509, -1.643375039100647, -2.4965851306915283, 0.06689453125, -0.1962890625, -0.7998046875
254, 224515209, -5.333619594573975, 2.5571746826171875, 7.883884429931641, -2.775674343109131, -1.7407289743423462, -2.2897117137908936, 0.06689453125, -0.19677734375, -0.797119140625
255, 224531876, -5.31613302230835, 2.5680320262908936, 7.852686405181885, -2.8960278034210205, -1.9504839181900024, -2.166783094406128, 0.063720703125, -0.19677734375, -0.79736328125
256, 224548543, -5.301745891571045, 2.5848731994628906, 7.880988121032715, -2.9426300525665283, -1.9678492546081543, -2.183687210083008, 0.063720703125, -0.19775390625, -0.7998046875
257, 224565210, -5.285373210906982, 2.564216375350952, 7.872095584869385, -2.883324146270752, -1.8801257610321045, -2.283961296081543, 0.064697265625, -0.19677734375, -0.79931640625
258, 224581877, -5.304341793060303, 2.5745794773101807, 7.887678623199463, -2.710003137588501, -1.7084569931030273, -2.2595014572143555, 0.064208984375, -0.1953125, -0.80029296875
259, 224598544, -5.299020767211914, 2.573664903640747, 7.894973278045654, -2.6265954971313477, -1.6621747016906738, -2.1147382259368896, 0.063232421875, -0.19580078125, -0.79931640625
260, 224615211, -5.314464092254639, 2.562696695327759, 7.894308567047119, -2.6192188262939453, -1.5238276720046997, -2.034416913986206, 0.06591796875, -0.197265625, -0.798095703125
261, 224631878, -5.321495056152344, 2.529207706451416, 7.855315208435059, -2.60131573677063, -1.716729760169983, -1.8914467096328735, 0.065185546875, -0.19580078125, -0.79736328125
262, 224648545, -5.3217082023620605, 2.553769111633301, 7.852632999420166, -2.461392879486084, -1.7775083780288696, -1.6932810544967651, 0.06494140625, -0.1943359375, -0.80126953125
263, 224665212, -5.221227169036865, 2.6050806045532227, 7.882798194885254, -2.5349783897399902, -1.8334851264953613, -1.8964921236038208, 0.062744140625, -0.1962890625, -0.7998046875
264, 224681879, -5.259241580963135, 2.5651707649230957, 7.889230728149414, -2.4395711421966553, -1.47330641746521, -1.995741367340088, 0.0654296875, -0.1962890625, -0.7998046875
265, 224698546, -5.297524452209473, 2.5834462642669678, 7.879626750946045, -2.3146708011627197, -1.3450891971588135, -1.9695014953613281, 0.061767578125, -0.19677734375, -0.80029296875
266, 224715213, -5.326754093170166, 2.5792853832244873, 7.866833209991455, -2.357008695602417, -1.516271710395813, -2.00429630279541, 0.064208984375, -0.197265625, -0.79931640625
267, 224731880, -5.301863670349121, 2.5730698108673096, 7.873318195343018, -2.2970492839813232, -1.703487753868103, -1.9686942100524902, 0.0654296875, -0.19580078125, -0.7978515625
268, 224748547, -5.293435573577881, 2.5682456493377686, 7.886902332305908, -2.263521909713745, -1.6695765256881714, -1.8759125471115112, 0.064697265625, -0.19677734375, -0.79931640625
269, 224765214, -5.273890972137451, 2.5602200031280518, 7.885824203491211, -1.9918229579925537, -1.5164127349853516, -1.753394365310669, 0.06396484375, -0.1962890625, -0.80224609375
270, 224781881, -5.228830337524414, 2.588871479034424, 7.871849060058594, -1.8546030521392822, -1.4715651273727417, -1.9053163528442383, 0.062744140625, -0.19775390625, -0.7998046875
271, 224798548, -5.266228199005127, 2.578061819076538, 7.877359867095947, -1.765970230102539, -1.2596453428268433, -2.0680079460144043, 0.063720703125, -0.19677734375, -0.7998046875
272, 224815215, -5.295081615447998, 2.5789732933044434, 7.839653968811035, -1.6493552923202515, -1.1635591983795166, -1.9852017164230347, 0.061279296875, -0.197265625, -0.79931640625
273, 224831882, -5.305555820465088, 2.5704164505004883, 7.84162712097168, -1.5385037660598755, -1.3525426387786865, -1.8024166822433472, 0.06591796875, -0.1962890625, -0.79931640625
274, 224848549, -5.3242506980896, 2.5780210494995117, 7.8259100914001465, -1.3903981447219849, -1.4944497346878052, -1.4910047054290771, 0.062255859375, -0.197265625, -0.798828125
275, 224865216, -5.230888366699219, 2.572715997695923, 7.894864082336426, -1.9907984733581543, -1.339928388595581, -1.3649520874023438, 0.061767578125, -0.197265625, -0.796875
276, 224881883, -5.248044490814209, 2.6254959106445312, 7.856971263885498, -0.942432165145874, -1.5925977230072021, -1.4421486854553223, 0.062744140625, -0.19775390625, -0.79931640625
277, 224898550, -5.298668384552002, 2.616934061050415, 7.8213911056518555, -1.6609963178634644, -1.6537737846374512, -1.302854061126709, 0.064208984375, -0.197265625, -0.7998046875
278, 224915217, -5.279467582702637, 2.6601274013519287, 7.835073947906494, -2.2978947162628174, -2.346315383911133, -1.4473609924316406, 0.0654296875, -0.20068359375, -0.798583984375
279, 224931884, -5.350930690765381, 2.581266403198242, 7.763256072998047, -2.833585023880005, -3.461390495300293, -1.6500729322433472, 0.064697265625, -0.197265625, -0.798828125
280, 224948551, -5.306206226348877, 2.6322975158691406, 7.775898456573486, -3.695580244064331, -4.694180488586426, -1.7120426893234253, 0.061279296875, -0.19970703125, -0.79736328125
281, 224965218, -5.244802951812744, 2.706362724304199, 7.776068687438965, -3.8126304149627686, -5.490147590637207, -1.5707119703292847, 0.059326171875, -0.19677734375, -0.79931640625
282, 224981885, -5.1467790603637695, 2.661377191543579, 7.936543941497803, -3.6171157360076904, -4.548854351043701, -1.6232690811157227, 0.059814453125, -0.19677734375, -0.80029296875
283, 224998552, -5.143557548522949, 2.503075361251831, 8.026138305664062, -3.017073392868042, -2.3706729412078857, -1.5436773300170898, 0.061767578125, -0.1982421875, -0.8017578125
284, 225015219, -5.150961399078369, 2.5466015338897705, 8.008574485778809, -1.7469269037246704, -1.1058282852172852, -1.6560914516448975, 0.060302734375, -0.1982421875, -0.80029296875
285, 225031886, -5.233053207397461, 2.585979461669922, 7.959682464599609, -1.178376317024231, -0.4286797344684601, -1.8726086616516113, 0.060302734375, -0.1982421875, -0.7978515625
286, 225048553, -5.236952304840088, 2.540818691253662, 7.918107986450195, -1.269467830657959, 0.40035849809646606, -1.7264240980148315, 0.061767578125, -0.19873046875, -0.798828125
287, 225065220, -5.299973964691162, 2.470803737640381, 7.919365406036377, 0.05439496785402298, 0.5357599854469299, -1.190926432609558, 0.060302734375, -0.19873046875, -0.802001953125
288, 225081887, -5.293067932128906, 2.55336856842041, 7.907692909240723, 0.6783971190452576, 0.9161341190338135, -0.9489120244979858, 0.059326171875, -0.19921875, -0.79931640625
289, 225098554, -5.258635520935059, 2.708892345428467, 7.884403228759766, 1.6910465955734253, 1.531697154045105, -0.7559973001480103, 0.060791015625, -0.201171875, -0.798828125
290, 225115221, -5.2769246101379395, 2.722346782684326, 7.85554838180542, 2.0411975383758545, 2.0725858211517334, -0.7924697399139404, 0.062255859375, -0.20166015625, -0.795654296875
291, 225131888, -5.2585039138793945, 2.6811256408691406, 7.843299388885498, 2.1707849502563477, 2.2538468837738037, -1.002609133720398, 0.062744140625, -0.202880859375, -0.798828125
292, 225148555, -5.217548370361328, 2.7176146507263184, 7.891548156738281, 2.2386717796325684, 2.7125322818756104, -1.2309207916259766, 0.064453125, -0.203369140625, -0.798095703125
293, 225165222, -5.2290730476379395, 2.7292914390563965, 7.851126194000244, 2.266307830810547, 3.1311588287353516, -1.4461058378219604, 0.061767578125, -0.204345703125, -0.79833984375
294, 225181889, -5.2398881912231445, 2.7979114055633545, 7.812591552734375, 1.5307239294052124, 2.958350419998169, -2.2732300758361816, 0.064208984375, -0.205322265625, -0.797607421875
295, 225198556, -5.24159049987793, 2.855335235595703, 7.788398265838623, 0.4176470935344696, 2.3068013191223145, -3.5875966548919678, 0.06640625, -0.206298828125, -0.796630859375
296, 225215223, -5.242697715759277, 2.8541805744171143, 7.792172431945801, -0.8174678683280945, 1.536998987197876, -4.934709548950195, 0.06689453125, -0.207275390625, -0.7958984375
297, 225231890, -5.280255317687988, 2.7347261905670166, 7.796901226043701, -1.5835949182510376, 1.0148968696594238, -5.849710464477539, 0.06884765625, -0.206298828125, -0.798583984375
298, 225248557, -5.301819801330566, 2.700510025024414, 7.812195777893066, -1.9534554481506348, 0.9426435828208923, -5.966992378234863, 0.06884765625, -0.208740234375, -0.79736328125
299, 225265224, -5.272794723510742, 2.720126152038574, 7.797490119934082, -2.0481576919555664, 1.0653345584869385, -5.696404933929443, 0.068359375, -0.205810546875, -0.7958984375
300, 225281891, -5.325662612915039, 2.7104971408843994, 7.771986961364746, -1.9197486639022827, 1.4918694496154785, -5.792466163635254, 0.07080078125, -0.207275390625, -0.79443359375
301, 225298558, -5.311630725860596, 2.6740355491638184, 7.8296051025390625, -1.8214601278305054, 2.0835230350494385, -6.008509159088135, 0.072265625, -0.205810546875, -0.7958984375
302, 225315225, -5.389221668243408, 2.6057827472686768, 7.803765296936035, -1.176916480064392, 3.3323726654052734, -5.774486064910889, 0.072265625, -0.205810546875, -0.796875
303, 225331892, -5.413641452789307, 2.639979362487793, 7.780819892883301, -0.21540282666683197, 4.181266784667969, -5.427779674530029, 0.073974609375, -0.207763671875, -0.79736328125
304, 225348559, -5.405415058135986, 2.6092662811279297, 7.792384147644043, 0.9299652576446533, 4.7137556076049805, -5.252755641937256, 0.076416015625, -0.207763671875, -0.795654296875
305, 225365226, -5.378002166748047, 2.6641294956207275, 7.783839225769043, 2.2331395149230957, 5.8087239265441895, -5.2449951171875, 0.075439453125, -0.20947265625, -0.794677734375
306, 225381893, -5.303740978240967, 2.8065359592437744, 7.749107360839844, 3.0792689323425293, 7.5091023445129395, -6.025339126586914, 0.079345703125, -0.21044921875, -0.795166015625
307, 225398560, -5.386539936065674, 2.774468183517456, 7.734517574310303, 4.860121726989746, 11.227609634399414, -7.574320316314697, 0.08349609375, -0.21240234375, -0.79638671875
308, 225415227, -5.267102241516113, 2.874437093734741, 7.800904750823975, 6.290314197540283, 13.83851432800293, -10.750649452209473, 0.0869140625, -0.212890625, -0.792236328125
309, 225431894, -5.314068794250488, 2.8915200233459473, 7.858182430267334, 8.07679557800293, 18.067214965820312, -13.473895072937012, 0.092041015625, -0.2138671875, -0.791015625
310, 225448561, -5.077271461486816, 3.158951759338379, 8.234339714050293, 8.435818672180176, 23.73475456237793, -16.39643096923828, 0.097900390625, -0.217529296875, -0.786865234375
311, 225465228, -5.207203388214111, 2.8437564373016357, 8.159687042236328, 10.683931350708008, 35.01784133911133, -18.369829177856445, 0.10595703125, -0.218017578125, -0.7890625
312, 225481895, -5.19091796875, 2.6672892570495605, 8.24297046661377, 16.545387268066406, 49.8121223449707, -20.825010299682617, 0.116943359375, -0.22119140625, -0.783203125
313, 225498562, -5.423741340637207, 2.618318557739258, 8.109491348266602, 25.158042907714844, 68.01625061035156, -22.710359573364258, 0.135498046875, -0.225341796875, -0.780517578125
314, 225515229, -5.477630138397217, 3.040665864944458, 8.247313499450684, 32.79821014404297, 89.0032958984375, -26.145631790161133, 0.15576171875, -0.23291015625, -0.77001953125
315, 225531896, -5.761180877685547, 3.0743958950042725, 8.132993698120117, 35.752952575683594, 111.89701080322266, -32.803955078125, 0.181640625, -0.238037109375, -0.7607421875
316, 225548563, -5.802642822265625, 3.3584413528442383, 8.375373840332031, 36.815242767333984, 134.08790588378906, -41.714874267578125, 0.21240234375, -0.246826171875, -0.7490234375
317, 225565230, -5.952112197875977, 2.8942415714263916, 7.581971645355225, 41.55220031738281, 164.06893920898438, -50.31351852416992, 0.25146484375, -0.2509765625, -0.7333984375
318, 225581897, -6.419126510620117, 3.275540351867676, 7.827509880065918, 37.30048751831055, 195.3064422607422, -63.948848724365234, 0.29345703125, -0.252197265625, -0.714111328125
319, 225598564, -6.548117637634277, 3.616305351257324, 7.909587860107422, 31.663320541381836, 233.43064880371094, -82.35546112060547, 0.346435546875, -0.252197265625, -0.68212890625
320, 225615231, -7.888855934143066, 4.50937557220459, 8.629987716674805, 26.768775939941406, 270.8046569824219, -105.22916412353516, 0.404296875, -0.245361328125, -0.6484375
321, 225631898, -8.038215637207031, 4.9460039138793945, 7.818669319152832, 29.935243606567383, 301.51080322265625, -131.47315979003906, 0.468017578125, -0.23095703125, -0.603271484375
322, 225648565, -13.154231071472168, 6.534059524536133, 9.589312553405762, 40.185184478759766, 325.84271240234375, -150.74380493164062, 0.53369140625, -0.216552734375, -0.54638671875
323, 225665232, -14.99349594116211, 6.294810771942139, 11.043336868286133, 43.19374084472656, 318.6054382324219, -150.20924377441406, 0.594970703125, -0.196533203125, -0.482177734375
324, 225681899, -15.915669441223145, 5.846603870391846, 10.951075553894043, 50.147823333740234, 302.2856750488281, -141.6464385986328, 0.64599609375, -0.17578125, -0.4150390625
325, 225698566, -13.632933616638184, 6.246649742126465, 10.93686580657959, 50.38779830932617, 262.284912109375, -129.75294494628906, 0.683837890625, -0.15771484375, -0.3486328125
326, 225715233, -6.228449821472168, 4.887497901916504, 9.813111305236816, 36.66205978393555, 231.32884216308594, -137.4967803955078, 0.71875, -0.134033203125, -0.28759765625
327, 225731900, -1.5293070077896118, 4.491064548492432, 6.090857982635498, 15.850953102111816, 230.5602264404297, -149.28717041015625, 0.746337890625, -0.1015625, -0.232666015625
328, 225748567, -16.189157485961914, 9.400259971618652, 17.062976837158203, 44.63642120361328, 158.73365783691406, -90.40914916992188, 0.765625, -0.079833984375, -0.178466796875
329, 225765234, -12.151416778564453, 10.884438514709473, 16.98619842529297, 32.880123138427734, -20.057207107543945, -12.584673881530762, 0.77099609375, -0.078369140625, -0.16455078125
330, 225781901, -4.230787754058838, 8.49303150177002, 11.284815788269043, -15.851723670959473, -119.1196517944336, 32.99887466430664, 0.77490234375, -0.08642578125, -0.18505859375
331, 225798568, -0.8748796582221985, 4.826981067657471, 7.643915176391602, -51.60774230957031, -145.05166625976562, 52.977073669433594, 0.77001953125, -0.095703125, -0.2109375
332, 225815235, -0.7725497484207153, 2.7619099617004395, 6.572387218475342, -58.66096496582031, -146.57666015625, 68.15841674804688, 0.76708984375, -0.10791015625, -0.24462890625
333, 225831902, -2.315239191055298, 2.3508899211883545, 6.840390682220459, -54.431640625, -155.9610595703125, 86.60610961914062, 0.760009765625, -0.126220703125, -0.27880859375
334, 225848569, -3.5635011196136475, 2.652177572250366, 7.215713977813721, -57.38232421875, -174.8186492919922, 101.5543441772461, 0.747802734375, -0.14697265625, -0.322998046875
335, 225865236, -4.646871566772461, 2.8699705600738525, 7.539183616638184, -72.28646850585938, -199.62222290039062, 110.42984771728516, 0.73193359375, -0.166259765625, -0.380126953125
336, 225881903, -5.314882755279541, 2.442570686340332, 7.611333847045898, -86.16976928710938, -225.71710205078125, 116.40684509277344, 0.699462890625, -0.18505859375, -0.43896484375
337, 225898570, -5.627620697021484, 1.5961267948150635, 7.352811336517334, -89.95034790039062, -246.9236602783203, 121.04925537109375, 0.655517578125, -0.19921875, -0.50341796875
338, 225915237, -6.053727149963379, 1.0973299741744995, 6.967546463012695, -83.17938995361328, -260.0763244628906, 122.38220977783203, 0.602294921875, -0.20654296875, -0.5576171875
339, 225931904, -6.62066125869751, 0.9511464238166809, 7.079274654388428, -70.96542358398438, -266.5996398925781, 115.70452880859375, 0.544921875, -0.2080078125, -0.6083984375
340, 225948571, -7.404883861541748, 0.8719162940979004, 7.289866924285889, -55.547027587890625, -267.9564514160156, 101.15882873535156, 0.485595703125, -0.2099609375, -0.651611328125
341, 225965238, -8.105781555175781, 0.48069220781326294, 7.357126712799072, -34.285125732421875, -259.0280456542969, 79.80868530273438, 0.4287109375, -0.206787109375, -0.68408203125
342, 225981905, -9.592044830322266, 1.2162971496582031, 8.528640747070312, -7.875919342041016, -242.07669067382812, 52.391170501708984, 0.3779296875, -0.20849609375, -0.69775390625
343, 225998572, -13.001185417175293, 3.247954845428467, 10.756763458251953, 17.717655181884766, -236.06175231933594, 30.75423240661621, 0.34130859375, -0.210205078125, -0.7041015625
344, 226015239, -15.205580711364746, 4.877614974975586, 10.556425094604492, 39.207706451416016, -236.44773864746094, 25.053831100463867, 0.3203125, -0.22021484375, -0.710693359375
345, 226031906, -18.144161224365234, 6.301645278930664, 8.871588706970215, 53.7166862487793, -222.28721618652344, 32.574668884277344, 0.310546875, -0.23876953125, -0.732421875
346, 226048573, -21.60521697998047, 8.062704086303711, 6.463051795959473, 53.51156997680664, -205.02255249023438, 43.42000198364258, 0.2978515625, -0.27001953125, -0.785888671875
347, 226065240, -23.914581298828125, 8.980603218078613, 3.5862808227539062, 37.86686325073242, -190.44216918945312, 56.192134857177734, 0.252685546875, -0.304931640625, -0.845947265625
348, 226081907, -25.830490112304688, 5.84466552734375, 1.1609749794006348, 33.70506286621094, -182.8922576904297, 81.63347625732422, 0.182373046875, -0.3388671875, -0.89208984375
349, 226098574, -25.7093505859375, -0.42836499214172363, -1.9005002975463867, 59.41436767578125, -185.866455078125, 114.95476531982422, 0.09326171875, -0.373779296875, -0.907470703125
350, 226115241, -24.73249053955078, -7.519922256469727, -6.44677734375, 77.17848205566406, -169.21266174316406, 115.23048400878906, 0.0068359375, -0.408203125, -0.90087890625
351, 226131908, -22.76581573486328, -8.461898803710938, -9.746481895446777, 53.64207077026367, -125.83324432373047, 57.5534782409668, -0.05615234375, -0.42626953125, -0.886474609375
352, 226148575, -16.35661506652832, -6.790645599365234, -11.961886405944824, -30.80560874938965, -18.44675064086914, -63.606178283691406, -0.080810546875, -0.42578125, -0.88330078125
353, 226165242, -15.956665992736816, -4.614152908325195, -8.418139457702637, -48.02409744262695, 71.26835632324219, -142.60731506347656, -0.05908203125, -0.415771484375, -0.891845703125
354, 226181909, -11.344894409179688, 3.6896731853485107, 4.693777561187744, -46.307403564453125, 115.71588897705078, -138.42417907714844, -0.019287109375, -0.40771484375, -0.898681640625
355, 226198576, -6.629148960113525, 12.628485679626465, 12.916892051696777, -53.05978012084961, 80.573486328125, -72.59036254882812, 0.009521484375, -0.393310546875, -0.91015625
356, 226215243, 1.0738823413848877, 4.43228816986084, 4.138612270355225, -43.521751403808594, 106.68289947509766, -56.196022033691406, 0.031982421875, -0.385986328125, -0.916748046875
357, 226231910, -8.962955474853516, -1.7042429447174072, 10.441617965698242, -39.45588684082031, 142.6585693359375, -46.76232147216797, 0.068359375, -0.377685546875, -0.918212890625
358, 226248577, -15.269343376159668, -1.6788849830627441, 12.079916954040527, -22.748987197875977, 98.52677917480469, -47.96211242675781, 0.095947265625, -0.371826171875, -0.92138671875
359, 226265244, -16.707916259765625, 8.332923889160156, 12.864067077636719, -41.61585998535156, 38.95494842529297, -43.63277053833008, 0.113525390625, -0.360595703125, -0.925537109375
360, 226281911, -5.23803186416626, 0.6232449412345886, 8.485960006713867, -31.8825626373291, 5.887605667114258, -24.291080474853516, 0.115966796875, -0.3525390625, -0.9287109375
361, 226298578, -5.877137184143066, 2.6593499183654785, 8.021888732910156, -21.471805572509766, -2.5820226669311523, -15.06916618347168, 0.115966796875, -0.345458984375, -0.933837890625
362, 226315245, -6.153406620025635, 2.3143863677978516, 8.203850746154785, -12.888078689575195, -3.412511110305786, -8.029166221618652, 0.1171875, -0.343017578125, -0.934326171875
363, 226331912, -5.7941765785217285, 2.3037033081054688, 8.03124713897705, -9.218668937683105, -3.432218313217163, -6.081649303436279, 0.114013671875, -0.340576171875, -0.93505859375
364, 226348579, -5.385161399841309, 2.3150954246520996, 8.170815467834473, -4.385880470275879, -2.9298880100250244, -3.9363903999328613, 0.115966796875, -0.341064453125, -0.93798828125
365, 226365246, -5.469624996185303, 2.4522547721862793, 7.954919338226318, -0.3344378173351288, -1.2865002155303955, -2.1680891513824463, 0.114990234375, -0.338134765625, -0.935546875
366, 226381913, -5.343433856964111, 2.6429574489593506, 7.898990631103516, 2.330749034881592, 1.2181977033615112, -1.1523792743682861, 0.115966796875, -0.341552734375, -0.933837890625
367, 226398580, -5.4341959953308105, 2.8265442848205566, 7.783916473388672, 4.351719856262207, 2.6476681232452393, -1.331220269203186, 0.1171875, -0.341552734375, -0.935546875
368, 226415247, -5.4514923095703125, 2.8649826049804688, 7.792243957519531, 4.19929838180542, 3.1800663471221924, -2.05959415435791, 0.11767578125, -0.343505859375, -0.933349609375
369, 226431914, -5.440608501434326, 2.774961233139038, 7.729394912719727, 3.0845186710357666, 3.3516719341278076, -2.3365700244903564, 0.11865234375, -0.345947265625, -0.9306640625
370, 226448581, -5.340594291687012, 2.697089672088623, 7.79312801361084, 1.7987096309661865, 3.3077073097229004, -2.5013108253479004, 0.1201171875, -0.34619140625, -0.93212890625
371, 226465248, -5.363853931427002, 2.4545445442199707, 7.903691291809082, 2.0322461128234863, 3.8530917167663574, -2.1319756507873535, 0.1201171875, -0.35009765625, -0.93212890625
372, 226481915, -5.412478923797607, 2.5973153114318848, 7.893942356109619, 3.164020299911499, 4.486621856689453, -1.6239862442016602, 0.12158203125, -0.349609375, -0.931640625
373, 226498582, -5.389770984649658, 3.0033249855041504, 7.724564552307129, 2.3679776191711426, 3.6610608100891113, -2.643423080444336, 0.12109375, -0.3505859375, -0.9296875
374, 226515249, -5.498593807220459, 3.038384199142456, 7.646963119506836, -0.1011829674243927, 1.410907506942749, -5.459923267364502, 0.12548828125, -0.3525390625, -0.928466796875
375, 226531916, -5.4682111740112305, 3.0056538581848145, 7.612689971923828, -4.675534725189209, -1.7716691493988037, -7.6287431716918945, 0.125, -0.3515625, -0.929443359375
376, 226548583, -5.477625846862793, 2.8644630908966064, 7.712527751922607, -8.209977149963379, -3.5356433391571045, -9.297608375549316, 0.125, -0.349609375, -0.9326171875
377, 226565250, -5.403343200683594, 2.9398136138916016, 7.7633442878723145, -11.539019584655762, -5.456753253936768, -10.828228950500488, 0.1220703125, -0.34716796875, -0.9326171875
378, 226581917, -5.388917922973633, 3.0842833518981934, 7.701261043548584, -17.54248046875, -9.494250297546387, -13.690618515014648, 0.123046875, -0.34521484375, -0.93359375
379, 226598584, -5.4915995597839355, 2.732811212539673, 7.731339454650879, -20.185283660888672, -13.242313385009766, -14.457921028137207, 0.12158203125, -0.338623046875, -0.933349609375
380, 226615251, -5.374172210693359, 2.441763162612915, 7.871469497680664, -18.48534393310547, -12.30098819732666, -13.70767879486084, 0.119140625, -0.33447265625, -0.935546875
381, 226631918, -5.119866847991943, 2.394582509994507, 7.902464389801025, -13.847065925598145, -8.17634105682373, -12.420000076293945, 0.116455078125, -0.32861328125, -0.936767578125
382, 226648585, -5.1400275230407715, 2.3325116634368896, 7.993165016174316, -8.616836547851562, -2.5253500938415527, -11.698468208312988, 0.115966796875, -0.328125, -0.937255859375
383, 226665252, -5.0067138671875, 2.5581655502319336, 8.143866539001465, -3.6832244396209717, 4.757044315338135, -12.887757301330566, 0.11865234375, -0.32666015625, -0.937744140625
384, 226681919, -4.741873264312744, 2.9617202281951904, 8.268294334411621, -1.634233832359314, 14.546355247497559, -16.09969711303711, 0.123046875, -0.324951171875, -0.9375
385, 226698586, -4.769937515258789, 2.807159185409546, 8.415797233581543, -1.0155608654022217, 29.732526779174805, -20.033599853515625, 0.130615234375, -0.32568359375, -0.93310546875
386, 226715253, -4.5367655754089355, 2.029529333114624, 9.202299118041992, 4.980019569396973, 53.228240966796875, -21.749446868896484, 0.14501953125, -0.3232421875, -0.927734375
387, 226731920, -4.607549667358398, 2.8505985736846924, 9.435401916503906, 20.057464599609375, 82.96686553955078, -32.579322814941406, 0.167236328125, -0.327392578125, -0.9208984375
388, 226748587, -5.2384161949157715, 3.2431857585906982, 9.273869514465332, 30.6247615814209, 114.81975555419922, -51.127891540527344, 0.1962890625, -0.33203125, -0.909912109375
389, 226765254, -5.59055757522583, 3.9127888679504395, 9.55371379852295, 38.3156623840332, 150.48460388183594, -72.94151306152344, 0.23779296875, -0.335205078125, -0.893798828125
390, 226781921, -4.962656021118164, 4.008297920227051, 9.559368133544922, 37.44560241699219, 197.56935119628906, -102.32261657714844, 0.29345703125, -0.33447265625, -0.870361328125
391, 226798588, -5.851603031158447, 3.864734411239624, 9.497791290283203, 40.734371185302734, 259.17144775390625, -134.51541137695312, 0.36181640625, -0.32958984375, -0.8359375
392, 226815255, -5.890458583831787, 3.3160839080810547, 9.964341163635254, 38.899085998535156, 322.8693542480469, -167.4755096435547, 0.44482421875, -0.31396484375, -0.78759765625
393, 226831922, -7.715465068817139, 4.52121114730835, 11.331684112548828, 37.87431716918945, 376.6545715332031, -197.3906707763672, 0.538818359375, -0.286376953125, -0.720458984375
394, 226848589, -11.945487976074219, 5.317502021789551, 12.36659049987793, 71.6972885131836, 419.4207763671875, -203.33230590820312, 0.634033203125, -0.260009765625, -0.632080078125
395, 226865256, -18.092262268066406, 7.262469291687012, 14.593249320983887, 78.88292694091797, 410.60235595703125, -197.00497436523438, 0.715576171875, -0.221923828125, -0.533935546875
396, 226881923, -18.297780990600586, 8.815263748168945, 15.130678176879883, 62.696868896484375, 346.3650207519531, -180.87489318847656, 0.77685546875, -0.181396484375, -0.434326171875
397, 226898590, -7.517783164978027, 5.594481468200684, 13.60673713684082, 56.48931121826172, 278.7923278808594, -172.05950927734375, 0.819091796875, -0.1416015625, -0.355712890625
398, 226915257, 4.527695178985596, 10.358091354370117, 8.918169021606445, 7.838228702545166, 270.16339111328125, -184.98133850097656, 0.850830078125, -0.09326171875, -0.279541015625
399, 226931924, -18.824710845947266, 19.76320457458496, 22.504560470581055, -16.502899169921875, 169.18505859375, -37.872257232666016, 0.87158203125, -0.0673828125, -0.22119140625
400, 226948591, -10.4862699508667, 15.504983901977539, 19.555892944335938, -75.48467254638672, -70.0285873413086, 101.1415023803711, 0.871826171875, -0.08544921875, -0.22900390625
401, 226965258, -1.0040885210037231, 7.097640037536621, 10.860477447509766, -126.53278350830078, -165.76576232910156, 158.55569458007812, 0.85693359375, -0.125244140625, -0.283447265625
402, 226981925, 1.3295327425003052, 2.0960183143615723, 6.385921478271484, -138.99896240234375, -176.3299102783203, 163.03208923339844, 0.82763671875, -0.16259765625, -0.343017578125
403, 226998592, 0.9502273797988892, -0.7166377902030945, 4.811478614807129, -125.4760971069336, -165.00054931640625, 155.72525024414062, 0.7890625, -0.19677734375, -0.399658203125
404, 227015259, -1.525442361831665, -1.6798380613327026, 5.5760817527771, -94.00155639648438, -161.21070861816406, 143.48988342285156, 0.740478515625, -0.222900390625, -0.447265625
405, 227031926, -5.090097904205322, -0.21088790893554688, 7.428268909454346, -71.84152221679688, -176.8226776123047, 123.96625518798828, 0.689697265625, -0.242919921875, -0.486572265625
406, 227048593, -7.975496768951416, 0.8598096370697021, 8.872822761535645, -68.98640441894531, -219.070556640625, 104.68618774414062, 0.63330078125, -0.25390625, -0.525390625
407, 227065260, -8.361503601074219, 0.9232113361358643, 8.712376594543457, -65.92947387695312, -267.3572082519531, 92.50899505615234, 0.57177734375, -0.256591796875, -0.562744140625
408, 227081927, -7.621809482574463, 0.994803786277771, 7.407639980316162, -53.83333206176758, -295.91156005859375, 87.03697967529297, 0.50341796875, -0.259765625, -0.602294921875
409, 227098594, -7.251847743988037, 1.5610191822052002, 6.358389377593994, -40.20402908325195, -300.1347351074219, 82.14070892333984, 0.4404296875, -0.26220703125, -0.634521484375
410, 227115261, -7.470448970794678, 2.0354597568511963, 6.0326762199401855, -28.589963912963867, -287.0782775878906, 75.19261932373047, 0.3818359375, -0.266845703125, -0.65283203125
411, 227131928, -7.7986955642700195, 2.1054506301879883, 5.98978853225708, -15.73046875, -260.05078125, 63.985836029052734, 0.333251953125, -0.270263671875, -0.66845703125
412, 227148595, -10.0654935836792, 2.588141441345215, 7.792600154876709, 6.654846668243408, -226.50372314453125, 49.72599792480469, 0.293212890625, -0.281005859375, -0.677734375
413, 227165262, -14.296619415283203, 4.2021379470825195, 10.432660102844238, 34.80299758911133, -214.82546997070312, 41.86561584472656, 0.262451171875, -0.291748046875, -0.6865234375
414, 227181929, -18.574670791625977, 5.660647869110107, 11.559151649475098, 58.394832611083984, -227.5927734375, 44.6454963684082, 0.229736328125, -0.313720703125, -0.708984375
415, 227198596, -21.23811912536621, 6.266104698181152, 9.760842323303223, 74.09208679199219, -241.7351531982422, 59.21967315673828, 0.1787109375, -0.34423828125, -0.729248046875
416, 227215263, -23.654922485351562, 7.386013984680176, 6.457159042358398, 72.24270629882812, -245.91307067871094, 76.93384552001953, 0.108642578125, -0.376953125, -0.7421875
417, 227231930, -25.330474853515625, 7.2471442222595215, 1.8959064483642578, 49.273048400878906, -242.2181854248047, 97.43170928955078, 0.0283203125, -0.3984375, -0.7412109375
418, 227248597, -25.272289276123047, 3.862539529800415, -3.7379491329193115, 27.33962631225586, -220.8787841796875, 118.1992416381836, -0.045654296875, -0.408935546875, -0.729736328125
419, 227265264, -25.86960792541504, -3.8260107040405273, -9.69347095489502, 35.6555290222168, -177.21690368652344, 127.5470199584961, -0.107666015625, -0.411865234375, -0.71484375
420, 227281931, -23.282894134521484, -9.089481353759766, -17.193161010742188, 51.46417236328125, -69.28233337402344, 92.09081268310547, -0.142578125, -0.420654296875, -0.69775390625
421, 227298598, -19.618925094604492, -9.259712219238281, -17.530263900756836, 2.478099822998047, 76.59135437011719, -9.47762680053711, -0.13916015625, -0.42138671875, -0.6875
422, 227315265, -20.634552001953125, -5.591101169586182, -8.474276542663574, -64.7392578125, 176.1828155517578, -114.53910827636719, -0.10205078125, -0.410888671875, -0.694580078125
423, 227331932, -15.88382339477539, 7.4570746421813965, 18.316120147705078, -89.66513061523438, 139.06459045410156, -114.24683380126953, -0.062255859375, -0.3955078125, -0.70263671875
424, 227348599, -4.076238632202148, 7.281600475311279, 9.551560401916504, -76.70191955566406, 79.97027587890625, -86.35196685791016, -0.0380859375, -0.3818359375, -0.709716796875
425, 227365266, -1.3734164237976074, -1.380519151687622, 5.830509662628174, -62.71012496948242, 135.11952209472656, -71.96766662597656, -0.00732421875, -0.36376953125, -0.712646484375
426, 227381933, -12.649565696716309, -2.0117428302764893, 11.8273286819458, -37.253910064697266, 141.99331665039062, -38.323692321777344, 0.021728515625, -0.35498046875, -0.711669921875
427, 227398600, -24.129024505615234, 4.8359761238098145, 17.061634063720703, -55.81321334838867, 41.2059440612793, -49.55971145629883, 0.043212890625, -0.339599609375, -0.7138671875
428, 227415267, -4.492997646331787, 2.1738295555114746, 7.664278030395508, -26.942228317260742, -0.250403493642807, -18.578369140625, 0.043701171875, -0.335693359375, -0.71533203125
429, 227431934, -5.315504550933838, 2.401757001876831, 8.287836074829102, -23.648025512695312, -1.6972044706344604, -15.753914833068848, 0.04541015625, -0.33251953125, -0.71484375
430, 227448601, -6.214902400970459, 2.627539873123169, 7.775386333465576, -19.271135330200195, -2.2667922973632812, -12.77400016784668, 0.044921875, -0.32763671875, -0.718505859375
431, 227465268, -5.883502006530762, 2.933802604675293, 7.59854793548584, -14.565321922302246, -5.705698013305664, -13.183079719543457, 0.0458984375, -0.32470703125, -0.719482421875
432, 227481935, -5.416092395782471, 2.2196738719940186, 7.942065715789795, -11.83392333984375, -6.395267009735107, -10.862497329711914, 0.04541015625, -0.32275390625, -0.71923828125
433, 227498602, -5.388874053955078, 2.3895514011383057, 8.005578994750977, -8.754912376403809, -4.6179728507995605, -8.722013473510742, 0.04541015625, -0.318115234375, -0.7197265625
434, 227515269, -5.506378173828125, 2.151860475540161, 8.060877799987793, -4.8535943031311035, -1.5740798711776733, -6.7447075843811035, 0.04443359375, -0.318603515625, -0.7197265625
435, 227531936, -5.392165660858154, 2.2744650840759277, 8.055237770080566, -1.8865289688110352, 1.4198143482208252, -5.020050525665283, 0.0478515625, -0.318603515625, -0.719482421875
436, 227548603, -5.407577991485596, 2.467409610748291, 7.890905857086182, 0.30446457862854004, 3.366654634475708, -3.4599809646606445, 0.0478515625, -0.320068359375, -0.718505859375
437, 227565270, -5.443018913269043, 2.6478729248046875, 7.804900169372559, 0.7557859420776367, 3.4184823036193848, -2.8166544437408447, 0.046875, -0.320556640625, -0.718505859375
438, 227581937, -5.391563415527344, 2.6883156299591064, 7.851870536804199, -0.5676414370536804, 2.020592212677002, -3.6228394508361816, 0.0478515625, -0.321044921875, -0.719482421875
439, 227598604, -5.36942720413208, 2.6366443634033203, 7.865024089813232, -1.4184057712554932, 0.6714433431625366, -4.720253944396973, 0.04736328125, -0.320068359375, -0.719482421875
440, 227615271, -5.365439414978027, 2.587514638900757, 7.801853656768799, -1.448500633239746, 0.08577052503824234, -5.124217510223389, 0.04931640625, -0.322021484375, -0.717529296875
441, 227631938, -5.343973159790039, 2.541738748550415, 7.827041149139404, -2.3427810668945312, -1.2707228660583496, -5.2767157554626465, 0.04833984375, -0.322021484375, -0.718994140625
442, 227648605, -5.376284122467041, 2.608771800994873, 7.803437232971191, -2.8242106437683105, -2.2567226886749268, -5.716434955596924, 0.05078125, -0.322021484375, -0.716552734375
443, 227665272, -5.334968566894531, 2.608121395111084, 7.80172061920166, -3.9830322265625, -3.661567211151123, -6.23255729675293, 0.05078125, -0.322265625, -0.717529296875
444, 227681939, -5.317872524261475, 2.577153444290161, 7.751944065093994, -4.575454235076904, -4.307762622833252, -6.502656936645508, 0.048828125, -0.321533203125, -0.718994140625
445, 227698606, -5.307495594024658, 2.543585777282715, 7.8090500831604, -3.9664604663848877, -4.127078056335449, -6.021687984466553, 0.0478515625, -0.321533203125, -0.717529296875
446, 227715273, -5.280627727508545, 2.4783360958099365, 7.908673286437988, -3.2181596755981445, -3.8286001682281494, -6.016424655914307, 0.0498046875, -0.319580078125, -0.720458984375
447, 227731940, -5.213142395019531, 2.5338196754455566, 7.911779880523682, -2.560988187789917, -2.59954833984375, -6.2438130378723145, 0.05126953125, -0.320068359375, -0.719482421875
448, 227748607, -5.149136066436768, 2.5663034915924072, 7.907098770141602, -1.947141408920288, -0.3951399326324463, -6.897577285766602, 0.05029296875, -0.320556640625, -0.716552734375
449, 227765274, -5.209639072418213, 2.670623540878296, 7.8417840003967285, -0.8970593214035034, 2.162794589996338, -8.88578987121582, 0.05224609375, -0.319580078125, -0.718994140625
450, 227781941, -5.213531494140625, 2.701491355895996, 7.84555721282959, 0.23724417388439178, 3.9696056842803955, -11.50228500366211, 0.052734375, -0.319580078125, -0.718017578125
451, 227798608, -4.963010311126709, 2.774505376815796, 8.081257820129395, 0.7023584246635437, 8.807043075561523, -13.178756713867188, 0.054931640625, -0.320068359375, -0.71533203125
452, 227815275, -4.933476448059082, 3.1273536682128906, 8.215424537658691, 2.987170934677124, 18.88744354248047, -17.291479110717773, 0.06396484375, -0.32177734375, -0.714599609375
453, 227831942, -4.672842502593994, 2.245684862136841, 8.725284576416016, 3.585348606109619, 34.1104850769043, -18.85414695739746, 0.06884765625, -0.32177734375, -0.7109375
454, 227848609, -4.646574020385742, 2.45400333404541, 9.025995254516602, 11.556565284729004, 57.38545227050781, -22.391828536987305, 0.080810546875, -0.32470703125, -0.7109375
455, 227865276, -4.875539302825928, 3.078071117401123, 9.331571578979492, 21.184762954711914, 86.59551239013672, -32.65617752075195, 0.099609375, -0.325927734375, -0.706787109375
456, 227881943, -5.078778266906738, 3.7913267612457275, 9.210402488708496, 30.868839263916016, 118.78292083740234, -52.222747802734375, 0.12548828125, -0.33056640625, -0.6982421875
457, 227898610, -5.391826629638672, 4.036253929138184, 9.334479331970215, 40.455238342285156, 157.28518676757812, -80.50289154052734, 0.1611328125, -0.335205078125, -0.6845703125
458, 227915277, -5.151638031005859, 3.7194008827209473, 9.607880592346191, 45.746700286865234, 212.43930053710938, -112.6752700805664, 0.209228515625, -0.33642578125, -0.665771484375
459, 227931944, -5.505702972412109, 3.2357945442199707, 9.611631393432617, 54.550167083740234, 285.6759338378906, -146.98448181152344, 0.275390625, -0.335693359375, -0.639892578125
460, 227948611, -5.395082473754883, 3.733132839202881, 10.72165584564209, 57.72684860229492, 359.2431335449219, -177.4990997314453, 0.351806640625, -0.3271484375, -0.59521484375
461, 227965278, -8.03240966796875, 4.528267860412598, 10.951766967773438, 57.378570556640625, 407.7261657714844, -200.27334594726562, 0.43603515625, -0.309814453125, -0.540771484375
462, 227981945, -15.232510566711426, 5.452436447143555, 12.305739402770996, 93.58158874511719, 433.4183044433594, -193.51063537597656, 0.517578125, -0.288818359375, -0.4599609375
463, 227998612, -20.78253173828125, 8.475444793701172, 14.284697532653809, 81.04681396484375, 390.6711730957031, -179.83798217773438, 0.58447265625, -0.26318359375, -0.37841796875
464, 228015279, -15.797786712646484, 7.68980073928833, 13.98487377166748, 54.22073745727539, 305.72564697265625, -162.79420471191406, 0.63330078125, -0.2314453125, -0.303955078125
465, 228031946, -2.960381507873535, 4.467160224914551, 11.682930946350098, 47.492225646972656, 264.58282470703125, -165.08692932128906, 0.669677734375, -0.193603515625, -0.2373046875
466, 228048613, 2.866407871246338, 11.316391944885254, 8.014933586120605, -9.402398109436035, 275.66400146484375, -165.93460083007812, 0.696533203125, -0.14697265625, -0.1689453125
467, 228065280, -20.26996421813965, 17.84160614013672, 22.715673446655273, -29.792640686035156, 133.42840576171875, -14.455615997314453, 0.707275390625, -0.121826171875, -0.116455078125
468, 228081947, -9.623618125915527, 13.638069152832031, 17.258142471313477, -86.08556365966797, -86.4781723022461, 101.63031768798828, 0.708740234375, -0.11865234375, -0.105712890625
469, 228098614, -1.5201951265335083, 6.4630842208862305, 9.33360481262207, -135.00970458984375, -177.0201416015625, 138.0382537841797, 0.7138671875, -0.120849609375, -0.1142578125
470, 228115281, 0.7359740734100342, 2.3679358959198, 5.2539777755737305, -146.77987670898438, -186.10948181152344, 133.55014038085938, 0.734619140625, -0.12060546875, -0.13671875
471, 228131948, 0.30774497985839844, -0.049848441034555435, 3.92584228515625, -128.61862182617188, -174.0000457763672, 129.48500061035156, 0.768310546875, -0.12744140625, -0.166015625
472, 228148615, -2.4633023738861084, -0.3728099763393402, 5.085191249847412, -92.17803192138672, -170.8089599609375, 127.555419921875, 0.814208984375, -0.14013671875, -0.218994140625
473, 228165282, -5.358580589294434, 0.5176318883895874, 6.518613815307617, -67.08065795898438, -190.5830841064453, 120.13745880126953, 0.8447265625, -0.16259765625, -0.303955078125
474, 228181949, -7.013669013977051, 1.306544303894043, 7.484922885894775, -59.24741744995117, -225.45220947265625, 105.92166137695312, 0.843017578125, -0.185791015625, -0.41552734375
475, 228198616, -7.618371486663818, 1.4849376678466797, 7.466480255126953, -57.86041259765625, -259.2308349609375, 91.94609832763672, 0.799072265625, -0.202392578125, -0.536376953125
476, 228215283, -7.857823371887207, 1.0936768054962158, 6.834242820739746, -49.636146545410156, -282.4693603515625, 80.05909729003906, 0.720703125, -0.2080078125, -0.63916015625
477, 228231950, -7.695072174072266, 0.3327246904373169, 5.750149726867676, -27.150218963623047, -291.07427978515625, 67.84765625, 0.630126953125, -0.204345703125, -0.71728515625
478, 228248617, -7.785318374633789, 0.045601703226566315, 5.268345832824707, 6.030999183654785, -278.0092468261719, 50.624794006347656, 0.539794921875, -0.202392578125, -0.772705078125
479, 228265284, -9.690454483032227, 1.1883772611618042, 6.192392349243164, 33.23794174194336, -254.64273071289062, 25.548446655273438, 0.461669921875, -0.206787109375, -0.81005859375
480, 228281951, -12.396833419799805, 3.01047945022583, 8.431007385253906, 53.78924560546875, -244.45509338378906, 6.569347858428955, 0.38916015625, -0.216796875, -0.843017578125
481, 228298618, -15.042533874511719, 4.659951210021973, 9.915552139282227, 74.41979217529297, -253.24298095703125, 3.5450475215911865, 0.306884765625, -0.232666015625, -0.866455078125
482, 228315285, -15.521849632263184, 6.032571315765381, 9.065825462341309, 90.12918853759766, -258.1911926269531, 15.874845504760742, 0.22265625, -0.252197265625, -0.8759765625
483, 228331952, -15.839071273803711, 7.039706230163574, 7.6929850578308105, 92.45977020263672, -238.48069763183594, 35.15177536010742, 0.143310546875, -0.274169921875, -0.87548828125
484, 228348619, -18.80944061279297, 7.663273811340332, 7.610963344573975, 85.00111389160156, -213.71327209472656, 67.77191925048828, 0.078369140625, -0.300537109375, -0.86083984375
485, 228365286, -21.13863754272461, 6.991825103759766, 6.470332622528076, 66.51777648925781, -208.72329711914062, 110.3310775756836, 0.01611328125, -0.326171875, -0.846435546875
486, 228381953, -20.012540817260742, 3.908234119415283, 3.154505491256714, 40.9420166015625, -200.0196990966797, 138.08193969726562, -0.0478515625, -0.346923828125, -0.8369140625
487, 228398620, -19.979568481445312, -1.7653625011444092, -0.17887639999389648, 32.462989807128906, -173.03201293945312, 147.17922973632812, -0.1123046875, -0.35791015625, -0.824462890625
488, 228415287, -25.337007522583008, -6.08286714553833, -5.127743244171143, 53.32962417602539, -150.70802307128906, 139.37319946289062, -0.163330078125, -0.369873046875, -0.80615234375
489, 228431954, -21.783775329589844, -6.651360034942627, -13.373584747314453, 17.096681594848633, -72.81437683105469, 83.89749145507812, -0.200927734375, -0.378173828125, -0.793212890625
490, 228448621, -14.54468059539795, -9.02332592010498, -13.44715690612793, -51.41994094848633, 70.91181182861328, -29.652074813842773, -0.195556640625, -0.36767578125, -0.796630859375
491, 228465288, -18.244386672973633, -3.959118127822876, -4.674696445465088, -83.7922134399414, 155.53265380859375, -109.34230041503906, -0.15673828125, -0.351318359375, -0.808349609375
492, 228481955, -15.860292434692383, 2.460326910018921, 10.853413581848145, -100.00623321533203, 142.34255981445312, -119.31050872802734, -0.112548828125, -0.326171875, -0.822509765625
493, 228498622, -8.461275100708008, 6.207993507385254, 14.268919944763184, -91.29817962646484, 66.15009307861328, -84.59283447265625, -0.086181640625, -0.304443359375, -0.833740234375
494, 228515289, -0.7636624574661255, 0.514055073261261, 6.729799747467041, -64.47291564941406, 86.99580383300781, -76.60700988769531, -0.06298828125, -0.286865234375, -0.8408203125
495, 228531956, -7.403897285461426, -2.3841824531555176, 9.906304359436035, -29.244165420532227, 127.76622009277344, -32.71410369873047, -0.030029296875, -0.275634765625, -0.844482421875
496, 228548623, -8.16287612915039, -1.9147155284881592, 9.88691520690918, -11.97457504272461, 119.61226654052734, -39.36162567138672, 2.44140625E-4, -0.267822265625, -0.84765625
497, 228565290, -8.353174209594727, 3.7785403728485107, 8.851176261901855, -6.800551891326904, 104.83528900146484, -46.3701057434082, 0.0263671875, -0.262451171875, -0.845947265625
498, 228581957, -18.01512336730957, 6.6633806228637695, 11.944826126098633, -47.03178024291992, 24.929454803466797, -29.986665725708008, 0.04248046875, -0.25, -0.84521484375
499, 228598624, -6.1722869873046875, 2.168951988220215, 9.528815269470215, -11.911659240722656, 6.747204780578613, -8.631808280944824, 0.04541015625, -0.2470703125, -0.84814453125
500, 228615291, -6.420172691345215, 2.9788706302642822, 8.112164497375488, -7.902390480041504, 4.997032165527344, -3.9471356868743896, 0.046875, -0.244140625, -0.84619140625
501, 228631958, -5.667356491088867, 3.2863709926605225, 7.869716644287109, -2.424037218093872, 2.534607172012329, -2.7482941150665283, 0.048828125, -0.244140625, -0.84765625
502, 228648625, -5.846034526824951, 3.1327106952667236, 7.785470008850098, -2.4254071712493896, 0.08168530464172363, -5.301406383514404, 0.0498046875, -0.24267578125, -0.845947265625
503, 228665292, -5.747743606567383, 2.382828950881958, 7.92567253112793, -0.7692006826400757, -0.5286206007003784, -5.078819274902344, 0.048828125, -0.24462890625, -0.84912109375
504, 228681959, -5.569159030914307, 2.717623233795166, 7.894990921020508, 0.9003441333770752, 0.7409306168556213, -4.887146472930908, 0.04931640625, -0.244140625, -0.84765625
505, 228698626, -5.5218400955200195, 2.733673095703125, 7.764075756072998, 2.168940782546997, 2.7725298404693604, -4.514430046081543, 0.051025390625, -0.24462890625, -0.847412109375
506, 228715293, -5.506479263305664, 2.9106078147888184, 7.6787028312683105, 3.631772994995117, 3.9247817993164062, -4.2926764488220215, 0.052001953125, -0.24560546875, -0.846923828125
507, 228731960, -5.5090789794921875, 2.8960485458374023, 7.683764457702637, 3.75260066986084, 4.260936260223389, -4.16209077835083, 0.053955078125, -0.2470703125, -0.845947265625
508, 228748627, -5.471747875213623, 2.920231342315674, 7.670266151428223, 2.941894769668579, 4.458205223083496, -4.595316410064697, 0.055908203125, -0.249267578125, -0.8427734375
509, 228765294, -5.6105828285217285, 2.8605806827545166, 7.619508266448975, 0.7725495100021362, 3.7092247009277344, -5.574373722076416, 0.057861328125, -0.250732421875, -0.843505859375
510, 228781961, -5.535218715667725, 2.981377363204956, 7.617088317871094, -0.4351085126399994, 2.8098087310791016, -5.421785354614258, 0.0576171875, -0.251220703125, -0.84814453125
511, 228798628, -5.53786563873291, 3.0376718044281006, 7.561952590942383, -1.8123676776885986, 1.1550369262695312, -6.037938594818115, 0.0595703125, -0.250244140625, -0.84765625
512, 228815295, -5.606905460357666, 2.8524904251098633, 7.575555324554443, -2.2497687339782715, -0.013933311216533184, -6.170215606689453, 0.060546875, -0.252197265625, -0.842041015625
513, 228831962, -5.524422645568848, 2.871398687362671, 7.572465419769287, -2.4626998901367188, -0.6796971559524536, -5.907032489776611, 0.0615234375, -0.249267578125, -0.843505859375
514, 228848629, -5.50338077545166, 2.8590457439422607, 7.615841865539551, -2.324993133544922, -1.2752052545547485, -5.874926567077637, 0.0615234375, -0.248291015625, -0.840087890625
515, 228865296, -5.513579368591309, 2.7667160034179688, 7.62082052230835, -0.7090363502502441, -1.0191420316696167, -5.33290958404541, 0.0615234375, -0.250732421875, -0.843994140625
516, 228881963, -5.533361911773682, 2.782723903656006, 7.572757244110107, -0.011461682617664337, -0.5007283091545105, -4.999317169189453, 0.058837890625, -0.250244140625, -0.841064453125
517, 228898630, -5.437598705291748, 2.9228103160858154, 7.575211524963379, -0.1730138063430786, -0.7028509378433228, -5.362992286682129, 0.0615234375, -0.250732421875, -0.843505859375
518, 228915297, -5.462996006011963, 2.9857051372528076, 7.614919185638428, -0.6373720169067383, -0.7742975354194641, -6.497481346130371, 0.0634765625, -0.249755859375, -0.841552734375
519, 228931964, -5.416454792022705, 2.929732322692871, 7.619772911071777, -0.7263891696929932, 0.20767422020435333, -7.875036716461182, 0.0634765625, -0.252197265625, -0.843505859375
520, 228948631, -5.463809013366699, 2.901326894760132, 7.636082172393799, -0.08686549216508865, 2.401709794998169, -8.767844200134277, 0.0634765625, -0.252685546875, -0.8408203125
521, 228965298, -5.414722442626953, 2.9740371704101562, 7.712342262268066, 0.1602138876914978, 4.827144145965576, -9.428318977355957, 0.0673828125, -0.25439453125, -0.841796875
522, 228981965, -5.315371990203857, 3.1246674060821533, 7.725736618041992, 1.017497181892395, 9.48600959777832, -11.813584327697754, 0.06787109375, -0.253662109375, -0.83935546875
523, 228998632, -5.22318172454834, 3.151869297027588, 7.863784313201904, 3.0908761024475098, 17.339643478393555, -15.920858383178711, 0.072998046875, -0.25244140625, -0.840576171875
524, 229015299, -5.027601718902588, 2.7681455612182617, 8.37243366241455, 2.887094259262085, 28.982545852661133, -16.84033966064453, 0.08203125, -0.25439453125, -0.837890625
525, 229031966, -4.921634674072266, 2.6675467491149902, 8.499342918395996, 10.502790451049805, 48.481292724609375, -18.864160537719727, 0.09521484375, -0.25634765625, -0.83642578125
526, 229048633, -4.907879829406738, 3.1666619777679443, 8.559657096862793, 21.155885696411133, 73.23035430908203, -25.402881622314453, 0.110107421875, -0.260498046875, -0.831787109375
527, 229065300, -5.097652912139893, 3.6796154975891113, 8.600191116333008, 32.29409408569336, 103.1958236694336, -37.99359893798828, 0.13671875, -0.267333984375, -0.82568359375
528, 229081967, -5.4909234046936035, 3.6809287071228027, 9.027247428894043, 43.815956115722656, 139.99957275390625, -56.867958068847656, 0.16845703125, -0.27294921875, -0.814697265625
529, 229098634, -5.095124244689941, 3.6329917907714844, 9.228062629699707, 51.86872863769531, 189.328125, -76.59855651855469, 0.217529296875, -0.28125, -0.79638671875
530, 229115301, -5.288424491882324, 3.2014682292938232, 9.240553855895996, 59.51982116699219, 256.48455810546875, -102.33499908447266, 0.279052734375, -0.287353515625, -0.77099609375
531, 229131968, -5.909654140472412, 3.6249516010284424, 9.631900787353516, 55.30027389526367, 332.4446716308594, -132.18626403808594, 0.35693359375, -0.289794921875, -0.731689453125
532, 229148635, -8.334035873413086, 6.084674835205078, 11.952569961547852, 49.3502311706543, 393.1297607421875, -165.13153076171875, 0.447021484375, -0.280029296875, -0.677978515625
533, 229165302, -13.217910766601562, 6.767287731170654, 11.909043312072754, 50.04049301147461, 430.40777587890625, -181.6018524169922, 0.53955078125, -0.26123046875, -0.604736328125
534, 229181969, -21.11693572998047, 8.985736846923828, 13.927319526672363, 46.206199645996094, 385.30963134765625, -168.79014587402344, 0.619140625, -0.240234375, -0.524169921875
535, 229198636, -17.598970413208008, 9.291775703430176, 14.185445785522461, 19.265295028686523, 307.285400390625, -157.6948699951172, 0.677490234375, -0.214599609375, -0.451416015625
536, 229215303, -7.015498638153076, 6.105573654174805, 11.981378555297852, 8.843732833862305, 253.94163513183594, -150.85081481933594, 0.718017578125, -0.189208984375, -0.38427734375
537, 229231970, 3.5808753967285156, 4.778244972229004, 9.060219764709473, -10.23160457611084, 243.30201721191406, -158.46612548828125, 0.75146484375, -0.154052734375, -0.3203125
538, 229248637, -18.117963790893555, 10.801846504211426, 22.93119239807129, 18.52770233154297, 106.65142822265625, -72.40380096435547, 0.766357421875, -0.133056640625, -0.2724609375
539, 229265304, -6.896366596221924, 11.071492195129395, 17.907615661621094, 2.853022813796997, -96.54666900634766, 8.547874450683594, 0.755859375, -0.13525390625, -0.27490234375
540, 229281971, 1.1026837825775146, 7.7947258949279785, 10.10558032989502, -44.9439697265625, -166.06919860839844, 36.261783599853516, 0.737060546875, -0.14111328125, -0.29296875
541, 229298638, 2.175736665725708, 4.899204730987549, 6.3214216232299805, -79.81489562988281, -164.9461669921875, 41.81256866455078, 0.715087890625, -0.14013671875, -0.31591796875
542, 229315305, 0.9380887746810913, 3.397900342941284, 5.1599626541137695, -84.55762481689453, -154.98974609375, 59.067386627197266, 0.697265625, -0.14306640625, -0.334228515625
543, 229331972, -1.2773568630218506, 3.6234724521636963, 5.557526588439941, -77.68280029296875, -151.55044555664062, 86.43914794921875, 0.684326171875, -0.153564453125, -0.35205078125
544, 229348639, -3.6522932052612305, 4.703152656555176, 6.129668235778809, -83.39676666259766, -157.63424682617188, 109.99977111816406, 0.66455078125, -0.164306640625, -0.3671875
545, 229365306, -5.773327827453613, 4.882656574249268, 6.590703964233398, -103.5245361328125, -173.8880157470703, 123.74127197265625, 0.654541015625, -0.17919921875, -0.387939453125
546, 229381973, -7.532766819000244, 4.3231329917907715, 7.060193061828613, -120.2053451538086, -197.11659240722656, 131.22149658203125, 0.640380859375, -0.1943359375, -0.41357421875
547, 229398640, -8.345907211303711, 3.514028310775757, 6.937581539154053, -124.46461486816406, -221.7180633544922, 134.1510009765625, 0.62744140625, -0.211181640625, -0.4580078125
548, 229415307, -8.42180347442627, 2.870786666870117, 6.2762556076049805, -116.71342468261719, -237.729248046875, 129.88156127929688, 0.607421875, -0.23486328125, -0.51708984375
549, 229431974, -8.2311429977417, 3.0401227474212646, 5.795372009277344, -101.64386749267578, -239.47731018066406, 120.52859497070312, 0.567626953125, -0.254638671875, -0.585205078125
550, 229448641, -8.30356216430664, 4.196683883666992, 6.060678482055664, -86.07357025146484, -227.47703552246094, 116.8259048461914, 0.512939453125, -0.265380859375, -0.647216796875
551, 229465308, -9.31076431274414, 6.027914524078369, 6.558450222015381, -78.8593521118164, -208.33322143554688, 122.04991912841797, 0.446533203125, -0.273193359375, -0.691650390625
552, 229481975, -10.68200397491455, 8.15900707244873, 6.974181652069092, -80.1156234741211, -187.6329803466797, 136.07485961914062, 0.3779296875, -0.275146484375, -0.714599609375
553, 229498642, -12.58639144897461, 11.156720161437988, 7.1343889236450195, -91.1876220703125, -166.45989990234375, 162.62454223632812, 0.319580078125, -0.27294921875, -0.7158203125
554, 229515309, -16.198070526123047, 14.58033561706543, 6.819194316864014, -129.61875915527344, -147.61370849609375, 202.50204467773438, 0.2783203125, -0.27099609375, -0.712646484375
555, 229531976, -19.235334396362305, 17.060325622558594, 4.810324668884277, -194.32150268554688, -134.92581176757812, 247.6049346923828, 0.247314453125, -0.266357421875, -0.7177734375
556, 229548643, -20.60093879699707, 18.636558532714844, 1.1176364421844482, -275.1588134765625, -120.69889831542969, 279.01123046875, 0.22265625, -0.247314453125, -0.737548828125
557, 229565310, -19.416776657104492, 18.547672271728516, -4.180353164672852, -341.8118591308594, -96.57280731201172, 291.44189453125, 0.1923828125, -0.20654296875, -0.77099609375
558, 229581977, -19.36663055419922, 17.2473087310791, -9.207836151123047, -347.465087890625, -59.40699768066406, 303.9543151855469, 0.168212890625, -0.15185546875, -0.8037109375
559, 229598644, -21.5316104888916, 11.975499153137207, -11.84723949432373, -256.357177734375, -23.12222671508789, 323.3330383300781, 0.15234375, -0.102783203125, -0.8251953125
560, 229615311, -22.689661026000977, 2.838536024093628, -11.742938995361328, -71.86200714111328, 4.0514116287231445, 336.551513671875, 0.144287109375, -0.091064453125, -0.834228515625
561, 229631978, -20.863922119140625, 0.14906814694404602, -9.061994552612305, 86.24961853027344, 26.732295989990234, 299.85113525390625, 0.143798828125, -0.123291015625, -0.83837890625
562, 229648645, -15.640203475952148, 2.4691696166992188, -5.173151969909668, 65.20571899414062, 49.71499252319336, 178.5586395263672, 0.14599609375, -0.154541015625, -0.83984375
563, 229665312, -10.849468231201172, -5.502289772033691, -8.043185234069824, 99.78887939453125, 91.5932388305664, 85.42121887207031, 0.164306640625, -0.1787109375, -0.83544921875
564, 229681979, -4.706554412841797, 9.618103981018066, -2.046485424041748, 158.9267120361328, 153.76983642578125, 71.26770782470703, 0.197021484375, -0.2294921875, -0.821533203125
565, 229698646, -7.830583095550537, 10.55014705657959, 11.20218276977539, 81.71868896484375, 169.64065551757812, 34.35020065307617, 0.237060546875, -0.26513671875, -0.799560546875
566, 229715313, -25.262598037719727, 11.623479843139648, 18.40873908996582, -40.36357879638672, 119.10546875, -67.26948547363281, 0.2802734375, -0.263427734375, -0.79150390625
567, 229731980, -8.154913902282715, 3.1442039012908936, 6.823716640472412, -19.012170791625977, 30.139575958251953, -36.30727767944336, 0.295654296875, -0.253662109375, -0.790771484375
568, 229748647, -7.235074996948242, 5.460908889770508, 7.327371120452881, -21.85413932800293, 31.615488052368164, -32.3140869140625, 0.30712890625, -0.24609375, -0.7890625
569, 229765314, -6.655947685241699, 5.059645652770996, 7.361665725708008, -21.257856369018555, 14.798068046569824, -25.619552612304688, 0.312255859375, -0.2412109375, -0.786865234375
570, 229781981, -5.735001087188721, 4.006128311157227, 7.8146586418151855, -25.92867660522461, 5.940579414367676, -25.29337501525879, 0.318115234375, -0.234130859375, -0.786376953125
571, 229798648, -6.297991752624512, 3.2014782428741455, 7.8951287269592285, -15.07278823852539, 0.9127042293548584, -20.28451156616211, 0.3212890625, -0.2275390625, -0.789306640625
572, 229815315, -5.775874614715576, 3.37455415725708, 7.728377819061279, -9.658495903015137, -0.06395498663187027, -15.680535316467285, 0.32080078125, -0.224609375, -0.785888671875
573, 229831982, -5.937679767608643, 2.8037467002868652, 7.698540210723877, -3.403327703475952, 3.893958806991577, -12.009711265563965, 0.322265625, -0.22509765625, -0.789306640625
574, 229848649, -5.757626056671143, 3.2855238914489746, 7.6500325202941895, 0.9001138210296631, 9.354241371154785, -5.753933906555176, 0.3251953125, -0.2255859375, -0.788818359375
575, 229865316, -5.632612228393555, 3.561180591583252, 7.447485446929932, 0.5987035036087036, 9.585908889770508, -5.17885160446167, 0.329345703125, -0.22265625, -0.7861328125
576, 229881983, -5.750724792480469, 2.990124225616455, 7.518118381500244, 1.4947389364242554, 12.18517780303955, -3.4512362480163574, 0.330810546875, -0.2255859375, -0.781982421875
577, 229898650, -5.814404487609863, 3.0182852745056152, 7.437654972076416, 2.46197772026062, 14.321934700012207, 1.1606595516204834, 0.335205078125, -0.226806640625, -0.78271484375
578, 229915317, -5.698631763458252, 3.77943754196167, 7.152988910675049, 0.34235885739326477, 14.514338493347168, 3.121236562728882, 0.33984375, -0.227783203125, -0.7822265625
579, 229931984, -5.681680679321289, 3.510319709777832, 7.208980560302734, -2.2690560817718506, 13.81847858428955, 3.2669596672058105, 0.34130859375, -0.229248046875, -0.780517578125
580, 229948651, -5.820926666259766, 3.5173377990722656, 7.176311016082764, -2.0232250690460205, 13.080124855041504, 1.7563598155975342, 0.345703125, -0.228759765625, -0.7783203125
581, 229965318, -5.778151512145996, 3.479522943496704, 7.053040504455566, -2.587780237197876, 11.059087753295898, 0.8016586899757385, 0.3486328125, -0.228271484375, -0.7763671875
582, 229981985, -5.75772762298584, 3.5496954917907715, 7.075985908508301, -2.334137201309204, 10.09497356414795, -0.3904913067817688, 0.352783203125, -0.228271484375, -0.775634765625
583, 229998652, -5.7803215980529785, 3.6260480880737305, 6.995015621185303, -1.406739592552185, 8.471025466918945, -2.4534926414489746, 0.352783203125, -0.228759765625, -0.774658203125
584, 230015319, -5.866174221038818, 3.6601145267486572, 6.912777900695801, -2.459843873977661, 5.8387675285339355, -3.445164442062378, 0.356689453125, -0.230224609375, -0.776123046875
585, 230031986, -5.766700267791748, 3.939527988433838, 6.878777027130127, -5.25492000579834, 2.627856731414795, -5.615073204040527, 0.357177734375, -0.228271484375, -0.7744140625
586, 230048653, -5.767224311828613, 3.8689537048339844, 6.897215843200684, -9.55847454071045, -2.5286667346954346, -10.4990234375, 0.35791015625, -0.225341796875, -0.775146484375
587, 230065320, -5.954066276550293, 3.386969566345215, 7.126469612121582, -9.74744701385498, -6.684869289398193, -12.751769065856934, 0.358154296875, -0.224365234375, -0.7734375
588, 230081987, -5.824407577514648, 3.345951557159424, 7.179863929748535, -8.99592113494873, -8.198366165161133, -12.37668514251709, 0.356689453125, -0.220703125, -0.775634765625
589, 230098654, -5.817847728729248, 3.3567259311676025, 7.255983352661133, -9.690420150756836, -7.762959957122803, -11.338943481445312, 0.354736328125, -0.2177734375, -0.77587890625
590, 230115321, -5.770008563995361, 3.4660439491271973, 7.263521671295166, -12.024435997009277, -7.643056869506836, -11.774889945983887, 0.357177734375, -0.2177734375, -0.77880859375
591, 230131988, -5.776629447937012, 3.377335786819458, 7.228971481323242, -13.407394409179688, -6.948375225067139, -12.336641311645508, 0.353271484375, -0.213134765625, -0.7783203125
592, 230148655, -5.72742223739624, 3.3072283267974854, 7.367054462432861, -13.31692886352539, -3.9995555877685547, -11.808697700500488, 0.354248046875, -0.209716796875, -0.780029296875
593, 230165322, -5.7668375968933105, 3.0211524963378906, 7.568816184997559, -14.691411018371582, 1.7989164590835571, -9.360069274902344, 0.354736328125, -0.205322265625, -0.781982421875
594, 230181989, -5.59560489654541, 3.135615825653076, 7.729427814483643, -11.61758804321289, 9.689507484436035, -10.915364265441895, 0.358642578125, -0.20068359375, -0.779541015625
595, 230198656, -5.617384910583496, 2.95625638961792, 7.623851299285889, -7.336567401885986, 18.374746322631836, -12.436064720153809, 0.361328125, -0.19921875, -0.77685546875
596, 230215323, -5.615160942077637, 3.1803276538848877, 7.660019874572754, -4.543516159057617, 28.184011459350586, -12.520401954650879, 0.3681640625, -0.19775390625, -0.774658203125
597, 230231990, -5.691059589385986, 3.2761173248291016, 7.560984134674072, -3.201566696166992, 36.584259033203125, -14.160929679870605, 0.377197265625, -0.19677734375, -0.770263671875
598, 230248657, -5.848471641540527, 3.281120777130127, 7.402273178100586, -1.4719351530075073, 44.97233200073242, -15.69963550567627, 0.388671875, -0.1953125, -0.764404296875
599, 230265324, -5.971839427947998, 3.4866600036621094, 7.296777248382568, 1.4820120334625244, 53.041011810302734, -18.686105728149414, 0.40380859375, -0.1904296875, -0.757568359375
600, 230281991, -5.983089447021484, 3.5552337169647217, 7.425848007202148, 3.209890365600586, 61.74215316772461, -23.525497436523438, 0.417236328125, -0.19091796875, -0.7529296875
601, 230298658, -6.064888000488281, 3.6852850914001465, 7.6823859214782715, 3.5408124923706055, 74.57237243652344, -30.4320068359375, 0.4326171875, -0.1865234375, -0.743408203125
602, 230315325, -6.095713138580322, 3.975029230117798, 8.096818923950195, 0.9787659049034119, 90.98050689697266, -40.51018524169922, 0.45458984375, -0.18359375, -0.730224609375
603, 230331992, -6.1143388748168945, 4.570501804351807, 8.25487995147705, -4.313606262207031, 115.86956787109375, -53.90793228149414, 0.482177734375, -0.175537109375, -0.71484375
604, 230348659, -6.73245906829834, 5.573186874389648, 8.575759887695312, -15.867905616760254, 148.9944305419922, -74.81918334960938, 0.51513671875, -0.162109375, -0.6962890625
605, 230365326, -7.741097450256348, 6.566710472106934, 9.041313171386719, -30.776573181152344, 177.47808837890625, -115.87761688232422, 0.552978515625, -0.13525390625, -0.670166015625
606, 230381993, -8.967888832092285, 9.246368408203125, 9.4346284866333, -63.25891876220703, 203.77940368652344, -176.40333557128906, 0.595703125, -0.0966796875, -0.633544921875
607, 230398660, -9.985665321350098, 8.575969696044922, 10.62973690032959, -85.58050537109375, 209.75405883789062, -229.80015563964844, 0.63720703125, -0.034423828125, -0.596435546875
608, 230415327, -13.20339584350586, 13.209797859191895, 11.85101318359375, -130.48399353027344, 220.42027282714844, -271.3695068359375, 0.673828125, 0.040283203125, -0.551513671875
609, 230431994, -11.692437171936035, 11.181021690368652, 11.689322471618652, -175.2091827392578, 214.208740234375, -299.0576477050781, 0.697998046875, 0.13134765625, -0.5029296875
610, 230448661, -7.656486988067627, 7.638108730316162, 11.15786075592041, -183.09243774414062, 207.3043670654297, -290.1840515136719, 0.709228515625, 0.22607421875, -0.444580078125
611, 230465328, -3.8782215118408203, 15.095436096191406, 5.140149116516113, -227.26739501953125, 220.33946228027344, -225.81285095214844, 0.709716796875, 0.311279296875, -0.378662109375
612, 230481995, -17.087995529174805, 22.582590103149414, 15.73078441619873, -175.58241271972656, 165.74110412597656, 27.85310935974121, 0.72705078125, 0.340087890625, -0.31689453125
613, 230498662, -9.173108100891113, 18.845243453979492, 12.778497695922852, -220.34466552734375, 41.00104904174805, 203.8576202392578, 0.747314453125, 0.320068359375, -0.280029296875
614, 230515329, -2.111323356628418, 9.415993690490723, 6.750085353851318, -270.5373229980469, 3.2509562969207764, 263.2630310058594, 0.769287109375, 0.28515625, -0.2529296875
615, 230531996, -0.7577892541885376, 2.509528636932373, 4.6731953620910645, -261.40093994140625, 0.42009514570236206, 267.1660461425781, 0.788818359375, 0.242431640625, -0.22998046875
616, 230548663, -0.922360897064209, -1.4748847484588623, 4.67404842376709, -215.24900817871094, -7.269098281860352, 255.78482055664062, 0.7998046875, 0.194091796875, -0.21728515625
617, 230565330, -2.349033832550049, -2.9146320819854736, 6.180634021759033, -155.19735717773438, -30.908214569091797, 219.27401733398438, 0.809326171875, 0.151611328125, -0.21142578125
618, 230581997, -4.490084648132324, -2.729679822921753, 8.376547813415527, -107.93317413330078, -73.30815124511719, 167.8990478515625, 0.80859375, 0.120849609375, -0.218505859375
619, 230598664, -5.72736120223999, -1.524241328239441, 9.428915023803711, -72.8468246459961, -132.70960998535156, 121.1964111328125, 0.806884765625, 0.09814453125, -0.241943359375
620, 230615331, -5.5810933113098145, -0.200946643948555, 9.16826343536377, -54.30223846435547, -186.75779724121094, 87.74943542480469, 0.80029296875, 0.083984375, -0.2783203125
621, 230631998, -5.19387149810791, 0.9202674031257629, 8.241132736206055, -44.81663131713867, -221.78903198242188, 70.70352935791016, 0.785888671875, 0.070068359375, -0.322998046875
622, 230648665, -5.3298163414001465, 1.9281065464019775, 7.664856433868408, -40.08022689819336, -238.54771423339844, 67.92033386230469, 0.769775390625, 0.058837890625, -0.373779296875
623, 230665332, -5.98516845703125, 2.9993667602539062, 7.528497219085693, -41.562171936035156, -246.15306091308594, 71.77032470703125, 0.753662109375, 0.047119140625, -0.423828125
624, 230681999, -6.463085651397705, 3.224614381790161, 7.364071846008301, -44.935935974121094, -247.7576904296875, 74.75067901611328, 0.732666015625, 0.033935546875, -0.4736328125
625, 230698666, -7.061298847198486, 3.1486306190490723, 7.321883678436279, -38.2187385559082, -239.3573455810547, 74.03361511230469, 0.71728515625, 0.021240234375, -0.530517578125
626, 230715333, -9.390096664428711, 4.176656246185303, 8.965106964111328, -21.2272891998291, -228.01016235351562, 72.23406982421875, 0.700927734375, 0.00341796875, -0.593994140625
627, 230732000, -13.168356895446777, 6.133701801300049, 11.40492057800293, -4.877217769622803, -235.71217346191406, 77.99263763427734, 0.66650390625, -0.0234375, -0.66748046875
628, 230748667, -14.814910888671875, 7.351141929626465, 11.361116409301758, 3.199366331100464, -250.0414276123047, 89.12276458740234, 0.6044921875, -0.050048828125, -0.73681640625
629, 230765334, -16.277605056762695, 8.118940353393555, 9.784831047058105, 1.511473298072815, -236.73471069335938, 97.79219055175781, 0.5283203125, -0.070068359375, -0.78271484375
630, 230782001, -20.53621482849121, 9.038905143737793, 9.017509460449219, -8.368098258972168, -215.25267028808594, 105.63837432861328, 0.4658203125, -0.086181640625, -0.813720703125
631, 230798668, -24.761585235595703, 8.153327941894531, 7.159533977508545, -14.8746919631958, -215.66319274902344, 122.79373168945312, 0.40234375, -0.093505859375, -0.8388671875
632, 230815335, -25.234289169311523, 4.422770023345947, 2.6772301197052, -9.774930953979492, -220.99447631835938, 135.2636260986328, 0.338134765625, -0.0947265625, -0.8671875
633, 230832002, -24.0745849609375, -2.996807098388672, -2.1541409492492676, 3.806440591812134, -203.2181854248047, 115.2933349609375, 0.276611328125, -0.096435546875, -0.890625
634, 230848669, -25.458023071289062, -10.59552001953125, -6.359555244445801, 36.811038970947266, -172.108642578125, 58.94795608520508, 0.223876953125, -0.103271484375, -0.905517578125
635, 230865336, -25.117813110351562, -10.87149715423584, -11.966750144958496, 44.52004623413086, -113.7479019165039, -26.58794403076172, 0.183349609375, -0.111083984375, -0.912109375
636, 230882003, -19.63528823852539, -7.970536708831787, -11.981593132019043, 4.313620567321777, -13.389254570007324, -118.82403564453125, 0.1708984375, -0.1064453125, -0.9169921875
637, 230898670, -20.812946319580078, -2.360032558441162, -6.98763370513916, -2.8706164360046387, 62.62173080444336, -165.47039794921875, 0.1875, -0.1005859375, -0.91455078125
638, 230915337, -12.063605308532715, 3.9592151641845703, 3.1153204441070557, 1.8389853239059448, 95.95465087890625, -156.14297485351562, 0.212890625, -0.090087890625, -0.911376953125
639, 230932004, -1.8948465585708618, 14.519623756408691, 12.525775909423828, 6.716134548187256, 82.39692687988281, -79.50285339355469, 0.239501953125, -0.0888671875, -0.904541015625
640, 230948671, 0.6243420839309692, 7.811914920806885, 3.866452217102051, 11.648350715637207, 137.86842346191406, -32.11016845703125, 0.2685546875, -0.091796875, -0.896484375
641, 230965338, -13.25866985321045, -0.32804811000823975, 12.43848705291748, 5.5693440437316895, 152.0587615966797, -13.311579704284668, 0.313232421875, -0.09765625, -0.883056640625
642, 230982005, -12.856243133544922, -0.1675613522529602, 11.852681159973145, 8.533833503723145, 92.1302719116211, -44.24442672729492, 0.3408203125, -0.09619140625, -0.868896484375
643, 230998672, -6.050590515136719, 7.173055648803711, 6.9251861572265625, 13.569466590881348, 77.2628173828125, -30.443899154663086, 0.35888671875, -0.099365234375, -0.8623046875
644, 231015339, -9.430746078491211, 8.724085807800293, 10.05116081237793, -27.944551467895508, 84.76492309570312, -33.05720520019531, 0.38134765625, -0.097412109375, -0.85498046875
645, 231032006, -9.547043800354004, 0.5843493342399597, 8.537863731384277, -30.327600479125977, 36.461063385009766, -31.924047470092773, 0.393798828125, -0.08203125, -0.848388671875
646, 231048673, -6.5306925773620605, 3.1318233013153076, 8.774681091308594, -26.703927993774414, 27.771020889282227, -23.64677619934082, 0.40234375, -0.073974609375, -0.84521484375
647, 231065340, -6.559031963348389, 2.0776526927948, 8.554598808288574, -9.709532737731934, 12.344038963317871, -12.307778358459473, 0.4072265625, -0.06787109375, -0.84619140625
648, 231082007, -5.680047988891602, 3.0674538612365723, 8.031731605529785, -5.154021263122559, 9.541690826416016, -7.6002912521362305, 0.41015625, -0.06640625, -0.843994140625
649, 231098674, -6.001913547515869, 2.977041721343994, 7.830751419067383, 1.5800158977508545, 8.08130168914795, -3.8708226680755615, 0.415771484375, -0.067626953125, -0.8427734375
650, 231115341, -5.59949254989624, 3.208526372909546, 7.78839635848999, 5.33288049697876, 9.052972793579102, -1.87651526927948, 0.415771484375, -0.070556640625, -0.84033203125
651, 231132008, -5.583513259887695, 3.1685001850128174, 7.65494441986084, 6.516597747802734, 10.541916847229004, -1.4917100667953491, 0.417236328125, -0.074462890625, -0.841064453125
652, 231148675, -5.6853790283203125, 3.3650405406951904, 7.47604513168335, 6.073728084564209, 10.550317764282227, -1.8274414539337158, 0.4208984375, -0.07666015625, -0.839111328125
653, 231165342, -5.686443328857422, 3.404118776321411, 7.385812759399414, 4.1422343254089355, 9.128131866455078, -2.425997495651245, 0.42529296875, -0.0771484375, -0.837890625
654, 231182009, -5.673739910125732, 3.2343504428863525, 7.396052360534668, 2.2087562084198, 7.31467342376709, -2.669215202331543, 0.427734375, -0.076171875, -0.833740234375
655, 231198676, -5.5417327880859375, 3.2865233421325684, 7.386280536651611, 0.14012068510055542, 5.761724472045898, -3.335772752761841, 0.4306640625, -0.08056640625, -0.83251953125
656, 231215343, -5.5877766609191895, 3.423207998275757, 7.296074390411377, -3.3803131580352783, 3.4831032752990723, -5.319872856140137, 0.4287109375, -0.07666015625, -0.833740234375
657, 231232010, -5.660308837890625, 3.4589431285858154, 7.22093391418457, -7.018726348876953, 0.2933230996131897, -6.905786991119385, 0.43115234375, -0.07958984375, -0.83251953125
658, 231248677, -5.63191032409668, 3.3626649379730225, 7.389402866363525, -9.615025520324707, -3.3793797492980957, -8.394373893737793, 0.431884765625, -0.0751953125, -0.834716796875
659, 231265344, -5.608730316162109, 3.346339225769043, 7.422488212585449, -11.402796745300293, -7.499021053314209, -9.892786026000977, 0.43115234375, -0.072998046875, -0.834716796875
660, 231282011, -5.64840030670166, 3.402712821960449, 7.431972026824951, -18.06670379638672, -13.65494441986084, -13.270112037658691, 0.42822265625, -0.065673828125, -0.8359375
661, 231298678, -5.704779148101807, 3.374235153198242, 7.097840785980225, -22.27425765991211, -19.299894332885742, -14.077011108398438, 0.423095703125, -0.060546875, -0.838134765625
662, 231315345, -5.337250232696533, 2.8281052112579346, 7.728534698486328, -15.667600631713867, -15.152604103088379, -9.910955429077148, 0.418212890625, -0.057373046875, -0.8388671875
