Yaw,Pitch,Roll,MagX,MagY,MagZ,AccelX,AccelY,AccelZ,GyroX,GyroY,GyroZ
-125.272,-019.519,+010.614,-0.078,+0.757,+2.414,-03.1720,-01.6010,-08.7660,-00.005202,-00.000603,+00.021529
-125.250,-019.522,+010.604,-0.087,+0.752,+2.397,-03.1510,-01.6140,-08.7870,-00.001321,+00.000429,+00.016870
-125.230,-019.526,+010.596,-0.078,+0.738,+2.430,-03.1090,-01.6940,-08.7380,-00.001407,-00.002080,+00.018989
-125.203,-019.535,+010.578,-0.073,+0.733,+2.414,-03.1410,-01.5310,-08.7580,-00.007646,-00.003183,+00.029288
-125.171,-019.547,+010.559,-0.078,+0.728,+2.425,-03.1550,-01.6320,-08.7770,-00.001438,-00.004974,+00.032435
-125.136,-019.556,+010.543,-0.087,+0.753,+2.424,-03.1380,-01.6320,-08.6490,+00.000791,+00.000256,+00.029927
-125.109,-019.568,+010.521,-0.073,+0.757,+2.398,-03.1380,-01.5010,-08.7970,-00.013282,-00.004847,+00.024048
-125.081,-019.575,+010.505,-0.078,+0.737,+2.392,-03.1940,-01.6720,-08.7880,+00.000820,+00.001252,+00.023409
-125.060,-019.579,+010.496,-0.078,+0.728,+2.430,-03.2050,-01.6570,-08.7430,-00.001809,-00.000871,+00.014396
-125.043,-019.583,+010.493,-0.087,+0.728,+2.424,-03.1650,-01.6580,-08.7790,+00.002751,-00.000807,+00.015528
-125.028,-019.592,+010.492,-0.073,+0.733,+2.414,-03.2010,-01.6140,-08.7680,+00.005683,-00.005788,+00.012703
-125.015,-019.592,+010.489,-0.097,+0.728,+2.408,-03.1680,-01.6060,-08.7980,-00.000730,+00.006190,+00.011835
-124.996,-019.596,+010.486,-0.087,+0.748,+2.413,-03.2530,-01.5740,-08.8350,+00.003610,+00.000983,+00.017125
-124.976,-019.598,+010.475,-0.087,+0.723,+2.397,-03.1910,-01.6490,-08.7430,-00.003450,+00.004452,+00.017702
-124.959,-019.605,+010.469,-0.087,+0.718,+2.441,-03.1810,-01.6790,-08.8020,+00.001002,-00.010600,+00.018734
-124.937,-019.604,+010.451,-0.073,+0.728,+2.414,-03.2150,-01.5630,-08.7750,-00.007577,+00.007686,+00.020193
-124.922,-019.611,+010.438,-0.083,+0.728,+2.419,-03.1150,-01.6690,-08.6120,+00.000525,-00.010844,+00.013883
-124.907,-019.612,+010.421,-0.092,+0.723,+2.446,-03.1830,-01.6060,-08.7970,-00.012686,+00.002032,+00.012342
-124.888,-019.612,+010.398,-0.078,+0.747,+2.425,-03.1380,-01.5870,-08.7160,-00.016883,+00.009142,+00.020079
-124.867,-019.618,+010.371,-0.083,+0.738,+2.425,-03.1540,-01.6600,-08.7040,-00.025619,-00.006095,+00.020216
-124.845,-019.624,+010.342,-0.073,+0.713,+2.447,-03.1620,-01.6410,-08.7750,-00.019150,-00.004183,+00.015938
-124.822,-019.625,+010.316,-0.078,+0.738,+2.436,-03.1580,-01.5370,-08.7670,-00.018146,+00.003009,+00.020340
-124.798,-019.626,+010.287,-0.069,+0.738,+2.436,-03.1780,-01.5160,-08.7380,-00.017131,+00.005940,+00.021736
-124.774,-019.627,+010.260,-0.078,+0.713,+2.457,-03.1850,-01.5460,-08.8000,-00.016362,+00.002998,+00.019211
-124.752,-019.626,+010.239,-0.078,+0.762,+2.403,-03.1980,-01.4830,-08.7610,-00.005949,+00.002939,+00.017993
-124.735,-019.629,+010.220,-0.073,+0.718,+2.414,-03.1950,-01.5890,-08.6950,-00.012071,+00.000535,+00.016541
-124.717,-019.628,+010.197,-0.078,+0.733,+2.430,-03.1760,-01.5410,-08.7130,-00.013949,+00.004756,+00.015638
-124.703,-019.626,+010.178,-0.073,+0.743,+2.425,-03.1410,-01.6180,-08.7480,-00.012482,+00.004638,+00.013010
-124.686,-019.623,+010.160,-0.073,+0.752,+2.414,-03.1230,-01.5890,-08.7930,-00.007869,+00.004087,+00.013829
-124.669,-019.621,+010.143,-0.087,+0.758,+2.430,-03.1780,-01.5260,-08.8010,-00.011384,+00.004569,+00.012115
-124.657,-019.623,+010.132,-0.069,+0.747,+2.398,-03.1600,-01.5310,-08.7610,-00.004510,-00.000079,+00.005576
-124.648,-019.620,+010.124,-0.078,+0.723,+2.425,-03.1590,-01.5510,-08.7460,-00.000617,+00.004339,+00.007997
-124.638,-019.617,+010.118,-0.087,+0.713,+2.430,-03.1590,-01.5610,-08.7900,+00.000131,+00.002254,+00.009117
-124.628,-019.613,+010.115,-0.083,+0.743,+2.430,-03.1980,-01.6090,-08.7550,+00.000939,+00.006159,+00.007003
-124.621,-019.608,+010.113,-0.078,+0.703,+2.430,-03.1650,-01.5600,-08.7530,+00.002846,+00.004819,+00.005573
-124.611,-019.604,+010.115,-0.078,+0.743,+2.430,-03.1740,-01.5190,-08.7740,+00.008844,+00.002417,+00.008868
-124.605,-019.601,+010.124,-0.078,+0.733,+2.425,-03.1390,-01.5650,-08.7700,+00.011872,+00.002352,+00.003788
-124.600,-019.598,+010.135,-0.078,+0.703,+2.436,-03.1770,-01.5040,-08.7660,+00.012955,+00.003062,+00.007326
-124.596,-019.595,+010.148,-0.096,+0.733,+2.446,-03.1500,-01.5970,-08.7580,+00.013808,+00.004623,+00.002673
-124.593,-019.592,+010.164,-0.083,+0.767,+2.414,-03.1840,-01.5660,-08.7800,+00.015523,+00.000965,+00.001794
-124.591,-019.590,+010.178,-0.083,+0.733,+2.408,-03.1330,-01.5790,-08.7080,+00.011240,+00.006139,+00.002902
-124.587,-019.586,+010.189,-0.078,+0.723,+2.446,-03.1310,-01.5990,-08.7740,+00.008072,+00.003206,+00.004907
-124.580,-019.585,+010.195,-0.078,+0.742,+2.414,-03.1660,-01.5890,-08.7560,+00.006533,-00.000758,+00.007713
-124.574,-019.588,+010.196,-0.078,+0.743,+2.430,-03.2950,-01.5390,-08.8500,-00.000740,+00.001319,+00.003374
-124.574,-019.587,+010.197,-0.073,+0.733,+2.447,-03.1320,-01.6040,-08.6120,+00.002611,-00.003849,-00.001041
-124.572,-019.579,+010.192,-0.083,+0.762,+2.397,-03.1280,-01.5740,-08.7170,-00.005710,+00.007950,+00.000221
-124.569,-019.574,+010.187,-0.078,+0.728,+2.425,-03.1050,-01.6050,-08.7580,-00.004230,+00.003964,+00.002616
-124.566,-019.571,+010.183,-0.078,+0.738,+2.446,-03.1610,-01.6670,-08.7330,-00.004698,+00.005082,+00.002491
-124.563,-019.568,+010.175,-0.083,+0.742,+2.403,-03.1690,-01.5740,-08.7450,-00.004711,+00.002576,+00.002383
-124.564,-019.564,+010.168,-0.083,+0.713,+2.409,-03.1990,-01.5030,-08.8100,-00.006560,+00.004885,-00.002875
-124.569,-019.557,+010.162,-0.069,+0.713,+2.442,-03.1570,-01.5550,-08.7410,-00.006814,+00.006796,-00.006122
-124.571,-019.549,+010.157,-0.087,+0.738,+2.397,-03.1440,-01.5980,-08.7270,-00.005195,+00.002942,+00.000739
-124.569,-019.544,+010.149,-0.078,+0.723,+2.425,-03.1820,-01.5420,-08.7510,-00.004775,+00.003277,+00.000885
-124.568,-019.540,+010.144,-0.083,+0.748,+2.424,-03.1990,-01.5330,-08.7930,-00.002687,+00.001939,-00.002138
-124.570,-019.534,+010.138,-0.083,+0.733,+2.408,-03.1970,-01.5550,-08.7730,-00.004705,+00.007157,-00.002475
-124.573,-019.524,+010.131,-0.087,+0.728,+2.419,-03.1840,-01.5590,-08.7740,-00.006658,+00.009543,-00.003708
-124.577,-019.511,+010.124,-0.073,+0.718,+2.431,-03.1090,-01.5500,-08.7560,-00.007644,+00.011654,-00.001936
-124.576,-019.503,+010.115,-0.073,+0.743,+2.436,-03.0860,-01.5930,-08.7500,-00.005574,+00.002157,+00.002505
-124.570,-019.501,+010.108,-0.073,+0.738,+2.425,-03.1640,-01.5730,-08.7580,-00.002905,-00.002355,+00.005037
-124.568,-019.504,+010.104,-0.083,+0.733,+2.441,-03.1770,-01.5730,-08.7820,-00.002931,-00.001169,+00.001891
-124.567,-019.506,+010.101,-0.064,+0.752,+2.414,-03.1730,-01.5510,-08.7810,-00.003279,+00.000146,-00.000177
-124.569,-019.503,+010.097,-0.078,+0.728,+2.419,-03.1200,-01.5780,-08.7470,-00.002137,-00.000378,-00.000149
-124.568,-019.502,+010.093,-0.083,+0.728,+2.425,-03.1210,-01.5770,-08.7570,-00.002442,+00.000040,+00.001330
-124.567,-019.503,+010.090,-0.078,+0.742,+2.409,-03.1480,-01.5610,-08.7820,-00.002045,-00.000558,+00.001882
-124.566,-019.501,+010.086,-0.092,+0.762,+2.402,-03.1490,-01.5640,-08.7850,-00.003226,+00.000956,+00.000817
-124.564,-019.496,+010.080,-0.078,+0.713,+2.425,-03.1140,-01.5550,-08.7910,-00.004866,+00.005636,+00.000719
-124.562,-019.491,+010.073,-0.083,+0.738,+2.425,-03.1530,-01.5510,-08.7670,-00.005691,+00.004735,+00.002584
-124.560,-019.484,+010.064,-0.078,+0.723,+2.414,-03.1190,-01.5630,-08.7360,-00.006049,+00.003412,+00.002705
-124.556,-019.482,+010.058,-0.087,+0.708,+2.441,-03.1380,-01.5460,-08.7600,-00.003219,+00.001193,+00.003996
-124.551,-019.481,+010.049,-0.078,+0.733,+2.425,-03.1650,-01.5510,-08.7630,-00.002483,+00.000186,+00.003301
-124.547,-019.482,+010.044,-0.083,+0.718,+2.409,-03.1760,-01.5560,-08.7760,-00.004023,+00.001092,+00.003744
-124.543,-019.482,+010.040,-0.087,+0.718,+2.446,-03.1520,-01.5480,-08.7600,-00.000799,-00.000394,+00.003433
-124.541,-019.481,+010.037,-0.073,+0.723,+2.425,-03.1720,-01.5150,-08.7780,-00.000195,+00.000714,+00.000886
-124.542,-019.480,+010.037,-0.073,+0.743,+2.430,-03.1570,-01.5520,-08.7910,+00.000917,+00.001985,-00.000245
-124.544,-019.478,+010.039,-0.087,+0.733,+2.435,-03.1310,-01.5660,-08.7660,+00.002270,-00.000330,-00.001996
-124.546,-019.475,+010.039,-0.069,+0.733,+2.420,-03.1480,-01.5150,-08.7490,+00.002192,+00.000049,-00.002448
-124.551,-019.474,+010.044,-0.083,+0.733,+2.414,-03.1190,-01.5650,-08.7290,+00.004415,-00.002647,+00.000711
-124.550,-019.474,+010.050,-0.078,+0.713,+2.452,-03.0920,-01.5560,-08.7510,+00.006545,-00.003427,+00.003132
-124.548,-019.481,+010.055,-0.087,+0.728,+2.408,-03.1530,-01.5430,-08.7550,+00.004452,-00.004959,+00.001460
-124.551,-019.487,+010.059,-0.087,+0.723,+2.435,-03.2200,-01.4860,-08.8860,+00.006804,-00.006509,-00.004062
-124.559,-019.487,+010.065,-0.073,+0.723,+2.430,-03.1540,-01.5980,-08.7230,-00.001557,-00.001702,-00.005917
-124.565,-019.489,+010.077,-0.083,+0.742,+2.403,-03.1210,-01.5840,-08.7440,+00.013412,-00.007547,-00.003752
-124.567,-019.491,+010.087,-0.083,+0.742,+2.403,-03.1170,-01.5570,-08.6740,+00.005956,-00.001105,-00.001463
-124.570,-019.496,+010.099,-0.083,+0.728,+2.430,-03.0620,-01.6170,-08.7210,+00.010798,-00.007195,-00.001465
-124.572,-019.497,+010.108,-0.083,+0.733,+2.419,-03.2120,-01.5130,-08.8810,+00.006964,+00.004457,+00.001222
-124.572,-019.503,+010.118,-0.087,+0.733,+2.403,-03.1400,-01.5530,-08.7420,+00.012227,-00.008392,+00.003227
-124.571,-019.505,+010.127,-0.078,+0.723,+2.452,-03.1590,-01.5560,-08.7530,+00.009578,-00.002770,-00.000121
-124.574,-019.512,+010.141,-0.087,+0.743,+2.414,-03.1150,-01.5990,-08.7550,+00.010894,-00.005909,-00.000148
-124.580,-019.519,+010.156,-0.073,+0.728,+2.409,-03.1460,-01.5500,-08.7950,+00.011463,-00.003996,-00.003118
-124.587,-019.522,+010.168,-0.087,+0.718,+2.435,-03.1740,-01.5460,-08.7780,+00.008374,-00.002492,-00.005500
-124.593,-019.519,+010.178,-0.083,+0.728,+2.425,-03.0930,-01.5590,-08.7260,+00.006000,-00.000679,-00.003744
-124.598,-019.520,+010.190,-0.083,+0.738,+2.398,-03.1050,-01.5370,-08.7670,+00.009089,-00.002759,-00.001901
-124.604,-019.524,+010.204,-0.083,+0.708,+2.436,-03.1530,-01.5730,-08.7940,+00.010234,-00.002192,-00.005168
-124.611,-019.524,+010.219,-0.078,+0.742,+2.414,-03.1300,-01.5470,-08.7930,+00.013022,-00.000999,-00.004565
-124.618,-019.527,+010.234,-0.078,+0.713,+2.409,-03.1490,-01.5630,-08.7650,+00.014399,-00.005699,-00.005363
-124.625,-019.533,+010.255,-0.087,+0.738,+2.424,-03.1730,-01.5800,-08.7340,+00.017681,-00.002869,-00.004059
-124.632,-019.536,+010.280,-0.087,+0.762,+2.419,-03.1650,-01.6110,-08.7640,+00.015871,-00.000396,-00.002386
-124.633,-019.535,+010.296,-0.083,+0.738,+2.419,-03.1050,-01.6190,-08.7800,+00.012487,-00.002258,+00.002968
-124.628,-019.538,+010.309,-0.078,+0.728,+2.441,-03.2020,-01.5830,-08.7660,+00.014350,-00.002363,+00.004118
-124.629,-019.540,+010.325,-0.069,+0.737,+2.409,-03.1630,-01.5440,-08.7410,+00.013711,+00.000984,-00.000351
-124.628,-019.537,+010.340,-0.087,+0.738,+2.419,-03.0900,-01.6370,-08.7830,+00.012159,+00.001589,+00.003632
-124.620,-019.538,+010.352,-0.083,+0.767,+2.419,-03.1170,-01.6100,-08.7420,+00.013135,-00.003070,+00.007408
-124.611,-019.545,+010.364,-0.083,+0.752,+2.414,-03.1610,-01.6170,-08.7530,+00.014184,-00.004534,+00.008789
-124.602,-019.550,+010.377,-0.087,+0.728,+2.430,-03.1640,-01.6110,-08.7760,+00.014313,-00.002605,+00.008099
-124.595,-019.550,+010.388,-0.083,+0.738,+2.419,-03.1430,-01.6270,-08.7030,+00.011939,+00.003837,+00.007547
-124.586,-019.545,+010.398,-0.083,+0.738,+2.419,-03.0800,-01.6670,-08.7260,+00.009135,+00.002632,+00.007106
-124.577,-019.543,+010.403,-0.078,+0.733,+2.430,-03.1530,-01.6320,-08.8270,+00.005830,+00.002619,+00.007209
-124.566,-019.537,+010.404,-0.078,+0.713,+2.436,-03.1950,-01.6320,-08.7650,+00.000959,+00.007933,+00.008735
-124.554,-019.523,+010.398,-0.069,+0.747,+2.420,-03.1410,-01.6070,-08.7880,-00.003254,+00.012745,+00.008321
-124.543,-019.514,+010.388,-0.083,+0.738,+2.425,-03.0560,-01.5670,-08.7430,-00.007071,-00.000390,+00.010480
-124.526,-019.513,+010.369,-0.087,+0.738,+2.435,-03.2250,-01.3780,-08.7220,-00.002754,+00.007488,+00.013224
-124.523,-019.522,+010.367,-0.078,+0.743,+2.425,-03.2610,-01.6280,-08.8110,+00.005357,-00.009040,+00.001141
-124.526,-019.528,+010.369,-0.083,+0.743,+2.414,-03.2010,-01.5350,-08.6960,+00.003423,-00.002436,-00.004105
-124.533,-019.528,+010.368,-0.087,+0.708,+2.430,-03.1060,-01.6770,-08.8070,-00.002956,+00.004820,-00.003835
-124.532,-019.527,+010.354,-0.069,+0.767,+2.425,-03.1160,-01.5890,-08.7470,-00.013201,+00.003341,+00.004951
-124.526,-019.527,+010.342,-0.087,+0.728,+2.408,-03.1180,-01.6810,-08.7770,-00.012149,+00.001578,+00.008662
-124.515,-019.529,+010.327,-0.078,+0.723,+2.425,-03.2020,-01.6250,-08.7320,-00.008269,+00.000063,+00.007307
-124.509,-019.527,+010.317,-0.078,+0.742,+2.398,-03.1800,-01.4820,-08.7370,-00.002239,+00.002898,+00.005257
-124.504,-019.522,+010.306,-0.092,+0.718,+2.419,-03.1250,-01.5880,-08.7450,-00.004723,+00.000382,+00.007326
-124.494,-019.516,+010.296,-0.078,+0.743,+2.441,-03.1780,-01.6090,-08.7300,-00.006460,+00.002257,+00.010271
-124.480,-019.516,+010.281,-0.073,+0.752,+2.430,-03.1800,-01.5620,-08.7660,-00.006434,+00.001585,+00.010655
-124.467,-019.510,+010.266,-0.073,+0.757,+2.398,-03.1410,-01.6110,-08.8280,-00.010227,+00.011754,+00.011271
-124.454,-019.507,+010.252,-0.078,+0.743,+2.430,-03.1800,-01.5540,-08.8360,-00.005788,+00.000903,+00.011422
-124.448,-019.498,+010.247,-0.087,+0.757,+2.397,-03.1340,-01.6010,-08.7340,-00.001906,+00.007863,+00.002044
-124.447,-019.497,+010.242,-0.083,+0.742,+2.376,-03.0370,-01.6070,-08.9310,+00.000770,-00.005817,+00.002874
-124.445,-019.481,+010.242,-0.087,+0.718,+2.441,-03.1240,-01.6420,-08.7640,-00.001831,+00.014825,-00.000310
-124.444,-019.487,+010.239,-0.087,+0.748,+2.424,-03.0630,-01.5720,-08.5810,-00.008332,-00.035052,+00.007906
-124.443,-019.476,+010.237,-0.083,+0.747,+2.408,-03.1480,-01.6230,-08.8990,-00.005815,+00.011962,-00.005125
-124.444,-019.483,+010.237,-0.087,+0.713,+2.425,-03.1050,-01.4950,-09.1540,+00.007089,-00.000409,+00.001404
-124.451,-019.472,+010.243,-0.078,+0.728,+2.409,-03.1020,-01.5770,-08.7040,+00.006777,+00.004081,-00.004372
-124.457,-019.480,+010.247,-0.087,+0.723,+2.430,-03.1740,-01.6400,-08.7940,-00.002379,+00.016733,-00.004467
-124.465,-019.478,+010.259,-0.083,+0.713,+2.425,-03.1380,-01.6220,-08.7300,+00.008237,-00.000500,-00.004998
-124.468,-019.474,+010.264,-0.083,+0.743,+2.419,-03.1660,-01.5540,-08.7310,+00.004608,+00.004284,+00.002591
-124.466,-019.469,+010.266,-0.073,+0.772,+2.398,-03.1650,-01.6620,-08.7330,+00.001160,+00.006236,+00.001659
-124.461,-019.465,+010.264,-0.083,+0.748,+2.441,-03.1380,-01.6300,-08.7610,-00.002619,+00.003206,+00.004809
-124.455,-019.460,+010.257,-0.078,+0.737,+2.392,-03.1130,-01.5680,-08.7250,-00.003418,+00.005805,+00.007740
-124.447,-019.456,+010.246,-0.087,+0.733,+2.414,-03.1170,-01.5730,-08.7860,-00.008606,+00.003452,+00.008698
-124.438,-019.452,+010.232,-0.083,+0.723,+2.436,-03.1170,-01.5810,-08.7650,-00.009390,+00.003466,+00.008212
-124.433,-019.449,+010.217,-0.078,+0.733,+2.419,-03.1550,-01.5610,-08.7820,-00.009903,+00.005142,+00.003818
-124.427,-019.442,+010.202,-0.078,+0.723,+2.420,-03.1340,-01.5630,-08.7770,-00.009986,+00.004325,+00.004331
-124.421,-019.438,+010.188,-0.083,+0.703,+2.441,-03.1290,-01.5740,-08.7470,-00.008569,+00.005891,+00.005066
-124.416,-019.434,+010.178,-0.078,+0.772,+2.403,-03.0950,-01.6150,-08.6900,-00.006123,+00.002162,+00.004305
-124.408,-019.433,+010.168,-0.083,+0.713,+2.419,-03.1400,-01.5470,-08.7680,-00.007167,+00.001223,+00.006036
-124.404,-019.433,+010.160,-0.092,+0.733,+2.435,-03.1440,-01.5680,-08.7610,-00.004630,+00.001421,+00.004127
-124.399,-019.433,+010.152,-0.083,+0.738,+2.430,-03.1470,-01.5800,-08.7700,-00.004933,-00.000709,+00.005352
-124.394,-019.431,+010.144,-0.078,+0.747,+2.398,-03.1220,-01.5420,-08.7220,-00.006364,+00.006140,+00.002890
-124.389,-019.427,+010.136,-0.078,+0.728,+2.436,-03.1690,-01.6310,-08.7870,-00.008143,+00.008575,+00.005462
-124.385,-019.425,+010.128,-0.087,+0.733,+2.424,-03.1540,-01.5750,-08.7470,-00.001266,-00.000686,+00.005017
-124.381,-019.423,+010.121,-0.087,+0.728,+2.414,-03.1460,-01.5930,-08.7250,-00.003617,+00.001423,+00.003783
-124.377,-019.419,+010.114,-0.087,+0.743,+2.435,-03.1460,-01.5920,-08.8460,-00.005229,+00.003314,+00.005411
-124.370,-019.419,+010.106,-0.078,+0.752,+2.425,-03.1480,-01.5080,-08.7930,-00.001460,+00.001063,+00.008255
-124.366,-019.419,+010.100,-0.083,+0.728,+2.409,-03.1360,-01.5610,-08.7890,-00.004771,+00.002234,+00.003123
-124.365,-019.416,+010.094,-0.083,+0.713,+2.441,-03.1180,-01.5290,-08.7990,-00.000010,+00.001530,+00.002402
-124.364,-019.409,+010.087,-0.087,+0.738,+2.430,-03.0510,-01.4610,-08.7140,-00.001644,+00.002739,+00.000704
-124.363,-019.416,+010.075,-0.078,+0.718,+2.430,-03.3050,-01.5500,-08.3910,-00.020843,-00.030196,+00.007587
-124.359,-019.422,+010.068,-0.092,+0.718,+2.441,-03.2140,-01.5170,-08.9040,+00.002959,-00.002258,+00.003281
-124.358,-019.418,+010.061,-0.083,+0.738,+2.419,-03.1220,-01.5190,-08.7020,+00.000592,+00.001174,+00.000281
-124.361,-019.415,+010.060,-0.083,+0.723,+2.430,-03.1820,-01.6200,-08.8280,-00.002464,+00.005480,-00.001627
-124.364,-019.410,+010.060,-0.078,+0.733,+2.436,-03.0980,-01.5980,-08.7850,-00.001036,+00.004775,-00.000995
-124.365,-019.407,+010.057,-0.083,+0.733,+2.425,-03.1370,-01.5530,-08.7790,-00.004119,+00.002635,+00.000569
-124.365,-019.405,+010.053,-0.092,+0.728,+2.403,-03.1210,-01.5290,-08.7730,-00.003765,+00.002026,+00.000753
-124.365,-019.402,+010.049,-0.097,+0.713,+2.446,-03.1440,-01.5450,-08.7730,-00.002917,+00.002940,+00.001405
-124.365,-019.403,+010.046,-0.087,+0.757,+2.408,-03.1760,-01.5780,-08.7960,-00.000199,-00.000186,-00.000306
-124.367,-019.403,+010.046,-0.092,+0.733,+2.413,-03.1270,-01.5470,-08.7670,+00.000329,+00.000144,-00.001179
-124.368,-019.402,+010.046,-0.083,+0.728,+2.457,-03.1280,-01.4900,-08.7740,+00.003194,+00.001478,+00.002413
-124.368,-019.400,+010.049,-0.083,+0.733,+2.430,-03.1210,-01.6330,-08.7710,+00.001228,+00.000321,-00.001482
-124.370,-019.400,+010.051,-0.087,+0.713,+2.419,-03.1770,-01.5660,-08.7430,+00.001666,+00.000391,-00.001968
-124.374,-019.399,+010.056,-0.087,+0.718,+2.435,-03.1130,-01.5890,-08.7820,+00.002793,+00.002378,-00.001643
-124.375,-019.398,+010.061,-0.092,+0.733,+2.408,-03.1140,-01.5150,-08.7510,+00.004147,+00.000701,+00.004559
-124.377,-019.397,+010.062,-0.087,+0.733,+2.419,-03.1130,-01.5190,-08.7210,+00.000850,+00.002430,+00.001925
-124.379,-019.395,+010.061,-0.087,+0.718,+2.441,-03.1380,-01.6130,-08.7430,-00.001298,-00.001004,-00.001807
-124.381,-019.396,+010.061,-0.083,+0.743,+2.425,-03.0990,-01.5680,-08.7270,+00.000559,-00.003058,+00.001909
-124.377,-019.400,+010.056,-0.083,+0.733,+2.414,-03.1140,-01.4330,-08.8260,-00.002661,-00.000509,+00.004884
-124.374,-019.402,+010.053,-0.083,+0.723,+2.430,-03.1270,-01.5790,-08.7480,-00.000454,+00.000488,+00.002752
-124.374,-019.403,+010.052,-0.092,+0.748,+2.397,-03.1470,-01.5740,-08.7420,-00.000417,-00.001822,+00.000393
-124.375,-019.404,+010.051,-0.078,+0.733,+2.409,-03.1170,-01.5580,-08.7920,-00.000875,+00.001901,+00.000831
-124.374,-019.401,+010.049,-0.078,+0.723,+2.436,-03.1390,-01.5300,-08.7900,+00.000382,+00.000772,-00.000919
-124.379,-019.400,+010.052,-0.096,+0.733,+2.435,-03.1770,-01.6410,-08.7430,+00.003415,+00.000848,-00.004034
-124.389,-019.398,+010.050,-0.083,+0.723,+2.436,-03.3280,-01.4550,-08.9570,-00.000317,+00.007630,-00.009443
-124.404,-019.387,+010.056,-0.092,+0.723,+2.441,-03.1490,-01.5590,-08.7130,+00.010415,+00.001240,-00.010520
-124.416,-019.375,+010.057,-0.078,+0.733,+2.425,-03.0540,-01.6310,-08.7200,-00.000769,+00.010328,-00.005602
-124.412,-019.373,+010.052,-0.083,+0.718,+2.392,-03.1200,-01.6000,-08.7710,-00.005547,-00.000575,+00.007570
-124.408,-019.375,+010.045,-0.087,+0.723,+2.430,-03.1510,-01.5410,-08.7900,-00.002813,-00.002458,+00.002458
-124.410,-019.375,+010.042,-0.078,+0.743,+2.425,-03.1530,-01.5430,-08.7710,-00.000663,-00.000556,-00.001652
-124.415,-019.374,+010.042,-0.078,+0.738,+2.419,-03.1060,-01.5660,-08.7760,-00.000276,-00.000778,-00.002246
-124.415,-019.372,+010.041,-0.087,+0.703,+2.425,-03.1490,-01.5510,-08.7670,-00.002254,+00.003046,+00.001582
-124.414,-019.368,+010.037,-0.083,+0.747,+2.414,-03.1150,-01.5570,-08.7710,-00.003138,+00.003829,+00.002075
-124.410,-019.366,+010.032,-0.083,+0.728,+2.425,-03.1150,-01.5330,-08.7720,-00.001720,+00.002241,+00.003211
-124.409,-019.365,+010.031,-0.083,+0.708,+2.446,-03.1460,-01.5130,-08.8010,+00.000239,+00.000838,-00.004321
-124.413,-019.359,+010.034,-0.069,+0.723,+2.420,-03.0910,-01.4760,-08.7220,+00.003756,+00.001114,-00.002579
-124.419,-019.355,+010.038,-0.087,+0.738,+2.419,-03.1560,-01.5540,-08.7280,+00.000618,+00.005504,-00.005615
-124.423,-019.345,+010.043,-0.092,+0.713,+2.435,-03.0860,-01.7690,-08.5720,-00.003803,+00.010521,-00.003029
-124.423,-019.340,+010.039,-0.096,+0.757,+2.397,-03.0630,-01.4850,-08.9410,-00.003029,+00.000965,+00.000822
-124.418,-019.336,+010.035,-0.083,+0.723,+2.425,-03.0880,-01.4910,-08.7330,+00.003902,-00.001571,+00.004931
-124.414,-019.334,+010.030,-0.087,+0.723,+2.441,-03.1020,-01.5240,-08.7630,+00.000358,+00.002238,+00.005205
-124.411,-019.333,+010.029,-0.087,+0.733,+2.419,-03.1030,-01.5350,-08.7720,+00.000566,+00.000635,+00.003169
-124.408,-019.333,+010.028,-0.087,+0.723,+2.425,-03.1220,-01.5950,-08.7660,+00.000509,-00.000668,+00.001673
-124.406,-019.331,+010.026,-0.092,+0.728,+2.451,-03.1400,-01.4960,-08.7820,-00.001204,+00.001928,+00.001594
-124.403,-019.329,+010.025,-0.092,+0.743,+2.419,-03.1040,-01.5660,-08.7710,+00.000302,+00.000683,+00.002525
-124.403,-019.329,+010.025,-0.083,+0.728,+2.425,-03.1470,-01.5570,-08.7730,+00.001370,+00.001398,+00.002116
-124.402,-019.328,+010.025,-0.087,+0.718,+2.446,-03.1330,-01.5660,-08.7700,+00.001520,+00.001396,+00.001796
-124.401,-019.327,+010.025,-0.092,+0.743,+2.397,-03.1150,-01.5570,-08.8110,-00.000330,+00.000927,+00.002653
-124.397,-019.327,+010.023,-0.101,+0.713,+2.419,-03.1060,-01.5290,-08.7980,+00.000021,+00.000093,+00.004146
-124.393,-019.327,+010.020,-0.087,+0.713,+2.446,-03.1530,-01.5520,-08.7670,-00.000802,+00.001108,+00.003085
-124.391,-019.326,+010.017,-0.087,+0.733,+2.419,-03.1310,-01.5330,-08.7940,-00.001147,+00.002855,+00.000255
-124.392,-019.323,+010.016,-0.083,+0.738,+2.408,-03.2030,-01.5310,-08.8780,-00.000630,+00.010370,-00.000036
-124.394,-019.320,+010.019,-0.092,+0.723,+2.430,-03.1280,-01.5940,-08.7980,+00.001594,+00.002976,+00.001619
-124.393,-019.320,+010.018,-0.087,+0.748,+2.408,-03.1690,-01.5620,-08.7960,-00.000771,-00.001368,+00.001045
-124.393,-019.334,+010.015,-0.078,+0.743,+2.436,-02.9830,-01.4540,-08.4610,+00.009348,-00.004624,-00.002822
-124.395,-019.328,+010.016,-0.078,+0.718,+2.430,-03.1510,-01.5510,-08.8760,-00.003651,+00.011160,-00.000689
-124.396,-019.322,+010.019,-0.083,+0.762,+2.398,-03.1140,-01.5750,-08.7480,+00.000594,+00.005621,-00.000404
-124.396,-019.318,+010.020,-0.092,+0.713,+2.424,-03.1250,-01.5560,-08.7820,+00.001509,+00.003834,+00.000344
-124.396,-019.312,+010.022,-0.097,+0.728,+2.430,-03.1000,-01.5610,-08.7590,+00.000779,+00.005246,-00.000514
-124.396,-019.309,+010.023,-0.078,+0.733,+2.425,-03.1100,-01.5400,-08.8100,+00.001329,+00.001738,+00.000334
-124.395,-019.306,+010.027,-0.092,+0.738,+2.424,-03.1250,-01.5660,-08.7880,+00.003428,+00.001260,-00.000838
-124.397,-019.305,+010.031,-0.083,+0.743,+2.408,-03.0950,-01.5380,-08.7700,+00.004743,+00.000074,-00.002851
-124.398,-019.302,+010.036,-0.092,+0.733,+2.419,-03.0880,-01.5850,-08.7670,+00.002723,+00.001295,+00.000603
-124.397,-019.299,+010.038,-0.087,+0.752,+2.387,-03.1520,-01.5780,-08.7850,+00.000021,+00.003909,+00.001039
-124.394,-019.294,+010.037,-0.092,+0.753,+2.424,-03.0800,-01.5480,-08.7650,+00.000013,+00.002869,+00.000579
-124.394,-019.290,+010.037,-0.083,+0.728,+2.430,-03.0990,-01.5460,-08.8060,+00.000276,+00.002187,+00.000181
-124.395,-019.288,+010.038,-0.097,+0.718,+2.413,-03.0940,-01.5400,-08.7620,+00.002220,+00.000399,+00.000535
-124.395,-019.291,+010.041,-0.101,+0.723,+2.435,-03.1520,-01.5570,-08.7910,+00.003825,-00.001119,+00.001056
-124.396,-019.290,+010.045,-0.087,+0.752,+2.408,-03.1110,-01.5470,-08.8000,+00.004092,+00.002466,+00.000276
-124.396,-019.287,+010.049,-0.092,+0.713,+2.424,-03.1090,-01.5530,-08.7650,+00.004519,+00.000961,-00.000045
-124.397,-019.285,+010.054,-0.092,+0.728,+2.446,-03.1170,-01.5370,-08.7510,+00.004393,-00.000233,+00.001089
-124.397,-019.286,+010.058,-0.092,+0.733,+2.424,-03.1030,-01.5450,-08.7760,+00.003679,-00.000735,+00.000742
-124.398,-019.288,+010.062,-0.087,+0.728,+2.425,-03.1170,-01.5540,-08.7660,+00.004472,-00.000879,-00.000712
-124.398,-019.287,+010.068,-0.097,+0.723,+2.435,-03.1390,-01.5890,-08.7800,+00.002570,-00.000599,+00.001501
-124.397,-019.286,+010.071,-0.092,+0.738,+2.403,-03.1110,-01.5620,-08.7740,+00.001197,-00.000293,+00.003030
-124.395,-019.288,+010.072,-0.087,+0.738,+2.419,-03.1150,-01.5900,-08.7920,+00.000827,-00.002177,+00.002506
-124.393,-019.289,+010.073,-0.101,+0.738,+2.429,-03.1310,-01.5570,-08.7880,+00.001190,+00.000014,+00.000897
-124.393,-019.289,+010.075,-0.096,+0.753,+2.424,-03.1310,-01.5500,-08.7610,+00.002129,-00.000040,-00.000759
-124.392,-019.288,+010.076,-0.097,+0.718,+2.413,-03.0900,-01.5580,-08.7650,+00.000593,+00.000820,+00.003829
-124.388,-019.287,+010.076,-0.092,+0.748,+2.430,-03.1210,-01.5740,-08.8170,+00.000853,+00.001354,+00.002823
-124.386,-019.286,+010.074,-0.087,+0.738,+2.419,-03.1180,-01.5560,-08.7890,+00.000018,+00.002977,-00.000527
-124.388,-019.281,+010.076,-0.096,+0.738,+2.429,-03.1010,-01.5620,-08.7640,+00.001205,+00.003070,-00.000885
-124.388,-019.279,+010.078,-0.092,+0.728,+2.446,-03.1000,-01.4450,-08.7990,+00.004247,+00.001051,-00.000343
-124.390,-019.281,+010.081,-0.087,+0.743,+2.419,-03.1090,-01.5070,-08.7300,+00.004097,-00.001636,-00.000018
-124.392,-019.279,+010.084,-0.087,+0.743,+2.424,-03.1340,-01.5760,-08.7970,+00.002637,+00.000925,-00.000909
-124.392,-019.278,+010.085,-0.087,+0.733,+2.457,-03.1230,-01.5530,-08.8060,+00.001678,-00.000105,+00.000741
-124.392,-019.275,+010.084,-0.083,+0.728,+2.414,-03.1130,-01.5080,-08.7590,+00.000522,+00.004381,+00.002022
-124.391,-019.281,+010.085,-0.092,+0.733,+2.424,-03.0010,-01.5540,-09.0030,+00.007303,+00.001782,+00.003012
-124.388,-019.280,+010.086,-0.083,+0.708,+2.436,-03.1180,-01.4980,-08.7820,+00.006227,-00.000461,+00.000747
-124.387,-019.276,+010.090,-0.083,+0.723,+2.430,-03.1290,-01.5840,-08.7870,-00.000481,+00.006663,+00.000230
-124.388,-019.273,+010.094,-0.083,+0.757,+2.398,-03.1060,-01.5580,-08.8010,+00.004141,+00.001960,-00.000178
-124.390,-019.270,+010.100,-0.083,+0.708,+2.425,-03.1240,-01.5730,-08.7550,+00.003567,+00.002359,-00.002465
-124.391,-019.265,+010.105,-0.087,+0.743,+2.435,-03.0990,-01.5850,-08.7520,+00.003637,+00.002275,+00.000565
-124.391,-019.262,+010.109,-0.092,+0.713,+2.414,-03.1250,-01.5470,-08.7730,+00.003397,+00.003047,-00.001695
-124.391,-019.258,+010.112,-0.078,+0.733,+2.420,-03.1110,-01.5240,-08.7760,+00.003135,+00.001688,+00.001115
-124.392,-019.255,+010.112,-0.087,+0.738,+2.425,-03.1010,-01.5140,-08.7850,+00.003889,+00.002318,+00.002012
-124.393,-019.255,+010.115,-0.092,+0.728,+2.419,-03.1000,-01.5960,-08.7420,+00.000920,-00.000758,+00.000487
-124.395,-019.254,+010.117,-0.092,+0.713,+2.441,-03.1180,-01.5630,-08.7900,+00.001317,+00.000791,-00.000889
-124.396,-019.252,+010.119,-0.101,+0.738,+2.419,-03.0980,-01.5720,-08.7700,+00.000372,+00.002040,-00.001224
-124.397,-019.250,+010.118,-0.078,+0.752,+2.392,-03.0940,-01.5930,-08.8050,-00.002505,+00.002175,+00.000741
-124.395,-019.248,+010.113,-0.092,+0.723,+2.441,-03.0600,-01.6140,-08.6070,-00.002146,-00.000349,+00.003237
-124.393,-019.254,+010.102,-0.092,+0.772,+2.424,-02.9340,-01.5290,-09.0120,-00.005206,-00.014978,+00.002882
-124.387,-019.249,+010.094,-0.092,+0.733,+2.414,-03.1090,-01.5110,-08.7770,-00.004857,+00.005517,+00.003688
-124.388,-019.248,+010.094,-0.092,+0.728,+2.435,-03.1060,-01.5960,-08.8400,+00.000352,+00.000649,-00.000295
-124.388,-019.252,+010.091,-0.092,+0.723,+2.419,-03.1480,-01.4810,-08.5840,-00.006033,-00.016000,+00.006820
-124.388,-019.247,+010.092,-0.087,+0.738,+2.408,-03.1930,-01.5810,-08.8790,-00.002452,+00.012065,+00.001086
-124.389,-019.247,+010.095,-0.087,+0.723,+2.425,-03.1300,-01.6010,-08.7790,+00.003665,-00.001898,-00.000534
-124.390,-019.247,+010.098,-0.101,+0.728,+2.419,-03.1090,-01.5550,-08.7660,+00.001346,-00.000297,+00.001411
-124.389,-019.247,+010.101,-0.087,+0.743,+2.403,-03.1320,-01.5690,-08.7780,+00.002312,+00.001413,+00.001362
-124.387,-019.246,+010.104,-0.097,+0.718,+2.430,-03.1620,-01.5620,-08.7680,+00.003547,+00.001268,+00.001293
-124.387,-019.245,+010.107,-0.087,+0.738,+2.425,-03.1060,-01.5720,-08.7770,+00.003037,-00.000002,+00.000111
-124.387,-019.246,+010.111,-0.087,+0.728,+2.408,-03.0680,-01.5510,-08.7820,+00.003569,-00.000998,+00.001510
-124.386,-019.248,+010.115,-0.097,+0.723,+2.430,-03.1380,-01.5500,-08.7710,+00.003425,-00.001313,+00.001749
-124.387,-019.250,+010.118,-0.097,+0.743,+2.419,-03.0940,-01.5550,-08.7850,+00.002553,-00.001601,+00.001620
-124.386,-019.251,+010.121,-0.092,+0.723,+2.419,-03.1350,-01.5630,-08.7690,+00.001389,+00.000693,+00.001908
-124.384,-019.251,+010.122,-0.096,+0.738,+2.430,-03.1310,-01.5830,-08.7660,-00.000076,+00.000825,+00.003341
-124.379,-019.252,+010.122,-0.083,+0.772,+2.419,-03.0880,-01.6180,-08.7730,+00.001195,-00.000555,+00.004459
-124.370,-019.254,+010.117,-0.092,+0.723,+2.414,-03.1490,-01.5890,-08.7810,-00.002080,+00.001950,+00.006499
-124.363,-019.257,+010.117,-0.087,+0.753,+2.435,-03.1230,-01.5310,-08.8000,+00.001816,-00.000744,+00.004028
-124.358,-019.257,+010.117,-0.087,+0.757,+2.392,-03.1360,-01.5630,-08.7990,+00.000695,+00.002113,+00.003783
-124.350,-019.260,+010.120,-0.083,+0.728,+2.419,-03.0760,-01.5140,-08.7240,+00.003647,-00.001118,+00.005505
-124.343,-019.261,+010.120,-0.083,+0.708,+2.425,-03.1220,-01.5460,-08.8060,-00.000277,+00.000543,+00.005084
-124.338,-019.265,+010.120,-0.078,+0.728,+2.420,-03.1540,-01.5440,-08.8240,+00.001869,-00.000317,+00.005546
-124.334,-019.269,+010.120,-0.087,+0.723,+2.408,-02.9990,-01.6560,-08.6840,-00.000200,-00.005744,+00.005482
-124.328,-019.273,+010.120,-0.092,+0.728,+2.424,-03.0370,-01.6040,-08.6760,-00.001331,+00.000885,+00.006732
-124.323,-019.282,+010.125,-0.083,+0.752,+2.419,-03.1430,-01.5540,-08.8890,+00.004353,-00.011925,+00.003077
-124.318,-019.291,+010.126,-0.083,+0.723,+2.403,-03.1110,-01.5170,-08.6790,+00.002910,-00.004788,+00.006268
-124.314,-019.300,+010.130,-0.097,+0.723,+2.430,-03.0820,-01.5230,-08.8380,+00.004206,-00.004816,+00.005437
-124.309,-019.305,+010.131,-0.078,+0.782,+2.408,-03.1200,-01.6050,-08.7330,+00.000416,-00.002596,+00.005589
-124.305,-019.311,+010.129,-0.092,+0.767,+2.408,-03.1370,-01.5420,-08.7480,-00.002917,-00.002709,+00.002633
-124.302,-019.318,+010.123,-0.087,+0.738,+2.435,-03.1290,-01.5960,-08.7560,-00.008549,-00.005962,+00.003513
-124.300,-019.325,+010.110,-0.087,+0.772,+2.408,-03.1470,-01.5250,-08.8070,-00.002688,-00.002591,+00.003552
-124.298,-019.326,+010.109,-0.083,+0.728,+2.403,-03.1230,-01.5850,-08.8000,-00.000522,+00.000884,+00.002414
-124.295,-019.325,+010.107,-0.092,+0.718,+2.435,-03.1290,-01.5600,-08.7900,-00.000387,+00.001806,+00.003236
-124.291,-019.326,+010.104,-0.092,+0.738,+2.419,-03.1130,-01.5520,-08.7490,+00.000846,-00.001404,+00.005024
-124.286,-019.328,+010.103,-0.087,+0.757,+2.408,-03.1030,-01.5570,-08.7640,+00.001358,-00.003297,+00.005306
-124.281,-019.332,+010.102,-0.083,+0.738,+2.441,-03.1100,-01.5590,-08.7460,+00.000367,-00.002612,+00.004725
-124.278,-019.337,+010.102,-0.087,+0.738,+2.425,-03.1180,-01.5680,-08.7430,+00.000978,-00.004338,+00.004926
-124.275,-019.342,+010.103,-0.092,+0.708,+2.419,-03.1240,-01.5590,-08.7770,+00.001303,-00.002246,+00.002698
-124.273,-019.348,+010.105,-0.092,+0.708,+2.430,-03.1420,-01.5620,-08.7570,+00.001550,-00.001863,+00.002623
-124.270,-019.354,+010.107,-0.087,+0.738,+2.430,-03.0900,-01.6090,-08.7360,+00.004211,-00.013524,+00.001579
-124.262,-019.359,+010.106,-0.073,+0.723,+2.404,-02.9150,-01.4410,-08.7830,-00.008648,-00.004107,+00.006831
-124.256,-019.364,+010.101,-0.087,+0.733,+2.446,-02.9900,-01.5380,-08.6490,-00.001949,-00.003854,+00.007669
-124.252,-019.373,+010.105,-0.078,+0.747,+2.409,-03.0530,-01.5350,-08.7500,-00.001797,+00.000654,+00.004993
-124.251,-019.380,+010.112,-0.073,+0.733,+2.414,-03.1890,-01.5850,-08.8780,-00.000718,+00.000203,+00.001829
-124.250,-019.381,+010.114,-0.087,+0.733,+2.430,-03.1300,-01.5950,-08.7590,+00.002373,+00.000163,+00.003793
-124.246,-019.381,+010.116,-0.083,+0.757,+2.419,-03.1440,-01.5600,-08.7920,-00.000651,+00.000259,+00.002154
-124.245,-019.381,+010.117,-0.083,+0.728,+2.419,-03.1180,-01.5640,-08.7940,+00.002050,+00.000197,-00.000362
-124.246,-019.380,+010.117,-0.087,+0.723,+2.441,-03.1470,-01.5780,-08.7610,-00.001402,+00.001429,+00.000207
-124.244,-019.378,+010.114,-0.087,+0.738,+2.425,-03.1190,-01.5920,-08.7610,-00.002047,+00.002592,+00.003608
-124.241,-019.377,+010.109,-0.083,+0.723,+2.409,-03.1270,-01.5850,-08.7350,-00.003038,+00.000357,+00.003208
-124.237,-019.377,+010.105,-0.087,+0.718,+2.435,-03.1640,-01.5570,-08.7690,-00.003394,+00.001675,+00.002903
-124.236,-019.375,+010.101,-0.083,+0.747,+2.409,-03.1460,-01.5730,-08.7680,-00.003931,+00.001791,-00.000017
-124.236,-019.370,+010.096,-0.092,+0.723,+2.419,-03.1310,-01.5710,-08.7470,-00.003046,+00.005574,+00.001714
-124.235,-019.365,+010.092,-0.078,+0.723,+2.436,-03.1150,-01.6040,-08.7830,-00.003168,+00.004815,+00.001079
-124.235,-019.360,+010.088,-0.087,+0.728,+2.425,-03.1170,-01.5500,-08.8330,-00.002671,+00.003193,-00.000032
-124.234,-019.356,+010.084,-0.078,+0.723,+2.414,-03.1370,-01.5630,-08.8360,-00.004279,+00.006802,+00.002531
-124.231,-019.355,+010.081,-0.083,+0.723,+2.441,-03.1490,-01.5720,-08.7640,-00.002213,+00.000412,+00.001973
-124.230,-019.355,+010.080,-0.083,+0.767,+2.392,-03.1810,-01.5300,-08.8390,+00.000001,+00.000756,-00.000376
-124.231,-019.352,+010.080,-0.092,+0.723,+2.419,-03.1170,-01.5640,-08.7080,+00.001452,+00.000386,+00.000767
-124.229,-019.351,+010.078,-0.092,+0.728,+2.446,-03.1310,-01.5700,-08.7690,-00.001174,+00.000376,+00.002825
-124.226,-019.351,+010.077,-0.096,+0.748,+2.424,-03.1390,-01.5360,-08.8150,+00.000462,+00.000558,+00.004595
-124.223,-019.352,+010.076,-0.083,+0.738,+2.425,-03.1510,-01.5340,-08.7870,+00.000161,+00.000492,+00.003323
-124.221,-019.354,+010.077,-0.092,+0.713,+2.435,-03.1390,-01.5510,-08.7940,+00.002230,-00.002965,+00.001398
-124.219,-019.357,+010.080,-0.083,+0.748,+2.435,-03.1360,-01.7420,-08.7660,+00.000672,-00.003674,-00.001316
-124.217,-019.360,+010.082,-0.087,+0.743,+2.430,-03.1400,-01.5250,-08.7730,+00.004159,-00.002075,+00.002402
-124.217,-019.364,+010.086,-0.092,+0.713,+2.441,-03.1150,-01.5420,-08.7500,+00.003340,-00.002252,+00.001943
-124.216,-019.366,+010.090,-0.078,+0.747,+2.414,-03.1070,-01.5480,-08.7950,+00.002775,-00.001542,+00.002205
-124.212,-019.368,+010.092,-0.083,+0.723,+2.403,-03.1340,-01.5850,-08.7510,+00.003630,-00.001054,+00.004790
-124.209,-019.369,+010.093,-0.083,+0.748,+2.430,-03.1030,-01.5690,-08.7400,+00.002939,-00.002728,+00.003044
-124.208,-019.370,+010.095,-0.087,+0.757,+2.408,-03.1330,-01.5570,-08.7840,+00.002581,+00.000753,+00.001762
-124.207,-019.370,+010.098,-0.083,+0.743,+2.414,-03.1370,-01.5770,-08.7660,+00.002076,+00.001293,+00.002492
-124.205,-019.372,+010.100,-0.092,+0.728,+2.435,-03.1050,-01.5720,-08.7670,+00.003384,-00.001277,+00.001357
-124.203,-019.374,+010.102,-0.078,+0.733,+2.420,-03.1140,-01.5810,-08.7650,+00.002755,-00.002077,+00.003997
-124.200,-019.377,+010.103,-0.083,+0.733,+2.419,-03.1330,-01.5750,-08.7570,+00.001120,-00.002080,+00.003970
-124.198,-019.379,+010.103,-0.092,+0.728,+2.451,-03.1390,-01.5750,-08.7410,+00.001734,+00.000950,+00.000388
-124.196,-019.378,+010.103,-0.087,+0.733,+2.414,-03.0850,-01.6040,-08.7760,+00.000511,+00.002523,+00.004902
-124.191,-019.380,+010.101,-0.092,+0.738,+2.419,-03.1120,-01.6020,-08.7490,+00.000080,-00.003759,+00.006032
-124.185,-019.383,+010.100,-0.092,+0.718,+2.446,-03.1060,-01.5900,-08.7610,+00.003210,-00.002285,+00.006929
-124.178,-019.386,+010.105,-0.078,+0.733,+2.414,-03.1660,-01.5770,-08.6740,+00.009024,-00.004070,+00.005322
-124.179,-019.389,+010.110,-0.078,+0.728,+2.414,-03.1620,-01.5890,-08.7660,+00.003354,-00.000351,-00.000091
-124.178,-019.390,+010.116,-0.083,+0.718,+2.436,-03.1440,-01.5920,-08.8110,+00.004958,-00.000481,+00.002113
-124.179,-019.390,+010.120,-0.078,+0.733,+2.414,-03.1160,-01.5620,-08.7570,+00.003465,-00.001454,+00.000011
-124.179,-019.392,+010.123,-0.083,+0.757,+2.425,-03.1550,-01.5590,-08.7470,+00.003615,-00.000105,+00.002042
-124.172,-019.394,+010.123,-0.078,+0.748,+2.425,-03.2210,-01.3530,-08.8030,+00.013228,+00.005287,+00.016237
-124.172,-019.395,+010.122,-0.087,+0.718,+2.409,-03.1780,-01.7300,-08.7980,+00.000274,-00.000957,+00.000639
-124.170,-019.395,+010.120,-0.083,+0.723,+2.414,-03.1210,-01.4690,-08.7840,-00.000127,-00.001114,+00.003324
-124.169,-019.395,+010.121,-0.097,+0.728,+2.435,-03.1320,-01.5850,-08.7680,+00.001276,-00.000616,+00.001184
-124.168,-019.395,+010.121,-0.096,+0.748,+2.424,-03.1160,-01.5450,-08.7540,+00.003005,+00.000560,+00.004060
-124.166,-019.395,+010.121,-0.097,+0.718,+2.419,-03.1130,-01.6220,-08.7750,+00.000796,-00.000625,+00.003372
-124.162,-019.398,+010.121,-0.092,+0.758,+2.430,-03.1720,-01.5710,-08.7860,+00.001908,-00.003311,+00.003631
-124.159,-019.398,+010.124,-0.078,+0.752,+2.419,-03.1570,-01.5690,-08.7610,+00.003149,+00.002529,+00.003533
-124.154,-019.397,+010.125,-0.078,+0.733,+2.420,-03.1220,-01.6910,-08.7780,+00.003587,+00.003147,+00.009859
-124.150,-019.399,+010.123,-0.087,+0.733,+2.435,-03.0340,-01.5520,-08.6740,+00.001540,-00.004260,+00.003080
-124.145,-019.405,+010.126,-0.087,+0.752,+2.408,-03.1570,-01.4180,-08.7760,+00.005490,-00.003759,+00.007396
-124.142,-019.411,+010.131,-0.083,+0.753,+2.430,-03.1470,-01.5710,-08.7830,+00.007485,-00.006440,+00.003463
-124.139,-019.412,+010.137,-0.078,+0.748,+2.425,-03.1290,-01.6670,-08.7530,+00.003890,+00.002971,+00.001890
-124.136,-019.413,+010.139,-0.078,+0.723,+2.420,-03.0950,-01.5990,-08.7340,+00.000915,+00.000403,+00.004261
-124.132,-019.422,+010.141,-0.078,+0.738,+2.403,-03.1510,-01.5040,-08.9370,+00.004390,-00.011465,+00.005134
-124.126,-019.432,+010.143,-0.087,+0.713,+2.430,-03.1680,-01.6350,-08.6380,+00.004549,-00.011873,+00.006020
-124.122,-019.438,+010.143,-0.083,+0.743,+2.409,-03.1110,-01.6110,-08.7430,-00.001219,-00.002515,+00.004031
-124.121,-019.445,+010.149,-0.092,+0.738,+2.408,-03.2030,-01.4960,-08.9020,+00.003992,-00.004650,+00.001948
-124.122,-019.452,+010.155,-0.078,+0.728,+2.447,-03.0740,-01.6270,-08.6840,+00.007242,-00.010424,+00.000938
-124.121,-019.458,+010.160,-0.083,+0.752,+2.419,-03.1510,-01.6130,-08.7280,+00.000210,+00.000681,+00.003796
-124.120,-019.464,+010.164,-0.078,+0.747,+2.398,-03.2390,-01.5190,-08.9160,+00.003898,-00.003944,+00.000294
-124.120,-019.464,+010.170,-0.087,+0.728,+2.441,-03.0990,-01.6280,-08.6310,+00.007904,-00.004213,+00.000387
-124.122,-019.468,+010.178,-0.083,+0.743,+2.425,-03.1310,-01.6070,-08.7760,+00.002358,-00.000480,+00.002992
-124.121,-019.475,+010.185,-0.073,+0.737,+2.387,-03.1350,-01.6300,-08.7230,+00.003530,-00.009113,+00.001694
-124.120,-019.484,+010.193,-0.078,+0.718,+2.436,-03.1290,-01.5090,-08.7910,+00.009075,-00.005308,+00.003495
-124.121,-019.493,+010.202,-0.083,+0.743,+2.419,-03.1780,-01.6020,-08.7480,+00.007660,-00.007352,+00.000316
-124.125,-019.500,+010.213,-0.073,+0.728,+2.409,-03.1950,-01.5590,-08.8630,+00.008346,-00.003372,-00.001817
-124.130,-019.507,+010.223,-0.083,+0.733,+2.436,-03.1080,-01.6270,-08.6680,+00.008825,-00.012251,-00.002587
-124.133,-019.512,+010.232,-0.073,+0.752,+2.398,-03.1860,-01.4940,-08.7970,+00.007191,-00.003701,+00.000403
-124.136,-019.515,+010.238,-0.083,+0.733,+2.409,-03.1390,-01.5940,-08.8020,+00.005495,-00.002166,-00.001119
-124.135,-019.516,+010.243,-0.078,+0.733,+2.425,-03.1510,-01.5660,-08.7590,+00.003942,-00.000882,+00.001367
-124.133,-019.516,+010.246,-0.087,+0.767,+2.408,-03.1170,-01.5920,-08.7640,+00.003050,+00.001228,+00.002122
-124.130,-019.516,+010.247,-0.083,+0.718,+2.420,-03.1360,-01.6100,-08.7360,+00.001265,+00.000999,+00.004187
-124.129,-019.516,+010.248,-0.078,+0.753,+2.436,-03.1280,-01.5690,-08.7280,+00.002321,-00.000128,+00.000165
-124.127,-019.518,+010.251,-0.069,+0.757,+2.398,-03.1650,-01.5840,-08.7430,+00.002896,-00.000917,+00.002246
-124.126,-019.521,+010.255,-0.078,+0.747,+2.420,-03.1540,-01.5820,-08.7430,+00.003369,-00.001416,+00.001946
-124.123,-019.524,+010.257,-0.073,+0.752,+2.425,-03.1560,-01.5780,-08.7830,+00.004541,-00.001124,+00.004821
-124.123,-019.526,+010.259,-0.083,+0.743,+2.414,-03.1100,-01.5610,-08.7550,+00.001237,-00.000548,+00.001452
-124.124,-019.528,+010.263,-0.078,+0.738,+2.414,-03.1380,-01.6450,-08.7340,+00.004110,-00.004554,-00.000677
-124.124,-019.531,+010.266,-0.083,+0.743,+2.436,-03.1560,-01.6740,-08.7270,+00.001016,-00.000535,+00.000632
-124.123,-019.534,+010.269,-0.083,+0.777,+2.392,-03.0360,-01.6360,-08.6860,+00.002145,-00.004783,+00.001373
-124.121,-019.538,+010.271,-0.073,+0.747,+2.414,-03.1400,-01.5890,-08.7490,-00.000966,+00.002845,+00.002896
-124.122,-019.543,+010.274,-0.083,+0.713,+2.436,-03.1550,-01.6300,-08.7540,+00.001985,-00.003975,+00.002167
-124.121,-019.547,+010.277,-0.078,+0.782,+2.403,-03.1340,-01.5870,-08.7390,+00.002782,-00.005343,+00.002557
-124.120,-019.556,+010.282,-0.078,+0.747,+2.398,-03.2020,-01.4890,-08.9290,+00.007492,-00.003640,+00.005544
-124.119,-019.567,+010.285,-0.078,+0.728,+2.420,-03.1620,-01.6450,-08.7100,+00.003147,-00.008912,+00.002870
-124.120,-019.573,+010.288,-0.069,+0.747,+2.409,-03.1920,-01.5570,-08.7770,+00.002993,-00.001570,-00.000134
-124.120,-019.572,+010.292,-0.078,+0.733,+2.403,-03.1560,-01.6670,-08.7280,+00.002272,+00.000430,+00.000270
-124.119,-019.574,+010.296,-0.073,+0.733,+2.436,-03.1770,-01.4840,-08.8690,+00.008017,-00.003559,+00.005998
-124.120,-019.580,+010.303,-0.078,+0.747,+2.414,-03.1690,-01.6440,-08.7220,+00.004338,-00.006625,-00.000615
-124.121,-019.585,+010.307,-0.078,+0.733,+2.430,-03.2010,-01.6140,-08.7430,+00.001098,-00.003225,+00.000125
-124.123,-019.585,+010.307,-0.092,+0.748,+2.419,-03.1440,-01.5860,-08.7290,-00.000892,+00.000768,+00.000256
-124.120,-019.582,+010.307,-0.073,+0.777,+2.398,-03.1440,-01.6450,-08.7230,-00.000467,+00.002327,+00.003263
-124.113,-019.583,+010.303,-0.083,+0.762,+2.392,-03.1530,-01.5860,-08.7680,-00.000457,-00.000357,+00.006358
-124.107,-019.587,+010.301,-0.087,+0.723,+2.441,-03.1760,-01.5920,-08.7550,+00.000312,-00.003051,+00.004235
-124.105,-019.589,+010.300,-0.083,+0.748,+2.425,-03.1950,-01.5930,-08.7980,-00.000597,-00.000682,+00.003149
-124.105,-019.590,+010.299,-0.083,+0.728,+2.414,-03.1570,-01.5930,-08.7340,-00.000109,+00.002010,+00.001283
-124.105,-019.589,+010.299,-0.078,+0.728,+2.430,-03.1800,-01.5790,-08.7410,+00.000662,+00.000514,+00.002126
-124.104,-019.590,+010.300,-0.083,+0.762,+2.408,-03.1410,-01.5910,-08.7430,+00.001123,+00.000626,+00.001575
-124.103,-019.593,+010.303,-0.078,+0.743,+2.420,-03.1540,-01.6050,-08.7490,+00.001786,-00.004532,+00.002280
-124.102,-019.597,+010.305,-0.073,+0.723,+2.425,-03.1750,-01.5100,-08.7520,+00.002973,-00.002372,+00.002777
-124.105,-019.601,+010.310,-0.078,+0.752,+2.403,-03.1630,-01.5820,-08.7330,+00.003309,-00.001820,-00.000869
-124.108,-019.602,+010.316,-0.073,+0.747,+2.414,-03.1550,-01.6340,-08.7200,+00.003044,+00.001218,+00.000179
-124.106,-019.602,+010.317,-0.083,+0.718,+2.436,-03.1240,-01.6000,-08.7670,+00.002466,-00.003325,+00.002667
-124.103,-019.605,+010.318,-0.078,+0.767,+2.414,-03.1590,-01.6120,-08.6810,+00.003795,-00.009703,+00.001500
-124.102,-019.606,+010.318,-0.078,+0.723,+2.420,-03.1870,-01.5990,-08.7210,-00.001158,+00.002486,+00.001825
-124.099,-019.603,+010.315,-0.078,+0.748,+2.425,-03.1720,-01.5720,-08.7390,-00.000711,+00.002313,+00.005287
-124.093,-019.601,+010.311,-0.087,+0.753,+2.419,-03.1730,-01.5780,-08.7590,-00.001897,+00.000873,+00.005159
-124.090,-019.603,+010.312,-0.083,+0.738,+2.419,-03.1770,-01.5930,-08.7300,-00.001354,-00.002703,+00.001530
-124.090,-019.607,+010.310,-0.078,+0.723,+2.425,-03.2210,-01.5360,-08.8450,+00.001895,-00.003114,+00.001890
-124.089,-019.611,+010.311,-0.083,+0.747,+2.387,-03.1610,-01.5860,-08.7390,+00.000975,-00.002093,+00.003719
-124.088,-019.612,+010.310,-0.069,+0.723,+2.431,-03.1860,-01.6200,-08.7890,-00.000201,+00.001007,+00.002558
-124.086,-019.610,+010.307,-0.069,+0.733,+2.442,-03.1720,-01.5810,-08.7580,-00.001596,+00.004335,+00.000560
-124.085,-019.605,+010.304,-0.069,+0.757,+2.425,-03.1310,-01.6160,-08.7590,-00.001870,+00.003413,+00.002113
-124.082,-019.602,+010.302,-0.087,+0.733,+2.425,-03.1490,-01.5800,-08.7510,-00.000167,+00.001242,+00.004665
-124.077,-019.603,+010.298,-0.078,+0.772,+2.425,-03.1800,-01.6060,-08.7450,-00.000960,-00.001972,+00.004880
-124.073,-019.607,+010.294,-0.078,+0.762,+2.414,-03.1710,-01.5700,-08.7520,-00.001963,-00.002403,+00.003866
-124.070,-019.609,+010.292,-0.073,+0.757,+2.398,-03.1460,-01.5740,-08.7910,-00.002143,-00.001363,+00.004206
-124.067,-019.608,+010.286,-0.078,+0.738,+2.441,-03.1500,-01.6130,-08.7390,-00.005003,+00.002368,+00.002895
-124.065,-019.608,+010.280,-0.083,+0.752,+2.419,-03.2100,-01.6250,-08.7550,-00.002284,-00.001136,+00.003015
-124.062,-019.608,+010.276,-0.069,+0.742,+2.404,-03.1710,-01.6200,-08.7800,-00.004333,+00.000016,+00.003337
-124.057,-019.608,+010.270,-0.083,+0.758,+2.441,-03.1790,-01.5900,-08.7450,-00.005531,+00.002517,+00.005270
-124.053,-019.606,+010.263,-0.073,+0.757,+2.398,-03.1480,-01.6000,-08.7590,-00.004307,+00.001837,+00.005391
-124.048,-019.605,+010.254,-0.078,+0.728,+2.414,-03.1550,-01.5820,-08.7760,-00.002690,-00.002721,+00.003425
-124.044,-019.606,+010.248,-0.078,+0.733,+2.430,-03.1860,-01.6360,-08.6760,-00.001098,+00.000534,+00.006180
-124.038,-019.604,+010.241,-0.069,+0.747,+2.409,-03.1610,-01.5790,-08.7410,-00.003093,+00.002246,+00.005101
-124.029,-019.600,+010.234,-0.083,+0.747,+2.409,-03.1390,-01.6250,-08.6750,-00.003778,+00.007039,+00.008431
-124.025,-019.600,+010.230,-0.078,+0.723,+2.452,-03.1070,-01.7280,-08.6300,-00.004460,+00.001256,+00.003593
-124.017,-019.596,+010.226,-0.083,+0.733,+2.414,-03.1390,-01.6070,-08.7190,+00.002954,+00.009629,+00.008167
-124.008,-019.591,+010.217,-0.073,+0.737,+2.409,-03.1760,-01.5750,-08.8160,-00.007198,+00.006688,+00.006952
-123.999,-019.585,+010.204,-0.083,+0.728,+2.430,-03.1980,-01.5070,-08.7720,-00.008344,+00.009774,+00.008642
-123.994,-019.580,+010.195,-0.087,+0.733,+2.419,-03.1390,-01.5620,-08.7310,-00.006765,+00.003005,+00.003215
-123.992,-019.578,+010.189,-0.078,+0.728,+2.404,-03.1570,-01.5860,-08.7860,-00.005759,-00.000478,+00.000964
-123.994,-019.575,+010.183,-0.083,+0.728,+2.436,-03.1710,-01.5930,-08.7140,-00.005190,+00.005057,-00.000891
-123.994,-019.572,+010.181,-0.087,+0.747,+2.398,-03.1830,-01.5750,-08.8080,-00.001240,+00.003294,+00.000222
-123.998,-019.570,+010.180,-0.069,+0.728,+2.420,-03.1310,-01.5670,-08.7980,-00.001222,+00.002287,+00.000188
-124.000,-019.569,+010.181,-0.087,+0.728,+2.436,-03.1350,-01.5760,-08.7910,+00.001966,-00.001126,-00.000147
-124.002,-019.571,+010.184,-0.073,+0.742,+2.414,-03.1490,-01.5810,-08.7180,+00.002058,-00.001530,-00.000872
-124.002,-019.573,+010.188,-0.073,+0.757,+2.398,-03.1690,-01.5830,-08.7200,+00.002696,-00.000311,+00.001676
-124.002,-019.573,+010.190,-0.073,+0.728,+2.442,-03.1810,-01.5830,-08.7620,+00.001719,+00.002167,+00.002204
-124.000,-019.571,+010.191,-0.069,+0.757,+2.415,-03.1650,-01.5800,-08.7810,+00.000939,+00.003497,+00.002495
-123.999,-019.568,+010.192,-0.073,+0.742,+2.404,-03.1660,-01.5820,-08.7830,+00.002878,+00.001550,+00.001012
-123.997,-019.567,+010.193,-0.083,+0.713,+2.441,-03.1480,-01.5630,-08.7370,+00.001956,+00.002037,+00.000218
-123.998,-019.565,+010.196,-0.073,+0.762,+2.404,-03.1420,-01.5840,-08.7650,+00.001163,+00.001545,-00.000372
-124.000,-019.566,+010.200,-0.073,+0.733,+2.420,-03.0210,-01.8160,-08.5280,+00.001929,-00.004144,-00.001880
-123.998,-019.564,+010.197,-0.087,+0.733,+2.446,-03.1550,-01.4940,-08.7800,-00.001872,+00.001517,+00.003323
-123.998,-019.565,+010.195,-0.078,+0.743,+2.425,-03.1560,-01.5890,-08.7210,-00.000894,-00.000577,+00.000866
-124.000,-019.566,+010.195,-0.078,+0.737,+2.393,-03.1540,-01.6210,-08.7500,-00.001231,-00.002648,-00.000724
-124.000,-019.579,+010.188,-0.078,+0.728,+2.441,-03.2520,-01.7310,-08.8030,-00.025875,+00.035943,+00.000986
-123.997,-019.580,+010.186,-0.073,+0.757,+2.414,-03.1710,-01.6440,-08.9060,-00.001157,-00.001111,+00.002389
-123.993,-019.575,+010.181,-0.087,+0.738,+2.414,-03.1230,-01.5680,-08.6770,-00.000297,+00.000804,+00.003279
-123.991,-019.577,+010.179,-0.073,+0.738,+2.441,-03.1830,-01.5800,-08.7310,+00.001663,-00.000319,+00.004185
-123.992,-019.584,+010.180,-0.073,+0.738,+2.420,-03.1740,-01.5900,-08.7540,+00.000954,-00.006175,+00.002080
-123.991,-019.590,+010.182,-0.069,+0.772,+2.409,-03.1720,-01.5720,-08.7590,+00.003076,-00.003457,+00.003165
-123.989,-019.591,+010.182,-0.078,+0.733,+2.431,-03.1790,-01.5710,-08.7400,+00.000140,+00.000589,+00.001599
-123.989,-019.589,+010.183,-0.078,+0.743,+2.414,-03.1420,-01.5750,-08.7240,+00.000491,+00.002096,+00.000182
-123.987,-019.589,+010.183,-0.069,+0.762,+2.409,-03.1430,-01.5730,-08.7530,+00.000293,+00.000350,+00.003914
-123.983,-019.591,+010.184,-0.083,+0.748,+2.436,-03.1690,-01.5770,-08.7520,+00.001933,-00.001984,+00.003756
-123.984,-019.593,+010.186,-0.073,+0.733,+2.425,-03.1530,-01.5680,-08.7800,+00.003249,-00.000814,+00.000024
-123.984,-019.592,+010.188,-0.073,+0.742,+2.414,-03.1700,-01.5770,-08.7380,+00.002071,+00.001428,+00.000729
-123.984,-019.590,+010.187,-0.083,+0.728,+2.441,-03.1260,-01.5530,-08.7630,-00.002508,+00.001939,+00.001333
-123.982,-019.590,+010.187,-0.073,+0.752,+2.409,-03.1490,-01.6140,-08.7480,-00.001326,-00.001861,+00.002130
-123.979,-019.593,+010.183,-0.073,+0.737,+2.398,-03.1670,-01.5270,-08.7460,-00.001167,-00.000910,+00.006453
-123.968,-019.595,+010.181,-0.083,+0.738,+2.436,-03.1190,-01.3640,-08.8080,+00.007738,+00.002550,+00.008239
-123.963,-019.596,+010.186,-0.069,+0.742,+2.420,-03.1210,-01.6040,-08.7470,+00.005077,-00.003228,+00.011446
-123.955,-019.602,+010.189,-0.069,+0.737,+2.415,-03.1990,-01.6790,-08.7300,+00.003160,-00.005526,+00.008953
-123.950,-019.605,+010.189,-0.087,+0.728,+2.430,-03.1750,-01.6000,-08.7640,+00.002150,+00.000681,+00.004835
-123.947,-019.605,+010.191,-0.073,+0.733,+2.420,-03.2020,-01.5450,-08.7200,+00.000855,-00.001569,+00.002286
-123.947,-019.605,+010.190,-0.083,+0.738,+2.403,-03.1760,-01.5960,-08.7410,-00.000113,-00.000289,+00.000033
-123.948,-019.606,+010.191,-0.083,+0.723,+2.436,-03.1480,-01.5890,-08.7310,+00.000393,-00.001972,-00.000608
-123.949,-019.607,+010.192,-0.073,+0.742,+2.420,-03.1420,-01.6050,-08.7400,+00.000106,-00.000941,+00.001062
-123.948,-019.609,+010.190,-0.083,+0.733,+2.425,-03.1640,-01.5850,-08.7600,-00.003694,-00.004233,+00.002131
-123.948,-019.613,+010.187,-0.083,+0.728,+2.436,-03.1870,-01.5500,-08.7520,+00.000606,-00.008227,+00.001044
-123.945,-019.620,+010.188,-0.083,+0.733,+2.409,-03.2360,-01.4290,-08.8610,+00.002230,-00.007088,+00.003369
-123.945,-019.628,+010.194,-0.073,+0.767,+2.387,-03.2050,-01.4660,-08.8430,+00.009758,-00.009298,+00.002150
-123.946,-019.636,+010.200,-0.078,+0.743,+2.436,-03.1910,-01.6050,-08.7550,+00.001096,-00.009087,-00.001169
-123.945,-019.638,+010.203,-0.083,+0.762,+2.409,-03.1780,-01.6130,-08.7290,+00.002526,-00.002302,+00.003850
-123.943,-019.640,+010.203,-0.073,+0.728,+2.404,-03.1780,-01.5480,-08.7430,-00.000240,+00.000779,+00.002545
-123.940,-019.642,+010.206,-0.078,+0.728,+2.436,-03.0710,-01.6580,-08.6910,+00.002331,-00.007413,+00.006693
-123.935,-019.652,+010.207,-0.069,+0.752,+2.404,-03.0940,-01.5550,-08.7040,+00.000960,-00.007966,+00.006404
-123.933,-019.670,+010.213,-0.073,+0.733,+2.409,-03.2370,-01.5180,-08.8160,+00.004583,-00.010790,+00.007377
-123.932,-019.683,+010.217,-0.078,+0.733,+2.436,-03.1900,-01.7170,-08.7280,-00.000312,-00.008910,+00.001685
-123.928,-019.691,+010.217,-0.064,+0.728,+2.415,-03.1620,-01.5500,-08.7500,+00.002006,-00.001706,+00.009200
-123.924,-019.701,+010.218,-0.073,+0.733,+2.409,-03.1600,-01.5740,-08.7660,+00.004170,-00.012755,+00.005058
-123.919,-019.711,+010.219,-0.069,+0.723,+2.436,-03.2250,-01.6910,-08.7360,+00.003422,-00.004969,+00.005350
-123.916,-019.718,+010.219,-0.078,+0.767,+2.382,-03.1960,-01.5860,-08.7530,-00.001106,-00.003842,+00.002747
-123.912,-019.720,+010.218,-0.069,+0.767,+2.404,-03.1780,-01.6170,-08.7500,-00.004686,-00.001631,+00.002598
-123.908,-019.724,+010.217,-0.059,+0.733,+2.448,-03.1700,-01.5730,-08.8070,-00.000354,-00.003494,+00.004499
-123.910,-019.727,+010.211,-0.069,+0.737,+2.420,-03.1680,-01.5880,-08.7670,-00.002715,-00.001955,-00.000383
-123.912,-019.731,+010.215,-0.078,+0.742,+2.409,-03.1750,-01.5520,-08.7340,+00.003931,-00.004864,+00.001094
-123.912,-019.735,+010.220,-0.083,+0.743,+2.436,-03.1810,-01.5640,-08.7570,+00.004428,-00.003489,+00.000700
-123.913,-019.740,+010.225,-0.073,+0.738,+2.415,-03.2060,-01.6020,-08.8090,+00.002621,-00.003080,+00.001876
-123.913,-019.744,+010.230,-0.055,+0.747,+2.437,-03.2080,-01.5780,-08.6990,+00.005720,-00.003207,+00.000901
-123.916,-019.746,+010.235,-0.059,+0.738,+2.448,-03.2070,-01.5840,-08.7740,+00.003100,-00.000127,-00.002604
-123.921,-019.743,+010.237,-0.078,+0.738,+2.420,-03.2070,-01.5960,-08.7520,-00.001495,+00.003999,-00.003099
-123.923,-019.736,+010.237,-0.073,+0.728,+2.425,-03.1990,-01.5800,-08.7400,-00.000631,+00.006897,+00.001454
-123.920,-019.728,+010.235,-0.078,+0.757,+2.420,-03.1690,-01.5720,-08.7540,-00.001319,+00.006982,+00.001459
-123.920,-019.724,+010.234,-0.073,+0.757,+2.409,-03.1870,-01.5740,-08.7650,+00.001302,+00.002270,-00.000664
-123.923,-019.721,+010.235,-0.083,+0.718,+2.393,-03.1890,-01.5780,-08.7530,+00.000648,+00.003065,-00.002290
-123.926,-019.717,+010.237,-0.083,+0.728,+2.430,-03.2050,-01.6080,-08.7350,+00.000820,+00.003722,-00.001525
-123.927,-019.711,+010.237,-0.073,+0.767,+2.420,-03.1690,-01.5720,-08.7870,-00.000428,+00.004578,-00.001859
-123.928,-019.705,+010.237,-0.078,+0.723,+2.404,-03.1350,-01.6130,-08.6610,-00.003656,+00.003589,-00.001827
-123.927,-019.698,+010.233,-0.078,+0.757,+2.430,-03.2020,-01.5270,-08.7870,-00.000921,+00.006422,+00.000366
-123.928,-019.694,+010.232,-0.078,+0.762,+2.398,-03.1970,-01.6050,-08.7410,-00.001423,+00.002368,-00.001424
-123.929,-019.688,+010.229,-0.069,+0.762,+2.415,-03.1640,-01.5680,-08.7740,-00.003480,+00.006145,-00.002153
-123.927,-019.678,+010.226,-0.073,+0.753,+2.447,-03.1480,-01.5540,-08.7170,-00.001477,+00.005787,-00.000328
-123.926,-019.670,+010.223,-0.064,+0.742,+2.420,-03.1320,-01.6180,-08.7460,-00.003434,+00.006446,+00.000893
-123.926,-019.667,+010.220,-0.069,+0.767,+2.409,-03.1630,-01.5610,-08.7560,+00.000135,+00.001265,-00.000085
-123.926,-019.666,+010.220,-0.078,+0.728,+2.441,-03.1830,-01.5970,-08.7360,+00.000731,-00.000084,+00.000747
-123.926,-019.664,+010.219,-0.073,+0.757,+2.414,-03.1810,-01.5700,-08.7310,-00.000685,+00.001453,+00.000980
-123.925,-019.664,+010.219,-0.069,+0.723,+2.399,-03.1770,-01.5690,-08.7350,+00.001491,-00.000896,+00.003150
-123.923,-019.666,+010.218,-0.083,+0.723,+2.436,-03.1680,-01.5530,-08.7330,+00.002648,-00.002176,+00.000011
-123.922,-019.670,+010.220,-0.059,+0.772,+2.404,-03.1510,-01.5840,-08.7370,+00.003485,-00.002922,+00.001141
-123.922,-019.672,+010.223,-0.078,+0.747,+2.403,-03.1910,-01.5770,-08.7590,+00.003708,-00.001243,+00.000918
-123.920,-019.672,+010.225,-0.078,+0.733,+2.425,-03.1770,-01.5700,-08.7790,-00.000386,+00.000872,+00.001174
-123.919,-019.671,+010.225,-0.064,+0.757,+2.409,-03.1820,-01.5780,-08.7650,+00.000415,+00.002906,+00.000938
-123.919,-019.669,+010.228,-0.073,+0.718,+2.409,-03.1800,-01.6060,-08.7360,+00.001731,-00.000069,+00.002494
-123.918,-019.669,+010.229,-0.078,+0.713,+2.436,-03.1640,-01.6000,-08.7480,+00.003586,-00.001058,+00.002823
-123.918,-019.673,+010.233,-0.073,+0.777,+2.398,-03.1810,-01.5790,-08.7580,+00.003898,-00.005487,+00.001884
-123.918,-019.679,+010.236,-0.073,+0.728,+2.415,-03.1860,-01.5660,-08.7300,+00.003607,-00.003456,+00.000866
-123.919,-019.682,+010.240,-0.083,+0.748,+2.436,-03.1580,-01.5990,-08.7480,+00.003443,-00.004178,+00.000751
-123.922,-019.688,+010.245,-0.069,+0.757,+2.415,-03.1750,-01.6190,-08.7190,+00.002474,-00.002749,+00.000556
-123.924,-019.693,+010.250,-0.069,+0.737,+2.415,-03.1830,-01.5930,-08.7550,+00.004146,-00.001081,+00.001222
-123.924,-019.699,+010.257,-0.078,+0.733,+2.436,-03.1710,-01.6070,-08.6800,+00.003792,-00.008791,+00.000903
-123.925,-019.705,+010.260,-0.069,+0.718,+2.404,-03.2040,-01.5260,-08.8140,+00.003882,-00.004543,+00.003874
-123.924,-019.711,+010.265,-0.078,+0.762,+2.420,-03.1490,-01.6580,-08.7170,+00.003359,-00.004854,+00.002601
-123.918,-019.714,+010.259,-0.059,+0.757,+2.426,-03.1180,-01.2120,-08.8660,+00.002998,-00.004314,+00.011202
-123.918,-019.723,+010.264,-0.078,+0.748,+2.430,-03.2690,-01.6740,-08.8020,+00.003556,-00.009342,+00.001770
-123.920,-019.727,+010.265,-0.083,+0.733,+2.420,-03.2290,-01.6960,-08.7060,-00.000754,-00.005122,+00.000590
-123.919,-019.730,+010.265,-0.064,+0.723,+2.426,-03.1770,-01.5620,-08.7460,-00.000369,-00.001606,+00.001075
-123.918,-019.733,+010.265,-0.073,+0.747,+2.414,-03.1880,-01.5850,-08.7390,+00.000034,-00.002125,+00.003189
-123.917,-019.737,+010.263,-0.059,+0.732,+2.410,-03.1590,-01.6090,-08.7130,-00.001392,-00.004878,+00.001937
-123.916,-019.741,+010.263,-0.078,+0.738,+2.420,-03.1850,-01.5310,-08.7250,+00.000067,-00.000716,+00.002645
-123.914,-019.745,+010.264,-0.069,+0.762,+2.415,-03.2110,-01.5910,-08.7040,+00.001697,-00.004610,+00.002761
-123.912,-019.747,+010.264,-0.064,+0.733,+2.420,-03.1670,-01.5920,-08.7660,-00.000937,-00.001002,+00.003454
-123.910,-019.749,+010.264,-0.073,+0.743,+2.431,-03.1830,-01.5960,-08.7220,+00.001120,-00.000867,+00.002756
-123.909,-019.753,+010.265,-0.073,+0.777,+2.414,-03.1630,-01.6030,-08.7310,+00.001224,-00.004426,+00.002387
-123.906,-019.759,+010.265,-0.078,+0.752,+2.393,-03.1910,-01.6150,-08.7880,+00.000529,-00.003296,+00.003176
-123.904,-019.761,+010.264,-0.073,+0.733,+2.442,-03.2530,-01.5870,-08.7780,-00.000963,+00.001027,+00.002271
-123.902,-019.759,+010.261,-0.073,+0.738,+2.420,-03.1810,-01.6150,-08.7270,-00.001795,+00.001321,+00.002868
-123.898,-019.760,+010.259,-0.073,+0.737,+2.398,-03.1980,-01.5920,-08.7400,+00.000055,-00.001920,+00.006203
-123.894,-019.764,+010.257,-0.078,+0.747,+2.414,-03.1970,-01.5860,-08.7840,-00.001066,-00.002925,+00.003389
-123.893,-019.765,+010.255,-0.083,+0.738,+2.420,-03.1970,-01.5960,-08.7850,-00.000694,-00.000082,+00.002607
-123.893,-019.766,+010.253,-0.069,+0.747,+2.404,-03.2140,-01.5840,-08.7130,-00.000775,-00.000452,+00.001763
-123.893,-019.762,+010.251,-0.073,+0.728,+2.431,-03.1800,-01.5910,-08.7530,-00.001923,+00.004575,-00.000109
-123.892,-019.757,+010.247,-0.069,+0.777,+2.398,-03.1890,-01.5760,-08.7320,-00.002610,+00.004728,+00.000073
-123.893,-019.753,+010.245,-0.064,+0.772,+2.393,-03.1640,-01.5790,-08.7440,-00.001890,+00.002686,-00.001155
-123.894,-019.750,+010.245,-0.078,+0.752,+2.430,-03.1840,-01.5800,-08.7290,-00.000647,+00.002741,-00.003011
-123.897,-019.746,+010.245,-0.069,+0.747,+2.415,-03.2020,-01.5980,-08.7600,+00.000367,+00.002970,-00.001180
-123.900,-019.741,+010.245,-0.073,+0.738,+2.420,-03.1900,-01.5560,-08.7510,+00.000002,+00.006520,-00.001642
-123.901,-019.734,+010.243,-0.078,+0.762,+2.425,-03.1840,-01.6000,-08.7470,-00.001840,+00.004850,-00.001651
-123.900,-019.729,+010.242,-0.073,+0.747,+2.420,-03.1740,-01.5740,-08.7900,-00.000404,+00.005149,+00.000820
-123.897,-019.725,+010.239,-0.083,+0.767,+2.409,-03.1970,-01.5880,-08.7070,-00.002063,+00.003061,+00.002085
-123.895,-019.723,+010.236,-0.078,+0.762,+2.425,-03.1810,-01.5600,-08.7440,-00.001766,+00.001375,+00.000718
-123.896,-019.722,+010.236,-0.078,+0.747,+2.414,-03.1610,-01.6020,-08.7470,-00.000322,+00.000804,-00.000760
-123.897,-019.721,+010.235,-0.078,+0.747,+2.387,-03.2050,-01.5980,-08.7410,-00.002088,-00.000034,+00.000282
-123.895,-019.720,+010.233,-0.083,+0.743,+2.425,-03.2040,-01.6000,-08.7780,-00.000959,+00.002573,+00.000703
-123.895,-019.716,+010.228,-0.059,+0.747,+2.404,-03.1860,-01.5790,-08.7580,-00.006827,+00.007648,+00.000787
-123.894,-019.714,+010.224,-0.073,+0.742,+2.409,-03.2000,-01.5760,-08.7520,-00.002688,+00.002545,+00.003570
-123.893,-019.711,+010.220,-0.073,+0.733,+2.436,-03.1800,-01.5800,-08.7500,-00.002718,+00.000927,+00.001296
-123.893,-019.708,+010.214,-0.069,+0.742,+2.409,-03.1940,-01.5580,-08.7620,-00.004132,+00.003434,+00.001789
-123.894,-019.702,+010.211,-0.078,+0.738,+2.420,-03.1800,-01.5920,-08.7990,-00.003695,+00.005193,-00.002054
-123.894,-019.696,+010.206,-0.073,+0.733,+2.420,-03.1380,-01.5980,-08.7760,-00.004724,+00.004255,+00.001086
-123.891,-019.690,+010.200,-0.073,+0.762,+2.414,-03.1830,-01.5620,-08.7690,-00.003092,+00.005398,+00.001281
-123.889,-019.684,+010.195,-0.073,+0.718,+2.420,-03.1830,-01.5560,-08.8030,-00.002199,+00.003914,-00.000438
-123.890,-019.678,+010.190,-0.083,+0.743,+2.447,-03.1700,-01.5040,-08.7080,-00.000264,+00.007521,+00.003255
-123.891,-019.673,+010.186,-0.078,+0.752,+2.414,-03.1700,-01.6200,-08.7460,-00.005325,+00.004550,-00.000009
-123.890,-019.667,+010.181,-0.064,+0.728,+2.415,-03.2010,-01.5650,-08.7740,-00.003051,+00.005320,+00.000259
-123.890,-019.661,+010.177,-0.073,+0.718,+2.431,-03.1480,-01.5780,-08.7310,-00.003273,+00.004040,+00.000696
-123.892,-019.656,+010.174,-0.064,+0.742,+2.420,-03.1490,-01.5910,-08.7190,-00.002692,+00.004014,-00.000560
-123.890,-019.651,+010.171,-0.087,+0.743,+2.409,-03.1860,-01.5970,-08.7620,-00.001961,+00.002484,+00.002261
-123.888,-019.651,+010.169,-0.078,+0.757,+2.420,-03.1700,-01.5740,-08.7610,-00.002378,-00.000212,+00.000440
-123.890,-019.651,+010.167,-0.073,+0.742,+2.415,-03.1860,-01.5560,-08.7670,-00.001415,-00.000458,-00.000656
-123.891,-019.650,+010.165,-0.078,+0.728,+2.393,-03.1910,-01.5870,-08.7320,-00.003187,+00.001282,+00.000450
-123.890,-019.645,+010.162,-0.069,+0.738,+2.442,-03.1460,-01.5720,-08.7310,-00.002989,+00.005540,+00.000981
-123.890,-019.641,+010.160,-0.078,+0.738,+2.431,-03.1650,-01.5590,-08.7610,-00.001476,+00.001460,+00.001244
-123.889,-019.641,+010.157,-0.069,+0.757,+2.398,-03.2040,-01.5690,-08.7390,-00.002385,+00.000053,+00.001243
-123.891,-019.640,+010.156,-0.078,+0.728,+2.436,-03.1790,-01.6030,-08.7510,-00.002276,+00.001992,-00.000290
-123.892,-019.639,+010.154,-0.073,+0.747,+2.404,-03.1790,-01.5730,-08.7680,-00.001701,+00.001223,+00.001176
-123.891,-019.637,+010.152,-0.073,+0.733,+2.404,-03.1680,-01.5510,-08.7400,-00.002481,+00.001084,+00.001488
-123.889,-019.635,+010.152,-0.073,+0.733,+2.447,-03.1940,-01.5960,-08.7660,-00.000877,-00.000069,+00.003374
-123.887,-019.634,+010.151,-0.069,+0.752,+2.393,-03.1680,-01.5820,-08.7410,-00.001286,-00.000145,+00.002343
-123.887,-019.634,+010.151,-0.078,+0.762,+2.420,-03.1850,-01.5860,-08.7340,+00.000820,+00.001232,+00.001046
-123.886,-019.632,+010.152,-0.073,+0.733,+2.431,-03.1670,-01.5790,-08.7600,+00.001046,+00.001462,+00.001610
-123.885,-019.631,+010.152,-0.078,+0.767,+2.430,-03.1570,-01.5880,-08.7720,-00.000144,+00.000437,+00.002473
-123.883,-019.633,+010.148,-0.083,+0.733,+2.425,-03.1890,-01.5340,-08.7710,-00.000949,+00.000371,+00.001202
-123.882,-019.633,+010.148,-0.073,+0.738,+2.436,-03.1850,-01.5760,-08.7540,+00.000628,-00.000527,+00.002152
-123.883,-019.632,+010.149,-0.078,+0.757,+2.420,-03.1810,-01.5970,-08.7640,+00.000483,-00.000487,+00.001186
-123.884,-019.634,+010.150,-0.078,+0.747,+2.393,-03.1750,-01.5560,-08.7400,+00.000785,-00.001301,+00.001112
-123.885,-019.635,+010.153,-0.069,+0.723,+2.420,-03.1660,-01.5920,-08.7200,+00.002354,-00.001154,+00.001115
-123.885,-019.639,+010.154,-0.073,+0.733,+2.436,-03.1870,-01.5580,-08.7580,+00.001866,-00.002005,-00.000591
-123.889,-019.638,+010.157,-0.078,+0.738,+2.414,-03.1760,-01.5700,-08.7470,+00.000111,+00.000794,-00.000522
-123.889,-019.636,+010.159,-0.083,+0.713,+2.431,-03.1480,-01.5860,-08.7570,+00.000377,+00.001503,+00.000188
-123.889,-019.633,+010.161,-0.083,+0.747,+2.398,-03.1800,-01.5950,-08.7580,-00.000030,+00.004583,+00.000073
-123.888,-019.631,+010.162,-0.083,+0.743,+2.409,-03.1860,-01.5710,-08.7430,+00.001039,+00.003838,+00.000505
-123.888,-019.626,+010.162,-0.073,+0.733,+2.442,-03.1580,-01.5790,-08.7500,+00.001203,+00.005093,+00.000093
-123.899,-019.618,+010.183,-0.073,+0.747,+2.415,-03.1600,-01.9810,-08.6520,-00.005462,+00.000399,-00.011135
-123.899,-019.614,+010.185,-0.059,+0.737,+2.399,-03.1110,-01.4460,-08.7460,+00.000283,+00.004614,+00.001742
-123.900,-019.613,+010.187,-0.083,+0.713,+2.441,-03.1490,-01.6030,-08.7780,+00.002795,+00.001482,-00.001728
-123.901,-019.610,+010.189,-0.073,+0.742,+2.415,-03.1910,-01.5640,-08.7370,+00.001307,+00.001913,-00.000792
-123.905,-019.609,+010.192,-0.064,+0.723,+2.421,-03.1570,-01.5740,-08.7370,+00.001487,-00.001132,-00.001368
-123.907,-019.610,+010.193,-0.064,+0.752,+2.431,-03.1240,-01.5650,-08.7720,+00.001720,+00.000903,-00.000743
-123.906,-019.609,+010.194,-0.069,+0.747,+2.420,-03.1540,-01.5560,-08.7590,+00.002093,+00.002507,+00.001743
-123.907,-019.609,+010.195,-0.078,+0.738,+2.425,-03.1890,-01.5830,-08.7690,+00.001048,-00.001046,-00.000051
-123.909,-019.612,+010.197,-0.078,+0.728,+2.441,-03.1530,-01.5810,-08.7420,+00.002474,-00.003796,+00.000620
-123.910,-019.615,+010.200,-0.078,+0.743,+2.425,-03.1870,-01.5620,-08.7280,+00.001825,-00.001380,+00.001537
-123.909,-019.617,+010.202,-0.073,+0.747,+2.420,-03.1450,-01.6200,-08.7450,+00.002148,-00.001967,+00.002469
-123.907,-019.621,+010.204,-0.078,+0.733,+2.436,-03.1590,-01.6000,-08.7750,+00.002974,-00.003038,+00.003300
-123.905,-019.626,+010.208,-0.078,+0.767,+2.393,-03.1640,-01.5740,-08.7550,+00.005104,-00.004784,+00.002725
-123.900,-019.632,+010.212,-0.073,+0.738,+2.420,-03.1630,-01.6410,-08.7250,+00.006221,-00.004811,+00.004404
-123.900,-019.637,+010.217,-0.078,+0.733,+2.441,-03.1170,-01.6070,-08.7110,+00.005098,-00.004861,+00.004026
-123.897,-019.645,+010.221,-0.078,+0.738,+2.409,-03.1860,-01.5600,-08.7790,+00.005142,-00.003480,+00.007758
-123.896,-019.649,+010.225,-0.083,+0.743,+2.403,-03.1930,-01.6550,-08.7200,+00.003325,-00.001615,+00.001666
-123.895,-019.651,+010.228,-0.078,+0.738,+2.431,-03.1950,-01.6850,-08.7250,+00.000116,-00.000301,-00.000382
-123.894,-019.656,+010.233,-0.069,+0.742,+2.404,-03.1690,-01.5430,-08.7880,+00.005941,-00.005182,+00.001543
-123.890,-019.658,+010.236,-0.087,+0.742,+2.392,-03.1750,-01.5700,-08.7390,+00.002679,-00.000393,+00.005956
-123.887,-019.658,+010.237,-0.083,+0.757,+2.414,-03.1810,-01.5870,-08.7360,+00.001402,-00.001293,+00.000731
-123.888,-019.655,+010.242,-0.069,+0.762,+2.409,-03.1940,-01.5860,-08.7550,+00.005597,+00.006313,-00.000845
-123.892,-019.650,+010.248,-0.078,+0.767,+2.403,-03.1980,-01.5150,-08.8250,+00.005585,+00.004930,-00.002420
-123.895,-019.647,+010.255,-0.078,+0.728,+2.436,-03.1390,-01.6350,-08.6670,+00.005348,-00.002368,-00.004734
-123.898,-019.646,+010.262,-0.073,+0.747,+2.409,-03.1950,-01.5390,-08.8070,+00.006754,-00.000638,-00.001428
-123.903,-019.647,+010.271,-0.069,+0.733,+2.420,-03.1770,-01.6050,-08.7800,+00.006298,-00.002596,-00.003539
-123.906,-019.648,+010.277,-0.078,+0.762,+2.414,-03.1740,-01.5960,-08.7160,+00.004166,-00.001182,-00.002752
-123.911,-019.646,+010.282,-0.083,+0.738,+2.414,-03.1870,-01.5650,-08.7640,+00.002916,+00.002070,-00.002215
-123.914,-019.645,+010.285,-0.073,+0.767,+2.425,-03.1920,-01.6030,-08.7850,-00.000499,+00.002000,-00.003398
-123.918,-019.647,+010.291,-0.083,+0.738,+2.447,-03.2160,-01.6710,-08.7750,+00.002825,-00.000545,-00.002780
-123.926,-019.649,+010.298,-0.069,+0.752,+2.415,-03.1000,-01.6020,-08.7370,+00.003331,-00.003952,-00.003189
-123.933,-019.646,+010.303,-0.078,+0.762,+2.425,-03.1470,-01.6300,-08.7490,-00.000438,+00.006954,-00.005105
-123.936,-019.645,+010.305,-0.069,+0.738,+2.436,-03.1240,-01.5890,-08.7600,+00.000696,+00.000708,+00.000326
-123.938,-019.642,+010.305,-0.078,+0.777,+2.398,-03.1720,-01.6310,-08.7700,-00.003481,+00.006837,-00.001235
-123.938,-019.640,+010.302,-0.083,+0.738,+2.409,-03.1840,-01.6010,-08.7810,-00.004582,+00.005816,+00.003020
-123.940,-019.638,+010.299,-0.078,+0.733,+2.441,-03.1540,-01.6340,-08.7290,-00.004045,+00.001644,-00.001822
-123.940,-019.634,+010.295,-0.073,+0.777,+2.414,-03.1770,-01.5880,-08.7480,-00.002190,+00.003567,+00.000266
-123.939,-019.631,+010.290,-0.064,+0.742,+2.420,-03.1520,-01.6080,-08.7470,-00.003523,+00.001833,+00.002186
-123.934,-019.630,+010.285,-0.078,+0.738,+2.458,-03.1450,-01.5090,-08.7530,-00.002051,+00.001387,+00.005981
-123.928,-019.631,+010.280,-0.069,+0.733,+2.431,-03.1510,-01.5660,-08.7890,-00.003523,-00.000847,+00.004303
-123.926,-019.630,+010.275,-0.069,+0.733,+2.410,-03.1710,-01.6310,-08.7070,-00.001077,+00.000225,+00.002293
-123.927,-019.627,+010.271,-0.078,+0.718,+2.436,-03.2180,-01.5620,-08.7880,-00.003832,+00.004009,-00.001490
-123.927,-019.623,+010.269,-0.083,+0.762,+2.403,-03.1980,-01.5950,-08.7720,-00.001542,+00.003044,-00.002037
-123.927,-019.622,+010.266,-0.073,+0.742,+2.388,-03.1350,-01.5630,-08.7600,-00.002557,-00.000001,-00.000699
-123.928,-019.620,+010.264,-0.078,+0.718,+2.436,-03.1320,-01.5270,-08.7680,-00.000596,+00.003575,+00.000975
-123.929,-019.619,+010.261,-0.073,+0.742,+2.420,-03.1230,-01.4690,-08.8250,-00.001262,-00.001740,-00.001434
-123.934,-019.618,+010.262,-0.078,+0.738,+2.409,-03.1430,-01.6220,-08.7130,+00.000025,+00.001374,-00.000877
-123.939,-019.617,+010.263,-0.083,+0.728,+2.441,-03.1550,-01.6420,-08.7560,-00.001357,+00.000169,-00.005165
-123.944,-019.612,+010.264,-0.069,+0.757,+2.404,-03.1720,-01.5460,-08.8060,+00.000282,+00.002924,-00.004468
-123.949,-019.607,+010.264,-0.083,+0.772,+2.414,-03.1980,-01.6240,-08.7560,-00.002435,+00.006956,-00.002708
-123.952,-019.599,+010.264,-0.073,+0.733,+2.436,-03.1510,-01.5650,-08.7860,+00.000015,+00.005949,-00.003537
-123.955,-019.594,+010.266,-0.069,+0.767,+2.398,-03.1660,-01.5410,-08.7640,+00.002120,+00.001448,-00.002651
-123.958,-019.588,+010.266,-0.078,+0.733,+2.404,-03.1120,-01.6430,-08.6820,-00.000553,+00.003938,-00.003206
-123.959,-019.583,+010.268,-0.073,+0.743,+2.436,-03.1900,-01.5910,-08.7740,+00.001110,+00.005373,+00.000041
-123.961,-019.578,+010.269,-0.073,+0.757,+2.431,-03.1550,-01.5950,-08.7390,+00.002972,+00.001493,-00.000406
-123.960,-019.573,+010.267,-0.092,+0.728,+2.414,-03.1270,-01.5700,-08.7080,-00.002014,+00.003435,+00.002633
-123.958,-019.568,+010.264,-0.073,+0.738,+2.436,-03.1380,-01.5910,-08.7400,-00.001288,+00.003444,+00.002545
-123.956,-019.568,+010.264,-0.078,+0.757,+2.414,-03.1720,-01.5900,-08.7720,+00.001905,-00.000490,+00.001280
-123.956,-019.567,+010.265,-0.083,+0.728,+2.409,-03.1390,-01.5560,-08.7030,+00.002610,+00.001750,+00.001837
-123.956,-019.565,+010.265,-0.083,+0.748,+2.441,-03.1790,-01.5630,-08.7940,-00.000232,+00.002275,+00.000667
-123.953,-019.563,+010.265,-0.069,+0.752,+2.415,-03.1510,-01.5940,-08.7260,+00.002877,-00.000108,+00.003003
-123.953,-019.563,+010.263,-0.078,+0.737,+2.393,-03.1590,-01.6020,-08.7440,-00.000498,+00.000378,+00.002885
-123.951,-019.566,+010.264,-0.078,+0.762,+2.430,-03.1660,-01.5930,-08.7450,+00.000604,-00.001239,+00.002572
-123.951,-019.567,+010.263,-0.083,+0.777,+2.425,-03.1240,-01.6050,-08.7370,+00.000035,+00.001123,+00.001219
-123.949,-019.566,+010.261,-0.078,+0.738,+2.414,-03.1550,-01.5680,-08.7890,+00.000552,-00.001171,+00.002571
-123.949,-019.568,+010.260,-0.078,+0.733,+2.425,-03.1470,-01.5730,-08.7850,+00.000893,-00.001967,+00.001545
-123.949,-019.571,+010.260,-0.083,+0.743,+2.425,-03.1780,-01.5800,-08.7480,+00.000535,-00.002467,+00.000673
-123.949,-019.572,+010.260,-0.083,+0.767,+2.414,-03.1790,-01.5470,-08.7800,+00.000803,-00.001442,+00.001092
-123.949,-019.575,+010.263,-0.073,+0.728,+2.436,-03.1460,-01.6020,-08.7680,+00.001929,-00.002711,+00.002082
-123.947,-019.578,+010.263,-0.073,+0.738,+2.420,-03.1660,-01.5650,-08.7310,+00.002316,-00.003615,+00.004556
-123.944,-019.583,+010.265,-0.083,+0.733,+2.436,-03.1700,-01.5530,-08.7670,+00.003356,-00.004750,+00.003281
-123.941,-019.587,+010.268,-0.073,+0.733,+2.436,-03.1400,-01.5430,-08.7700,+00.003208,-00.001872,+00.005389
-123.939,-019.591,+010.270,-0.078,+0.752,+2.409,-03.1430,-01.6080,-08.7440,+00.002599,-00.002539,+00.003499
-123.937,-019.596,+010.270,-0.069,+0.757,+2.409,-03.1560,-01.4800,-08.8410,+00.003656,-00.003158,+00.003285
-123.934,-019.606,+010.274,-0.078,+0.748,+2.425,-03.1630,-01.4450,-08.8410,+00.003615,-00.008890,+00.003334
-123.934,-019.617,+010.279,-0.073,+0.747,+2.409,-03.1530,-01.5920,-08.6810,+00.005132,-00.010245,+00.002323
-123.936,-019.626,+010.284,-0.069,+0.737,+2.409,-03.1090,-01.5920,-08.7610,+00.005094,-00.008209,+00.000913
-123.936,-019.632,+010.286,-0.069,+0.723,+2.437,-03.1460,-01.6480,-08.7000,+00.003707,-00.001544,+00.004148
-123.935,-019.637,+010.289,-0.069,+0.747,+2.426,-03.1650,-01.5500,-08.7830,+00.004037,-00.003330,+00.001358
-123.935,-019.639,+010.292,-0.069,+0.762,+2.404,-03.1540,-01.5840,-08.7520,+00.003355,-00.002122,+00.002188
-123.934,-019.640,+010.295,-0.087,+0.748,+2.441,-03.1690,-01.6050,-08.7490,+00.003650,-00.000728,+00.002503
-123.931,-019.643,+010.298,-0.064,+0.742,+2.420,-03.1700,-01.5880,-08.7320,+00.004106,-00.001331,+00.004441
-123.930,-019.646,+010.301,-0.078,+0.752,+2.420,-03.1830,-01.5500,-08.8160,+00.004098,-00.001409,+00.002360
-123.931,-019.647,+010.305,-0.083,+0.723,+2.436,-03.2130,-01.5880,-08.7910,+00.003012,-00.000880,-00.000794
-123.934,-019.646,+010.308,-0.073,+0.747,+2.409,-03.1780,-01.6060,-08.7300,+00.001168,+00.003612,+00.000034
-123.933,-019.643,+010.308,-0.078,+0.742,+2.404,-03.1790,-01.6030,-08.7320,+00.000034,+00.001901,+00.002888
-123.930,-019.640,+010.306,-0.078,+0.728,+2.442,-03.1690,-01.6260,-08.7350,-00.000320,+00.003775,+00.002511
-123.927,-019.637,+010.304,-0.073,+0.767,+2.425,-03.1910,-01.5540,-08.7680,-00.000069,+00.001437,+00.001706
-123.927,-019.632,+010.301,-0.069,+0.762,+2.431,-03.1510,-01.5630,-08.7570,-00.001104,+00.005431,-00.000919
-123.928,-019.626,+010.300,-0.073,+0.733,+2.436,-03.1710,-01.6170,-08.7540,-00.001555,+00.008323,+00.000934
-123.928,-019.624,+010.298,-0.083,+0.792,+2.430,-03.1890,-01.5900,-08.7790,-00.002571,+00.001638,-00.000862
-123.927,-019.621,+010.296,-0.083,+0.738,+2.398,-03.1590,-01.5930,-08.7310,-00.001612,+00.002124,+00.000730
-123.927,-019.621,+010.296,-0.078,+0.738,+2.436,-03.1890,-01.5980,-08.7490,+00.000358,-00.000059,+00.001105
-123.928,-019.622,+010.296,-0.078,+0.743,+2.414,-03.1780,-01.5980,-08.7650,-00.000031,-00.001530,+00.001005
-123.927,-019.623,+010.296,-0.078,+0.742,+2.409,-03.1850,-01.5520,-08.7320,+00.000460,-00.000387,+00.002845
-123.927,-019.624,+010.296,-0.073,+0.757,+2.431,-03.1760,-01.5840,-08.7880,-00.000019,-00.001474,+00.002238
-123.925,-019.624,+010.296,-0.073,+0.782,+2.420,-03.1770,-01.6110,-08.7610,-00.001494,+00.001517,+00.002958
-123.924,-019.626,+010.294,-0.083,+0.733,+2.420,-03.2060,-01.5640,-08.7750,+00.000008,-00.001459,+00.001540
-123.925,-019.627,+010.294,-0.083,+0.772,+2.441,-03.1770,-01.5810,-08.7300,+00.000213,+00.000283,+00.000863
-123.925,-019.627,+010.293,-0.069,+0.747,+2.415,-03.1730,-01.6060,-08.7450,-00.000806,+00.001994,+00.000265
-123.924,-019.625,+010.292,-0.073,+0.733,+2.420,-03.1820,-01.6000,-08.7550,-00.001371,+00.002474,+00.001234
-123.921,-019.624,+010.289,-0.083,+0.738,+2.436,-03.1630,-01.5740,-08.7380,-00.002015,+00.001578,+00.003729
-123.919,-019.624,+010.287,-0.078,+0.747,+2.414,-03.1880,-01.6000,-08.7180,-00.001449,-00.000269,+00.000511
-123.920,-019.623,+010.285,-0.073,+0.738,+2.425,-03.1500,-01.5760,-08.7600,-00.000561,+00.001571,+00.001625
-123.919,-019.620,+010.283,-0.083,+0.723,+2.436,-03.1850,-01.6060,-08.7580,-00.001663,+00.002357,+00.001276
-123.919,-019.618,+010.282,-0.087,+0.738,+2.409,-03.1800,-01.5940,-08.7630,-00.001083,+00.002039,+00.000342
-123.919,-019.614,+010.280,-0.078,+0.762,+2.404,-03.1690,-01.5780,-08.7740,-00.001991,+00.003051,+00.002242
-123.918,-019.611,+010.278,-0.078,+0.733,+2.425,-03.1650,-01.6080,-08.7510,-00.000381,+00.002837,+00.000919
-123.919,-019.607,+010.275,-0.078,+0.752,+2.420,-03.1130,-01.3150,-08.8690,-00.001415,+00.003945,+00.002163
-123.921,-019.606,+010.274,-0.078,+0.742,+2.404,-03.1430,-01.6360,-08.7840,-00.000111,+00.001047,-00.000209
-123.922,-019.603,+010.273,-0.078,+0.733,+2.431,-03.1720,-01.5620,-08.7460,-00.001444,+00.002541,-00.001342
-123.925,-019.601,+010.272,-0.069,+0.733,+2.410,-03.1600,-01.5900,-08.7320,-00.001153,+00.000631,-00.001209
-123.930,-019.599,+010.272,-0.078,+0.733,+2.425,-03.1660,-01.5680,-08.7600,-00.001138,+00.002916,-00.003075
-123.932,-019.597,+010.271,-0.083,+0.762,+2.409,-03.1930,-01.5840,-08.7630,-00.001099,+00.002683,-00.001535
-123.932,-019.593,+010.269,-0.078,+0.742,+2.409,-03.1460,-01.5680,-08.7740,-00.000471,+00.002485,-00.001125
-123.934,-019.590,+010.268,-0.078,+0.737,+2.393,-03.1510,-01.5870,-08.7440,-00.000279,+00.001436,-00.000864
-123.935,-019.591,+010.268,-0.083,+0.733,+2.441,-03.1500,-01.6200,-08.7330,+00.000580,+00.000083,+00.004020
-123.935,-019.591,+010.266,-0.073,+0.747,+2.415,-03.1640,-01.6260,-08.7340,-00.000187,-00.000679,+00.000761
-123.934,-019.592,+010.265,-0.083,+0.738,+2.393,-03.1620,-01.5670,-08.8030,-00.000511,+00.000245,+00.001328
-123.936,-019.592,+010.263,-0.083,+0.723,+2.441,-03.1880,-01.5910,-08.7200,-00.002591,+00.000688,-00.000315
-123.935,-019.591,+010.262,-0.073,+0.772,+2.425,-03.1590,-01.6180,-08.7580,-00.002728,+00.000843,+00.002663
-123.934,-019.589,+010.259,-0.069,+0.723,+2.393,-03.1560,-01.6000,-08.7620,-00.002174,+00.000419,+00.002844
-123.932,-019.588,+010.257,-0.083,+0.738,+2.436,-03.1420,-01.5220,-08.7860,+00.003223,+00.003865,+00.003720
-123.931,-019.587,+010.253,-0.073,+0.737,+2.404,-03.2010,-01.5970,-08.7530,-00.003943,+00.001968,+00.000545
-123.930,-019.581,+010.250,-0.083,+0.718,+2.436,-03.1710,-01.6010,-08.7590,-00.001946,+00.004052,+00.001706
-123.929,-019.577,+010.246,-0.073,+0.723,+2.447,-03.1340,-01.5620,-08.7250,-00.003898,+00.001091,+00.000593
-123.927,-019.575,+010.241,-0.073,+0.747,+2.415,-03.1770,-01.5640,-08.7700,-00.002461,+00.004343,+00.003629
-123.927,-019.573,+010.237,-0.083,+0.743,+2.420,-03.1590,-01.5550,-08.7910,-00.003822,+00.002643,+00.000451
-123.927,-019.566,+010.229,-0.078,+0.723,+2.431,-03.2290,-01.5540,-08.7830,-00.005976,+00.010717,+00.001315
-123.928,-019.559,+010.224,-0.073,+0.738,+2.415,-03.0590,-01.7060,-08.7380,-00.004881,+00.003698,+00.000329
-123.926,-019.558,+010.216,-0.069,+0.733,+2.431,-03.1530,-01.6020,-08.7390,-00.005991,+00.000272,+00.001822
-123.925,-019.556,+010.211,-0.078,+0.728,+2.452,-03.1780,-01.5190,-08.7880,-00.003033,+00.002349,+00.001086
-123.929,-019.553,+010.205,-0.069,+0.762,+2.415,-03.1760,-01.6890,-08.7580,-00.010921,+00.000274,-00.007892
-123.930,-019.548,+010.202,-0.083,+0.733,+2.436,-03.1480,-01.5290,-08.7350,-00.002240,+00.002344,-00.001294
-123.929,-019.544,+010.198,-0.083,+0.738,+2.409,-03.1400,-01.5740,-08.7330,-00.003269,+00.004132,+00.002343
-123.926,-019.543,+010.196,-0.078,+0.747,+2.409,-03.1620,-01.5870,-08.7330,-00.000702,+00.002996,+00.003108
-123.925,-019.544,+010.195,-0.078,+0.737,+2.398,-03.1420,-01.5660,-08.7240,+00.001164,-00.001573,+00.002668
-123.924,-019.546,+010.195,-0.078,+0.728,+2.442,-03.1620,-01.5720,-08.7690,+00.001930,-00.001741,+00.002163
-123.924,-019.548,+010.198,-0.064,+0.742,+2.426,-03.1540,-01.5850,-08.7540,+00.001942,-00.002779,-00.000335
-123.924,-019.551,+010.200,-0.083,+0.743,+2.414,-03.1610,-01.5760,-08.7310,+00.002106,-00.001188,+00.000957
-123.924,-019.553,+010.205,-0.078,+0.742,+2.409,-03.1630,-01.5830,-08.7820,+00.003643,-00.002303,+00.001570
-123.925,-019.556,+010.209,-0.078,+0.747,+2.420,-03.1460,-01.5790,-08.7570,+00.003858,-00.001524,+00.002458
-123.924,-019.560,+010.214,-0.083,+0.747,+2.403,-03.2000,-01.5880,-08.7970,+00.004493,-00.002207,+00.001041
-123.924,-019.561,+010.218,-0.078,+0.728,+2.436,-03.1820,-01.5860,-08.7470,+00.003721,-00.000434,+00.001377
-123.925,-019.564,+010.222,-0.078,+0.762,+2.425,-03.1740,-01.6300,-08.7550,+00.003002,-00.002375,-00.000679
-123.926,-019.565,+010.227,-0.064,+0.728,+2.426,-03.1590,-01.5610,-08.7680,+00.003815,+00.002032,-00.000863
-123.930,-019.565,+010.233,-0.078,+0.728,+2.436,-03.1740,-01.5940,-08.7680,+00.003966,-00.000727,-00.001670
-123.933,-019.564,+010.238,-0.073,+0.757,+2.415,-03.1360,-01.6040,-08.7550,+00.003565,+00.000228,+00.001139
-123.931,-019.565,+010.240,-0.078,+0.728,+2.409,-03.1550,-01.5660,-08.7530,+00.003454,-00.000285,+00.002598
-123.931,-019.564,+010.242,-0.078,+0.713,+2.436,-03.1950,-01.5550,-08.7460,+00.002670,+00.001454,+00.000836
-123.934,-019.563,+010.245,-0.078,+0.752,+2.420,-03.1560,-01.6160,-08.7650,+00.001014,+00.001229,-00.001978
-123.934,-019.562,+010.247,-0.069,+0.737,+2.404,-03.1650,-01.5940,-08.7450,+00.001490,-00.000319,+00.002100
-123.934,-019.562,+010.249,-0.073,+0.728,+2.426,-03.1650,-01.5660,-08.7480,+00.001603,+00.001238,+00.001384
-123.933,-019.562,+010.250,-0.078,+0.743,+2.420,-03.1550,-01.5680,-08.7730,+00.001416,+00.000796,+00.002187
-123.933,-019.561,+010.251,-0.069,+0.733,+2.420,-03.1580,-01.5750,-08.7800,+00.000408,-00.000015,+00.002365
-123.931,-019.561,+010.251,-0.092,+0.743,+2.435,-03.1870,-01.5690,-08.7300,+00.001373,-00.000492,+00.001068
-123.932,-019.561,+010.252,-0.078,+0.748,+2.425,-03.1770,-01.5860,-08.7480,+00.000931,+00.000654,+00.000164
-123.931,-019.563,+010.254,-0.083,+0.723,+2.420,-03.1730,-01.5830,-08.7570,+00.001193,-00.001376,+00.002620
-123.930,-019.566,+010.256,-0.083,+0.713,+2.436,-03.1760,-01.5760,-08.7210,+00.001798,-00.004316,+00.003324
-123.928,-019.572,+010.257,-0.073,+0.762,+2.415,-03.1680,-01.5670,-08.7580,+00.002091,-00.004072,+00.000188
-123.929,-019.577,+010.259,-0.073,+0.747,+2.409,-03.1790,-01.5920,-08.7750,+00.002168,-00.002905,+00.000511
-123.931,-019.578,+010.261,-0.087,+0.728,+2.447,-03.1580,-01.5850,-08.7530,+00.000992,+00.000288,-00.000254
-123.932,-019.577,+010.261,-0.078,+0.738,+2.415,-03.1580,-01.5830,-08.7660,+00.000048,+00.001228,-00.000070
-123.934,-019.577,+010.263,-0.073,+0.728,+2.420,-03.1870,-01.6010,-08.7340,+00.002140,+00.000440,+00.000955
-123.934,-019.578,+010.267,-0.078,+0.757,+2.393,-03.1550,-01.5870,-08.7440,+00.003753,-00.001819,+00.001481
-123.933,-019.582,+010.271,-0.073,+0.742,+2.420,-03.1730,-01.6000,-08.7650,+00.004704,-00.004321,+00.001178
-123.934,-019.588,+010.275,-0.069,+0.723,+2.415,-03.1690,-01.5590,-08.7860,+00.006613,-00.005461,+00.000031
-123.936,-019.594,+010.282,-0.059,+0.733,+2.442,-03.1670,-01.6000,-08.7890,+00.006332,-00.003192,-00.000114
-123.937,-019.597,+010.291,-0.073,+0.782,+2.398,-03.1790,-01.5870,-08.7610,+00.006215,-00.002895,+00.000425
-123.937,-019.600,+010.300,-0.073,+0.747,+2.425,-03.1620,-01.6020,-08.7400,+00.007013,-00.005682,+00.003804
-123.934,-019.607,+010.305,-0.078,+0.738,+2.447,-03.2650,-01.4420,-08.9000,+00.004605,-00.010564,+00.001425
-123.933,-019.616,+010.314,-0.078,+0.767,+2.409,-03.1400,-01.7130,-08.6180,+00.010071,-00.008605,+00.002244
-123.933,-019.623,+010.325,-0.087,+0.747,+2.392,-03.1060,-01.3760,-08.8400,+00.008717,-00.000856,+00.002705
-123.932,-019.634,+010.337,-0.073,+0.752,+2.425,-03.1630,-01.4770,-08.6720,+00.017805,-00.009991,+00.008749
-123.937,-019.643,+010.353,-0.069,+0.752,+2.431,-03.2080,-01.5920,-08.7280,+00.013237,-00.003867,-00.002786
-123.945,-019.644,+010.372,-0.083,+0.757,+2.403,-03.1380,-01.6900,-08.7320,+00.017834,-00.001513,-00.003119
-123.955,-019.647,+010.394,-0.073,+0.728,+2.426,-03.1620,-01.5890,-08.7460,+00.021776,-00.001986,-00.006744
-123.961,-019.652,+010.414,-0.078,+0.772,+2.409,-03.2080,-01.6430,-08.7510,+00.012720,-00.007782,-00.005485
-123.967,-019.653,+010.438,-0.073,+0.747,+2.393,-03.1820,-01.6440,-08.7140,+00.023189,+00.006056,-00.002530
-123.974,-019.655,+010.454,-0.083,+0.738,+2.436,-03.1850,-01.6320,-08.7410,+00.010002,-00.000760,-00.005144
-123.977,-019.650,+010.474,-0.073,+0.777,+2.414,-03.1860,-01.7040,-08.6360,+00.007996,+00.003751,-00.004411
-123.982,-019.647,+010.488,-0.073,+0.752,+2.409,-03.1710,-01.5960,-08.7570,+00.009985,+00.001203,-00.004070
-123.987,-019.647,+010.502,-0.083,+0.733,+2.436,-03.1870,-01.6470,-08.7160,+00.011418,-00.000949,-00.002907
-123.990,-019.643,+010.523,-0.059,+0.782,+2.420,-03.1840,-01.6470,-08.6990,+00.020132,+00.007065,-00.000881
-123.992,-019.640,+010.533,-0.069,+0.747,+2.393,-03.1630,-01.6160,-08.7470,+00.008603,+00.004210,-00.001265
-123.994,-019.637,+010.543,-0.073,+0.738,+2.426,-03.1190,-01.6510,-08.7300,+00.007331,+00.000925,-00.001502
-124.000,-019.639,+010.555,-0.073,+0.757,+2.425,-03.1580,-01.6300,-08.7580,+00.011045,-00.004113,-00.002708
-124.005,-019.641,+010.571,-0.069,+0.762,+2.420,-03.1510,-01.6090,-08.7960,+00.021245,-00.000879,-00.001508
-124.009,-019.640,+010.591,-0.078,+0.723,+2.431,-03.1910,-01.6260,-08.7460,+00.008671,+00.001850,-00.002218
-124.014,-019.640,+010.602,-0.064,+0.747,+2.437,-03.1520,-01.6580,-08.7500,+00.006951,-00.001533,-00.002090
-124.017,-019.641,+010.611,-0.073,+0.782,+2.393,-03.1860,-01.6650,-08.7270,+00.007626,-00.001074,-00.000886
-124.018,-019.642,+010.618,-0.083,+0.767,+2.430,-03.1670,-01.6600,-08.7210,+00.007059,-00.002602,-00.000738
-124.019,-019.644,+010.631,-0.073,+0.767,+2.409,-03.1680,-01.7740,-08.7050,+00.015388,+00.001495,+00.000812
-124.022,-019.643,+010.636,-0.069,+0.742,+2.404,-03.2010,-01.6360,-08.7200,+00.003174,+00.002653,-00.002281
-124.027,-019.640,+010.640,-0.069,+0.743,+2.453,-03.1420,-01.6490,-08.7440,+00.001951,+00.001101,-00.003234
-124.030,-019.643,+010.643,-0.078,+0.752,+2.404,-03.1530,-01.5020,-08.7860,+00.003051,+00.003412,+00.003580
-124.034,-019.652,+010.650,-0.073,+0.733,+2.420,-03.1880,-01.7100,-08.8090,+00.004854,-00.007657,-00.002071
-124.041,-019.654,+010.658,-0.078,+0.738,+2.436,-03.1460,-01.6740,-08.7020,+00.005604,-00.000841,-00.008314
-124.048,-019.652,+010.665,-0.064,+0.752,+2.420,-03.1560,-01.6640,-08.7620,+00.002739,+00.000150,-00.003582
-124.051,-019.652,+010.670,-0.083,+0.748,+2.436,-03.0950,-01.7090,-08.6560,+00.005212,-00.003586,+00.001879
-124.053,-019.656,+010.674,-0.073,+0.757,+2.420,-03.1720,-01.6420,-08.7440,+00.001819,-00.003733,-00.000219
-124.057,-019.654,+010.678,-0.069,+0.752,+2.404,-03.2060,-01.6430,-08.7740,+00.000894,+00.002787,-00.004084
-124.063,-019.646,+010.679,-0.073,+0.742,+2.409,-03.1280,-01.7000,-08.7400,-00.000970,+00.008513,-00.003982
-124.063,-019.636,+010.675,-0.078,+0.728,+2.436,-03.1620,-01.6660,-08.7590,-00.003519,+00.006165,+00.000086
-124.061,-019.631,+010.669,-0.078,+0.747,+2.415,-03.1580,-01.6570,-08.7240,-00.002372,+00.003814,+00.001904
-124.060,-019.630,+010.665,-0.073,+0.752,+2.431,-03.1660,-01.6610,-08.7570,-00.003067,-00.000997,+00.001668
-124.061,-019.632,+010.662,-0.087,+0.758,+2.430,-03.1900,-01.6410,-08.7310,-00.001990,-00.001083,+00.000665
-124.060,-019.631,+010.659,-0.073,+0.782,+2.409,-03.1890,-01.6640,-08.7700,-00.002652,+00.002455,+00.000972
-124.060,-019.628,+010.655,-0.064,+0.742,+2.410,-03.1170,-01.7280,-08.6610,-00.003700,+00.001962,-00.000754
-124.058,-019.623,+010.650,-0.078,+0.753,+2.447,-03.1790,-01.6010,-08.7790,-00.003649,+00.004738,+00.004114
-124.054,-019.622,+010.646,-0.073,+0.782,+2.393,-03.1570,-01.7200,-08.7380,-00.001338,+00.002488,+00.002448
-124.052,-019.619,+010.641,-0.078,+0.738,+2.409,-03.1440,-01.6800,-08.6620,-00.003603,+00.003697,+00.001494
-124.051,-019.619,+010.638,-0.069,+0.742,+2.420,-03.1030,-01.6160,-08.7530,-00.002158,+00.001165,+00.002175
-124.051,-019.619,+010.637,-0.078,+0.743,+2.415,-03.1900,-01.6380,-08.7490,-00.002943,+00.002288,+00.000368
-124.052,-019.618,+010.635,-0.069,+0.752,+2.409,-03.1920,-01.5950,-08.7650,+00.000841,+00.002047,+00.002335
-124.053,-019.618,+010.633,-0.087,+0.758,+2.430,-03.1830,-01.5910,-08.7750,+00.001397,-00.000388,+00.000924
-124.056,-019.617,+010.632,-0.064,+0.752,+2.410,-03.1890,-01.6450,-08.7750,-00.002114,-00.002381,-00.002656
-124.059,-019.613,+010.630,-0.073,+0.757,+2.388,-03.1770,-01.6560,-08.7220,-00.003179,+00.003470,-00.004279
-124.065,-019.603,+010.625,-0.078,+0.738,+2.431,-03.2110,-01.7120,-08.7470,-00.006463,+00.010770,-00.005841
-124.073,-019.589,+010.621,-0.069,+0.752,+2.393,-03.2350,-01.6380,-08.7860,-00.004588,+00.010563,-00.006620
-124.080,-019.573,+010.612,-0.078,+0.738,+2.420,-03.1630,-01.7350,-08.7390,-00.010013,+00.012191,-00.004534
-124.086,-019.560,+010.599,-0.073,+0.733,+2.431,-03.0520,-01.7110,-08.6210,-00.021189,+00.007719,+00.001883
-124.082,-019.552,+010.585,-0.069,+0.767,+2.404,-03.1400,-01.4900,-08.7650,-00.008267,+00.006706,+00.005002
-124.077,-019.550,+010.575,-0.083,+0.762,+2.420,-03.1600,-01.6120,-08.7730,-00.003859,+00.002114,+00.005263
-124.078,-019.547,+010.570,-0.083,+0.782,+2.425,-03.1460,-01.6720,-08.6980,-00.004103,-00.001312,-00.001848
-124.083,-019.542,+010.568,-0.083,+0.747,+2.404,-03.1340,-01.6560,-08.6760,+00.002044,+00.005708,-00.007165
-124.095,-019.537,+010.573,-0.087,+0.738,+2.420,-03.1170,-01.8010,-08.7170,+00.003659,+00.003723,-00.008329
-124.099,-019.529,+010.569,-0.078,+0.738,+2.442,-03.1270,-01.6320,-08.7210,-00.008032,+00.005259,-00.000403
-124.098,-019.527,+010.564,-0.078,+0.757,+2.414,-03.1910,-01.6340,-08.8190,-00.003327,+00.001206,+00.001483
-124.098,-019.524,+010.558,-0.078,+0.743,+2.415,-03.1440,-01.6250,-08.6790,-00.002723,+00.000669,-00.001688
-124.100,-019.518,+010.555,-0.083,+0.753,+2.425,-03.1430,-01.6830,-08.6480,-00.004578,+00.003209,+00.001261
-124.101,-019.514,+010.551,-0.069,+0.747,+2.420,-03.1690,-01.6370,-08.7870,-00.003834,+00.008049,+00.000613
-124.104,-019.512,+010.550,-0.073,+0.737,+2.404,-03.1200,-01.6850,-08.7310,+00.001333,-00.002283,+00.000166
-124.107,-019.509,+010.548,-0.078,+0.733,+2.425,-03.1160,-01.6040,-08.6900,-00.002706,+00.001835,-00.000695
-124.112,-019.507,+010.550,-0.083,+0.762,+2.409,-03.0940,-01.6690,-08.7200,+00.000641,+00.002860,-00.002032
-124.119,-019.507,+010.554,-0.073,+0.737,+2.404,-03.1740,-01.6270,-08.7610,+00.000813,+00.001555,-00.004696
-124.129,-019.511,+010.561,-0.069,+0.728,+2.426,-03.1950,-01.6660,-08.7860,-00.000232,-00.005663,-00.007726
-124.139,-019.510,+010.564,-0.073,+0.757,+2.415,-03.1470,-01.5800,-08.7870,+00.006136,-00.001130,-00.008784
-124.154,-019.509,+010.576,-0.083,+0.743,+2.404,-03.1370,-01.6420,-08.7580,+00.008820,-00.000288,-00.012381
-124.175,-019.509,+010.595,-0.078,+0.728,+2.425,-03.1620,-01.5900,-08.8170,+00.010795,-00.003360,-00.016666
-124.198,-019.511,+010.623,-0.078,+0.792,+2.393,-03.0930,-01.6570,-08.7050,+00.014266,-00.003932,-00.016118
-124.221,-019.511,+010.646,-0.078,+0.743,+2.431,-03.1740,-01.6200,-08.7500,+00.014638,-00.003811,-00.021094
-124.251,-019.507,+010.669,-0.083,+0.753,+2.436,-03.2020,-01.5130,-08.7870,+00.011130,-00.000520,-00.025423
-124.284,-019.499,+010.693,-0.092,+0.753,+2.425,-03.1290,-01.6450,-08.7410,+00.016215,+00.002217,-00.025553
-124.324,-019.484,+010.719,-0.078,+0.742,+2.404,-03.1630,-01.8220,-08.7030,+00.011444,+00.008762,-00.036209
-124.371,-019.468,+010.747,-0.078,+0.772,+2.425,-03.1650,-01.7600,-08.7230,+00.012952,+00.006177,-00.041829
-124.435,-019.447,+010.780,-0.083,+0.753,+2.425,-03.1290,-01.6540,-08.7840,+00.007634,+00.008072,-00.059975
-124.501,-019.428,+010.819,-0.087,+0.782,+2.382,-03.1550,-01.7050,-08.7150,+00.014630,+00.008504,-00.052826
-124.574,-019.406,+010.861,-0.087,+0.753,+2.425,-03.1950,-01.7060,-08.7200,+00.014068,+00.011927,-00.069111
-124.666,-019.376,+010.904,-0.083,+0.748,+2.414,-03.1470,-01.5150,-08.7900,+00.014147,+00.011939,-00.085027
-124.761,-019.341,+010.965,-0.092,+0.743,+2.409,-03.1330,-01.7370,-08.6660,+00.033328,+00.018469,-00.077051
-124.836,-019.312,+011.013,-0.092,+0.767,+2.425,-03.1550,-01.8330,-08.7160,+00.019142,+00.015393,-00.059195
-124.894,-019.278,+011.052,-0.092,+0.782,+2.408,-03.0240,-01.8110,-08.6900,+00.015459,+00.016097,-00.050809
-124.954,-019.257,+011.096,-0.097,+0.738,+2.414,-03.0770,-01.7240,-08.6960,+00.022170,+00.001786,-00.055828
-125.020,-019.255,+011.148,-0.097,+0.738,+2.430,-03.1060,-01.6390,-08.8150,+00.033006,-00.007509,-00.050543
-125.081,-019.262,+011.207,-0.097,+0.757,+2.403,-02.9880,-01.7260,-08.8120,+00.035352,-00.016735,-00.040596
-125.133,-019.281,+011.270,-0.087,+0.753,+2.425,-03.1180,-01.8270,-08.8010,+00.029819,-00.029979,-00.032199
-125.172,-019.309,+011.311,-0.087,+0.733,+2.436,-03.1490,-01.7330,-08.7460,+00.025427,-00.031995,-00.021731
-125.203,-019.339,+011.354,-0.087,+0.767,+2.398,-03.0850,-01.7530,-08.7230,+00.031596,-00.034295,-00.018585
-125.231,-019.370,+011.417,-0.078,+0.777,+2.409,-03.1210,-01.5250,-09.0500,+00.087159,-00.026000,-00.016977
-125.254,-019.401,+011.476,-0.087,+0.772,+2.409,-03.0480,-01.7210,-08.7780,+00.062061,-00.026592,-00.007000
-125.260,-019.429,+011.526,-0.083,+0.807,+2.419,-03.1180,-01.7820,-08.7180,+00.040685,-00.020812,+00.005923
-125.250,-019.449,+011.557,-0.083,+0.767,+2.403,-03.1050,-01.7340,-08.8240,+00.016736,-00.010706,+00.014204
-125.238,-019.469,+011.587,-0.097,+0.748,+2.425,-03.0600,-01.9100,-08.6530,+00.023688,-00.016746,+00.015608
-125.217,-019.494,+011.601,-0.078,+0.777,+2.409,-03.2160,-01.7610,-08.6900,+00.014848,-00.019160,+00.024324
-125.201,-019.525,+011.615,-0.083,+0.767,+2.403,-03.1940,-01.6860,-08.7490,+00.016398,-00.022953,+00.017185
-125.177,-019.551,+011.620,-0.083,+0.762,+2.420,-03.1090,-01.8640,-08.7210,+00.003486,-00.014578,+00.035133
-125.129,-019.579,+011.620,-0.073,+0.782,+2.415,-03.1840,-01.9370,-08.6580,+00.012512,-00.018389,+00.047058
-125.080,-019.617,+011.617,-0.078,+0.797,+2.409,-03.1970,-01.6410,-08.7430,+00.014936,-00.026101,+00.047162
-125.038,-019.658,+011.619,-0.069,+0.787,+2.415,-03.1710,-01.6740,-08.7450,+00.016973,-00.027013,+00.039202
-124.998,-019.700,+011.628,-0.083,+0.792,+2.398,-03.1660,-01.7710,-08.7050,+00.022184,-00.033736,+00.045352
-124.946,-019.750,+011.634,-0.064,+0.777,+2.388,-03.2170,-01.9340,-08.6800,+00.014495,-00.034801,+00.046529
-124.898,-019.807,+011.644,-0.069,+0.772,+2.420,-03.1510,-01.9460,-08.5680,+00.028857,-00.046116,+00.052907
-124.847,-019.881,+011.652,-0.059,+0.782,+2.399,-03.2140,-01.9870,-08.7020,+00.025434,-00.062966,+00.060446
-124.785,-019.979,+011.664,-0.064,+0.772,+2.388,-03.1320,-01.8590,-08.7540,+00.033730,-00.082600,+00.075875
-124.703,-020.104,+011.672,-0.059,+0.767,+2.421,-03.1790,-01.8080,-08.7390,+00.034083,-00.099159,+00.102826
-124.609,-020.259,+011.683,-0.050,+0.801,+2.388,-03.1820,-01.7930,-08.5880,+00.040645,-00.127321,+00.099034
-124.537,-020.449,+011.718,-0.046,+0.762,+2.394,-03.3020,-01.7200,-08.7050,+00.059899,-00.162790,+00.087183
-124.485,-020.683,+011.775,-0.041,+0.792,+2.427,-03.2240,-01.8140,-08.5950,+00.072492,-00.212294,+00.086660
-124.429,-020.990,+011.859,-0.036,+0.801,+2.394,-03.2740,-01.8290,-08.5810,+00.104061,-00.281232,+00.115284
-124.368,-021.396,+011.970,-0.027,+0.777,+2.390,-03.3930,-01.7690,-08.5490,+00.131264,-00.365964,+00.131456
-124.303,-021.894,+012.107,-0.004,+0.781,+2.439,-03.5360,-01.8410,-08.5580,+00.144919,-00.440501,+00.145932
-124.289,-022.478,+012.262,+0.010,+0.801,+2.396,-03.5480,-01.8990,-08.4690,+00.141047,-00.529847,+00.106665
-124.328,-023.179,+012.438,+0.034,+0.796,+2.414,-03.5350,-02.0170,-08.4320,+00.144885,-00.656480,+00.117205
-124.339,-024.057,+012.609,+0.057,+0.810,+2.425,-03.5930,-02.1780,-08.3630,+00.141157,-00.815738,+00.192476
-124.312,-025.197,+012.739,+0.098,+0.820,+2.400,-03.7880,-02.1860,-08.2890,+00.118020,-01.070422,+00.264973
-124.333,-026.742,+012.881,+0.145,+0.839,+2.402,-03.9120,-02.1840,-08.2150,+00.125188,-01.498388,+00.291430
-124.469,-028.851,+013.058,+0.201,+0.804,+2.421,-04.0610,-02.1670,-08.3300,+00.079843,-02.008798,+00.327891
-124.712,-031.558,+013.164,+0.303,+0.838,+2.398,-04.1570,-02.0660,-08.2230,-00.072112,-02.562373,+00.364421
-125.129,-034.937,+013.126,+0.418,+0.797,+2.382,-04.4360,-01.8380,-07.8910,-00.337296,-03.169150,+00.396683
-125.653,-039.018,+012.945,+0.539,+0.825,+2.355,-05.3930,-02.0030,-07.7300,-00.518543,-03.774022,+00.499318
-126.111,-043.766,+012.463,+0.678,+0.789,+2.312,-05.8660,-02.1060,-07.5840,-00.781648,-04.313837,+00.699265
-126.331,-049.274,+011.577,+0.868,+0.703,+2.267,-06.3910,-02.3670,-07.3550,-01.020313,-04.995040,+00.985845
-126.113,-055.555,+009.475,+1.021,+0.646,+2.215,-07.7590,-03.4900,-08.5810,-02.084294,-05.525761,+01.176402
-125.000,-062.122,+006.319,+1.220,+0.565,+2.084,-13.9010,-01.2870,-11.8590,-01.560795,-05.610943,+01.423381
-122.281,-068.163,+003.575,+1.387,+0.508,+1.957,-16.4460,-00.6220,-17.9240,+01.085147,-04.661432,+01.470094
-116.158,-072.525,-000.798,+1.480,+0.477,+1.880,-13.5650,-02.5740,-17.7060,+00.886497,-03.113464,+02.245687
-106.124,-074.291,-010.080,+1.558,+0.426,+1.776,-07.0410,-05.7540,-27.8960,+00.113062,-00.497113,+02.241020
-101.207,-073.271,-015.547,+1.567,+0.342,+1.739,-03.4760,-06.9740,-19.9180,-00.896254,+01.068940,+01.060722
-099.807,-071.466,-018.236,+1.544,+0.298,+1.782,+00.7590,-05.6580,-09.8770,-01.437289,+01.411410,+00.654939
-100.219,-069.670,-019.307,+1.535,+0.244,+1.820,+01.4520,-03.1450,-09.5850,-01.065474,+01.621208,+00.223365
-102.275,-067.782,-018.134,+1.516,+0.195,+1.879,+01.5180,-03.7340,-09.1050,-00.478828,+01.849549,-00.275847
-105.637,-065.785,-015.629,+1.498,+0.200,+1.932,+00.7850,-04.1480,-09.6700,-00.582876,+02.117259,-00.785507
-109.934,-063.368,-012.414,+1.452,+0.211,+1.989,+00.1200,-01.9920,-09.8800,-00.515700,+02.640294,-01.190146
-114.407,-060.333,-008.815,+1.382,+0.227,+2.083,-00.0590,-00.4870,-08.9540,-00.213023,+03.094727,-01.362225
-118.266,-056.825,-005.897,+1.303,+0.268,+2.220,-01.0480,-00.8160,-09.3380,-00.440947,+03.354978,-01.333703
-121.523,-052.878,-003.792,+1.164,+0.279,+2.300,-02.5700,-00.9690,-10.0660,-00.458797,+03.703055,-01.357002
-124.444,-048.473,-001.943,+1.011,+0.266,+2.385,-03.7990,-01.2060,-10.1090,-00.304878,+04.023023,-01.457984
-127.056,-043.753,-000.358,+0.863,+0.253,+2.465,-04.8680,-00.8370,-10.3450,-00.224780,+04.210750,-01.504962
-129.272,-038.823,+000.963,+0.701,+0.300,+2.495,-06.1290,-01.0950,-11.3830,-00.054325,+04.345024,-01.452276
-131.228,-033.795,+002.180,+0.520,+0.292,+2.514,-08.4630,-02.6980,-10.5920,+00.085132,+04.302759,-01.557578
-133.299,-029.076,+003.400,+0.422,+0.293,+2.510,-11.9550,-02.6300,-08.4180,+00.193749,+03.835460,-01.854952
-135.545,-025.032,+004.731,+0.362,+0.308,+2.469,-15.2790,-02.1360,-07.1540,+00.278679,+03.124784,-02.042500
-137.667,-021.697,+005.621,+0.358,+0.289,+2.545,-18.9030,-01.3140,-09.6090,-00.277514,+02.593671,-01.840210
-138.918,-018.374,+005.230,+0.297,+0.270,+2.683,-20.8320,+01.8220,-12.6000,-00.785501,+03.008156,-00.885005
-138.969,-014.604,+004.760,+0.117,+0.322,+2.793,-21.7280,-00.2950,-07.1300,-00.197432,+03.332462,-00.087139
-138.601,-011.099,+004.534,-0.087,+0.334,+2.844,-21.2780,-02.9580,-01.3940,-00.130185,+02.835223,+00.081742
-138.413,-008.617,+004.568,-0.231,+0.355,+2.848,-18.2630,+00.0230,+02.5100,+00.265910,+01.723267,-00.074635
-138.374,-007.353,+005.345,-0.342,+0.406,+2.810,-17.5190,+02.6450,+00.4770,+00.842704,+00.802705,+00.012748
-137.996,-006.798,+006.247,-0.398,+0.436,+2.808,-15.6140,+03.4040,-02.2900,+00.796246,+00.389021,+00.447291
-137.192,-006.303,+007.010,-0.430,+0.491,+2.817,-13.3110,+01.2470,-08.4070,+00.778757,+00.723799,+00.723026
-136.095,-005.190,+008.086,-0.486,+0.570,+2.760,-06.9170,+00.0630,+02.3630,+01.199887,+00.992656,+00.848570
-135.730,-005.502,+008.765,-0.509,+0.610,+2.785,-00.7500,+03.0900,+04.2600,+00.266223,-01.100862,+00.035654
-135.041,-008.588,+009.310,-0.435,+0.644,+2.842,+06.0570,+01.0910,-18.5090,+00.237166,-03.194528,+02.014372
-134.109,-011.490,+009.751,-0.328,+0.727,+2.868,-15.9190,-08.6490,-16.1700,+00.176109,-01.946086,+00.516823
-133.947,-013.325,+009.467,-0.263,+0.717,+2.909,-01.5920,-02.1470,-10.1450,-00.100292,-01.345748,+00.532804
-133.927,-015.103,+009.053,-0.226,+0.707,+2.937,-04.4960,-05.0700,-12.8150,-00.644352,-01.568487,+00.025143
-133.954,-015.987,+008.443,-0.184,+0.702,+2.955,-05.8270,+00.3600,-11.2430,-00.508056,-00.445886,+00.214597
-134.011,-016.641,+008.084,-0.152,+0.691,+2.952,-03.1460,-00.2970,-09.7610,-00.294250,-00.578419,-00.070171
-134.147,-017.198,+008.051,-0.156,+0.672,+2.968,-04.1270,-00.8450,-11.1250,+00.126000,-00.402457,-00.047441
-134.304,-017.648,+008.422,-0.124,+0.741,+2.974,-02.8420,+00.4680,-09.4130,+00.417121,-00.421129,-00.087035
-134.481,-018.158,+009.183,-0.105,+0.741,+2.969,-03.0340,-00.4700,-09.2060,+00.703859,-00.495739,-00.099301
-134.685,-018.652,+010.130,-0.096,+0.750,+2.970,-03.6110,-01.6790,-09.0900,+00.765908,-00.430713,-00.133118
-134.915,-019.063,+011.081,-0.086,+0.834,+2.937,-03.2650,-01.8030,-08.9700,+00.744428,-00.357577,-00.110745
-135.102,-019.390,+011.899,-0.077,+0.829,+2.932,-03.5040,-02.1560,-08.9330,+00.616052,-00.295030,-00.102809
-135.310,-019.654,+012.559,-0.072,+0.864,+2.965,-03.0250,-01.9940,-08.8630,+00.460841,-00.257694,-00.125092
-135.489,-019.923,+013.071,-0.040,+0.913,+2.933,-03.2530,-01.9990,-08.7030,+00.362283,-00.265817,-00.075072
-135.612,-020.201,+013.462,-0.040,+0.878,+2.939,-03.4340,-02.2160,-08.7120,+00.279404,-00.250202,-00.016190
-135.661,-020.448,+013.745,-0.031,+0.928,+2.961,-03.3880,-01.9850,-08.6830,+00.222514,-00.204160,+00.019011
-135.675,-020.676,+013.984,-0.021,+0.932,+2.929,-03.3240,-02.3030,-08.7360,+00.207083,-00.200983,+00.050686
-135.669,-020.909,+014.215,-0.017,+0.947,+2.945,-03.4760,-02.0960,-08.6410,+00.210585,-00.199569,+00.056329
-135.671,-021.177,+014.477,-0.012,+0.928,+2.940,-03.7900,-01.9630,-08.6770,+00.262184,-00.248667,+00.060864
-135.693,-021.471,+014.766,+0.007,+0.962,+2.924,-03.6220,-02.1770,-08.8040,+00.267253,-00.268001,+00.037391
-135.757,-021.755,+015.084,+0.021,+0.977,+2.914,-03.1230,-02.5330,-08.1630,+00.254333,-00.259435,+00.019344
-135.780,-022.043,+015.335,+0.025,+0.952,+2.952,-03.3380,-02.2870,-08.3840,+00.181933,-00.237068,+00.073195
-135.695,-022.310,+015.486,+0.053,+0.971,+2.926,-03.6200,-02.3130,-08.2990,+00.142477,-00.195659,+00.149532
-135.526,-022.569,+015.553,+0.053,+0.966,+2.932,-03.5810,-02.5480,-08.2220,+00.090254,-00.166850,+00.216999
-135.276,-022.816,+015.509,+0.058,+0.956,+2.937,-03.7980,-02.6100,-08.2090,+00.016834,-00.143781,+00.268182
-134.998,-023.064,+015.418,+0.062,+0.996,+2.926,-03.8480,-02.5660,-08.3750,+00.027687,-00.151792,+00.280427
-134.756,-023.372,+015.334,+0.081,+0.961,+2.933,-03.6280,-02.4670,-08.2210,+00.007242,-00.254990,+00.247297
-134.636,-023.837,+015.299,+0.109,+0.991,+2.955,-03.7730,-02.3870,-08.1480,+00.013156,-00.441912,+00.166205
-134.743,-024.543,+015.369,+0.123,+1.015,+2.945,-03.6190,-02.3060,-08.1810,+00.034450,-00.739857,+00.025062
-135.091,-025.582,+015.586,+0.164,+0.980,+2.942,-03.9850,-02.1430,-08.1630,+00.092207,-01.082814,-00.028931
-135.560,-027.076,+015.947,+0.220,+1.019,+2.922,-03.9330,-02.3610,-08.1150,+00.159904,-01.527166,+00.031284
-136.137,-029.179,+016.449,+0.299,+1.018,+2.915,-04.0320,-02.6810,-08.0470,+00.229944,-02.135155,+00.118511
-137.012,-032.107,+017.054,+0.429,+1.002,+2.910,-04.2140,-02.6900,-08.4080,-00.006959,-02.947786,+00.063696
-138.512,-036.235,+017.923,+0.559,+0.976,+2.894,-04.1110,-02.9440,-08.3330,-00.014494,-04.258887,+00.043139
-140.785,-041.900,+019.234,+0.786,+1.018,+2.828,-04.7260,-04.2300,-08.5590,-00.228004,-05.735607,+00.195567
-144.082,-049.375,+021.111,+1.073,+0.945,+2.696,-07.1410,-03.9290,-09.2510,-00.473752,-07.495408,+00.495774
-149.329,-058.577,+025.487,+1.337,+0.922,+2.556,-10.3340,-03.5840,-18.5510,+01.027438,-08.545706,+00.801047
-155.699,-066.815,+033.905,+1.606,+0.938,+2.250,-20.0140,-04.0190,-19.6970,+02.476209,-06.919962,+01.708991
-161.297,-073.115,+042.638,+1.749,+0.905,+1.948,-15.0210,-12.8650,-26.0400,+03.408912,-04.237189,+02.077940
-158.447,-075.041,+041.406,+1.782,+0.835,+1.875,+03.1070,-18.5580,-31.8770,-00.268058,+01.323129,+01.624760
-149.602,-074.300,+030.812,+1.731,+0.742,+1.879,+05.5930,-02.2350,-16.6020,-01.987479,+02.274489,+01.501341
-139.426,-072.691,+019.149,+1.693,+0.609,+1.937,+05.0220,-00.5270,-09.8970,-01.344805,+02.269563,+01.651489
-131.858,-070.639,+011.303,+1.661,+0.555,+2.039,+05.3800,-03.9520,-08.4100,-00.283946,+02.246169,+01.398067
-127.623,-068.274,+006.924,+1.591,+0.556,+2.128,+03.6850,-06.7510,-09.5990,-00.476496,+02.299129,+00.632814
-126.855,-065.273,+005.383,+1.480,+0.533,+2.252,+01.4460,-07.4310,-11.0620,-00.859561,+02.878172,-00.420029
-128.637,-061.337,+005.975,+1.313,+0.535,+2.315,-00.4110,-05.9110,-10.4270,-00.829360,+03.618969,-01.360559
-131.477,-056.579,+007.500,+1.109,+0.572,+2.365,-02.0300,-05.1060,-08.7600,-00.817210,+04.145363,-01.947926
-134.353,-051.399,+008.775,+0.901,+0.545,+2.405,-03.0720,-03.7370,-07.4120,-00.946789,+04.302002,-02.143151
-136.769,-046.154,+009.713,+0.752,+0.546,+2.431,-04.0280,-00.8730,-05.0950,-00.567905,+04.208652,-02.037652
-138.378,-041.574,+010.602,+0.599,+0.558,+2.413,-06.7470,+00.3520,-08.1140,+00.029658,+03.565088,-01.442834
-138.905,-037.193,+011.430,+0.469,+0.584,+2.402,-11.1570,-02.5620,-12.5190,+00.556196,+03.818729,-00.907459
-138.811,-032.666,+011.777,+0.390,+0.614,+2.382,-13.9880,-03.4230,-09.6680,+00.226734,+03.833366,-00.624969
-138.382,-028.544,+011.737,+0.316,+0.639,+2.384,-17.5070,-02.9980,-08.2760,+00.193000,+03.455236,-00.294925
-137.726,-024.615,+011.913,+0.223,+0.670,+2.407,-23.2910,-03.8270,-08.5890,+00.541219,+03.531322,-00.181622
-137.173,-020.694,+012.283,+0.117,+0.721,+2.440,-23.7740,-03.4230,-03.0650,+00.463716,+03.278493,-00.365538
-137.019,-017.331,+012.847,-0.027,+0.732,+2.449,-23.2650,-01.8720,-01.6440,+00.618711,+02.677066,-00.581716
-137.144,-014.460,+013.597,-0.175,+0.763,+2.421,-23.3740,-01.2250,-02.5110,+00.566912,+02.343560,-00.702433
-137.234,-012.068,+014.097,-0.259,+0.789,+2.428,-18.9330,+04.9070,+01.8830,+00.421831,+01.703891,-00.393921
-136.589,-010.726,+014.863,-0.328,+0.819,+2.349,-15.1990,+07.2410,-00.4970,+00.984562,+01.074419,+00.667465
-134.923,-010.087,+015.690,-0.370,+0.829,+2.299,-12.1500,+03.4970,-04.1090,+00.948531,+00.874164,+01.493626
-132.723,-009.569,+016.344,-0.389,+0.869,+2.314,-10.0750,+00.6970,-07.4260,+00.895866,+01.074504,+01.756393
-130.291,-008.873,+016.884,-0.398,+0.953,+2.264,-06.8650,-06.0770,+02.0560,+00.378715,+00.976088,+01.902010
-128.613,-009.592,+016.012,-0.384,+0.943,+2.270,-13.7920,+01.2980,+05.4580,-00.500334,-00.934891,+01.074173
-129.194,-012.026,+014.596,-0.338,+0.898,+2.316,+03.7300,+02.6050,-19.4520,-01.493421,-02.884677,+00.268015
-128.680,-014.074,+013.375,-0.263,+0.887,+2.314,-12.5550,-07.5370,-10.1210,-01.084499,-01.128171,+00.444095
-129.247,-015.576,+011.979,-0.240,+0.823,+2.342,-03.9230,+02.9020,-18.8420,-01.104375,-00.955290,-00.131716
-128.939,-016.374,+011.247,-0.212,+0.823,+2.349,-02.0310,-01.8350,-07.1180,-00.506295,-00.685801,+00.551649
-128.678,-016.984,+010.561,-0.199,+0.823,+2.355,-05.5260,-02.2880,-09.8630,-00.526827,-00.390658,+00.215490
-128.505,-017.342,+010.070,-0.171,+0.803,+2.367,-03.2450,-01.3980,-10.2950,-00.253388,-00.237567,+00.184085
-128.372,-017.521,+009.956,-0.171,+0.778,+2.378,-03.4600,-01.3530,-09.5440,+00.009868,-00.096288,+00.112194
-128.288,-017.615,+009.959,-0.180,+0.788,+2.367,-03.2260,-01.3220,-09.2740,+00.011273,-00.068263,+00.065334
-128.225,-017.721,+009.969,-0.175,+0.793,+2.356,-02.8770,-01.3310,-09.0520,+00.037368,-00.101450,+00.066365
-128.181,-017.851,+010.046,-0.180,+0.818,+2.383,-02.9890,-01.5450,-08.8490,+00.107644,-00.112995,+00.048656
-128.148,-017.997,+010.186,-0.161,+0.817,+2.367,-03.2270,-01.5990,-08.7740,+00.137375,-00.122428,+00.055682
-128.088,-018.139,+010.323,-0.157,+0.783,+2.357,-02.9470,-01.3690,-08.8580,+00.143427,-00.108510,+00.083812
-128.004,-018.280,+010.506,-0.161,+0.827,+2.351,-02.9140,-01.6300,-08.7150,+00.207701,-00.109829,+00.093222
-127.895,-018.428,+010.765,-0.152,+0.832,+2.335,-02.9120,-01.4070,-08.9040,+00.279953,-00.107084,+00.124847
-127.744,-018.560,+011.036,-0.148,+0.832,+2.352,-02.9790,-01.7760,-08.8760,+00.267270,-00.073932,+00.150364
-127.584,-018.640,+011.225,-0.152,+0.832,+2.368,-03.3860,-02.2190,-08.7520,+00.161260,-00.027743,+00.133158
-127.449,-018.666,+011.309,-0.152,+0.857,+2.335,-03.0470,-02.1090,-08.7330,+00.094206,+00.013479,+00.117356
-127.278,-018.671,+011.340,-0.152,+0.852,+2.346,-02.8960,-01.8700,-08.7230,+00.062985,+00.024689,+00.152327
-127.071,-018.694,+011.325,-0.148,+0.827,+2.362,-02.8950,-02.0410,-08.5490,+00.033832,-00.000309,+00.178230
-126.858,-018.763,+011.291,-0.138,+0.852,+2.357,-03.0140,-01.7760,-08.7530,+00.036143,-00.040238,+00.191950
-126.629,-018.885,+011.264,-0.124,+0.837,+2.331,-02.9710,-01.7030,-08.6810,+00.047135,-00.084811,+00.220051
-126.381,-019.084,+011.245,-0.129,+0.876,+2.358,-03.1090,-01.7280,-08.7090,+00.053544,-00.162905,+00.236011
-126.152,-019.386,+011.249,-0.120,+0.881,+2.342,-03.0690,-01.7260,-08.6670,+00.086428,-00.260338,+00.238775
-125.951,-019.854,+011.315,-0.106,+0.861,+2.342,-03.0650,-01.8650,-08.6080,+00.133034,-00.447127,+00.246817
-125.799,-020.591,+011.476,-0.078,+0.866,+2.371,-02.9340,-01.7720,-08.6810,+00.209043,-00.708470,+00.248715
-125.764,-021.674,+011.700,-0.055,+0.890,+2.339,-03.0050,-01.3830,-08.8100,+00.206285,-01.056470,+00.180793
-125.926,-023.234,+012.030,+0.006,+0.895,+2.342,-03.1540,-02.0930,-08.5310,+00.245538,-01.566065,+00.150823
-126.169,-025.554,+012.499,+0.061,+0.914,+2.349,-03.5170,-02.2930,-08.3260,+00.386005,-02.320725,+00.325252
-126.487,-029.014,+013.170,+0.177,+0.942,+2.316,-02.9650,-02.7800,-08.4070,+00.458045,-03.486737,+00.463653
-127.311,-033.980,+013.499,+0.330,+0.911,+2.329,-03.3880,-03.6000,-09.4150,-00.547681,-04.875602,+00.411779
-128.167,-040.492,+012.599,+0.502,+0.875,+2.331,-05.7500,-04.3570,-10.0770,-01.455839,-06.291293,+00.903300
-128.730,-049.157,+011.055,+0.757,+0.847,+2.229,-06.0370,-03.7180,-11.7240,-02.004097,-08.116968,+01.362348
-128.261,-058.930,+007.329,+1.049,+0.725,+2.119,-13.1450,-04.9080,-23.3290,-03.296074,-08.073637,+01.864587
-123.333,-066.899,-001.202,+1.243,+0.574,+2.037,-16.6380,-05.4830,-25.7810,-03.418946,-06.097857,+02.524308
-114.882,-070.312,-011.045,+1.368,+0.468,+1.881,-03.6630,-07.6160,-39.2090,-00.742120,-00.796607,+02.158281
-110.197,-069.333,-015.338,+1.368,+0.379,+1.838,+04.5030,-05.4770,-13.8490,+00.621875,+00.858515,+01.284677
-108.131,-067.917,-017.145,+1.363,+0.344,+1.822,+03.6300,-06.8260,-10.1890,-00.141050,+01.118851,+00.779055
-108.099,-066.238,-017.194,+1.363,+0.324,+1.774,+04.2450,-04.3560,-08.0000,+00.158731,+01.536841,+00.210617
-109.979,-064.448,-015.056,+1.377,+0.309,+1.726,+03.3460,-03.7420,-07.5340,+00.434023,+01.772624,-00.489035
-113.306,-062.255,-011.526,+1.423,+0.264,+1.728,+00.6820,-02.7360,-10.9800,+00.519271,+02.476248,-00.990902
-117.155,-059.138,-007.672,+1.526,+0.258,+1.760,+00.0030,-02.1200,-08.1740,+00.357701,+03.147180,-01.270661
-120.927,-055.675,-004.222,+1.623,+0.204,+1.948,-00.9460,-00.9930,-06.6040,+00.176033,+03.178582,-01.562889
-124.566,-052.048,-001.142,+1.651,+0.200,+2.246,-03.4200,+00.1940,-09.5240,+00.095591,+03.341541,-01.793332
-127.680,-047.841,+001.411,+1.457,+0.238,+2.561,-05.4260,+02.5700,-11.2570,+00.198440,+03.877474,-01.684946
-129.595,-043.147,+003.203,+1.137,+0.257,+2.752,-05.5060,+04.7090,-09.4030,+00.465707,+04.073330,-01.057997
-130.021,-038.447,+004.175,+0.891,+0.265,+2.833,-06.8070,+03.1500,-10.1360,+00.678200,+04.079634,-00.258940
-129.498,-033.857,+004.789,+0.636,+0.243,+2.833,-08.4290,+00.2480,-10.3320,+00.869720,+03.967753,+00.186543
-128.817,-029.453,+005.532,+0.400,+0.260,+2.855,-10.2110,-02.0160,-10.6440,+01.016266,+03.813932,+00.079719
-128.555,-025.373,+006.538,+0.228,+0.311,+2.852,-09.8320,-03.0150,-08.4070,+00.941844,+03.347721,-00.339223
-128.888,-022.016,+007.805,+0.043,+0.338,+2.822,-10.2340,-02.3610,-08.7850,+01.077549,+02.611616,-00.809328
-129.798,-018.939,+009.395,-0.111,+0.324,+2.773,-15.8920,-02.4750,-15.8820,+01.058907,+02.717392,-01.299351
-130.692,-014.958,+010.604,-0.236,+0.350,+2.745,-16.1570,+00.4910,-14.9140,+00.736882,+03.604300,-01.299290
-131.123,-010.499,+011.536,-0.417,+0.416,+2.651,-15.0970,+00.8060,-07.9800,+00.712967,+03.697280,-00.999435
-131.384,-006.522,+012.223,-0.579,+0.432,+2.562,-17.2880,-01.5680,-03.8040,+00.453491,+03.102108,-00.943235
-131.898,-003.406,+012.787,-0.667,+0.467,+2.553,-20.4570,+00.7370,+00.1720,+00.513802,+02.200423,-01.060143
-132.529,-001.419,+013.627,-0.742,+0.502,+2.468,-22.2340,+05.4550,+03.5320,+00.797672,+01.155701,-00.790320
-132.879,-000.741,+014.252,-0.756,+0.517,+2.430,-20.7460,+05.2060,+02.1460,+00.225922,+00.141643,-00.201317
-132.680,-001.176,+013.941,-0.751,+0.463,+2.457,-18.5560,+05.3920,-01.5260,-00.320225,-00.609759,+00.564844
-131.798,-002.491,+013.727,-0.723,+0.487,+2.448,-08.5940,+00.4690,-04.0410,-00.175258,-01.149578,+01.214314
-130.295,-004.202,+013.496,-0.677,+0.482,+2.450,+16.4080,-02.0620,-12.0600,+00.500403,-01.323033,+02.209223
-128.579,-007.454,+013.600,-0.598,+0.535,+2.518,-10.6660,-14.2390,-02.8090,-00.218910,-03.185077,+01.094989
-129.492,-010.647,+013.041,-0.473,+0.505,+2.540,-11.3630,+03.3090,-20.0030,-00.962799,-02.388531,-00.233805
-129.325,-012.680,+012.191,-0.412,+0.460,+2.569,-03.2500,-00.9850,-11.9560,-00.563955,-01.479197,+00.753274
-129.370,-014.534,+011.658,-0.361,+0.464,+2.604,-03.4460,-01.3880,-08.8390,-00.434632,-01.689500,+00.021777
-129.428,-015.996,+011.355,-0.315,+0.454,+2.622,-07.6960,-00.8650,-13.4800,-00.160889,-00.784074,+00.340136
-129.434,-016.797,+011.181,-0.264,+0.439,+2.598,-04.3700,-02.9080,-11.2870,-00.178056,-00.492732,+00.033406
-129.515,-017.455,+011.230,-0.264,+0.434,+2.625,-03.1090,-02.3310,-09.8780,+00.103914,-00.574700,+00.014120
-129.734,-018.163,+011.677,-0.227,+0.443,+2.605,-03.5860,-01.4230,-09.7080,+00.430515,-00.648719,-00.099278
-129.966,-018.841,+012.433,-0.203,+0.483,+2.605,-03.3320,-02.0840,-09.8660,+00.632145,-00.569015,-00.050379
-130.217,-019.254,+013.211,-0.203,+0.502,+2.627,-03.3290,-01.2440,-09.4060,+00.622369,-00.322593,-00.120233
-130.403,-019.540,+013.909,-0.180,+0.537,+2.617,-03.4090,-02.2790,-08.9800,+00.525577,-00.268623,-00.084041
-130.530,-019.789,+014.446,-0.171,+0.561,+2.596,-03.4460,-03.0460,-08.5160,+00.370723,-00.222634,-00.030127
-130.659,-020.003,+014.790,-0.176,+0.517,+2.623,-03.2100,-01.8690,-08.7180,+00.229082,-00.193191,-00.024877
-130.693,-020.194,+014.993,-0.162,+0.566,+2.612,-03.2980,-02.1420,-08.5830,+00.139323,-00.153516,+00.039064
-130.639,-020.360,+015.103,-0.176,+0.537,+2.622,-03.2900,-02.4610,-08.4820,+00.095618,-00.116311,+00.100074
-130.523,-020.508,+015.128,-0.166,+0.546,+2.612,-03.3130,-02.5310,-08.4790,+00.026469,-00.084606,+00.139897
-130.343,-020.627,+015.050,-0.152,+0.551,+2.602,-03.4020,-02.3910,-08.4630,-00.038677,-00.045211,+00.184572
-130.111,-020.709,+014.891,-0.152,+0.586,+2.591,-03.4020,-02.3270,-08.4820,-00.080177,-00.006777,+00.206576
-129.862,-020.779,+014.687,-0.148,+0.527,+2.624,-03.3240,-02.4100,-08.5300,-00.113533,-00.010040,+00.213412
-129.599,-020.862,+014.454,-0.143,+0.566,+2.602,-03.4970,-02.2810,-08.5870,-00.121947,-00.020055,+00.229053
-129.353,-020.950,+014.229,-0.148,+0.531,+2.570,-03.4700,-02.2740,-08.5770,-00.112440,-00.030320,+00.201641
-129.132,-021.040,+014.050,-0.138,+0.546,+2.624,-03.4230,-02.0840,-08.6160,-00.070045,-00.033115,+00.191411
-128.911,-021.138,+013.911,-0.138,+0.536,+2.603,-03.4530,-02.0950,-08.5610,-00.051657,-00.048761,+00.202792
-128.645,-021.265,+013.758,-0.129,+0.526,+2.603,-03.4420,-02.4040,-08.4330,-00.044145,-00.065955,+00.251298
-128.378,-021.441,+013.620,-0.129,+0.526,+2.630,-03.3150,-02.3970,-08.4410,-00.026442,-00.129710,+00.240563
-128.181,-021.743,+013.540,-0.115,+0.546,+2.609,-03.4170,-02.2100,-08.3330,+00.004829,-00.279869,+00.200801
-128.100,-022.245,+013.534,-0.097,+0.531,+2.610,-03.3390,-02.0300,-08.4280,+00.029046,-00.495764,+00.143303
-128.166,-023.024,+013.604,-0.078,+0.546,+2.643,-03.3870,-01.8580,-08.4370,+00.040045,-00.796410,+00.083415
-128.380,-024.195,+013.766,-0.036,+0.550,+2.618,-03.5310,-02.2330,-08.4150,+00.090913,-01.191098,+00.088847
-128.609,-025.982,+014.048,+0.038,+0.540,+2.616,-03.3800,-02.5540,-08.2730,+00.203006,-01.812723,+00.292711
-128.776,-028.759,+014.405,+0.117,+0.539,+2.619,-03.6300,-02.4200,-07.9750,+00.273659,-02.775985,+00.562076
-129.160,-032.969,+014.849,+0.256,+0.577,+2.603,-03.7580,-03.0410,-09.2550,+00.026011,-04.137150,+00.697348
-129.950,-038.904,+014.825,+0.474,+0.540,+2.592,-04.2350,-03.4900,-08.6800,-00.663073,-05.843744,+00.875687
-131.104,-046.938,+014.155,+0.697,+0.493,+2.564,-04.2700,-04.5570,-09.3460,-01.803448,-07.705347,+01.105646
-133.025,-056.831,+013.846,+1.049,+0.444,+2.407,-09.0740,-03.4980,-14.4630,-00.824060,-08.988998,+01.075997
-134.982,-066.665,+014.483,+1.345,+0.376,+2.221,-23.5450,-08.3080,-26.1410,-01.618497,-07.936554,+01.460848
-132.205,-072.713,+010.960,+1.498,+0.310,+2.104,-11.3320,-17.0980,-51.1060,-00.557226,-02.126569,+01.566709
-129.314,-071.863,+007.046,+1.489,+0.334,+2.049,+03.1550,-05.5890,-27.4890,-01.113870,+01.509244,+00.386233
-127.042,-070.154,+003.348,+1.424,+0.280,+2.052,+03.3400,-01.8220,-08.0430,-01.374077,+01.451177,+00.528428
-124.725,-068.216,+000.565,+1.392,+0.301,+2.056,+04.5830,+00.7950,-08.7220,+00.064170,+01.891043,+00.762662
-122.461,-065.881,-001.209,+1.336,+0.296,+2.037,+04.1080,-03.1290,-07.2480,+00.184673,+02.085585,+00.743128
-121.261,-063.284,-002.445,+1.294,+0.277,+2.052,+02.5670,-03.9480,-08.4480,-00.275381,+02.396173,+00.347868
-121.537,-060.121,-002.449,+1.248,+0.287,+2.093,+01.3590,-03.3320,-08.5070,-00.110504,+02.980670,-00.197520
-122.956,-056.434,-001.190,+1.192,+0.288,+2.096,+00.0390,-03.7510,-07.4830,+00.075070,+03.354909,-00.760892
-125.140,-052.515,+000.518,+1.141,+0.333,+2.137,-01.6700,-03.3130,-07.8110,-00.151373,+03.463612,-01.266108
-127.606,-048.327,+002.240,+1.109,+0.378,+2.205,-03.7520,-00.9600,-09.8110,-00.075782,+03.747900,-01.528692
-129.716,-043.729,+003.916,+1.021,+0.444,+2.314,-05.5870,+01.0290,-09.7550,+00.240844,+04.012111,-01.426398
-130.993,-039.000,+005.149,+0.859,+0.486,+2.436,-06.9390,+02.3970,-10.8720,+00.418426,+04.072925,-00.952206
-131.219,-034.207,+005.997,+0.692,+0.528,+2.563,-08.8080,+01.7500,-12.2370,+00.745570,+04.189753,-00.339405
-130.683,-029.514,+006.823,+0.465,+0.609,+2.531,-10.5260,+00.1660,-10.3740,+01.079823,+04.003229,+00.078532
-129.982,-025.493,+007.869,+0.326,+0.635,+2.466,-12.6620,-01.6870,-07.3760,+01.218169,+03.213589,+00.049710
-129.653,-022.374,+009.188,+0.284,+0.655,+2.426,-15.9540,-04.0190,-09.7710,+01.288492,+02.523111,-00.278572
-129.796,-019.324,+010.436,+0.256,+0.709,+2.376,-21.6660,-06.2210,-12.9130,+00.858932,+02.758130,-00.757215
-130.335,-015.486,+011.390,+0.200,+0.759,+2.394,-23.1190,-04.6930,-08.2690,+00.655365,+03.410962,-01.270386
-131.320,-011.537,+012.517,+0.117,+0.790,+2.439,-21.3220,+00.0620,+00.1000,+00.895866,+02.915648,-01.660178
-132.579,-008.601,+014.038,+0.015,+0.865,+2.456,-21.9160,+06.0610,+02.8030,+01.227291,+01.835429,-01.530234
-133.325,-006.930,+015.534,-0.055,+0.856,+2.480,-22.5710,+09.6460,+03.9980,+01.131456,+00.915922,-00.554582
-132.920,-007.217,+015.908,-0.059,+0.901,+2.533,-21.0730,+08.7770,+10.5510,-00.183075,-00.901067,+00.987902
-131.629,-009.930,+014.808,+0.062,+0.885,+2.555,-20.0170,+03.9500,+02.3740,-00.983395,-02.453721,+01.858851
-130.430,-012.477,+013.723,+0.178,+0.874,+2.571,+06.1400,-13.8660,-24.3720,-00.076134,-01.516153,+01.517621
-129.135,-014.599,+012.533,+0.247,+0.859,+2.612,-09.1320,-06.3970,-05.0920,-01.096449,-01.962217,+01.110574
-129.558,-016.586,+010.883,+0.345,+0.799,+2.622,-10.7000,+05.5040,-19.0680,-01.556338,-01.396632,-00.248589
-129.065,-017.255,+009.932,+0.386,+0.769,+2.629,+00.4290,+01.7170,-06.6270,-00.343109,-00.509039,+00.868827
-128.674,-018.082,+009.366,+0.419,+0.739,+2.653,-07.3490,-01.9410,-10.4390,-00.377186,-00.595275,+00.231749
-128.539,-018.486,+009.193,+0.428,+0.743,+2.631,-04.2780,-00.0240,-09.5300,+00.030856,-00.167150,+00.161004
-128.521,-018.728,+009.315,+0.456,+0.719,+2.649,-03.2630,-00.7650,-09.3760,+00.112731,-00.205711,+00.005315
-128.497,-018.945,+009.507,+0.456,+0.733,+2.665,-03.3920,-01.2960,-09.3460,+00.200137,-00.160496,+00.061988
-128.501,-019.106,+009.800,+0.470,+0.783,+2.622,-02.9430,-01.4820,-09.0010,+00.282431,-00.136672,+00.006416
-128.501,-019.239,+010.097,+0.479,+0.773,+2.628,-03.2650,-02.0020,-08.8820,+00.226199,-00.096096,+00.033770
-128.480,-019.332,+010.293,+0.470,+0.788,+2.660,-03.3450,-01.7320,-08.8110,+00.161209,-00.067343,+00.025706
