Yaw,Pitch,Roll,MagX,MagY,MagZ,AccelX,AccelY,AccelZ,GyroX,GyroY,GyroZ
+174.920,-017.301,+005.874,-0.196,+0.405,+2.619,-02.7930,-00.9360,-08.9430,-00.003321,+00.001259,-00.001997
+174.918,-017.298,+005.872,-0.196,+0.430,+2.614,-02.8070,-00.9380,-08.9560,-00.001945,+00.001469,-00.003640
+174.912,-017.294,+005.873,-0.189,+0.415,+2.598,-02.7730,-00.9220,-08.9550,-00.000740,+00.002409,-00.004289
+174.909,-017.291,+005.874,-0.187,+0.430,+2.620,-02.7630,-00.9220,-08.9490,+00.000713,+00.000867,-00.002604
+174.907,-017.291,+005.875,-0.183,+0.385,+2.609,-02.7910,-00.9260,-08.9640,+00.000614,-00.000382,-00.001739
+174.904,-017.290,+005.876,-0.196,+0.398,+2.593,-02.7900,-00.9260,-08.9400,-00.000281,-00.000728,-00.001303
+174.901,-017.290,+005.877,-0.201,+0.391,+2.635,-02.8130,-00.9170,-08.9430,+00.000204,-00.001073,-00.001002
+174.899,-017.289,+005.879,-0.196,+0.381,+2.609,-02.7800,-00.9270,-08.9770,+00.002459,-00.000640,-00.000079
+174.898,-017.290,+005.881,-0.192,+0.388,+2.604,-02.8180,-00.8920,-08.9550,+00.001638,+00.000204,-00.001984
+174.898,-017.291,+005.882,-0.192,+0.400,+2.603,-02.7940,-00.8640,-08.9650,+00.001882,-00.000222,+00.000235
+174.898,-017.292,+005.885,-0.196,+0.400,+2.598,-02.8120,-00.8910,-08.9620,+00.002706,-00.001437,+00.000022
+174.897,-017.293,+005.890,-0.194,+0.395,+2.593,-02.8150,-00.9320,-09.0010,+00.003314,+00.000783,-00.001702
+174.893,-017.292,+005.896,-0.187,+0.386,+2.636,-02.7970,-00.9410,-08.9790,+00.003444,+00.000974,-00.001123
+174.890,-017.291,+005.898,-0.192,+0.400,+2.609,-02.7920,-00.9190,-08.9770,+00.002249,+00.001560,-00.003150
+174.890,-017.289,+005.902,-0.199,+0.415,+2.611,-02.8030,-00.9170,-09.0050,+00.003709,+00.000990,-00.001461
+174.888,-017.287,+005.906,-0.206,+0.386,+2.603,-02.8230,-00.8790,-08.9850,+00.002424,+00.002163,-00.000841
+174.888,-017.285,+005.910,-0.187,+0.415,+2.577,-02.8070,-00.9050,-08.9720,+00.003707,+00.001161,+00.000429
+174.885,-017.284,+005.915,-0.194,+0.400,+2.603,-02.8050,-00.9500,-08.9470,+00.003667,+00.001889,-00.002324
+174.883,-017.280,+005.917,-0.187,+0.405,+2.652,-02.7880,-00.8690,-08.9700,+00.001364,+00.003681,-00.003238
+174.880,-017.275,+005.923,-0.206,+0.400,+2.603,-02.8050,-00.9550,-08.9630,+00.003343,+00.003897,-00.002850
+174.875,-017.271,+005.927,-0.192,+0.410,+2.601,-02.8020,-00.9810,-08.9530,+00.001856,+00.004028,-00.003872
+174.874,-017.266,+005.929,-0.196,+0.400,+2.619,-02.7780,-00.8700,-08.9890,+00.003337,+00.003201,-00.001125
+174.872,-017.261,+005.932,-0.192,+0.420,+2.598,-02.7630,-00.9660,-08.9460,+00.002356,+00.002396,-00.001404
+174.872,-017.258,+005.934,-0.189,+0.386,+2.604,-02.8270,-00.9280,-08.9260,+00.001521,+00.003461,-00.001430
+174.875,-017.246,+005.936,-0.201,+0.400,+2.619,-02.7890,-00.9080,-08.9790,+00.000572,+00.014108,+00.004248
+174.882,-017.230,+005.928,-0.201,+0.430,+2.592,-02.8130,-00.9620,-08.9580,-00.004900,+00.015360,+00.003006
+174.884,-017.215,+005.924,-0.194,+0.413,+2.598,-02.8080,-00.9130,-08.9260,-00.002242,+00.014222,-00.001159
+174.882,-017.203,+005.924,-0.196,+0.391,+2.609,-02.7850,-00.9440,-08.9540,+00.000963,+00.008244,-00.003589
+174.874,-017.195,+005.928,-0.201,+0.415,+2.614,-02.8120,-00.9780,-08.9640,+00.000100,+00.006675,-00.010348
+174.862,-017.184,+005.930,-0.189,+0.388,+2.604,-02.7880,-00.9770,-08.9560,-00.003123,+00.008552,-00.010434
+174.853,-017.174,+005.925,-0.201,+0.386,+2.630,-02.7550,-00.9570,-08.9740,-00.008743,+00.005705,-00.002927
+174.853,-017.168,+005.914,-0.201,+0.405,+2.608,-02.7730,-00.9060,-08.9580,-00.009463,+00.002605,+00.001049
+174.851,-017.164,+005.906,-0.192,+0.400,+2.612,-02.7520,-00.9370,-08.9220,-00.002538,+00.001645,-00.002899
+174.850,-017.159,+005.917,-0.201,+0.376,+2.598,-02.7110,-00.8730,-09.0150,+00.034920,+00.000295,+00.005340
+174.853,-017.157,+005.956,-0.187,+0.415,+2.598,-02.7770,-00.9360,-08.9690,+00.041480,+00.002073,-00.000185
+174.844,-017.154,+006.003,-0.194,+0.395,+2.598,-02.7430,-00.9990,-09.0080,+00.039614,-00.001951,-00.007579
+174.839,-017.147,+006.041,-0.201,+0.400,+2.614,-02.8200,-00.9990,-08.9640,+00.027663,+00.012065,-00.003315
+174.833,-017.140,+006.052,-0.210,+0.400,+2.603,-02.7970,-00.9160,-08.9700,+00.001203,+00.006578,-00.014755
+174.805,-017.125,+006.068,-0.199,+0.405,+2.603,-02.7430,-01.0080,-08.8930,+00.001216,+00.013747,-00.022215
+174.778,-017.098,+006.104,-0.196,+0.425,+2.619,-02.7410,-00.9300,-08.9020,+00.048140,+00.021886,-00.032657
+174.726,-017.056,+006.188,-0.201,+0.395,+2.603,-02.8450,-00.9100,-09.0080,+00.054989,+00.039646,-00.051713
+174.668,-017.007,+006.254,-0.196,+0.432,+2.603,-02.8070,-01.0150,-08.9780,+00.035325,+00.037427,-00.050918
+174.629,-016.954,+006.285,-0.196,+0.405,+2.619,-02.7920,-01.1130,-08.9830,+00.007964,+00.045078,-00.023714
+174.630,-016.904,+006.288,-0.210,+0.405,+2.587,-02.7170,-00.9100,-08.9890,-00.000102,+00.039835,-00.001046
+174.625,-016.867,+006.287,-0.205,+0.437,+2.603,-02.7000,-00.8330,-08.9910,+00.002762,+00.024920,-00.015010
+174.591,-016.835,+006.336,-0.210,+0.415,+2.608,-02.6710,-00.8860,-09.0080,+00.045197,+00.021900,-00.041408
+174.537,-016.808,+006.414,-0.215,+0.410,+2.597,-02.6880,-00.9530,-09.0040,+00.055249,+00.016152,-00.051032
+174.474,-016.782,+006.499,-0.208,+0.403,+2.597,-02.7550,-01.0310,-08.9270,+00.056443,+00.016892,-00.052738
+174.423,-016.759,+006.576,-0.210,+0.396,+2.624,-02.6990,-01.0570,-09.0010,+00.054228,+00.013241,-00.038801
+174.386,-016.735,+006.640,-0.215,+0.445,+2.597,-02.7340,-01.0720,-08.9870,+00.041338,+00.020746,-00.029386
+174.360,-016.704,+006.687,-0.215,+0.423,+2.584,-02.7080,-01.0960,-08.9740,+00.029800,+00.026789,-00.021545
+174.351,-016.668,+006.710,-0.201,+0.400,+2.614,-02.7070,-01.0920,-08.9350,+00.008737,+00.032563,-00.003765
+174.367,-016.636,+006.696,-0.219,+0.410,+2.602,-02.6160,-01.0860,-08.9480,-00.023549,+00.025539,+00.020663
+174.419,-016.617,+006.590,-0.222,+0.413,+2.610,-02.5810,-01.0440,-09.0210,-00.114004,+00.016195,+00.059183
+174.516,-016.618,+006.392,-0.224,+0.406,+2.634,-02.6890,-00.9960,-08.9890,-00.164562,+00.003072,+00.088750
+174.633,-016.635,+006.165,-0.215,+0.391,+2.581,-02.7840,-01.1230,-08.9320,-00.171359,-00.004410,+00.103966
+174.747,-016.645,+005.965,-0.217,+0.381,+2.595,-02.6410,-00.9850,-08.9480,-00.127416,+00.001727,+00.093038
+174.851,-016.657,+005.812,-0.206,+0.376,+2.619,-02.5950,-00.8740,-08.9320,-00.102727,-00.004984,+00.085781
+174.967,-016.686,+005.672,-0.210,+0.420,+2.608,-02.6630,-00.8870,-08.9200,-00.091398,-00.020304,+00.107175
+175.120,-016.743,+005.512,-0.219,+0.398,+2.600,-02.6660,-00.8950,-08.9160,-00.104389,-00.048510,+00.147886
+175.286,-016.824,+005.342,-0.210,+0.381,+2.614,-02.7170,-00.8150,-08.9610,-00.103126,-00.057221,+00.136339
+175.429,-016.905,+005.224,-0.215,+0.391,+2.587,-02.7370,-00.9610,-08.9710,-00.041155,-00.055717,+00.121096
+175.589,-016.986,+005.102,-0.208,+0.396,+2.606,-02.6090,-00.8040,-08.9330,-00.096817,-00.068090,+00.154203
+175.794,-017.121,+004.874,-0.196,+0.341,+2.614,-02.6460,-00.8460,-08.9570,-00.170426,-00.121723,+00.195799
+176.034,-017.315,+004.599,-0.187,+0.381,+2.609,-02.7160,-00.8530,-08.9560,-00.181827,-00.169702,+00.223738
+176.250,-017.555,+004.347,-0.183,+0.383,+2.615,-02.8490,-00.4700,-09.0460,-00.151202,-00.204012,+00.153251
+176.323,-017.853,+004.177,-0.183,+0.331,+2.604,-02.8460,-00.3470,-09.0580,-00.120126,-00.292151,+00.014621
+176.175,-018.314,+004.063,-0.160,+0.356,+2.616,-02.5960,-00.6600,-09.0650,-00.157254,-00.489309,-00.136954
+175.936,-018.982,+003.930,-0.143,+0.341,+2.611,-02.7520,-00.5600,-09.0300,-00.185351,-00.657739,-00.175621
+175.609,-019.823,+003.863,-0.127,+0.346,+2.628,-02.7490,-00.6410,-08.9790,-00.130378,-00.804126,-00.245264
+175.158,-020.913,+003.972,-0.077,+0.365,+2.646,-05.5990,-01.1730,-09.0400,+00.020797,-01.112030,-00.413982
+174.566,-022.345,+004.291,-0.028,+0.342,+2.633,-02.4180,-00.6570,-09.0880,+00.135102,-01.385289,-00.384996
+173.976,-024.122,+004.870,+0.020,+0.339,+2.656,-03.1830,-00.7950,-09.0490,+00.397177,-01.705252,-00.347210
+173.261,-026.398,+005.825,+0.112,+0.388,+2.628,-03.3180,-00.9090,-09.0280,+00.619386,-02.261642,-00.400060
+172.298,-029.524,+006.957,+0.216,+0.399,+2.629,-02.7410,-00.8250,-09.4670,+00.602479,-03.127936,-00.428617
+171.195,-033.863,+008.316,+0.370,+0.405,+2.644,-03.6940,-01.3180,-08.9170,+00.746641,-04.332590,-00.185940
+170.043,-039.713,+009.932,+0.569,+0.486,+2.572,-02.2130,-00.7980,-11.7560,+00.839119,-05.701665,+00.210136
+169.055,-047.300,+012.047,+0.810,+0.505,+2.478,-05.8710,-00.4640,-10.1250,+01.214791,-07.160503,+00.766587
+168.296,-056.233,+014.362,+1.066,+0.499,+2.379,-06.0570,-00.3700,-11.6300,+01.556275,-07.867574,+01.806436
+167.784,-065.196,+017.153,+1.369,+0.525,+2.124,-09.1430,-03.0470,-22.5730,+02.472962,-07.108871,+02.028002
+167.926,-070.490,+018.632,+1.487,+0.532,+1.974,+06.7290,-04.0830,-42.8740,+00.801113,-01.683113,+01.168217
+171.027,-070.013,+015.133,+1.489,+0.488,+1.980,+05.2500,-00.5590,-18.0210,-01.295421,+01.284328,+00.796952
+175.630,-068.568,+009.165,+1.461,+0.429,+1.947,+03.6220,+02.4320,-10.0290,-01.297921,+01.611773,+01.306180
-179.249,-066.652,+003.580,+1.466,+0.366,+1.977,+03.0910,-00.6860,-11.2170,-00.491709,+02.064662,+01.549449
-175.276,-063.696,-000.606,+1.443,+0.317,+2.043,+02.4800,-04.1350,-13.2060,-00.570086,+02.989452,+01.255810
-173.459,-059.479,-002.920,+1.360,+0.289,+2.115,+01.3180,-04.8600,-11.0270,-00.584831,+04.010162,+00.606824
-173.585,-054.501,-003.191,+1.289,+0.292,+2.206,+00.4730,-04.5550,-08.1300,-00.155876,+04.474505,-00.081584
-174.859,-049.288,-002.129,+1.171,+0.282,+2.353,-00.9520,-04.4310,-09.3630,+00.139624,+04.634386,-00.694503
-176.579,-043.768,-000.641,+0.974,+0.309,+2.500,-03.6920,-02.4240,-13.3280,+00.252069,+05.018283,-00.982520
-177.957,-037.557,+000.668,+0.734,+0.317,+2.575,-05.6790,-00.7180,-14.2810,+00.404920,+05.638292,-00.828495
-178.573,-030.985,+001.617,+0.495,+0.295,+2.629,-07.0390,-00.1710,-11.4530,+00.614733,+05.680335,-00.381463
-178.586,-024.778,+002.480,+0.274,+0.356,+2.635,-07.4760,-02.4260,-10.7300,+00.809684,+05.197272,-00.154373
-178.573,-019.344,+003.549,+0.085,+0.346,+2.616,-08.8260,-03.5900,-14.9730,+01.031889,+04.531773,-00.313661
-178.796,-014.400,+004.707,-0.058,+0.350,+2.556,-09.1230,-03.3220,-12.7870,+00.942792,+04.006816,-00.581376
-179.236,-010.435,+005.968,-0.118,+0.384,+2.462,-11.5680,-02.8150,-12.7990,+01.098280,+03.093118,-00.744773
-179.829,-007.249,+007.470,-0.097,+0.408,+2.460,-14.0460,-02.8870,-13.2770,+01.286420,+02.492613,-00.898289
+179.320,-004.187,+008.877,-0.123,+0.429,+2.558,-17.0530,-03.5440,-19.2640,+00.922763,+02.751864,-01.281695
+178.250,-000.276,+009.299,-0.293,+0.485,+2.631,-16.8980,-01.0540,-12.6960,+00.031546,+03.393833,-01.560759
+177.094,+003.766,+009.232,-0.509,+0.514,+2.664,-17.5740,+03.1510,-05.1720,+00.000880,+03.181923,-01.468311
+176.330,+007.121,+009.120,-0.707,+0.489,+2.671,-18.7310,+03.3630,-00.9600,-00.044878,+02.546878,-00.918090
+175.844,+009.445,+009.121,-0.832,+0.485,+2.607,-18.3530,+02.6780,+03.5450,+00.116680,+01.500972,-00.672087
+175.234,+010.564,+009.060,-0.906,+0.510,+2.566,-18.5080,+02.4280,-01.7900,-00.039757,+00.611732,-00.684539
+174.565,+011.204,+008.318,-0.966,+0.477,+2.569,-16.2330,+02.8940,-03.0370,-00.946377,+00.328538,-00.569508
+174.346,+010.817,+006.748,-0.970,+0.452,+2.585,-12.9230,+10.3160,+02.7060,-01.491673,-00.738671,+00.299083
+175.702,+008.763,+007.094,-0.922,+0.457,+2.643,+20.1640,-08.2630,-13.4070,-00.032443,-01.551161,+01.605317
+176.721,+005.374,+007.814,-0.850,+0.501,+2.729,-02.3800,-14.3770,+04.4350,+00.423429,-03.347719,+00.662034
+175.874,+001.083,+008.158,-0.721,+0.554,+2.831,-07.9350,+03.7190,-20.1170,+00.389794,-03.601669,-00.284580
+175.704,-002.790,+008.470,-0.622,+0.578,+2.910,-02.7720,+01.4080,-11.0950,+00.593880,-03.396731,+00.595040
+175.463,-006.636,+009.345,-0.509,+0.617,+3.012,-03.7620,-06.9750,-11.0100,+00.689250,-03.324706,+00.100673
+174.881,-010.509,+009.749,-0.361,+0.699,+3.082,-02.3030,-01.7210,-12.3520,+00.001034,-03.599619,+00.091636
+174.487,-013.391,+008.553,-0.269,+0.664,+3.110,-07.1600,+01.1110,-12.7630,-00.936528,-01.569347,+00.022588
+174.370,-014.693,+007.832,-0.228,+0.600,+3.147,-03.7270,-01.2790,-10.0280,-00.463941,-00.806989,+00.138341
+174.456,-015.384,+007.419,-0.181,+0.590,+3.144,-03.0450,-00.9430,-09.8570,-00.220217,-00.504311,+00.158663
+174.549,-015.766,+007.167,-0.179,+0.587,+3.149,-02.9760,-00.9710,-09.5940,-00.191076,-00.232946,+00.084864
+174.558,-015.994,+007.001,-0.172,+0.595,+3.177,-02.5690,-00.8570,-09.0960,-00.122694,-00.189144,+00.003338
+174.546,-016.199,+006.865,-0.168,+0.580,+3.161,-02.5070,-01.2340,-09.0750,-00.127322,-00.166647,+00.023131
+174.556,-016.347,+006.703,-0.161,+0.558,+3.156,-02.8750,-01.1990,-09.1430,-00.147205,-00.102277,+00.018153
+174.591,-016.441,+006.510,-0.158,+0.594,+3.188,-02.6650,-01.0460,-08.9750,-00.164249,-00.066771,+00.061401
+174.692,-016.515,+006.297,-0.154,+0.555,+3.178,-02.7950,-00.9840,-09.0520,-00.156611,-00.047021,+00.097957
+174.783,-016.578,+006.110,-0.156,+0.553,+3.148,-02.7110,-00.8190,-09.0010,-00.127887,-00.046102,+00.072192
+174.885,-016.620,+005.943,-0.163,+0.536,+3.177,-02.5580,-00.9380,-08.9860,-00.120866,-00.018504,+00.110266
+175.054,-016.657,+005.738,-0.149,+0.585,+3.188,-02.6480,-00.9770,-08.9580,-00.152306,-00.022159,+00.159432
+175.266,-016.705,+005.483,-0.154,+0.533,+3.178,-02.6980,-00.8740,-08.9730,-00.173325,-00.025401,+00.186028
+175.469,-016.766,+005.238,-0.154,+0.516,+3.205,-02.7650,-00.8320,-08.9940,-00.157274,-00.044845,+00.163458
+175.651,-016.837,+005.011,-0.135,+0.530,+3.189,-02.6890,-00.8630,-08.9510,-00.154043,-00.049844,+00.160727
+175.870,-016.928,+004.740,-0.140,+0.526,+3.186,-02.6910,-00.8680,-08.9000,-00.200398,-00.071776,+00.209807
+176.142,-017.044,+004.417,-0.135,+0.491,+3.222,-02.8300,-00.6960,-08.9820,-00.209573,-00.091843,+00.239748
+176.404,-017.196,+004.114,-0.131,+0.511,+3.211,-02.6970,-00.5840,-09.0280,-00.189537,-00.134000,+00.223463
+176.664,-017.409,+003.823,-0.122,+0.516,+3.198,-02.7760,-00.6750,-08.9950,-00.182584,-00.192676,+00.238583
+176.912,-017.687,+003.547,-0.117,+0.516,+3.233,-02.3410,-00.6240,-09.0920,-00.171084,-00.256535,+00.210851
+177.094,-018.154,+003.270,-0.103,+0.476,+3.207,-02.8960,-00.3750,-08.9970,-00.209744,-00.482683,+00.128318
+177.087,-018.895,+003.000,-0.060,+0.461,+3.231,-03.0850,-00.4410,-08.9220,-00.256048,-00.769253,-00.032306
+176.810,-019.982,+002.826,-0.025,+0.461,+3.243,-01.6890,-00.2180,-09.0430,-00.211333,-01.049746,-00.247921
+176.372,-021.429,+002.865,+0.040,+0.440,+3.224,-02.9260,-00.3010,-09.2570,-00.020638,-01.423308,-00.309259
+175.668,-023.380,+003.338,+0.122,+0.442,+3.209,-01.4180,-00.1530,-09.4410,+00.291949,-01.922308,-00.559898
+174.534,-026.028,+004.466,+0.219,+0.468,+3.259,-02.6370,-00.7020,-09.4470,+00.711116,-02.672659,-00.789116
+173.072,-029.881,+005.925,+0.385,+0.535,+3.180,-02.3850,-00.9460,-09.6150,+00.657835,-03.977835,-00.800473
+171.526,-035.587,+007.588,+0.602,+0.550,+3.147,-02.5610,-01.5820,-09.8740,+00.845827,-05.817717,-00.250233
+170.371,-043.666,+009.102,+0.901,+0.583,+3.036,-00.8670,+00.1870,-14.7110,+00.710281,-07.841201,+00.736311
+169.678,-054.307,+010.964,+1.292,+0.593,+2.785,-07.4640,-02.0610,-14.7520,+01.064585,-09.994274,+01.364315
+168.754,-066.623,+013.265,+1.644,+0.558,+2.477,-13.2740,-04.7060,-14.7330,+00.905636,-10.786450,+01.941745
+167.027,-079.085,+017.385,+1.918,+0.519,+2.090,-08.8230,-03.7350,-27.9350,+02.303174,-10.490980,+02.702125
+166.574,-087.669,+019.386,+2.055,+0.432,+1.684,-14.0140,-14.0410,-59.8740,+00.252371,-02.910780,+01.488800
+178.316,-085.676,+008.425,+1.993,+0.391,+1.644,+03.9540,-07.6830,-19.4500,+00.023547,+02.627459,-00.074974
+179.868,-082.272,+006.469,+1.968,+0.384,+1.723,+03.7680,-02.0530,-08.1330,-00.404524,+02.999700,-00.309810
+179.704,-078.523,+006.102,+1.940,+0.385,+1.867,+00.8180,-02.2940,-13.9770,-00.575256,+03.618726,-00.415269
+179.812,-072.951,+004.832,+1.812,+0.414,+2.113,-02.7750,-02.4690,-19.5510,-01.257893,+05.679705,-00.438087
+179.928,-065.302,+003.204,+1.522,+0.372,+2.336,-03.8710,-00.3470,-09.5970,-01.198745,+07.008280,-00.418357
+179.763,-057.337,+002.496,+1.181,+0.386,+2.444,-04.1520,+00.0680,-04.1440,-00.465787,+06.792849,-00.396772
+179.548,-049.877,+002.465,+0.923,+0.393,+2.503,-05.5770,-00.9410,-06.6150,-00.061300,+06.347188,-00.401499
+179.247,-042.591,+002.619,+0.670,+0.352,+2.529,-07.3720,-01.1870,-12.8200,-00.062249,+06.433927,-00.485229
+179.072,-034.957,+002.799,+0.453,+0.374,+2.514,-08.8520,+00.1370,-11.4960,+00.172101,+06.743877,-00.377086
+179.325,-027.565,+003.148,+0.248,+0.388,+2.476,-09.1920,+01.9190,-07.5570,+00.575399,+06.137360,+00.058662
-179.858,-021.486,+003.754,+0.117,+0.411,+2.451,-09.8220,-00.5580,-12.3800,+00.913617,+04.883842,+00.446390
-178.937,-016.038,+004.766,+0.016,+0.471,+2.441,-12.5010,-05.3720,-16.8550,+01.180624,+04.786966,+00.249030
-178.692,-010.734,+006.259,-0.123,+0.541,+2.453,-16.5980,-07.5640,-18.8750,+01.423364,+04.612210,-00.607962
-179.382,-005.309,+007.852,-0.321,+0.612,+2.462,-19.4240,-05.8500,-15.8390,+01.187806,+04.584334,-01.455347
+179.301,-000.100,+009.040,-0.560,+0.619,+2.366,-21.0550,-03.3630,-09.8140,+00.883320,+04.093093,-02.003116
+177.286,+004.373,+009.528,-0.729,+0.598,+2.278,-22.9480,-01.1490,-04.6070,+00.163237,+03.238523,-02.562063
+175.029,+007.850,+009.017,-0.842,+0.547,+2.204,-27.4160,+04.9890,+01.2500,-00.436145,+02.335431,-02.173431
+173.604,+009.828,+008.765,-0.892,+0.552,+2.148,-28.6670,+09.1110,+07.6260,+00.389656,+00.959394,-01.021372
+173.094,+009.887,+009.404,-0.892,+0.538,+2.114,-27.8560,+05.2970,+04.5730,+00.542752,-00.540901,-00.151082
+173.441,+007.124,+008.698,-0.837,+0.542,+2.156,-03.7730,+06.6560,-19.1450,-00.751828,-02.162164,+00.823571
+174.879,+004.139,+009.089,-0.759,+0.576,+2.170,+04.3010,-03.5850,-12.5180,-00.021130,-02.654166,+02.308782
+175.461,-000.053,+008.988,-0.655,+0.595,+2.212,-10.7550,-02.7360,-09.2110,+00.328652,-03.883138,+00.472734
+175.026,-003.945,+009.041,-0.570,+0.619,+2.275,-02.5650,-01.3560,-11.2040,+00.235929,-03.357632,+00.002665
+174.350,-007.983,+009.929,-0.445,+0.637,+2.280,-04.1280,-02.8120,-13.2490,+00.753153,-03.607511,+00.110409
+173.523,-012.114,+009.655,-0.332,+0.626,+2.317,-16.8070,-04.9060,-25.1890,-01.111061,-02.808239,-00.167743
+173.336,-013.692,+008.754,-0.293,+0.572,+2.351,-04.3130,+00.1510,-12.7830,-00.270222,-00.877345,+00.189043
+173.358,-014.465,+008.311,-0.265,+0.611,+2.358,-03.6400,-00.5030,-10.0040,-00.325629,-00.512798,+00.125777
+173.432,-014.949,+007.944,-0.254,+0.584,+2.364,-02.6810,-01.0350,-09.7710,-00.310851,-00.322271,+00.152251
+173.593,-015.272,+007.565,-0.242,+0.552,+2.391,-02.7190,-00.9080,-09.2970,-00.258657,-00.232925,+00.157336
+173.667,-015.534,+007.353,-0.229,+0.571,+2.381,-02.7080,-00.9930,-09.2520,-00.118450,-00.204941,+00.064280
+173.706,-015.719,+007.221,-0.229,+0.562,+2.376,-02.8410,-01.0610,-09.2560,-00.116941,-00.119797,+00.045416
+173.746,-015.832,+007.072,-0.229,+0.567,+2.386,-02.6030,-01.2250,-09.0550,-00.132224,-00.088215,+00.051946
+173.815,-015.936,+006.891,-0.229,+0.586,+2.370,-02.6760,-01.3100,-08.9690,-00.150417,-00.079512,+00.081522
+173.912,-016.041,+006.694,-0.224,+0.554,+2.376,-02.6550,-01.0910,-09.0230,-00.142442,-00.081534,+00.089370
+174.020,-016.133,+006.500,-0.219,+0.522,+2.376,-02.6140,-01.1760,-09.0370,-00.139645,-00.060456,+00.115123
+174.194,-016.205,+006.275,-0.210,+0.556,+2.371,-02.7140,-01.0850,-08.9950,-00.161503,-00.042649,+00.175405
+174.423,-016.269,+006.025,-0.213,+0.537,+2.377,-02.6890,-00.9360,-08.9630,-00.166831,-00.037936,+00.204532
+174.657,-016.344,+005.756,-0.215,+0.508,+2.398,-02.6960,-00.9640,-09.0190,-00.178733,-00.042015,+00.197339
+174.887,-016.407,+005.485,-0.210,+0.542,+2.387,-02.7240,-00.8800,-09.0060,-00.179676,-00.034937,+00.201232
+175.145,-016.481,+005.200,-0.201,+0.527,+2.377,-02.6500,-00.8680,-08.9480,-00.190328,-00.055115,+00.242840
+175.495,-016.612,+004.861,-0.206,+0.512,+2.388,-02.6410,-00.9190,-08.9810,-00.214371,-00.105045,+00.333944
+175.927,-016.810,+004.493,-0.206,+0.532,+2.398,-02.6560,-00.7330,-08.9640,-00.212119,-00.166731,+00.392402
+176.379,-017.066,+004.108,-0.187,+0.529,+2.391,-02.5340,-00.6390,-09.0780,-00.224514,-00.222132,+00.382714
+176.736,-017.460,+003.746,-0.187,+0.532,+2.421,-02.6970,-00.4960,-09.0520,-00.220265,-00.383607,+00.273981
+176.913,-018.047,+003.427,-0.150,+0.512,+2.385,-02.8190,-00.5020,-08.9470,-00.244939,-00.575432,+00.118260
+176.876,-018.898,+003.150,-0.134,+0.499,+2.391,-02.9140,-00.5300,-09.0420,-00.247232,-00.848881,-00.050888
+176.632,-020.041,+002.984,-0.095,+0.497,+2.425,-02.5670,-00.4720,-09.1280,-00.184980,-01.098393,-00.193524
+176.238,-021.477,+003.028,-0.054,+0.501,+2.427,-03.4610,-00.4550,-09.2200,-00.004671,-01.367209,-00.277302
+175.570,-023.393,+003.500,-0.005,+0.491,+2.418,-03.1200,-00.5470,-09.4440,+00.285185,-01.939191,-00.547093
+174.649,-026.021,+004.376,+0.080,+0.495,+2.449,-03.3010,-00.7330,-09.1080,+00.502407,-02.617237,-00.581883
+173.285,-029.720,+005.556,+0.191,+0.523,+2.437,-03.0290,-01.2640,-09.7940,+00.454674,-03.804554,-00.895729
+171.640,-035.178,+007.003,+0.345,+0.536,+2.409,-01.7970,-02.0400,-10.0880,+00.517768,-05.549348,-00.476419
+170.348,-042.789,+008.521,+0.550,+0.544,+2.383,-03.0120,+03.4850,-13.4860,+00.851777,-07.345558,+00.361364
+169.060,-052.635,+010.842,+0.868,+0.594,+2.225,-07.6750,-02.3820,-14.7330,+01.179108,-09.336637,+00.968065
+167.245,-064.135,+013.852,+1.162,+0.612,+2.069,-13.5320,-04.9060,-14.9410,+00.889845,-10.092970,+01.307843
+163.892,-075.505,+018.634,+1.415,+0.591,+1.847,-10.0390,-03.3460,-23.8080,+01.239899,-09.605729,+02.135383
+160.338,-084.230,+021.837,+1.595,+0.524,+1.561,-13.9460,-01.8820,-44.7810,-00.949180,-04.468475,+02.086006
+175.708,-084.193,+006.312,+1.597,+0.472,+1.494,+00.4940,-03.4980,-26.6660,+00.140351,+01.686002,+01.235753
-174.561,-081.122,-002.772,+1.567,+0.392,+1.491,+02.7030,-03.7620,-09.8350,+00.552903,+02.984272,+00.848591
-172.463,-077.543,-004.512,+1.585,+0.362,+1.417,+02.1110,-05.1790,-07.5350,+00.025624,+03.173040,+00.330814
-174.048,-073.514,-003.631,+1.679,+0.299,+1.392,+00.1210,-05.2890,-13.2740,-00.872432,+03.880656,-00.360727
-177.354,-068.074,-001.617,+1.880,+0.231,+1.533,-02.0180,-02.9180,-14.1540,-00.915094,+05.327927,-00.935529
+179.434,-061.316,+000.656,+1.991,+0.198,+1.961,-03.0990,-00.1410,-09.9350,-00.311041,+06.143661,-01.214398
+177.242,-053.986,+002.476,+1.775,+0.171,+2.477,-04.7530,+01.5210,-10.0750,+00.053842,+06.487240,-01.134196
+176.337,-046.343,+003.303,+1.310,+0.126,+2.795,-06.3020,+03.5920,-10.7570,+00.154212,+06.712127,-00.639817
+176.668,-038.625,+003.530,+0.859,+0.131,+2.866,-07.1110,+04.4070,-10.8570,+00.517917,+06.711375,+00.106008
+178.010,-031.099,+003.495,+0.529,+0.102,+2.868,-08.2550,+02.8810,-11.0770,+00.683573,+06.523949,+00.814633
+179.903,-024.056,+003.597,+0.246,+0.137,+2.898,-09.2680,+00.4800,-10.3400,+00.972513,+05.958409,+01.178894
-178.345,-018.063,+004.310,-0.072,+0.174,+2.863,-10.6610,-02.8000,-16.7110,+01.357440,+05.042063,+00.937722
-177.337,-012.384,+005.819,-0.328,+0.194,+2.741,-13.0560,-05.3270,-16.9260,+01.669760,+04.921010,+00.025107
-177.487,-007.056,+007.790,-0.501,+0.241,+2.650,-17.8940,-04.1600,-16.5970,+01.612438,+04.398092,-01.044668
-178.308,-001.958,+009.073,-0.685,+0.331,+2.529,-22.0940,-02.4250,-16.8440,+00.710886,+04.295578,-01.478157
-179.406,+003.025,+009.344,-0.825,+0.330,+2.450,-23.9860,-01.5310,-06.9370,+00.046152,+03.929686,-01.746909
+179.245,+007.034,+009.233,-0.948,+0.304,+2.378,-27.8100,+03.2560,-00.3990,+00.152183,+02.855726,-01.569160
+178.400,+009.651,+009.688,-1.022,+0.314,+2.289,-29.1060,+05.2700,+09.1230,+00.770014,+01.556809,-00.813576
+177.839,+010.121,+010.643,-1.038,+0.324,+2.264,-28.9620,+02.8620,+06.4980,+00.920819,-00.358612,-00.449485
+177.376,+008.362,+010.702,-1.012,+0.333,+2.311,-13.1310,+01.8300,+03.4920,-00.830089,-02.728291,+00.088417
+177.589,+006.112,+010.220,-0.934,+0.328,+2.325,+19.8630,+02.7500,-14.1530,-00.221971,-02.676644,+01.341461
+178.493,+001.782,+009.574,-0.828,+0.334,+2.397,-11.7820,-03.2490,-04.3080,+00.414102,-03.986463,+00.741303
+177.839,-002.387,+009.757,-0.717,+0.287,+2.485,-05.2850,+05.8510,-18.7870,+00.375859,-03.489872,+00.089753
+177.457,-006.701,+011.218,-0.565,+0.369,+2.507,-01.6110,-06.2360,-09.8440,+01.525421,-04.018806,+00.432280
+176.516,-011.636,+012.085,-0.420,+0.380,+2.572,-09.6410,-13.3420,-23.6720,-00.872744,-04.460653,-00.132791
+175.990,-013.710,+010.388,-0.339,+0.269,+2.614,-02.8830,+02.1810,-14.4290,-01.160854,-01.190414,+00.079874
+175.994,-014.497,+009.700,-0.302,+0.274,+2.621,-03.8170,-01.5350,-10.6170,-00.495862,-00.496060,+00.123484
+176.078,-014.883,+009.254,-0.300,+0.242,+2.608,-02.3770,-01.6480,-09.0460,-00.383234,-00.283201,+00.125517
+176.191,-015.227,+008.821,-0.289,+0.215,+2.633,-02.7520,-01.1600,-09.2140,-00.303415,-00.288259,+00.153077
+176.257,-015.485,+008.530,-0.270,+0.244,+2.623,-02.8790,-01.0860,-09.2710,-00.196177,-00.165129,+00.046538
+176.254,-015.653,+008.377,-0.275,+0.229,+2.625,-02.1350,-00.9800,-08.9740,-00.115984,-00.151027,+00.016719
+176.269,-015.840,+008.207,-0.261,+0.215,+2.656,-02.4100,-01.3600,-08.9410,-00.159799,-00.164188,+00.046126
+176.316,-016.055,+007.973,-0.252,+0.224,+2.624,-02.5090,-01.5300,-08.9320,-00.216854,-00.182563,+00.080593
+176.450,-016.276,+007.670,-0.252,+0.204,+2.621,-02.7910,-01.3780,-09.0220,-00.228404,-00.161582,+00.166248
+176.632,-016.461,+007.347,-0.243,+0.200,+2.641,-02.8050,-01.0730,-09.0400,-00.233570,-00.126750,+00.172529
+176.821,-016.593,+007.013,-0.238,+0.185,+2.625,-02.7580,-01.1130,-08.9500,-00.258788,-00.080539,+00.176699
+177.056,-016.692,+006.598,-0.245,+0.160,+2.630,-02.6930,-01.0970,-08.9700,-00.316193,-00.057410,+00.227700
+177.348,-016.791,+006.170,-0.243,+0.155,+2.652,-02.7250,-00.9540,-09.0170,-00.285555,-00.057608,+00.259501
+177.652,-016.889,+005.765,-0.238,+0.150,+2.620,-02.7050,-00.9040,-09.0120,-00.273412,-00.061569,+00.259177
+177.944,-016.990,+005.373,-0.238,+0.131,+2.622,-02.6550,-00.9460,-08.9160,-00.264895,-00.070218,+00.247995
+178.229,-017.103,+004.984,-0.247,+0.106,+2.636,-02.9020,-00.7380,-08.9070,-00.271700,-00.076221,+00.239166
+178.512,-017.246,+004.582,-0.238,+0.131,+2.631,-02.8010,-00.8410,-08.9580,-00.273026,-00.125380,+00.257493
+178.850,-017.454,+004.191,-0.227,+0.131,+2.628,-02.8720,-00.7940,-08.9350,-00.238534,-00.178553,+00.312156
+179.235,-017.732,+003.819,-0.215,+0.106,+2.669,-02.5800,-00.3900,-09.1480,-00.219419,-00.245830,+00.335327
+179.573,-018.134,+003.473,-0.201,+0.145,+2.637,-03.0040,-00.4340,-09.0240,-00.208096,-00.394332,+00.282293
+179.793,-018.722,+003.178,-0.181,+0.103,+2.633,-02.9410,-00.3690,-08.9960,-00.200026,-00.571713,+00.161569
+179.789,-019.571,+002.940,-0.160,+0.091,+2.661,-03.1030,-00.4390,-08.9890,-00.200717,-00.863099,-00.053752
+179.526,-020.751,+002.839,-0.109,+0.080,+2.653,-02.6790,-00.2910,-09.1570,-00.135637,-01.141870,-00.213372
+179.005,-022.297,+002.977,-0.059,+0.068,+2.658,-03.6170,-00.3090,-09.3130,+00.029050,-01.525991,-00.430049
+178.092,-024.489,+003.677,+0.011,+0.094,+2.679,-01.9010,-00.7250,-09.5230,+00.420821,-02.212666,-00.678230
+176.954,-027.619,+004.893,+0.130,+0.127,+2.674,-04.1250,-01.1270,-09.2970,+00.659282,-03.207052,-00.748715
+175.138,-032.380,+006.458,+0.294,+0.148,+2.675,-00.7930,-01.2430,-11.1380,+00.531050,-05.026085,-00.914273
+173.542,-039.700,+008.023,+0.536,+0.197,+2.659,-01.0970,-01.8280,-11.0840,+00.508915,-07.341155,+00.080886
+172.645,-049.668,+009.676,+0.858,+0.222,+2.544,-07.9390,-02.4540,-10.2290,+00.911665,-09.513841,+01.088850
+172.459,-061.517,+011.312,+1.220,+0.228,+2.369,-12.9760,-06.4080,-13.8560,+01.249427,-10.306930,+02.091770
+172.814,-073.686,+013.028,+1.530,+0.253,+2.150,-07.1130,-01.8140,-19.3990,+02.235995,-10.292070,+02.550904
+179.049,-085.222,+009.196,+1.788,+0.214,+1.792,-03.6200,-06.6280,-32.4640,+01.829612,-08.374091,+03.215570
-146.361,-086.584,-024.683,+1.815,+0.216,+1.710,+01.6480,-07.0560,-40.7730,+00.525294,+01.443351,+01.277728
-151.725,-082.716,-018.927,+1.728,+0.224,+1.767,+02.8470,-04.4860,-11.2580,+00.282425,+03.757916,+00.615478
-156.434,-078.557,-014.261,+1.631,+0.230,+1.806,+02.5580,-03.3250,-03.9090,-00.097659,+03.560154,+00.283093
-160.207,-074.615,-010.904,+1.548,+0.241,+1.832,+00.7290,-04.1890,-08.8230,-00.378212,+03.626183,-00.181623
-164.726,-069.791,-007.217,+1.484,+0.257,+1.907,-02.1670,-04.4380,-14.3900,-00.617218,+04.883576,-00.745101
-169.347,-063.532,-003.627,+1.369,+0.308,+1.981,-03.2090,-02.4990,-10.2790,-00.490707,+05.873277,-01.253612
-173.161,-056.647,-000.625,+1.275,+0.331,+2.031,-04.6990,-00.4110,-09.6770,-00.131803,+06.153522,-01.493201
-175.767,-049.249,+001.580,+1.190,+0.418,+2.166,-06.9720,+00.7410,-12.2820,+00.208293,+06.638440,-01.378584
-177.229,-041.351,+002.955,+1.020,+0.480,+2.372,-07.8040,+01.8790,-11.1980,+00.307275,+06.920709,-01.000300
-177.571,-033.604,+003.616,+0.760,+0.518,+2.564,-08.2420,+02.7700,-08.0220,+00.465817,+06.549910,-00.368993
-176.969,-026.705,+004.198,+0.444,+0.542,+2.674,-09.1840,+01.4010,-07.8580,+00.991425,+05.671841,+00.252117
-176.041,-021.055,+005.168,+0.191,+0.652,+2.571,-11.3850,-01.3360,-15.5210,+01.312310,+04.719626,+00.364153
-175.314,-015.873,+006.572,+0.057,+0.684,+2.463,-13.6630,-03.6460,-15.6990,+01.496130,+04.384835,-00.070734
-175.318,-011.169,+008.259,+0.011,+0.702,+2.423,-18.6270,-04.9310,-17.2780,+01.369887,+03.919134,-00.824985
-176.029,-006.524,+009.492,-0.035,+0.746,+2.394,-23.6930,-05.0690,-16.9550,+00.706520,+03.964747,-01.443720
-177.214,-001.638,+009.886,-0.173,+0.743,+2.420,-26.2690,-04.2840,-08.2160,+00.092143,+03.967001,-01.917765
-179.036,+002.657,+009.814,-0.311,+0.720,+2.457,-26.8070,+00.0980,+02.9570,-00.042268,+02.953625,-02.336242
+179.104,+005.681,+009.793,-0.454,+0.722,+2.456,-30.4850,+04.4700,+07.2200,+00.134287,+01.968076,-01.777530
+177.698,+006.865,+010.155,-0.514,+0.712,+2.453,-28.5190,+04.3490,+12.5380,+00.711835,-00.001729,-01.199852
+176.366,+004.642,+009.919,-0.445,+0.697,+2.521,-11.7970,+02.9740,-01.1920,-01.485017,-02.924615,-00.843586
+176.046,+002.115,+009.198,-0.353,+0.696,+2.557,+12.2040,+11.9470,-17.5970,-00.412918,-02.918649,+01.409139
+176.974,-002.234,+008.472,-0.200,+0.698,+2.628,-09.7930,-00.7630,-00.8210,+00.287355,-04.185627,+00.865918
+176.595,-006.717,+008.619,-0.034,+0.719,+2.699,-06.0520,-01.1000,-16.9300,+00.188978,-03.703780,+00.025879
+175.967,-011.515,+009.263,+0.155,+0.761,+2.713,-01.9670,-10.4660,-21.2000,-00.021761,-04.676344,+00.072759
+175.452,-014.437,+008.420,+0.277,+0.745,+2.726,-03.3840,+04.0770,-13.8050,-00.933319,-01.730406,+00.072053
+175.503,-015.414,+008.168,+0.316,+0.730,+2.752,-03.8350,-00.9740,-11.4500,-00.119349,-00.625323,+00.142876
+175.488,-015.816,+008.015,+0.348,+0.720,+2.754,-02.7720,-02.2160,-09.2960,-00.175661,-00.229940,+00.001793
+175.584,-016.033,+007.715,+0.346,+0.717,+2.746,-02.2520,-01.3770,-08.9180,-00.266192,-00.185552,+00.169104
+175.707,-016.238,+007.406,+0.366,+0.700,+2.739,-03.0030,-00.5310,-09.1930,-00.181816,-00.130633,+00.058166
+175.678,-016.344,+007.307,+0.357,+0.710,+2.754,-02.6100,-01.1080,-09.1600,-00.071607,-00.082813,-00.028503
+175.660,-016.408,+007.223,+0.366,+0.695,+2.744,-02.7660,-01.3780,-09.0190,-00.095986,-00.041717,+00.011326
+175.715,-016.472,+007.050,+0.366,+0.676,+2.792,-02.6590,-01.2610,-08.9960,-00.153295,-00.062540,+00.068564
+175.794,-016.569,+006.848,+0.380,+0.685,+2.745,-02.6290,-01.1430,-09.0090,-00.156235,-00.083360,+00.080774
+175.902,-016.680,+006.631,+0.380,+0.675,+2.758,-02.7380,-01.0540,-08.9870,-00.170419,-00.080625,+00.114174
+176.082,-016.761,+006.349,+0.385,+0.646,+2.761,-02.7420,-01.0190,-08.9790,-00.218960,-00.038371,+00.187829
+176.350,-016.827,+006.001,+0.389,+0.690,+2.756,-02.6670,-01.0380,-08.9820,-00.246464,-00.034626,+00.250948
+176.699,-016.921,+005.601,+0.399,+0.641,+2.749,-02.5530,-01.0180,-08.9890,-00.273229,-00.068437,+00.332051
+177.123,-017.068,+005.149,+0.403,+0.626,+2.794,-02.8900,-00.8910,-09.0010,-00.287261,-00.105213,+00.375742
+177.576,-017.230,+004.719,+0.408,+0.616,+2.752,-02.8140,-00.7350,-08.9990,-00.240200,-00.111756,+00.395198
+178.041,-017.415,+004.328,+0.417,+0.599,+2.755,-02.9440,-00.5800,-09.0600,-00.200528,-00.142260,+00.390561
+178.460,-017.622,+004.016,+0.426,+0.572,+2.796,-02.7340,-00.4990,-09.0520,-00.138835,-00.157113,+00.338929
+178.778,-017.884,+003.765,+0.435,+0.631,+2.769,-02.9040,-00.5470,-08.9720,-00.135510,-00.241794,+00.225262
+178.900,-018.245,+003.556,+0.456,+0.581,+2.762,-02.9950,-00.4360,-08.9480,-00.159240,-00.348267,+00.053590
+178.829,-018.756,+003.397,+0.468,+0.571,+2.798,-02.7860,-00.4840,-08.9340,-00.163943,-00.525136,-00.080845
+178.588,-019.520,+003.279,+0.500,+0.600,+2.756,-02.9230,-00.5300,-08.9620,-00.188311,-00.771831,-00.212159
+178.195,-020.553,+003.190,+0.532,+0.561,+2.766,-02.7380,-00.3470,-09.0790,-00.180799,-01.006289,-00.312060
+177.645,-021.861,+003.278,+0.569,+0.565,+2.781,-03.5840,-00.0960,-09.1280,-00.017677,-01.267846,-00.396925
+176.901,-023.542,+003.737,+0.638,+0.574,+2.752,-03.2300,-00.3880,-09.2110,+00.261332,-01.650109,-00.566572
+175.814,-025.690,+004.685,+0.703,+0.601,+2.727,-02.8050,-00.7660,-09.2230,+00.536276,-02.192580,-00.822970
+174.312,-028.854,+005.992,+0.799,+0.607,+2.737,-03.9360,-01.1690,-09.2930,+00.550543,-03.302855,-00.940360
+172.432,-033.561,+007.685,+0.965,+0.693,+2.658,+00.1880,-01.0370,-10.8460,+00.676574,-04.947752,-00.762784
+170.777,-040.726,+009.556,+1.177,+0.693,+2.549,-01.7800,-02.0280,-10.8910,+00.664221,-07.233499,+00.175110
+169.734,-050.580,+011.457,+1.467,+0.712,+2.401,-07.3170,-04.8260,-09.9890,+00.830637,-09.400694,+01.193772
+169.473,-062.491,+013.006,+1.794,+0.702,+2.110,-10.8960,-04.3340,-12.4690,+01.232821,-10.471460,+02.545850
+169.450,-074.673,+014.378,+2.040,+0.624,+1.802,-07.6760,-02.3250,-22.1110,+01.556198,-10.312920,+02.618080
+174.803,-085.907,+009.973,+2.198,+0.518,+1.523,-03.3470,-05.1330,-34.0650,+00.202830,-07.790233,+03.017075
-145.989,-086.671,-029.018,+2.143,+0.445,+1.548,+02.0990,-05.2550,-39.2000,+00.475193,+01.581511,+01.451773
-152.777,-082.605,-021.470,+1.933,+0.421,+1.735,+02.7510,-04.8650,-12.0380,+00.644898,+03.970306,+00.704930
-159.007,-078.203,-015.002,+1.692,+0.402,+1.834,+02.6610,-03.9440,-03.7860,+00.056121,+03.821851,+00.134017
-163.886,-074.079,-010.761,+1.526,+0.384,+1.795,+01.1470,-03.5570,-07.1330,-00.688313,+03.762584,-00.372885
-168.542,-069.221,-007.323,+1.449,+0.352,+1.773,-02.0590,-02.6240,-13.4430,-00.851841,+04.893237,-00.718609
-172.744,-062.850,-004.099,+1.415,+0.331,+1.844,-03.7640,-01.8540,-10.9290,-00.316804,+06.042497,-01.052645
-176.241,-055.674,-001.183,+1.365,+0.391,+2.002,-04.8200,-01.8150,-08.4610,+00.001856,+06.427804,-01.385902
-179.097,-048.187,+001.009,+1.287,+0.450,+2.183,-06.9960,-00.8630,-11.5890,-00.104299,+06.643132,-01.564544
+178.939,-040.220,+002.292,+1.149,+0.499,+2.453,-08.7130,+01.0040,-12.1760,-00.010164,+07.036404,-01.301345
+178.073,-032.183,+003.068,+0.813,+0.646,+2.732,-09.2010,+02.5300,-07.8890,+00.396390,+06.855124,-00.662066
+178.277,-025.204,+003.980,+0.371,+0.732,+2.832,-10.9830,+02.1880,-06.5890,+01.128363,+05.485823,+00.000395
+179.146,-019.709,+005.180,+0.012,+0.772,+2.760,-14.4120,-01.1870,-18.6350,+01.534985,+04.770925,+00.474762
+180.000,-014.587,+006.793,-0.228,+0.843,+2.556,-15.1760,-05.2750,-12.7130,+01.687853,+04.176465,+00.025639
+179.975,-010.407,+008.359,-0.348,+0.831,+2.428,-19.0330,-06.7420,-15.8010,+01.005918,+03.396044,-00.830011
+179.333,-006.172,+008.932,-0.459,+0.795,+2.343,-22.6580,-04.0140,-17.8440,+00.141676,+03.798558,-01.211702
+178.512,-001.431,+009.129,-0.569,+0.766,+2.204,-23.6270,-01.5960,-06.4620,+00.212915,+03.938726,-01.453372
+177.492,+002.734,+009.714,-0.636,+0.759,+2.121,-26.2570,+02.5020,-00.0170,+00.644823,+03.152738,-01.371862
+176.802,+005.734,+010.308,-0.657,+0.747,+2.131,-25.9860,+03.6890,+08.6560,+00.532852,+01.928445,-00.875432
+176.189,+006.817,+010.886,-0.666,+0.751,+2.087,-25.6490,+03.2320,+08.4960,+00.574931,+00.207317,-00.625495
+175.457,+005.890,+010.956,-0.632,+0.744,+2.075,-21.9650,-01.0420,+18.8610,-00.842181,-02.158514,-00.232799
+174.775,+003.848,+009.271,-0.570,+0.642,+2.119,+29.2900,+05.3030,-27.2880,-00.180145,-01.833625,+00.151536
+176.057,+000.657,+008.516,-0.450,+0.685,+2.140,-09.1120,+02.9530,+05.2820,-01.423131,-02.958565,+01.407256
+176.366,-003.446,+008.010,-0.326,+0.675,+2.162,-07.0040,-08.4040,-18.4930,+00.029308,-03.392489,+00.311389
+175.554,-006.951,+008.423,-0.233,+0.664,+2.187,-02.4890,+02.5380,-08.3700,+00.753812,-03.199805,-00.300325
+174.854,-010.827,+009.053,-0.095,+0.677,+2.161,-06.4290,-11.9720,-25.2810,-00.205196,-03.531659,-00.127258
+174.175,-013.019,+008.372,-0.028,+0.657,+2.172,-02.3120,+04.9190,-16.4670,-00.776509,-01.326095,-00.061401
+174.204,-013.874,+008.329,+0.002,+0.632,+2.219,-03.9480,-04.0460,-10.9400,-00.058375,-00.641310,+00.074866
+174.180,-014.282,+008.170,+0.011,+0.642,+2.193,-02.2810,-00.8130,-09.3920,-00.104164,-00.258716,+00.030839
+174.231,-014.730,+007.950,+0.020,+0.629,+2.188,-02.1300,-00.5210,-09.6160,-00.206140,-00.438166,+00.141705
+174.256,-015.035,+007.690,+0.048,+0.602,+2.211,-02.8030,-00.9100,-09.3300,-00.190302,-00.209133,+00.022210
+174.267,-015.258,+007.491,+0.034,+0.627,+2.167,-02.7760,-01.3020,-09.2070,-00.176791,-00.173953,+00.048529
+174.306,-015.418,+007.309,+0.045,+0.602,+2.195,-02.4460,-01.0430,-09.0890,-00.130117,-00.112785,+00.058504
+174.382,-015.572,+007.128,+0.052,+0.592,+2.216,-02.3140,-01.2420,-09.0760,-00.147681,-00.137591,+00.094400
+174.506,-015.759,+006.913,+0.061,+0.602,+2.179,-02.6630,-01.2080,-09.0660,-00.165116,-00.151764,+00.138474
+174.642,-015.928,+006.706,+0.064,+0.595,+2.187,-02.6970,-01.0550,-09.0460,-00.134881,-00.117705,+00.118744
+174.763,-016.056,+006.531,+0.071,+0.577,+2.196,-02.7160,-01.1640,-09.0610,-00.122308,-00.088873,+00.117765
+174.919,-016.156,+006.348,+0.075,+0.607,+2.201,-02.6900,-00.9660,-09.0560,-00.124282,-00.060393,+00.150749
+175.094,-016.234,+006.153,+0.075,+0.612,+2.182,-02.6500,-00.8290,-08.9540,-00.134727,-00.047045,+00.155848
+175.271,-016.314,+005.929,+0.080,+0.572,+2.207,-02.6110,-00.9490,-08.9640,-00.158188,-00.061326,+00.154620
+175.460,-016.425,+005.699,+0.084,+0.572,+2.191,-02.6850,-00.9420,-09.0050,-00.150617,-00.088890,+00.180431
+175.700,-016.569,+005.453,+0.084,+0.565,+2.189,-02.7210,-00.9180,-09.0040,-00.157321,-00.116550,+00.226167
+175.987,-016.744,+005.210,+0.103,+0.582,+2.208,-02.5890,-00.8350,-09.0100,-00.129703,-00.138966,+00.277225
+176.317,-016.946,+004.941,+0.108,+0.587,+2.197,-02.5510,-00.6280,-09.0040,-00.168592,-00.165055,+00.281510
+176.605,-017.187,+004.654,+0.105,+0.548,+2.195,-02.8430,-00.7300,-08.9570,-00.175698,-00.201939,+00.229040
+176.764,-017.504,+004.397,+0.126,+0.552,+2.220,-02.5630,-00.6500,-09.0010,-00.199374,-00.304344,+00.106127
+176.812,-017.961,+004.143,+0.140,+0.532,+2.210,-02.7480,-00.6840,-09.0080,-00.211308,-00.455815,+00.043942
+176.762,-018.612,+003.927,+0.149,+0.552,+2.202,-03.0210,-00.7340,-08.9220,-00.206102,-00.621373,-00.032023
+176.591,-019.425,+003.767,+0.177,+0.532,+2.222,-02.9540,-00.6270,-09.1090,-00.162099,-00.797740,-00.145358
+176.233,-020.511,+003.756,+0.204,+0.517,+2.197,-02.6100,-00.4260,-09.1020,-00.085697,-01.076487,-00.268244
+175.704,-021.918,+004.014,+0.241,+0.549,+2.201,-04.1230,-00.8170,-08.9450,+00.135335,-01.393680,-00.463192
+174.800,-023.826,+004.708,+0.273,+0.507,+2.205,-03.9310,-00.7930,-09.0440,+00.384395,-01.968255,-00.723558
+173.535,-026.579,+005.819,+0.370,+0.579,+2.204,-03.6790,-00.9290,-09.2970,+00.565338,-02.844364,-00.828547
+171.678,-030.575,+007.389,+0.467,+0.610,+2.165,-02.7220,-01.1640,-09.8650,+00.644598,-04.226849,-01.105185
+169.715,-036.717,+009.433,+0.619,+0.626,+2.150,-02.9450,-01.2580,-09.8400,+01.045102,-06.340568,-00.253371
+168.345,-045.412,+011.710,+0.877,+0.618,+2.049,-06.1290,+01.0590,-12.2070,+01.664826,-08.375819,+01.066288
+167.109,-056.358,+014.197,+1.141,+0.661,+1.889,-04.1710,-02.3970,-14.0450,+01.512143,-09.849213,+01.866390
+165.888,-068.170,+017.015,+1.420,+0.655,+1.702,-13.7100,-01.5920,-16.5600,+01.691122,-10.083810,+02.424564
+161.327,-079.949,+023.713,+1.664,+0.641,+1.359,-11.5150,-04.0260,-26.2420,+01.907499,-09.908034,+02.627004
+167.205,-087.061,+018.991,+1.831,+0.557,+1.177,-28.5430,-09.5700,-68.0080,+00.855783,-00.823103,+02.049093
-164.193,-084.519,-008.878,+1.908,+0.525,+1.291,+00.1150,-04.7070,-22.7230,+00.607746,+03.480807,+01.507825
-160.775,-079.875,-011.975,+1.926,+0.506,+1.463,+02.7250,-03.3150,-05.7620,+00.062793,+03.904194,+00.956395
-161.323,-075.593,-011.699,+1.924,+0.492,+1.608,+01.8910,-04.4020,-04.4250,-00.451081,+03.542358,+00.448589
-164.078,-071.239,-009.971,+1.881,+0.513,+1.810,-01.1050,-04.8980,-14.2040,-00.982007,+04.288408,-00.200582
-168.247,-065.236,-007.245,+1.761,+0.496,+2.099,-03.6020,-02.7480,-14.2350,-00.900986,+05.991703,-00.735951
-172.104,-057.968,-004.455,+1.515,+0.515,+2.378,-04.2150,-00.3440,-07.8700,-00.289885,+06.590431,-01.013505
-174.749,-050.549,-002.268,+1.135,+0.485,+2.570,-05.5680,+00.9410,-07.3020,+00.194919,+06.468242,-00.917582
-176.355,-043.169,-000.789,+0.739,+0.440,+2.564,-06.8440,+01.0860,-11.7500,+00.263838,+06.507505,-00.684311
-177.096,-035.592,+000.061,+0.518,+0.415,+2.493,-08.3650,+00.8850,-11.6740,+00.372524,+06.630416,-00.322997
-177.176,-028.213,+000.765,+0.375,+0.374,+2.468,-08.9430,+00.9310,-08.5580,+00.718206,+06.231467,+00.029890
-176.733,-021.808,+001.740,+0.287,+0.380,+2.491,-09.4860,+00.8300,-08.5260,+01.182865,+05.118960,+00.324757
-175.950,-016.398,+003.288,+0.218,+0.445,+2.520,-13.1650,-01.7340,-18.5660,+01.713012,+04.781839,+00.450976
-175.347,-010.965,+005.111,+0.039,+0.600,+2.688,-16.2220,-04.0370,-17.5540,+01.641753,+04.702947,-00.073258
-175.353,-005.735,+006.611,-0.288,+0.716,+2.662,-19.5030,-02.6500,-14.5540,+01.124257,+04.411784,-00.667517
-175.779,-000.894,+007.724,-0.511,+0.752,+2.550,-21.7800,-00.7000,-09.7030,+00.886384,+03.941690,-01.016550
-176.662,+003.205,+008.547,-0.689,+0.744,+2.483,-23.4750,-01.9510,-04.8930,+00.571487,+03.089785,-01.462423
-178.330,+006.330,+008.572,-0.786,+0.734,+2.350,-25.3810,+01.5200,-00.3360,-00.038762,+02.124946,-02.008147
+179.887,+008.348,+008.299,-0.853,+0.717,+2.294,-27.2990,+04.5240,+06.4030,+00.020549,+01.076989,-01.600733
+178.376,+008.495,+008.431,-0.860,+0.666,+2.315,-25.7650,+04.7190,+11.6350,+00.528294,-00.847288,-01.072485
+176.996,+005.672,+007.504,-0.800,+0.675,+2.339,-00.4700,+07.2370,-27.3710,-00.733715,-01.941442,-00.863596
+177.290,+002.829,+007.667,-0.717,+0.625,+2.367,+02.1050,+07.0580,-07.6780,+00.060178,-02.910684,+01.564057
+177.762,-001.254,+007.904,-0.597,+0.630,+2.440,-08.3630,-02.9640,-10.2240,+00.621681,-03.635573,+00.478431
+177.419,-005.027,+008.129,-0.468,+0.623,+2.435,-03.0500,-01.0910,-12.2290,+00.261184,-03.213452,+00.062412
+177.001,-008.974,+008.916,-0.350,+0.654,+2.474,-02.7340,-03.9680,-11.7370,+00.586043,-03.540738,+00.263580
+176.538,-012.602,+008.522,-0.238,+0.617,+2.525,-18.6500,+00.2010,-28.8730,-00.369582,-01.530749,+00.066773
+176.612,-014.155,+007.906,-0.192,+0.611,+2.522,-05.0780,-02.8520,-10.5330,-00.165289,-00.870305,+00.304490
+176.822,-014.908,+007.507,-0.155,+0.591,+2.529,-04.0520,+01.0400,-10.5120,-00.190554,-00.458800,+00.211831
+176.843,-015.140,+007.453,-0.155,+0.591,+2.540,-02.0720,-00.2170,-09.2690,-00.013428,-00.156192,+00.003278
+176.819,-015.334,+007.448,-0.141,+0.591,+2.524,-02.3760,-00.8550,-09.1070,-00.016717,-00.179110,-00.000648
+176.725,-015.469,+007.470,-0.141,+0.586,+2.535,-02.6940,-00.9980,-09.2460,+00.010622,-00.093447,-00.098585
+176.602,-015.539,+007.526,-0.141,+0.591,+2.556,-02.4570,-01.3420,-09.1060,+00.004762,-00.065194,-00.080064
+176.553,-015.591,+007.491,-0.132,+0.591,+2.541,-02.4530,-01.3580,-09.0230,-00.067135,-00.050516,-00.000784
+176.607,-015.676,+007.354,-0.122,+0.588,+2.530,-02.6490,-01.3400,-09.0250,-00.122516,-00.066370,+00.081776
+176.704,-015.744,+007.193,-0.122,+0.576,+2.563,-02.5800,-00.9980,-09.0390,-00.103755,-00.044342,+00.080126
+176.777,-015.798,+007.059,-0.113,+0.581,+2.547,-02.5390,-01.0300,-09.0360,-00.098594,-00.032640,+00.064544
+176.877,-015.842,+006.901,-0.125,+0.571,+2.533,-02.5520,-01.1430,-08.9620,-00.120535,-00.022288,+00.107104
+177.053,-015.875,+006.694,-0.132,+0.586,+2.552,-02.6000,-01.0860,-08.9930,-00.148211,-00.008881,+00.172072
+177.262,-015.921,+006.461,-0.127,+0.581,+2.541,-02.6050,-00.9780,-09.0280,-00.154058,-00.024172,+00.180193
+177.471,-015.973,+006.226,-0.120,+0.566,+2.523,-02.5200,-01.0000,-09.0080,-00.153329,-00.027499,+00.182017
+177.707,-016.040,+005.984,-0.109,+0.571,+2.542,-02.6330,-00.9810,-08.9530,-00.156159,-00.043772,+00.214924
+177.979,-016.137,+005.717,-0.109,+0.561,+2.531,-02.6660,-00.9230,-08.9860,-00.178427,-00.070968,+00.248229
+178.287,-016.259,+005.426,-0.106,+0.546,+2.534,-02.6640,-00.8640,-09.0030,-00.174964,-00.087335,+00.276367
+178.616,-016.415,+005.145,-0.104,+0.561,+2.558,-02.5580,-00.7920,-09.0750,-00.159306,-00.125411,+00.292518
+178.942,-016.620,+004.837,-0.104,+0.551,+2.542,-02.6560,-00.7410,-09.0100,-00.210136,-00.170647,+00.288293
+179.234,-016.882,+004.505,-0.090,+0.524,+2.546,-02.6120,-00.6580,-09.0410,-00.211612,-00.235865,+00.235500
+179.396,-017.292,+004.202,-0.063,+0.512,+2.566,-02.5410,-00.5390,-09.0850,-00.231834,-00.422442,+00.118547
+179.370,-017.910,+003.914,-0.044,+0.531,+2.556,-02.6750,-00.6840,-09.0280,-00.272227,-00.632355,-00.043228
+179.142,-018.852,+003.698,-0.019,+0.497,+2.552,-02.8190,-00.6230,-09.0330,-00.227221,-00.954859,-00.181900
+178.807,-020.101,+003.611,+0.020,+0.486,+2.564,-03.5090,-00.3250,-09.1910,-00.094620,-01.211222,-00.201531
+178.331,-021.757,+003.803,+0.085,+0.471,+2.573,-03.6110,-00.6460,-09.4830,+00.107731,-01.619059,-00.387121
+177.486,-024.047,+004.471,+0.147,+0.500,+2.548,-03.5100,-00.8780,-09.4100,+00.391377,-02.277831,-00.517953
+176.429,-027.199,+005.499,+0.246,+0.514,+2.563,-03.7580,-00.9680,-09.4710,+00.517587,-03.192974,-00.660918
+174.850,-031.751,+006.844,+0.398,+0.556,+2.537,-01.7800,-01.1050,-10.4580,+00.516620,-04.749213,-00.679333
+173.423,-038.585,+008.270,+0.608,+0.561,+2.506,-02.3450,-01.4920,-09.9040,+00.551399,-06.842871,+00.131030
+172.788,-047.897,+009.746,+0.896,+0.605,+2.425,-08.1640,-02.8690,-08.3220,+01.029279,-08.860339,+01.161136
+172.679,-059.255,+011.750,+1.259,+0.629,+2.183,-05.5900,-02.0580,-11.2020,+02.072829,-10.073110,+02.252912
+172.733,-070.993,+013.623,+1.549,+0.622,+1.926,-07.9590,-03.8430,-17.7490,+01.797368,-09.968358,+02.421055
+173.886,-082.545,+013.854,+1.788,+0.587,+1.639,-08.1500,-05.2190,-30.5070,+00.603462,-09.077198,+02.676663
-147.910,-086.716,-024.309,+1.908,+0.496,+1.430,-06.5880,-04.7840,-50.6190,-00.127346,+00.205498,+02.093834
-143.491,-082.834,-027.708,+1.917,+0.476,+1.471,+00.2160,-05.3970,-21.7410,+01.190662,+04.167120,+01.466199
-150.841,-077.548,-019.280,+1.889,+0.413,+1.602,+02.2220,-05.5960,-04.8650,+00.747401,+04.698548,+00.490029
-156.473,-072.781,-013.970,+1.894,+0.424,+1.746,+01.5820,-05.7650,-02.4900,-00.680821,+04.092782,-00.340934
-162.008,-068.203,-010.095,+1.906,+0.408,+1.935,-01.7390,-04.3190,-12.7250,-01.305507,+04.580243,-00.958631
-167.535,-062.193,-006.202,+1.826,+0.447,+2.258,-03.3230,-01.9530,-11.6310,-00.715061,+05.928923,-01.398888
-171.944,-055.213,-002.781,+1.555,+0.515,+2.626,-04.3700,-01.0450,-09.3540,-00.099147,+06.331803,-01.543670
-175.013,-047.724,-000.285,+1.177,+0.621,+2.820,-06.7310,-00.3070,-11.5090,+00.154033,+06.740851,-01.441340
-176.913,-039.778,+001.409,+0.814,+0.687,+2.941,-08.1610,+01.0580,-11.4970,+00.437127,+07.001392,-01.108810
-177.647,-031.788,+002.509,+0.431,+0.755,+3.004,-08.9850,+01.3000,-06.9650,+00.637903,+06.812291,-00.524835
-177.546,-024.971,+003.422,+0.070,+0.778,+3.036,-09.3130,+00.5130,-05.1860,+00.910943,+05.301953,-00.112679
-176.975,-019.652,+004.360,-0.320,+0.693,+2.977,-12.2040,-00.5050,-19.8220,+01.170140,+04.660245,+00.353907
-175.982,-014.405,+005.638,-0.625,+0.596,+2.567,-12.6770,-04.3030,-14.8200,+01.510167,+04.450383,+00.387065
-175.415,-009.846,+007.335,-0.598,+0.444,+2.278,-14.9950,-07.2490,-14.2290,+01.536491,+03.741695,-00.275962
-175.693,-005.625,+008.889,-0.423,+0.327,+2.267,-18.8250,-05.3430,-19.5780,+01.223276,+03.689971,-00.998029
-176.434,-000.543,+010.469,-0.432,+0.436,+2.363,-20.6890,-01.7760,-15.7440,+01.370307,+04.551347,-01.643760
-177.760,+004.608,+011.608,-0.567,+0.565,+2.396,-19.9890,+01.3900,-03.3510,+00.731139,+03.775041,-02.145889
-179.199,+008.584,+011.740,-0.735,+0.631,+2.418,-23.8090,+04.6680,+01.0910,-00.049574,+02.763027,-01.644102
-179.971,+010.914,+011.692,-0.883,+0.701,+2.394,-24.5860,+06.6370,+07.1110,+00.354899,+01.296381,-00.752179
+179.598,+011.572,+012.363,-0.952,+0.726,+2.378,-23.7400,+02.6340,+04.0260,+00.595082,+00.034694,-00.401157
+178.815,+010.767,+012.085,-0.952,+0.712,+2.440,-20.5710,-00.3000,+03.2680,-00.539020,-01.387755,-00.612201
+177.753,+009.018,+010.995,-0.910,+0.702,+2.527,+18.5840,-03.2090,-24.2170,-00.693273,-01.471255,-00.301425
+177.933,+005.604,+010.641,-0.834,+0.719,+2.597,+00.9870,+00.6490,+05.5820,-00.647343,-03.729496,+01.147233
+177.509,+000.954,+010.125,-0.702,+0.721,+2.735,-11.6690,+02.3090,-16.9920,-00.565429,-03.759648,+00.068941
+177.262,-002.998,+009.634,-0.555,+0.744,+2.789,-03.7660,+03.6670,-12.5820,+00.219654,-03.346137,+00.611874
+177.089,-006.936,+010.310,-0.412,+0.792,+2.875,-04.2500,-09.5080,-12.8470,+00.481889,-03.392866,+00.254564
+176.399,-010.884,+010.255,-0.278,+0.806,+2.967,-07.0770,-06.1910,-21.6560,-00.812421,-03.595236,-00.030616
+176.089,-013.510,+009.160,-0.154,+0.819,+2.978,-04.0210,+00.8520,-15.1000,-00.742897,-01.725982,+00.346293
+176.227,-014.668,+008.628,-0.112,+0.780,+2.985,-03.4740,-01.3410,-11.3810,-00.424597,-00.744213,+00.222708
+176.367,-015.368,+008.264,-0.085,+0.775,+3.013,-03.5370,-01.4040,-10.7720,-00.271221,-00.458078,+00.213885
+176.579,-015.757,+007.842,-0.075,+0.784,+3.024,-02.9900,-00.5640,-09.3000,-00.320321,-00.248729,+00.197707
+176.624,-016.006,+007.592,-0.059,+0.740,+3.012,-02.5970,-00.4340,-09.1140,-00.117996,-00.179545,-00.000806
+176.547,-016.162,+007.530,-0.052,+0.779,+3.041,-02.4770,-01.2100,-09.0030,-00.073203,-00.124866,-00.053886
+176.488,-016.265,+007.420,-0.052,+0.750,+3.026,-02.6710,-01.3880,-09.0480,-00.139384,-00.083440,-00.019042
+176.527,-016.384,+007.221,-0.046,+0.740,+3.023,-02.7750,-01.5350,-09.0070,-00.174657,-00.106577,+00.084074
+176.645,-016.498,+006.991,-0.039,+0.745,+3.053,-02.5410,-00.9400,-08.9630,-00.161960,-00.079735,+00.117896
+176.783,-016.616,+006.779,-0.043,+0.735,+3.037,-02.6050,-01.0500,-08.9690,-00.148969,-00.092310,+00.130713
+176.933,-016.715,+006.572,-0.027,+0.732,+3.032,-02.8850,-01.0040,-08.9920,-00.147848,-00.054188,+00.129600
+177.087,-016.779,+006.344,-0.025,+0.696,+3.059,-02.8230,-00.8740,-09.0370,-00.167926,-00.035814,+00.139217
+177.274,-016.831,+006.082,-0.016,+0.730,+3.043,-02.6980,-00.9620,-08.9690,-00.192647,-00.030952,+00.176903
+177.500,-016.901,+005.788,-0.016,+0.722,+3.030,-02.8560,-00.8850,-08.9620,-00.198691,-00.043041,+00.197936
+177.745,-016.976,+005.489,-0.011,+0.691,+3.081,-02.8420,-00.8340,-09.0340,-00.204693,-00.042998,+00.216444
+178.001,-017.042,+005.160,-0.016,+0.700,+3.028,-02.7490,-00.8380,-08.9730,-00.222575,-00.041350,+00.217914
+178.270,-017.120,+004.844,-0.002,+0.686,+3.050,-02.8040,-00.8600,-08.9630,-00.196938,-00.056503,+00.244242
+178.603,-017.236,+004.535,+0.003,+0.661,+3.072,-02.6920,-00.7720,-08.9830,-00.180651,-00.093673,+00.313291
+179.007,-017.420,+004.200,+0.017,+0.700,+3.045,-02.7310,-00.7440,-08.9960,-00.194162,-00.160043,+00.361006
+179.436,-017.694,+003.837,+0.028,+0.648,+3.062,-02.6430,-00.5480,-09.0290,-00.214920,-00.241886,+00.372726
+179.797,-018.060,+003.461,+0.040,+0.621,+3.084,-02.9100,-00.3640,-08.9440,-00.231269,-00.343171,+00.289582
-179.983,-018.574,+003.123,+0.054,+0.656,+3.068,-02.8870,-00.3450,-08.9430,-00.234064,-00.501002,+00.161436
-179.917,-019.299,+002.824,+0.097,+0.628,+3.071,-02.9520,-00.4230,-08.9450,-00.238356,-00.717319,+00.047372
-179.999,-020.375,+002.596,+0.123,+0.635,+3.088,-03.0020,-00.4570,-08.9870,-00.211588,-01.056962,-00.046633
+179.865,-021.781,+002.487,+0.192,+0.620,+3.069,-03.3710,-00.3970,-09.1100,-00.084432,-01.341152,-00.095192
+179.471,-023.588,+002.693,+0.265,+0.619,+3.067,-04.2950,-00.6230,-09.2950,+00.185873,-01.805124,-00.346660
+178.778,-026.087,+003.414,+0.358,+0.628,+3.082,-03.6550,-00.3160,-09.1090,+00.512201,-02.432895,-00.456593
+177.646,-029.523,+004.526,+0.491,+0.666,+3.039,-03.2550,-01.0090,-09.4550,+00.455576,-03.523402,-00.838916
+175.859,-034.694,+005.904,+0.678,+0.681,+3.005,+01.1240,-01.4450,-11.5110,+00.297159,-05.361549,-00.775919
+174.325,-042.243,+007.163,+0.943,+0.705,+2.946,-02.7180,-00.9640,-10.7780,+00.323866,-07.386117,-00.006512
+173.248,-052.028,+008.920,+1.297,+0.735,+2.753,-08.3260,-01.6900,-11.8590,+00.977550,-09.255033,+00.810504
+172.473,-063.417,+011.254,+1.654,+0.777,+2.524,-12.4060,-05.6840,-13.1110,+01.262963,-09.879663,+01.472926
+171.528,-075.043,+014.081,+1.941,+0.780,+2.239,-07.0100,-00.5430,-25.1540,+01.967146,-09.962531,+02.317295
+178.935,-084.104,+008.247,+2.144,+0.757,+1.943,-07.9810,+02.2680,-42.5200,+00.474217,-04.143279,+03.054711
-162.947,-081.277,-008.794,+2.003,+0.721,+2.020,+04.3100,-02.4350,-21.9330,+01.089206,+03.386683,+02.042728
-156.390,-076.776,-014.510,+1.789,+0.633,+2.158,+02.9480,-04.8310,-03.4960,+00.369483,+03.601553,+01.631273
-155.508,-072.720,-015.607,+1.596,+0.616,+2.177,+02.4100,-05.7890,-05.9910,-00.404623,+03.250143,+00.767648
-158.467,-068.537,-013.389,+1.448,+0.588,+2.171,+00.7200,-06.0050,-12.2080,-00.517967,+04.184557,-00.303950
-163.659,-063.243,-009.178,+1.305,+0.511,+2.240,-00.9640,-03.8410,-11.4320,-00.417086,+05.260599,-01.234078
-168.827,-056.977,-005.031,+1.172,+0.532,+2.266,-03.2030,-00.3900,-10.8430,-00.210614,+05.938649,-01.671594
-172.668,-049.968,-001.993,+1.116,+0.477,+2.339,-05.3240,+02.5120,-09.8130,+00.070468,+06.345664,-01.518210
-174.918,-042.611,-000.037,+0.997,+0.452,+2.591,-06.5250,+03.7710,-11.2250,+00.376403,+06.498025,-01.038761
-175.764,-035.014,+000.993,+0.684,+0.481,+2.845,-08.6780,+02.8820,-10.6550,+00.390027,+06.674790,-00.396744
-175.759,-027.790,+001.397,+0.284,+0.584,+2.894,-09.5070,+00.3720,-07.3060,+00.376558,+05.947454,-00.037701
-175.733,-021.758,+001.654,-0.080,+0.686,+2.918,-09.4270,-02.9920,-13.1410,+00.132830,+04.873776,-00.198069
-176.110,-016.162,+001.923,-0.352,+0.761,+2.718,-11.8240,-07.3950,-19.7400,+00.104683,+04.992744,-00.713073
-177.437,-010.370,+002.118,-0.528,+0.686,+2.603,-14.0190,-10.7220,-16.4440,-00.238755,+04.955107,-01.687240
-179.840,-004.859,+001.973,-0.652,+0.591,+2.566,-16.9810,-11.2570,-14.8960,-00.432947,+04.596997,-02.539137
+176.971,+000.317,+001.766,-0.786,+0.573,+2.480,-19.6370,-10.2610,-11.5480,-00.087425,+04.318459,-03.145245
+173.052,+004.930,+001.925,-0.913,+0.463,+2.422,-19.1310,-08.4260,-04.6640,+00.506978,+03.579691,-03.776379
+168.355,+008.397,+002.210,-1.017,+0.413,+2.412,-20.2160,-05.0290,-02.2240,+00.850487,+02.462322,-04.394375
+163.297,+010.704,+002.565,-1.100,+0.354,+2.350,-23.2470,-01.6980,+00.0110,+01.092499,+01.443722,-04.383122
+158.479,+011.715,+003.069,-1.134,+0.305,+2.327,-23.1680,+01.1290,+02.9070,+01.412968,+00.197029,-03.984904
+154.274,+011.427,+004.249,-1.132,+0.251,+2.360,-22.1910,+00.4090,-02.9570,+01.924343,-00.760932,-03.329425
+150.594,+010.532,+005.245,-1.095,+0.271,+2.362,-14.4410,+04.0960,+02.1820,+01.250318,-01.288685,-02.968315
+147.838,+008.668,+006.619,-1.033,+0.282,+2.394,+18.7840,+18.4940,-16.5070,+00.867941,-01.695670,-01.360936
+147.805,+005.996,+008.130,-0.961,+0.348,+2.469,-04.1610,+03.9250,+00.0460,+00.883401,-02.820736,+00.614018
+147.999,+002.555,+009.298,-0.837,+0.446,+2.527,-06.1570,-12.9360,-22.1700,+00.758639,-02.548518,+00.223529
+147.677,-000.075,+010.134,-0.747,+0.492,+2.584,-02.1330,-01.5650,-12.5950,+00.913664,-02.317013,+00.212725
+147.541,-002.494,+011.149,-0.675,+0.523,+2.609,-02.2280,-04.3600,-11.2180,+00.814213,-01.996127,+00.276836
+147.252,-004.856,+011.986,-0.592,+0.601,+2.649,-01.2180,-02.4120,-10.9820,+00.694655,-02.159659,+00.164843
+147.038,-007.518,+012.682,-0.491,+0.632,+2.678,-04.2860,-02.9220,-11.7210,+00.667300,-02.308733,+00.346042
+146.683,-009.591,+013.003,-0.417,+0.673,+2.710,-03.5670,-02.2600,-11.0100,+00.055330,-01.496465,+00.041459
+146.415,-010.841,+012.661,-0.366,+0.658,+2.712,-02.3530,-02.3760,-09.8020,-00.525221,-00.886509,+00.006798
+146.284,-011.695,+012.070,-0.332,+0.643,+2.709,-02.1320,-02.1450,-09.2920,-00.517936,-00.716863,+00.070194
+146.206,-012.443,+011.517,-0.306,+0.623,+2.753,-02.5610,-01.6430,-10.0450,-00.418337,-00.590416,+00.069772
+146.165,-013.043,+011.112,-0.288,+0.598,+2.743,-02.2310,-01.3710,-09.2750,-00.338159,-00.479306,+00.064654
+146.155,-013.620,+010.774,-0.265,+0.608,+2.744,-02.1190,-01.5630,-08.9430,-00.286204,-00.519557,+00.104130
+146.212,-014.316,+010.397,-0.242,+0.564,+2.772,-02.1130,-01.6870,-08.7380,-00.351003,-00.638215,+00.205321
+146.388,-015.059,+009.854,-0.219,+0.563,+2.768,-03.1490,-02.1510,-09.0840,-00.480167,-00.512986,+00.261830
+146.561,-015.486,+009.272,-0.203,+0.551,+2.758,-02.8490,-01.5780,-09.1410,-00.434560,-00.250509,+00.174629
+146.702,-015.693,+008.790,-0.191,+0.529,+2.807,-02.5290,-01.0350,-08.9820,-00.370233,-00.127529,+00.127595
+146.826,-015.846,+008.348,-0.182,+0.553,+2.769,-02.5460,-01.1730,-09.0380,-00.353168,-00.117144,+00.131609
+146.983,-015.999,+007.895,-0.180,+0.502,+2.789,-02.6590,-01.1320,-08.9710,-00.370689,-00.111721,+00.159649
+147.158,-016.124,+007.485,-0.168,+0.514,+2.813,-02.8070,-01.0450,-09.0900,-00.291646,-00.080200,+00.148918
+147.297,-016.221,+007.121,-0.168,+0.484,+2.787,-02.7650,-00.8690,-09.0980,-00.285933,-00.064335,+00.111497
+147.430,-016.294,+006.751,-0.175,+0.484,+2.781,-02.5320,-00.9460,-09.0430,-00.302475,-00.045309,+00.137081
+147.622,-016.366,+006.320,-0.168,+0.460,+2.792,-02.8200,-01.1500,-08.9720,-00.336150,-00.045819,+00.180389
+147.789,-016.455,+005.896,-0.164,+0.489,+2.792,-02.9480,-00.8260,-09.0130,-00.322573,-00.075680,+00.120832
+147.882,-016.576,+005.498,-0.152,+0.448,+2.801,-02.7450,-00.7870,-09.0180,-00.324060,-00.110363,+00.076551
+147.923,-016.732,+005.108,-0.150,+0.396,+2.820,-02.7700,-00.5850,-08.9860,-00.340648,-00.148928,+00.030608
+147.930,-016.950,+004.672,-0.141,+0.455,+2.793,-02.5470,-00.8600,-09.0610,-00.399332,-00.202782,+00.029262
+147.924,-017.191,+004.219,-0.132,+0.403,+2.802,-02.7560,-00.4980,-09.1150,-00.383423,-00.217768,-00.015649
+147.836,-017.512,+003.828,-0.118,+0.376,+2.827,-02.6270,-00.6000,-09.0030,-00.352151,-00.329691,-00.059257
+147.729,-018.009,+003.467,-0.099,+0.361,+2.812,-02.6710,-00.5920,-08.9930,-00.342089,-00.506937,-00.047859
+147.650,-018.745,+003.128,-0.072,+0.358,+2.802,-02.8030,-00.4630,-08.9100,-00.303764,-00.739612,-00.019788
+147.595,-019.823,+002.832,-0.040,+0.326,+2.852,-02.7510,-00.6080,-09.0180,-00.253661,-01.069794,+00.019178
+147.559,-021.418,+002.537,+0.020,+0.340,+2.839,-02.7560,-00.9340,-08.7880,-00.277546,-01.651023,+00.025454
+147.573,-023.846,+002.323,+0.113,+0.329,+2.821,-02.8940,-01.1080,-09.7290,-00.097306,-02.377716,+00.190872
+147.943,-027.236,+002.307,+0.232,+0.294,+2.848,-01.3480,-01.9000,-11.3500,+00.246875,-03.310127,+00.646368
+149.367,-032.036,+001.425,+0.417,+0.341,+2.813,-02.4810,-03.2320,-10.6080,-00.547098,-04.754322,+01.653754
+152.476,-038.712,-002.878,+0.647,+0.211,+2.755,-04.9750,-03.8740,-10.0470,-03.323345,-06.664417,+02.444536
+158.507,-047.097,-012.690,+0.932,-0.024,+2.672,-09.7510,-08.5980,-14.1180,-05.885052,-08.091267,+02.866433
+168.566,-054.148,-026.923,+1.189,-0.327,+2.445,-14.1650,-06.7390,-20.0130,-05.646028,-07.054615,+03.238901
+179.461,-058.224,-043.948,+1.336,-0.585,+2.201,-07.8400,-09.9460,-19.0380,-07.688605,-05.268376,+01.789529
-178.476,-060.784,-052.732,+1.409,-0.808,+2.013,-04.9630,-28.0950,-32.6590,-04.240910,+00.323975,-02.792118
+170.401,-063.398,-047.425,+1.423,-0.784,+1.944,-02.2580,-10.2760,-11.4680,-03.557482,+02.550419,-05.083928
+156.271,-065.179,-038.291,+1.434,-0.809,+1.923,-01.2500,-00.3180,-05.0780,-02.909900,+02.368186,-04.722566
+143.547,-065.484,-029.809,+1.455,-0.834,+1.935,-01.4250,+03.3610,-08.9870,-02.544503,+02.483004,-03.465844
+133.674,-063.573,-023.201,+1.445,-0.878,+1.903,-02.7050,+01.8520,-15.0000,-01.710705,+03.663123,-02.075171
+126.234,-059.285,-018.360,+1.462,-0.929,+1.963,-03.1020,-04.1220,-12.4560,-01.473944,+05.059278,-01.388654
+120.240,-053.757,-015.175,+1.446,-1.004,+2.123,-03.9830,-07.1130,-07.7840,-01.579456,+05.599227,-01.434877
+114.826,-047.903,-012.412,+1.391,-1.008,+2.346,-05.5960,-07.8540,-07.0130,-00.989353,+05.701421,-01.844349
+109.627,-041.872,-009.361,+1.216,-0.933,+2.619,-07.3300,-08.1170,-07.9350,-00.330419,+05.811075,-02.340716
+104.774,-035.764,-006.462,+0.972,-0.829,+2.766,-08.3880,-06.1460,-06.8770,-00.015708,+05.648787,-02.600168
+100.715,-029.833,-003.955,+0.659,-0.674,+2.746,-09.4840,-03.7790,-07.6420,+00.461570,+05.288567,-02.369869
+097.658,-024.301,-001.621,+0.440,-0.623,+2.661,-09.7220,-04.1970,-08.8010,+00.934547,+04.673448,-02.024107
+095.313,-019.323,+000.459,+0.304,-0.627,+2.569,-11.6810,-05.3570,-15.5870,+01.175001,+04.327105,-01.787345
+093.219,-014.232,+002.668,+0.226,-0.676,+2.544,-12.7530,-06.2190,-14.6190,+01.538735,+04.375417,-01.955989
+091.059,-009.307,+005.068,+0.085,-0.639,+2.613,-14.7950,-04.6200,-13.3950,+01.765329,+04.016249,-02.221999
+088.952,-004.762,+007.367,-0.110,-0.579,+2.593,-17.1120,-00.9570,-13.0760,+01.771916,+03.600026,-02.202667
+087.355,-000.415,+009.460,-0.226,-0.524,+2.443,-18.6230,+02.8260,-13.2410,+01.768847,+03.542419,-01.728763
+086.518,+003.668,+011.402,-0.237,-0.480,+2.372,-19.0460,+02.9000,-08.1180,+01.600972,+03.190437,-01.187375
+085.894,+006.842,+012.683,-0.253,-0.495,+2.399,-19.1260,+02.5400,-01.6930,+00.880630,+02.174986,-01.080920
+085.411,+008.820,+013.507,-0.249,-0.470,+2.404,-21.8140,+05.4600,-00.0570,+00.799305,+01.292357,-00.546375
+085.454,+009.541,+014.451,-0.249,-0.435,+2.433,-21.0700,+04.0870,+04.8400,+00.765933,+00.130784,+00.095446
+085.472,+008.582,+015.091,-0.207,-0.421,+2.475,-19.7940,-00.0630,+04.7090,+00.386852,-01.392926,+00.308404
+084.859,+005.866,+013.308,-0.087,-0.511,+2.444,+01.8770,-02.8690,-21.7200,-01.288868,-01.859943,-00.099831
+084.632,+003.136,+011.585,+0.009,-0.549,+2.448,+01.5720,+00.8930,-07.1640,-02.134087,-02.836767,+00.705947
+084.390,-000.807,+010.202,+0.152,-0.641,+2.460,-08.2010,+03.4980,-12.5410,-00.782795,-03.483375,+00.185510
+083.929,-004.538,+009.362,+0.304,-0.682,+2.430,-04.0680,+03.3040,-12.1930,-00.382030,-03.230807,+00.159361
+083.430,-008.599,+009.718,+0.451,-0.661,+2.415,-02.3920,-01.9890,-10.4070,+00.345208,-03.824505,+00.216145
+082.838,-012.133,+008.825,+0.589,-0.744,+2.389,-21.7130,-04.2720,-10.7430,-00.404728,-01.307134,-00.126487
+082.641,-013.462,+007.995,+0.635,-0.749,+2.365,-02.6330,+01.1120,-07.7940,-00.278393,-00.709401,+00.104479
+082.705,-014.042,+007.821,+0.647,-0.764,+2.365,-04.6660,-00.2820,-10.9700,-00.097355,-00.325971,+00.072309
+082.703,-014.237,+007.639,+0.677,-0.789,+2.393,-02.2960,-01.4540,-09.2170,-00.187985,-00.105321,+00.065523
+082.859,-014.379,+007.332,+0.663,-0.789,+2.361,-02.8180,-01.1200,-09.0600,-00.233728,-00.105479,+00.161173
+082.914,-014.484,+007.127,+0.675,-0.777,+2.348,-02.7130,-00.6540,-09.1940,-00.111279,-00.069577,-00.006202
+082.840,-014.565,+007.066,+0.686,-0.834,+2.335,-02.4460,-01.0120,-09.0000,-00.084222,-00.092727,-00.060682
+082.788,-014.676,+006.908,+0.681,-0.804,+2.340,-02.4970,-01.4610,-08.8700,-00.175755,-00.106978,-00.004314
+082.840,-014.804,+006.682,+0.688,-0.804,+2.348,-02.5460,-01.1750,-09.0400,-00.191717,-00.100025,+00.088661
+082.955,-014.934,+006.412,+0.686,-0.838,+2.373,-02.5610,-00.7210,-09.0150,-00.215354,-00.103167,+00.119326
+083.087,-015.058,+006.136,+0.681,-0.809,+2.324,-02.6570,-00.7600,-09.0430,-00.201151,-00.085713,+00.122891
+083.216,-015.151,+005.898,+0.686,-0.831,+2.324,-02.6100,-00.8860,-08.9920,-00.169040,-00.059474,+00.114486
+083.366,-015.223,+005.684,+0.686,-0.843,+2.357,-02.5070,-00.8700,-08.9710,-00.142606,-00.047187,+00.150045
+083.568,-015.313,+005.447,+0.690,-0.863,+2.293,-02.6100,-00.8660,-08.9890,-00.170487,-00.070992,+00.188191
+083.784,-015.428,+005.182,+0.688,-0.851,+2.322,-02.7910,-00.8100,-09.0240,-00.178609,-00.088771,+00.188042
+083.989,-015.551,+004.944,+0.681,-0.848,+2.346,-02.9050,-00.7290,-09.0270,-00.148621,-00.092133,+00.167385
+084.146,-015.666,+004.770,+0.686,-0.853,+2.303,-02.7540,-00.7120,-09.0140,-00.092443,-00.089931,+00.132795
+084.307,-015.801,+004.656,+0.690,-0.863,+2.301,-02.6360,-00.7530,-08.9800,-00.050099,-00.120798,+00.151185
+084.512,-015.991,+004.567,+0.709,-0.873,+2.326,-02.7690,-00.6770,-08.9740,-00.013781,-00.163278,+00.209113
+084.761,-016.229,+004.503,+0.686,-0.848,+2.303,-02.8450,-00.4520,-09.0610,+00.007786,-00.204506,+00.220145
+084.968,-016.485,+004.452,+0.693,-0.871,+2.296,-02.8260,-00.5860,-09.0030,+00.008787,-00.238201,+00.168181
+085.059,-016.836,+004.417,+0.704,-0.898,+2.315,-02.6780,-00.6300,-09.0000,-00.032359,-00.343360,+00.055720
+085.020,-017.315,+004.324,+0.723,-0.893,+2.273,-02.8600,-00.6340,-08.9720,-00.110955,-00.469036,-00.027969
+084.855,-017.973,+004.233,+0.739,-0.888,+2.276,-02.9610,-00.6840,-08.9720,-00.125942,-00.660747,-00.135035
+084.551,-018.826,+004.197,+0.764,-0.903,+2.280,-02.9970,-00.4470,-08.9610,-00.098949,-00.822049,-00.227289
+084.148,-019.933,+004.267,+0.806,-0.899,+2.261,-04.2530,-00.7350,-09.0250,-00.009730,-01.094297,-00.314081
+083.509,-021.394,+004.577,+0.854,-0.880,+2.246,-03.7980,-00.8380,-09.1720,+00.143871,-01.460223,-00.516729
+082.640,-023.375,+005.318,+0.916,-0.880,+2.271,-02.2680,-00.6270,-09.2630,+00.493945,-01.954293,-00.545691
+081.464,-026.045,+006.541,+1.008,-0.842,+2.226,-03.5400,-01.5030,-09.1580,+00.648261,-02.763254,-00.789942
+079.871,-030.031,+008.178,+1.128,-0.782,+2.159,-00.0770,-00.9440,-10.9200,+00.837960,-04.177887,-00.673620
+078.398,-036.063,+010.080,+1.289,-0.777,+2.109,-02.3190,-02.3320,-10.0120,+00.944633,-06.067057,+00.025739
+077.402,-044.343,+012.259,+1.478,-0.706,+1.962,-08.8480,-03.2660,-09.2410,+01.541800,-07.966906,+01.112572
+076.286,-054.632,+014.946,+1.662,-0.709,+1.782,-01.9590,-01.7940,-12.2510,+01.873957,-09.104868,+01.832394
+074.937,-065.736,+018.340,+1.823,-0.760,+1.586,-10.7570,-03.2960,-16.8140,+02.099325,-09.522876,+02.460139
+072.467,-077.091,+023.390,+1.933,-0.743,+1.328,-08.6370,-03.8510,-24.3130,+02.138980,-09.336608,+03.191221
+081.815,-083.422,+015.451,+1.963,-0.828,+1.193,-19.7920,-08.5890,-63.7550,+00.801935,+00.303414,+02.276963
+100.185,-081.005,-001.362,+1.919,-0.875,+1.360,+01.8730,-05.8280,-17.4100,+01.226593,+03.141576,+01.664677
+105.902,-077.124,-006.131,+1.864,-0.815,+1.481,+02.8620,-06.0230,-05.2660,+00.367247,+03.291472,+00.891720
+105.842,-073.490,-006.524,+1.844,-0.824,+1.585,+01.5950,-06.4980,-09.2010,-00.796209,+03.203983,-00.027412
+102.489,-069.168,-004.669,+1.828,-0.779,+1.726,-00.7900,-04.3980,-13.9630,-01.242207,+04.326903,-00.861210
+098.265,-063.438,-001.899,+1.731,-0.669,+1.978,-02.7490,-00.8220,-11.7270,-00.725418,+05.449265,-01.319484
+094.999,-056.744,+000.498,+1.506,-0.580,+2.209,-05.1310,+01.3560,-10.2920,-00.202734,+06.059205,-01.301034
+093.056,-049.518,+002.120,+1.147,-0.538,+2.359,-06.4520,+01.5800,-10.4470,+00.178227,+06.393639,-01.066254
+091.989,-042.056,+003.092,+0.815,-0.545,+2.285,-07.4020,+00.7500,-09.3920,+00.147225,+06.472448,-00.891405
+091.337,-034.786,+003.630,+0.645,-0.625,+2.235,-08.3910,-00.3350,-08.2690,+00.066372,+06.184629,-00.785617
+090.788,-028.077,+003.982,+0.557,-0.794,+2.211,-09.0470,-02.5250,-08.2560,+00.108950,+05.551476,-00.845509
+089.815,-022.208,+004.524,+0.676,-0.922,+2.234,-09.6710,-05.8990,-12.7950,+00.093344,+04.785019,-01.357632
+088.169,-016.563,+005.240,+0.794,-0.976,+2.550,-12.6920,-09.2860,-18.7870,+00.172583,+04.911454,-02.077832
+085.592,-010.554,+005.872,+0.627,-0.953,+2.950,-15.9980,-10.9460,-15.1060,-00.108062,+04.973074,-03.032279
+082.198,-004.797,+005.911,+0.212,-0.943,+3.082,-18.9270,-10.0640,-11.5440,-00.445776,+04.496762,-03.616791
+078.411,+000.433,+005.653,-0.069,-0.953,+2.941,-21.3530,-09.5120,-10.4310,-00.211801,+04.064545,-03.797151
+074.383,+005.111,+005.391,-0.208,-1.009,+2.833,-21.5220,-10.4040,-05.2880,+00.031028,+03.458974,-03.960198
+069.932,+008.829,+005.338,-0.222,-1.014,+2.693,-23.6470,-04.9780,-01.4980,+00.850492,+02.488174,-04.191421
+065.456,+011.263,+005.757,-0.196,-1.007,+2.657,-26.4190,-03.2290,+03.6660,+00.973378,+01.250392,-03.889684
+061.321,+011.988,+006.018,-0.125,-1.010,+2.665,-26.4860,-00.0740,+05.1410,+01.011689,-00.312602,-03.359529
+057.808,+011.054,+006.431,0.000,-0.982,+2.660,-23.4820,+00.2030,+01.8230,+00.916934,-01.591218,-02.606360
+054.931,+009.503,+006.804,+0.092,-0.956,+2.677,+13.5270,+11.1580,-29.1320,-00.011676,-01.274938,-01.785071
+054.884,+006.993,+007.760,+0.147,-0.964,+2.698,+01.3440,+11.3420,+05.4320,+01.013780,-02.921255,+00.987728
+055.359,+003.050,+009.506,+0.258,-0.847,+2.676,-09.2110,-11.3450,-18.4280,+00.872184,-02.926872,+00.543157
+055.203,-000.196,+010.098,+0.345,-0.902,+2.658,-02.6480,-03.6130,-12.5480,+00.830999,-02.800561,+00.406781
+055.083,-003.374,+011.272,+0.419,-0.859,+2.672,-04.5190,-05.3150,-13.7980,+01.011976,-02.699596,+00.455335
+054.794,-006.713,+012.082,+0.525,-0.830,+2.628,-02.5520,-05.0960,-10.9930,+00.499519,-02.979272,+00.286522
+054.229,-009.905,+011.770,+0.619,-0.832,+2.582,-05.7510,-02.7170,-14.1080,-00.870528,-02.431837,-00.008817
+053.739,-011.657,+010.233,+0.677,-0.930,+2.577,-02.7410,-00.8720,-11.1330,-01.230070,-01.335932,-00.072670
+053.695,-012.811,+009.462,+0.714,-0.951,+2.525,-02.0820,-02.6250,-09.5010,-00.551873,-00.914292,+00.194344
+053.926,-013.768,+008.856,+0.730,-0.966,+2.512,-04.1310,-02.2310,-10.6590,-00.507215,-00.610222,+00.337876
+054.136,-014.256,+008.369,+0.741,-0.990,+2.500,-03.2090,-01.3800,-09.7760,-00.311824,-00.301753,+00.186471
+054.250,-014.501,+008.021,+0.750,-1.005,+2.484,-02.7530,-01.4320,-09.2270,-00.262918,-00.147551,+00.106373
+054.367,-014.681,+007.674,+0.736,-1.008,+2.465,-02.6710,-01.3860,-09.0400,-00.293234,-00.145298,+00.132048
+054.518,-014.853,+007.290,+0.750,-1.035,+2.457,-02.5420,-01.0710,-09.1330,-00.295634,-00.126872,+00.160102
+054.720,-015.021,+006.927,+0.741,-1.010,+2.462,-02.7710,-01.0890,-09.0730,-00.265513,-00.123591,+00.199797
+054.914,-015.166,+006.586,+0.736,-1.045,+2.427,-02.7280,-00.9910,-09.0090,-00.238654,-00.102104,+00.156614
+055.058,-015.277,+006.301,+0.750,-1.060,+2.447,-02.8050,-00.9410,-09.0310,-00.203465,-00.070404,+00.119082
+055.165,-015.359,+006.058,+0.741,-1.055,+2.430,-02.7300,-00.8900,-09.0150,-00.177198,-00.053552,+00.085038
+055.256,-015.433,+005.827,+0.736,-1.047,+2.414,-02.7810,-01.0050,-09.0270,-00.182803,-00.057036,+00.087678
+055.386,-015.514,+005.572,+0.727,-1.084,+2.430,-02.6680,-00.8520,-09.0020,-00.194547,-00.058950,+00.137780
+055.571,-015.599,+005.290,+0.741,-1.079,+2.404,-02.8140,-00.7990,-08.9840,-00.205168,-00.059197,+00.168749
+055.729,-015.685,+005.026,+0.732,-1.089,+2.395,-02.8700,-00.7190,-09.0410,-00.185329,-00.067722,+00.111134
+055.820,-015.773,+004.798,+0.732,-1.124,+2.409,-02.8370,-00.7080,-09.0200,-00.173798,-00.068422,+00.072296
+055.886,-015.857,+004.590,+0.736,-1.075,+2.387,-02.8740,-00.6210,-08.9770,-00.161340,-00.068386,+00.052227
+055.935,-015.939,+004.392,+0.736,-1.114,+2.369,-02.8800,-00.5500,-08.9750,-00.164711,-00.072676,+00.037065
+055.978,-016.043,+004.170,+0.736,-1.129,+2.388,-02.7350,-00.5850,-08.9880,-00.199784,-00.098332,+00.047859
+056.034,-016.192,+003.895,+0.750,-1.124,+2.367,-02.7260,-00.6060,-08.9890,-00.237368,-00.138710,+00.064472
+056.115,-016.376,+003.590,+0.734,-1.141,+2.358,-02.6710,-00.5630,-08.9500,-00.253751,-00.163935,+00.082359
+056.224,-016.617,+003.255,+0.755,-1.163,+2.373,-02.7080,-00.2870,-09.0220,-00.268629,-00.236001,+00.105144
+056.307,-016.992,+002.931,+0.759,-1.168,+2.346,-02.6280,-00.4890,-09.0400,-00.259208,-00.378533,+00.088312
+056.379,-017.552,+002.621,+0.768,-1.139,+2.322,-02.7380,-00.4090,-08.9870,-00.251547,-00.562434,+00.085278
+056.515,-018.374,+002.299,+0.787,-1.179,+2.321,-02.9700,-00.4750,-08.9320,-00.245561,-00.813108,+00.178047
+056.718,-019.604,+001.948,+0.824,-1.179,+2.290,-02.9970,-00.5970,-08.9150,-00.253915,-01.218711,+00.240591
+056.994,-021.390,+001.617,+0.858,-1.182,+2.243,-03.2350,-00.6770,-09.1360,-00.157708,-01.771698,+00.270039
+057.247,-023.914,+001.390,+0.916,-1.205,+2.241,-03.4800,-01.0280,-10.4380,-00.049277,-02.513679,+00.305946
+057.787,-027.682,+001.205,+1.003,-1.172,+2.175,-00.9000,-02.4520,-11.0130,-00.039493,-03.790670,+00.749441
+059.483,-033.138,-000.873,+1.111,-1.249,+2.065,-02.4490,-04.3300,-10.4860,-01.892811,-05.357133,+01.613185
+063.214,-040.681,-007.209,+1.214,-1.362,+1.864,-06.1690,-05.2300,-13.7880,-04.787983,-07.599794,+02.458285
+070.600,-048.915,-019.125,+1.301,-1.566,+1.446,-06.5690,-01.9430,-19.1030,-06.233124,-07.989633,+03.010898
+080.855,-054.195,-034.909,+1.291,-1.713,+1.055,-08.8550,-08.2260,-21.3270,-07.779663,-05.864394,+02.335270
+088.418,-057.123,-050.143,+1.290,-1.747,+0.642,-03.3040,-11.9360,-37.9850,-06.679987,-02.608097,-00.066718
+083.767,-058.049,-049.460,+1.415,-1.661,+0.492,-01.9770,-13.9620,-19.7690,-02.429429,+02.322663,-02.942832
+074.849,-058.845,-044.326,+1.588,-1.550,+0.480,-00.1310,-05.2510,-06.0900,-02.243163,+02.433055,-03.369783
+066.342,-059.280,-039.629,+1.742,-1.409,+0.461,-00.3710,-00.3050,-08.3940,-02.178331,+02.262764,-02.846846
+058.444,-058.435,-034.797,+1.862,-1.287,+0.460,-01.2240,+00.0790,-12.3710,-01.370096,+03.104194,-02.104769
+051.033,-055.799,-029.744,+2.005,-1.195,+0.530,-01.8300,-03.1210,-11.8120,-00.904875,+04.208397,-01.570169
+044.235,-051.867,-025.104,+2.139,-1.171,+0.718,-02.9810,-06.3460,-09.4730,-00.643464,+04.882314,-01.573268
+037.727,-047.286,-020.624,+2.264,-1.073,+0.943,-04.2520,-08.6100,-08.7440,-00.246012,+05.221104,-02.043831
+031.099,-042.323,-016.011,+2.384,-0.979,+1.269,-05.7690,-09.9880,-08.1570,+00.025629,+05.452272,-02.838177
+024.380,-037.198,-011.646,+2.408,-0.820,+1.719,-07.3540,-09.0150,-08.8330,+00.099704,+05.393942,-03.549845
+017.986,-031.802,-007.747,+2.211,-0.565,+2.132,-09.1790,-05.2490,-10.3400,+00.392406,+05.412358,-03.771154
+012.622,-026.162,-004.208,+1.926,-0.389,+2.301,-10.0610,-02.3170,-10.4800,+01.066870,+05.206146,-03.361157
+008.625,-020.785,-001.386,+1.719,-0.323,+2.409,-09.7710,-02.9820,-10.4600,+00.889051,+04.580462,-02.727652
+005.810,-015.996,+000.479,+1.567,-0.208,+2.434,-10.8190,-03.3100,-14.0690,+00.964377,+04.061142,-02.064639
+003.739,-011.831,+002.397,+1.496,-0.124,+2.462,-10.1390,-04.0840,-08.6800,+01.402116,+03.156880,-01.724821
+002.126,-009.092,+004.598,+1.484,-0.054,+2.552,-12.8060,-02.4550,-10.0170,+01.831700,+01.852690,-01.398793
+000.934,-007.105,+007.249,+1.471,+0.118,+2.604,-16.5280,-01.3190,-14.3380,+02.384213,+01.607495,-01.132745
-000.141,-004.813,+010.332,+1.400,+0.348,+2.669,-18.3730,-01.5440,-15.3470,+02.568315,+02.007793,-01.337290
-001.497,-001.963,+012.524,+1.274,+0.440,+2.759,-19.2410,-01.3010,-11.7350,+01.260635,+02.272539,-01.856437
-003.125,+001.058,+012.804,+1.136,+0.535,+2.784,-21.7130,+03.0260,-07.3770,-00.221063,+02.287089,-01.938543
-004.197,+004.050,+012.568,+1.009,+0.524,+2.787,-22.9430,+06.9870,+02.2840,+00.088225,+02.241848,-01.145815
-004.458,+005.960,+013.588,+0.919,+0.577,+2.823,-22.7550,+06.2530,+08.2250,+01.408640,+01.105270,-00.308485
-004.515,+006.241,+015.306,+0.892,+0.651,+2.800,-20.5360,+01.3610,+06.5010,+01.344509,-00.326086,-00.037769
-005.314,+003.959,+012.891,+0.974,+0.576,+2.782,+00.7200,+00.0750,-21.3500,-02.626963,-01.760290,-00.354931
-005.583,+001.215,+010.772,+1.057,+0.511,+2.776,-01.2670,+04.7530,-11.5540,-02.905123,-02.909668,+00.725051
-005.342,-002.651,+008.615,+1.191,+0.426,+2.697,-11.3990,+07.2690,-12.2420,-01.472101,-03.374833,+00.754711
-005.431,-005.902,+007.058,+1.296,+0.378,+2.632,-02.5530,-04.6870,-10.6860,-01.085415,-02.823571,-00.029495
-006.209,-009.282,+006.636,+1.407,+0.345,+2.589,-02.4970,+02.6460,-12.4410,-00.153813,-03.198780,-00.351479
-006.620,-012.083,+006.296,+1.494,+0.334,+2.512,-07.9550,-07.7440,+06.3570,-00.578889,-01.677196,-00.293230
-006.705,-013.485,+005.830,+1.547,+0.360,+2.474,-00.8530,+03.1960,-08.9380,-00.043321,-00.984233,+00.275750
-006.513,-014.162,+005.760,+1.568,+0.303,+2.489,-03.9530,-01.2510,-09.7760,-00.196035,-00.413166,+00.117479
-006.356,-014.504,+005.502,+1.577,+0.323,+2.446,-01.9650,-01.7480,-09.2560,-00.225536,-00.254003,+00.248066
-005.961,-014.816,+005.052,+1.572,+0.305,+2.449,-03.7240,-00.9400,-09.3390,-00.326382,-00.205288,+00.334763
-005.778,-015.000,+004.720,+1.591,+0.269,+2.474,-02.5030,-00.4440,-09.0490,-00.170283,-00.129246,+00.100017
-005.741,-015.111,+004.599,+1.600,+0.283,+2.426,-02.6950,-00.3870,-08.9730,-00.054754,-00.070549,+00.000389
-005.772,-015.170,+004.545,+1.598,+0.276,+2.434,-02.6390,-01.2300,-09.0430,-00.075396,-00.061762,-00.009256
-005.720,-015.271,+004.406,+1.595,+0.244,+2.458,-02.7290,-01.1360,-09.0270,-00.125614,-00.087839,+00.088192
-005.599,-015.378,+004.223,+1.595,+0.273,+2.447,-02.7430,-00.7320,-08.9900,-00.123953,-00.081186,+00.111370
-005.457,-015.469,+004.040,+1.598,+0.283,+2.421,-02.7990,-00.7310,-09.0270,-00.127559,-00.061521,+00.134076
-005.309,-015.540,+003.863,+1.609,+0.234,+2.459,-02.7480,-00.6090,-08.9200,-00.114083,-00.051753,+00.120017
-005.175,-015.592,+003.725,+1.605,+0.244,+2.421,-02.6390,-00.6670,-09.0070,-00.082577,-00.034976,+00.123618
-005.015,-015.653,+003.585,+1.614,+0.236,+2.438,-02.6620,-00.6690,-08.9380,-00.091952,-00.053593,+00.142356
-004.821,-015.745,+003.420,+1.614,+0.209,+2.454,-02.7520,-00.6640,-08.9960,-00.098831,-00.077137,+00.180415
-004.598,-015.849,+003.243,+1.605,+0.219,+2.421,-02.8070,-00.6540,-09.0190,-00.101388,-00.080771,+00.202887
-004.350,-015.950,+003.077,+1.621,+0.204,+2.428,-02.8240,-00.5530,-08.9640,-00.071909,-00.074915,+00.208383
-004.116,-016.045,+002.946,+1.614,+0.204,+2.449,-02.7970,-00.6430,-08.9540,-00.054532,-00.074979,+00.201401
-003.865,-016.169,+002.812,+1.623,+0.189,+2.422,-02.8450,-00.6020,-08.9610,-00.059892,-00.116857,+00.221266
-003.608,-016.343,+002.667,+1.625,+0.192,+2.417,-02.9980,-00.5650,-08.9580,-00.064703,-00.153470,+00.215886
-003.420,-016.553,+002.522,+1.637,+0.165,+2.418,-02.7880,-00.2810,-09.0410,-00.088847,-00.188386,+00.118932
-003.411,-016.783,+002.446,+1.641,+0.214,+2.412,-02.8940,-00.4440,-08.9940,-00.061625,-00.231971,-00.040941
-003.609,-017.130,+002.473,+1.646,+0.182,+2.391,-02.9290,-00.2940,-09.0960,-00.010287,-00.355379,-00.227103
-004.048,-017.637,+002.566,+1.660,+0.204,+2.408,-02.8440,-00.5320,-08.9880,-00.057044,-00.540621,-00.408598
-004.666,-018.413,+002.700,+1.678,+0.208,+2.366,-02.8670,-00.4760,-08.9830,-00.032931,-00.784384,-00.510960
-005.323,-019.498,+002.954,+1.713,+0.240,+2.324,-04.6880,-01.0190,-09.1580,+00.073447,-01.085482,-00.537522
-006.240,-020.921,+003.463,+1.761,+0.246,+2.299,-03.7680,-00.6860,-09.1780,+00.276558,-01.391426,-00.811180
-007.590,-022.738,+004.452,+1.812,+0.280,+2.242,-02.7510,-00.9600,-09.2620,+00.512177,-01.840132,-01.060726
-009.340,-025.164,+006.000,+1.872,+0.355,+2.177,-04.8620,-01.4870,-08.9370,+00.792852,-02.494302,-01.329861
-011.725,-028.712,+008.179,+1.955,+0.440,+2.076,-02.7360,-01.2280,-09.9060,+01.056287,-03.891422,-01.431425
-014.087,-034.232,+010.845,+2.074,+0.506,+1.866,-03.2210,-01.7650,-09.1810,+01.435095,-05.824946,-00.462876
-015.731,-042.159,+013.889,+2.212,+0.513,+1.586,-03.2270,-00.9140,-14.7390,+02.131435,-07.646969,+00.946898
-017.331,-052.347,+017.323,+2.331,+0.486,+1.261,-05.0010,-01.0330,-14.2810,+01.935531,-09.250701,+01.769311
-019.794,-063.596,+021.250,+2.404,+0.404,+0.777,-12.0010,-04.7730,-14.2840,+01.394493,-09.792736,+02.181212
-026.497,-075.028,+029.707,+2.376,+0.279,+0.345,-09.7580,-01.9220,-17.4680,+02.188550,-10.102870,+02.512265
-046.654,-084.655,+051.685,+2.269,+0.131,-0.015,-13.1500,+03.5360,-35.9540,+01.153795,-05.995831,+03.645277
-014.721,-085.857,+020.951,+2.246,-0.006,-0.058,-00.7520,-03.1020,-35.6740,+01.529754,+02.444639,+02.266797
+010.650,-081.367,-002.832,+2.264,-0.111,+0.102,+00.8670,-06.0100,-11.2960,+00.944103,+04.602185,+01.481007
+014.387,-076.092,-006.184,+2.292,-0.182,+0.278,+01.0300,-06.5950,-04.7390,-00.131527,+04.436644,+00.674985
+012.907,-070.997,-005.798,+2.325,-0.186,+0.446,-00.4030,-06.9620,-08.7670,-01.303313,+04.584275,-00.244485
+009.373,-065.284,-004.197,+2.364,-0.179,+0.616,-02.7550,-04.3760,-11.1160,-01.400514,+05.397522,-00.967845
+005.589,-058.677,-001.847,+2.376,-0.121,+0.866,-03.7340,-01.2260,-09.2720,-00.474876,+06.034701,-01.345506
+002.673,-051.540,+000.482,+2.381,-0.051,+1.123,-05.5300,-00.3170,-09.2470,+00.077597,+06.343292,-01.356321
+000.791,-044.186,+002.064,+2.301,+0.055,+1.448,-06.3510,+00.8380,-10.2690,+00.197655,+06.415483,-01.143240
-000.110,-036.786,+003.035,+2.133,+0.122,+1.743,-07.6780,+02.0760,-10.6220,+00.435766,+06.399924,-00.697915
-000.089,-029.510,+003.679,+1.926,+0.223,+1.889,-09.0110,+01.1920,-11.0740,+00.603002,+06.294909,-00.155871
+000.441,-022.678,+004.261,+1.772,+0.255,+2.072,-09.7150,-01.1170,-10.2200,+00.786882,+05.684417,+00.021166
+000.790,-016.745,+005.060,+1.618,+0.238,+2.282,-12.2120,-03.4700,-18.6670,+00.831191,+05.051259,-00.249114
+000.699,-010.632,+005.969,+1.397,+0.246,+2.412,-14.7650,-04.4320,-18.8840,+00.741023,+05.382999,-00.802216
+000.146,-004.651,+006.785,+1.215,+0.258,+2.530,-17.2720,-03.3300,-13.1010,+00.589254,+04.893359,-01.159033
-000.627,+000.534,+007.314,+1.066,+0.284,+2.612,-19.9880,-03.4780,-11.3680,+00.344999,+04.140661,-01.246768
-001.598,+005.011,+007.513,+0.905,+0.321,+2.658,-21.8160,-03.2260,-06.8040,+00.204100,+03.508111,-01.434554
-002.984,+008.607,+007.933,+0.801,+0.346,+2.693,-23.5340,+02.9580,-02.9600,+00.827462,+02.627568,-01.648119
-004.226,+011.118,+008.783,+0.721,+0.387,+2.724,-24.5960,+03.2350,+03.6680,+00.785632,+01.564763,-01.193524
-005.257,+011.949,+009.082,+0.698,+0.426,+2.734,-23.8590,+03.7030,+06.9300,+00.287677,-00.033832,-00.889267
-006.245,+011.051,+009.053,+0.732,+0.433,+2.738,-22.1950,+03.3410,+01.1380,+00.071136,-01.336600,-00.590389
-006.573,+008.803,+008.769,+0.808,+0.415,+2.749,+11.6830,+01.5110,-26.1540,-00.522431,-01.429402,+00.272786
-005.484,+005.594,+008.933,+0.923,+0.409,+2.690,+00.4970,-02.2030,-00.0930,-00.477489,-03.168382,+01.917752
-005.009,+001.527,+008.766,+1.066,+0.415,+2.635,-10.3420,-04.9940,-14.4960,-00.156973,-03.263965,+00.361155
-005.394,-002.297,+008.542,+1.195,+0.342,+2.574,-02.2160,-01.8140,-10.5200,+00.405025,-03.439019,+00.051401
-005.955,-006.464,+009.654,+1.347,+0.404,+2.500,-04.5870,-01.1200,-14.7650,+01.009365,-03.749115,+00.284559
-006.623,-010.544,+009.789,+1.480,+0.417,+2.396,-16.1240,-09.5180,-22.6330,-01.026178,-02.790996,-00.209565
-006.980,-012.077,+008.451,+1.526,+0.338,+2.401,-03.3110,+01.9220,-13.2050,-00.620226,-00.918135,+00.121685
-007.002,-012.819,+008.072,+1.563,+0.352,+2.354,-03.8840,-01.0560,-10.9660,-00.220299,-00.456908,+00.049637
-007.022,-013.132,+007.891,+1.570,+0.361,+2.346,-02.4920,-01.3190,-09.2860,-00.123106,-00.210150,+00.017557
-007.005,-013.440,+007.703,+1.586,+0.317,+2.339,-01.9030,-00.9720,-08.8880,-00.171653,-00.308614,+00.077217
-006.979,-013.741,+007.484,+1.591,+0.312,+2.329,-02.5990,-01.0610,-09.2780,-00.180003,-00.213861,+00.030782
-006.964,-013.960,+007.305,+1.598,+0.322,+2.327,-02.7150,-01.3020,-09.1960,-00.147953,-00.164493,+00.045279
-006.929,-014.103,+007.144,+1.600,+0.317,+2.335,-02.5210,-00.9860,-09.0770,-00.115203,-00.100979,+00.042202
-006.915,-014.228,+007.038,+1.605,+0.317,+2.308,-02.4560,-01.2270,-09.0120,-00.095364,-00.113425,+00.019735
-006.884,-014.365,+006.913,+1.602,+0.309,+2.316,-02.4390,-01.1410,-08.9750,-00.103416,-00.117936,+00.056541
-006.814,-014.505,+006.777,+1.600,+0.322,+2.324,-02.5940,-01.1620,-09.0000,-00.109641,-00.112146,+00.076307
-006.730,-014.623,+006.625,+1.623,+0.307,+2.314,-02.6720,-01.0450,-09.0800,-00.105420,-00.077622,+00.082448
-006.633,-014.697,+006.481,+1.621,+0.280,+2.304,-02.7060,-01.1810,-09.0100,-00.109716,-00.044993,+00.093644
-006.516,-014.758,+006.312,+1.628,+0.272,+2.342,-02.5320,-01.1730,-09.0010,-00.131481,-00.040279,+00.114614
-006.344,-014.836,+006.091,+1.623,+0.282,+2.309,-02.5710,-01.1530,-08.9530,-00.163604,-00.060845,+00.176410
-006.120,-014.936,+005.829,+1.634,+0.257,+2.294,-02.5880,-00.9510,-08.9770,-00.182742,-00.067264,+00.202249
-005.897,-015.040,+005.561,+1.632,+0.263,+2.336,-02.7190,-00.9700,-09.0030,-00.181265,-00.075153,+00.192920
-005.690,-015.147,+005.315,+1.623,+0.238,+2.315,-02.8100,-00.9010,-09.0270,-00.160609,-00.074502,+00.178797
-005.493,-015.254,+005.072,+1.637,+0.260,+2.299,-02.6700,-00.9290,-09.0000,-00.170136,-00.084354,+00.173508
-005.269,-015.399,+004.835,+1.637,+0.203,+2.321,-02.6940,-00.8940,-08.9790,-00.142302,-00.123466,+00.215963
-005.003,-015.584,+004.622,+1.646,+0.223,+2.300,-02.5630,-00.7230,-09.0150,-00.124226,-00.150879,+00.240505
-004.769,-015.804,+004.398,+1.641,+0.196,+2.268,-02.7320,-00.7490,-09.0820,-00.154403,-00.187544,+00.191209
-004.614,-016.092,+004.154,+1.660,+0.169,+2.301,-02.6340,-00.7080,-09.0600,-00.185632,-00.289700,+00.119760
-004.578,-016.542,+003.916,+1.660,+0.178,+2.279,-02.6090,-00.7190,-08.9930,-00.208526,-00.453912,+00.031285
-004.649,-017.214,+003.692,+1.689,+0.156,+2.259,-02.9380,-00.8030,-08.9400,-00.214166,-00.693423,-00.067762
-004.887,-018.202,+003.527,+1.710,+0.163,+2.244,-03.0720,-00.5470,-08.9190,-00.195717,-00.984901,-00.155920
-005.238,-019.554,+003.494,+1.747,+0.182,+2.171,-02.7990,-00.5730,-09.1080,-00.076509,-01.379044,-00.304569
-005.962,-021.509,+003.829,+1.802,+0.208,+2.143,-03.6420,-00.9540,-09.0990,+00.165798,-01.996461,-00.603025
-006.989,-024.211,+004.651,+1.857,+0.195,+2.090,-03.4980,-00.8810,-09.3960,+00.490673,-02.694631,-00.741972
-008.598,-027.994,+006.086,+1.954,+0.272,+1.954,-02.3940,-01.1140,-09.6170,+00.702739,-03.899449,-01.029103
-010.458,-033.695,+007.921,+2.074,+0.314,+1.752,-01.5060,-01.1240,-10.0430,+00.929734,-05.905351,-00.395397
-011.642,-041.850,+009.813,+2.193,+0.317,+1.535,-02.6520,+00.7720,-14.7600,+01.348405,-07.873461,+00.870105
-012.117,-052.279,+011.821,+2.331,+0.293,+1.107,-07.3930,-02.7930,-14.8600,+01.550465,-09.519571,+01.770638
-012.021,-063.681,+013.803,+2.378,+0.212,+0.705,-12.5720,-02.1550,-12.4380,+01.747201,-09.777135,+02.299706
-012.140,-075.231,+016.475,+2.348,+0.073,+0.343,-09.9190,-02.1150,-21.5340,+02.308795,-09.803534,+02.838050
-002.676,-084.085,+008.471,+2.269,-0.060,-0.003,-16.6190,-02.2450,-45.7250,-00.083165,-04.028660,+03.187795
+016.229,-082.281,-009.637,+2.285,-0.144,+0.077,+00.9200,-04.1320,-26.1840,+01.000175,+02.729219,+01.828028
+020.161,-077.959,-012.490,+2.320,-0.177,+0.301,+02.3930,-04.3180,-07.6500,+00.760419,+03.788333,+00.985336
+019.187,-073.574,-011.290,+2.288,-0.117,+0.476,+01.9260,-04.8060,-03.5570,-00.176572,+03.710441,+00.318733
+016.443,-069.398,-009.723,+2.240,-0.050,+0.559,+00.0620,-03.9310,-09.6200,-01.213845,+03.891073,-00.283667
+012.869,-064.273,-007.856,+2.219,+0.081,+0.632,-02.2700,-01.7770,-12.4150,-01.104464,+05.093316,-00.650850
+009.448,-058.028,-005.559,+2.298,+0.355,+0.671,-02.7050,-00.6030,-08.1120,-00.353196,+05.743204,-00.852068
+006.763,-051.410,-003.527,+2.508,+0.642,+0.863,-04.5250,-00.6850,-10.0710,-00.081548,+05.965741,-00.892334
+004.731,-044.311,-002.101,+2.632,+1.004,+1.314,-06.0850,-00.6150,-12.3250,-00.046914,+06.419236,-00.866054
+003.347,-036.759,-001.049,+2.490,+1.264,+1.900,-07.8910,+00.3160,-11.6880,+00.254370,+06.692638,-00.630121
+002.696,-029.284,-000.241,+2.046,+1.187,+2.431,-08.6750,+00.0070,-06.3610,+00.453961,+06.249029,-00.278561
+002.437,-023.138,+000.595,+1.454,+0.910,+2.678,-08.8740,-01.3320,-08.8430,+00.653930,+04.770680,-00.234577
+002.374,-017.726,+001.668,+0.891,+0.615,+2.580,-11.9850,-01.6520,-21.6210,+00.984618,+04.958326,-00.111053
+002.491,-012.075,+002.905,+0.619,+0.428,+2.328,-12.5430,-02.2310,-16.7670,+01.143473,+04.807510,-00.124276
+002.552,-006.933,+004.257,+0.568,+0.268,+2.161,-14.8700,-02.7480,-16.1360,+01.166423,+04.283376,-00.309127
+002.500,-002.141,+005.359,+0.683,+0.202,+2.075,-17.8680,-01.0300,-16.6550,+00.856920,+04.131729,-00.406098
+002.466,+002.662,+006.505,+0.722,+0.163,+2.150,-19.1970,+01.2090,-11.7310,+01.122719,+04.170223,-00.521779
+002.360,+007.214,+007.917,+0.706,+0.149,+2.275,-21.8930,+02.9750,-04.8670,+01.205660,+03.726696,-00.544746
+002.351,+010.775,+008.686,+0.655,+0.189,+2.348,-23.7140,+03.1940,+05.6920,+00.456720,+02.563186,-00.444052
+001.986,+012.729,+009.221,+0.614,+0.195,+2.399,-25.4960,+02.6630,+07.3630,+00.555182,+01.130209,-00.714213
+000.757,+013.188,+009.073,+0.628,+0.190,+2.454,-23.2750,+00.6780,+05.2560,-00.290506,-00.331293,-01.332393
-000.754,+011.701,+008.022,+0.706,+0.199,+2.414,+01.3800,+05.5940,-11.7850,-00.152153,-02.255336,-00.692366
-000.101,+009.443,+007.575,+0.789,+0.163,+2.375,+09.1400,+04.0750,-19.3420,-00.674341,-02.280128,+01.893952
+000.428,+005.516,+006.238,+0.918,+0.093,+2.365,-13.3410,-00.9680,+00.5520,-00.813323,-04.084683,+00.133357
-000.277,+001.653,+006.160,+1.074,+0.091,+2.286,-03.5180,+10.7210,-18.4960,-00.012762,-02.974322,-00.082459
-000.422,-001.963,+007.228,+1.180,+0.114,+2.213,-02.3800,-04.8380,-12.2660,+01.229764,-03.057085,+00.171289
-001.020,-005.722,+008.554,+1.286,+0.142,+2.156,-02.2200,-08.0180,-09.0290,+01.033056,-03.616445,-00.119902
-001.695,-009.997,+008.870,+1.429,+0.150,+2.039,-14.1710,-00.5130,-24.9590,-00.292071,-02.991665,+00.089441
-001.922,-011.641,+008.306,+1.466,+0.159,+1.992,-03.8560,-01.5170,-12.8450,-00.317269,-01.002477,+00.055011
-001.928,-012.453,+008.028,+1.498,+0.125,+1.994,-02.1330,-01.3910,-09.8130,-00.241212,-00.626515,+00.136463
-001.765,-013.128,+007.634,+1.507,+0.105,+1.973,-02.5880,-01.2440,-09.5780,-00.350452,-00.541786,+00.242210
-001.609,-013.521,+007.244,+1.523,+0.092,+1.952,-02.8500,-00.5450,-09.4360,-00.262073,-00.249147,+00.133246
-001.541,-013.796,+007.006,+1.521,+0.075,+1.952,-02.5990,-00.8190,-09.2460,-00.164867,-00.222051,+00.058464
-001.544,-014.019,+006.806,+1.521,+0.090,+1.920,-02.5320,-01.0990,-09.1630,-00.195292,-00.174625,+00.006002
-001.522,-014.228,+006.529,+1.528,+0.085,+1.937,-02.6560,-01.5520,-09.0980,-00.243661,-00.168131,+00.065740
-001.407,-014.391,+006.218,+1.539,+0.045,+1.932,-02.5570,-01.1710,-09.1290,-00.245410,-00.111030,+00.139324
-001.259,-014.515,+005.926,+1.544,+0.060,+1.911,-02.5650,-01.0010,-09.0130,-00.202406,-00.086882,+00.127990
-001.111,-014.625,+005.668,+1.548,+0.057,+1.913,-02.5330,-00.8540,-08.9940,-00.196875,-00.087583,+00.138457
-000.932,-014.723,+005.382,+1.544,+0.060,+1.927,-02.5670,-01.0190,-09.0120,-00.225835,-00.066140,+00.178404
-000.687,-014.820,+005.041,+1.553,+0.020,+1.917,-02.7100,-01.0060,-08.9690,-00.243396,-00.063618,+00.226764
-000.425,-014.909,+004.714,+1.548,+0.030,+1.914,-02.6640,-00.7320,-08.9480,-00.212680,-00.056096,+00.222497
-000.182,-014.989,+004.410,+1.553,+0.016,+1.917,-02.6430,-00.7370,-08.9590,-00.209901,-00.057820,+00.204299
+000.047,-015.076,+004.116,+1.548,-0.004,+1.901,-02.6210,-00.7350,-09.0060,-00.207450,-00.063522,+00.197890
+000.285,-015.176,+003.819,+1.550,-0.007,+1.887,-02.7250,-00.7520,-08.9470,-00.197699,-00.082078,+00.212706
+000.552,-015.301,+003.532,+1.557,-0.029,+1.923,-02.6790,-00.7220,-08.9900,-00.182558,-00.105135,+00.240347
+000.855,-015.469,+003.262,+1.557,-0.019,+1.896,-02.7210,-00.6080,-08.9850,-00.155067,-00.147142,+00.275843
+001.156,-015.687,+003.018,+1.560,-0.039,+1.885,-02.6320,-00.6390,-09.0370,-00.143551,-00.195449,+00.253263
+001.410,-015.970,+002.773,+1.566,-0.078,+1.897,-02.6000,-00.2900,-09.1230,-00.167490,-00.253801,+00.192080
+001.539,-016.340,+002.551,+1.576,-0.054,+1.865,-02.8450,-00.3390,-09.0430,-00.163185,-00.368888,+00.078062
+001.516,-016.882,+002.377,+1.578,-0.069,+1.849,-02.9340,-00.3870,-08.9760,-00.153295,-00.545179,-00.042508
+001.347,-017.678,+002.249,+1.589,-0.029,+1.854,-02.4090,-00.3200,-09.0190,-00.146578,-00.813696,-00.145543
+001.048,-018.791,+002.196,+1.626,-0.045,+1.824,-03.2120,-00.2820,-09.1490,-00.106606,-01.081892,-00.241949
+000.559,-020.339,+002.305,+1.654,-0.070,+1.766,-03.4180,-00.6230,-09.1720,-00.006139,-01.564524,-00.426286
-000.079,-022.538,+002.761,+1.700,-0.056,+1.747,-01.4990,-00.3160,-09.4170,+00.316603,-02.189602,-00.484068
-001.044,-025.520,+003.754,+1.750,+0.007,+1.620,-03.4790,-00.9970,-09.2810,+00.569739,-02.993698,-00.768526
-002.667,-029.824,+005.206,+1.826,+0.045,+1.521,+00.0050,-00.8460,-10.7620,+00.599359,-04.466791,-00.952961
-004.177,-036.457,+006.696,+1.921,+0.068,+1.370,-02.4680,-01.0790,-10.3900,+00.547844,-06.709196,-00.162358
-004.866,-045.508,+008.049,+2.022,+0.051,+1.063,-07.4320,-02.5680,-08.6280,+00.929481,-08.651778,+00.952885
-004.518,-056.678,+008.970,+2.079,+0.002,+0.742,-06.6280,-02.7170,-11.0840,+01.221962,-09.924143,+02.089664
-003.127,-068.151,+008.857,+2.080,-0.096,+0.424,-08.5690,-03.2420,-17.2460,+01.523624,-09.805022,+02.291421
+002.841,-079.582,+005.050,+2.015,-0.180,+0.046,-07.8140,-04.4500,-27.7620,+01.581228,-09.275480,+02.826057
+024.505,-083.508,-015.294,+2.001,-0.282,-0.090,-12.4180,-08.3410,-51.4270,+00.664908,+00.865376,+01.489154
+027.475,-080.481,-017.159,+2.098,-0.329,+0.046,+01.6690,-06.2540,-15.7920,+00.737446,+03.174026,+00.764456
+023.998,-076.717,-013.507,+2.213,-0.334,+0.212,+02.4700,-05.0460,-05.7800,-00.152112,+03.341047,+00.067707
+019.676,-073.065,-010.265,+2.294,-0.322,+0.357,+00.7610,-04.7730,-08.8810,-01.171305,+03.410379,-00.546175
+014.703,-068.517,-007.236,+2.370,-0.280,+0.572,-02.0370,-03.0870,-14.3460,-01.507067,+04.695048,-00.914036
+010.401,-062.408,-004.678,+2.412,-0.210,+0.836,-02.9590,-00.3990,-09.9810,-00.901977,+05.788421,-01.014503
+007.383,-055.628,-002.502,+2.385,-0.188,+1.194,-04.3870,+00.7260,-08.2740,-00.074439,+06.077612,-00.920084
+005.566,-048.540,-000.825,+2.266,-0.121,+1.536,-05.6610,+00.1030,-09.6000,+00.304236,+06.271695,-00.735527
+004.485,-041.206,+000.224,+2.068,-0.054,+1.763,-07.1740,+00.3020,-12.2890,+00.206556,+06.509735,-00.548665
+004.093,-033.638,+000.809,+1.905,-0.044,+1.970,-08.3070,+00.9430,-09.7590,+00.415438,+06.596616,-00.187325
+004.294,-026.526,+001.405,+1.733,-0.059,+2.177,-08.6260,-00.5790,-06.4500,+00.717118,+05.841357,+00.141528
+004.600,-020.882,+002.184,+1.576,-0.071,+2.283,-09.0970,-01.6460,-12.1160,+00.890492,+04.406890,+00.043168
+004.825,-015.648,+003.493,+1.456,-0.067,+2.355,-11.3260,-02.2360,-18.6100,+01.325105,+04.704687,-00.101825
+004.897,-010.585,+005.191,+1.369,-0.014,+2.514,-12.5630,-02.5790,-13.6530,+01.591812,+04.148901,-00.401783
+004.579,-006.218,+007.158,+1.222,+0.101,+2.679,-16.1860,-04.1790,-16.3220,+01.658461,+03.609455,-00.869573
+003.726,-001.870,+008.649,+1.043,+0.202,+2.775,-19.6890,-05.2180,-16.0890,+00.912981,+03.722605,-01.503511
+002.307,+002.616,+009.162,+0.836,+0.258,+2.848,-20.5860,-01.6220,-07.9620,+00.277162,+03.555721,-01.984789
+000.770,+006.562,+009.533,+0.647,+0.334,+2.839,-23.0830,+04.4250,-03.1990,+00.640709,+02.967076,-01.654477
-000.050,+009.581,+010.254,+0.532,+0.382,+2.815,-23.5340,+03.8940,+05.3000,+00.728133,+02.047701,-00.890906
-000.695,+011.000,+010.881,+0.481,+0.434,+2.815,-23.3500,+02.0070,+06.0660,+00.606202,+00.560687,-00.803528
-001.886,+011.134,+010.921,+0.472,+0.414,+2.783,-22.1090,+02.3530,+01.3510,-00.034076,-00.408612,-01.109642
-002.488,+009.012,+009.979,+0.534,+0.411,+2.761,+02.8740,+06.4650,-24.3600,-00.771711,-01.252022,+00.205608
-001.500,+005.862,+009.929,+0.629,+0.378,+2.763,+01.0130,-01.8580,-03.9850,-00.516086,-02.914536,+01.857490
-001.532,+001.514,+009.691,+0.780,+0.376,+2.695,-12.5170,-00.8230,-17.3870,+00.197729,-03.701678,+00.126845
-002.058,-002.199,+010.017,+0.891,+0.377,+2.627,-02.4880,+01.6700,-10.6720,+00.811722,-03.331943,+00.191266
-002.645,-006.174,+011.340,+1.011,+0.413,+2.581,-03.1950,-08.2540,-12.7360,+01.057215,-03.538528,+00.087284
-003.591,-010.011,+011.248,+1.130,+0.426,+2.474,-11.0740,-05.4840,-19.9290,-01.224553,-02.735933,-00.257005
-004.013,-011.468,+009.679,+1.174,+0.374,+2.476,-04.7070,+02.3900,-14.3650,-00.741491,-00.847463,+00.041860
-004.167,-012.021,+009.232,+1.181,+0.337,+2.471,-03.1970,-01.0030,-10.5370,-00.270630,-00.319394,-00.069653
-004.226,-012.242,+009.099,+1.213,+0.380,+2.451,-01.1630,-00.9120,-08.7630,-00.133271,-00.217882,+00.014804
-004.198,-012.596,+008.945,+1.206,+0.339,+2.459,-02.7820,-01.8860,-09.6800,-00.134838,-00.305036,+00.090620
-004.199,-012.824,+008.786,+1.218,+0.336,+2.452,-02.4500,-01.1740,-09.2580,-00.106870,-00.156378,+00.016177
-004.205,-012.960,+008.710,+1.222,+0.375,+2.441,-02.6980,-01.1160,-09.3840,-00.022031,-00.083140,+00.010301
-004.199,-013.026,+008.722,+1.220,+0.348,+2.438,-02.0700,-01.5730,-08.9240,-00.003505,-00.065003,+00.018375
-004.144,-013.139,+008.635,+1.227,+0.351,+2.457,-02.3100,-01.6860,-08.9590,-00.098569,-00.100366,+00.085566
-004.030,-013.264,+008.499,+1.231,+0.321,+2.442,-02.5650,-01.3990,-09.1670,-00.071670,-00.083089,+00.117133
-003.932,-013.345,+008.437,+1.225,+0.348,+2.433,-02.5860,-01.3640,-09.0620,-00.026742,-00.044037,+00.075437
-003.867,-013.394,+008.380,+1.227,+0.321,+2.458,-02.4470,-01.3190,-09.0070,-00.045321,-00.023234,+00.058632
-003.792,-013.427,+008.278,+1.231,+0.321,+2.431,-02.3060,-01.5260,-08.9340,-00.102630,-00.022485,+00.076922
-003.693,-013.485,+008.080,+1.234,+0.321,+2.439,-02.4160,-01.5260,-08.9360,-00.179083,-00.045276,+00.093532
-003.577,-013.564,+007.836,+1.236,+0.316,+2.463,-02.4740,-01.3210,-09.0330,-00.185824,-00.059767,+00.114196
-003.453,-013.654,+007.599,+1.250,+0.316,+2.437,-02.4280,-01.2440,-09.0300,-00.177397,-00.066189,+00.108681
-003.330,-013.767,+007.368,+1.243,+0.287,+2.426,-02.3520,-01.3230,-08.9840,-00.170721,-00.098931,+00.129848
-003.178,-013.930,+007.166,+1.241,+0.272,+2.453,-02.5020,-01.2260,-09.0240,-00.127553,-00.139132,+00.151696
-003.021,-014.128,+006.996,+1.250,+0.257,+2.427,-02.5300,-01.1600,-09.0760,-00.114149,-00.160849,+00.150972
-002.874,-014.335,+006.816,+1.257,+0.257,+2.427,-02.5110,-01.1680,-08.9960,-00.142577,-00.167070,+00.145804
-002.715,-014.551,+006.612,+1.254,+0.252,+2.438,-02.4430,-01.1710,-08.9820,-00.143573,-00.171019,+00.161612
-002.570,-014.777,+006.402,+1.254,+0.262,+2.416,-02.5460,-01.2070,-08.9930,-00.158232,-00.198044,+00.123369
-002.519,-015.116,+006.163,+1.277,+0.242,+2.401,-02.6440,-01.2370,-08.9820,-00.219987,-00.351169,+00.042023
-002.585,-015.626,+005.890,+1.296,+0.257,+2.429,-02.4110,-01.0540,-08.9300,-00.260135,-00.511367,-00.041013
-002.779,-016.351,+005.667,+1.314,+0.241,+2.382,-02.3170,-01.0750,-08.9870,-00.238296,-00.724620,-00.122998
-003.058,-017.314,+005.525,+1.333,+0.239,+2.372,-03.1190,-01.0040,-09.0650,-00.146231,-00.957134,-00.169847
-003.526,-018.600,+005.580,+1.379,+0.241,+2.363,-02.5810,-00.9400,-09.4320,-00.015890,-01.304846,-00.376615
-004.422,-020.431,+006.060,+1.438,+0.240,+2.291,-01.7460,-01.0590,-09.3910,+00.242222,-01.890471,-00.612475
-005.623,-022.932,+006.966,+1.508,+0.281,+2.240,-03.7220,-01.3840,-09.3260,+00.514504,-02.567395,-00.823344
-007.356,-026.637,+008.528,+1.600,+0.311,+2.163,-00.2210,-01.6650,-10.4370,+00.815495,-03.982481,-00.918823
-008.965,-032.537,+010.484,+1.751,+0.377,+1.960,-04.4710,-02.8550,-08.4280,+01.226002,-06.100943,+00.162154
-009.631,-041.099,+012.651,+1.924,+0.379,+1.713,-04.8500,-00.6550,-12.1350,+01.881678,-08.227982,+01.656298
-010.032,-051.906,+014.731,+2.092,+0.312,+1.391,-03.3670,-01.2720,-13.9280,+01.774470,-09.523471,+02.301370
-010.442,-063.417,+017.191,+2.206,+0.225,+0.952,-12.2410,-03.0270,-14.7570,+01.734136,-09.655854,+02.563928
-012.496,-074.938,+021.335,+2.231,+0.112,+0.536,-08.6170,-03.7220,-19.1760,+01.694195,-09.660532,+02.896677
-010.980,-083.079,+020.185,+2.195,-0.024,+0.219,-22.8860,-07.5700,-57.8600,-00.136435,-02.715014,+02.232449
+004.697,-082.429,+004.600,+2.218,-0.083,+0.205,+00.4630,-05.3400,-27.2180,+00.267956,+02.351887,+01.252912
+010.611,-078.469,-000.972,+2.281,-0.147,+0.339,+01.8370,-04.1170,-08.6930,+00.129250,+03.776122,+00.480584
+011.068,-074.084,-001.746,+2.348,-0.167,+0.522,+01.3080,-03.4870,-04.4680,-00.555101,+03.817402,+00.025351
+009.914,-069.505,-001.828,+2.375,-0.117,+0.683,-01.1650,-03.2840,-10.7120,-01.278080,+04.251171,-00.291983
+008.113,-063.671,-001.830,+2.410,-0.126,+0.915,-03.7300,-02.1710,-13.7950,-01.433998,+05.661741,-00.530911
+006.295,-056.632,-001.567,+2.385,-0.149,+1.231,-04.2070,-00.7900,-07.5010,-00.925174,+06.294581,-00.632263
+004.846,-049.489,-001.019,+2.262,-0.111,+1.590,-05.0430,-01.3410,-06.4010,-00.332141,+06.177762,-00.629372
+003.607,-042.519,-000.312,+2.052,-0.086,+1.835,-06.1750,-02.2030,-09.8820,-00.102770,+06.071920,-00.710189
+002.526,-035.507,+000.299,+1.834,-0.080,+2.015,-07.7260,-02.9850,-11.9410,-00.016146,+06.139053,-00.737278
+001.566,-028.490,+000.939,+1.636,-0.024,+2.071,-08.6980,-03.4890,-10.8780,+00.217583,+06.049486,-00.789276
+000.720,-022.013,+001.962,+1.489,+0.015,+2.158,-09.2900,-02.9130,-08.8450,+00.788682,+05.267588,-00.832607
+000.021,-016.487,+003.502,+1.410,+0.058,+2.216,-11.7750,-03.1600,-19.8040,+01.392766,+04.757532,-00.757185
-000.500,-010.648,+005.446,+1.337,+0.167,+2.276,-13.4740,-04.5890,-20.3730,+01.657967,+05.149827,-00.925983
-001.061,-004.660,+007.286,+1.282,+0.244,+2.380,-15.2130,-03.9010,-16.7650,+01.460111,+05.072942,-01.133433
-001.657,+000.979,+008.906,+1.176,+0.273,+2.568,-16.1520,-01.5380,-12.9710,+01.379518,+04.596991,-01.229864
-002.235,+005.968,+010.332,+1.025,+0.393,+2.705,-16.3450,+01.3920,-08.9660,+01.153829,+03.962752,-01.190500
-002.418,+010.135,+011.621,+0.877,+0.467,+2.787,-18.2340,+05.2240,-07.0740,+01.186144,+03.309170,-00.552286
-001.774,+013.350,+012.985,+0.749,+0.505,+2.880,-19.1070,+03.7130,+00.0720,+00.972129,+02.526323,+00.199649
-000.894,+015.210,+014.153,+0.657,+0.555,+2.913,-19.1080,+01.2560,+04.9700,+00.692855,+01.242011,+00.330782
-000.741,+015.532,+014.382,+0.622,+0.575,+2.925,-17.7550,-01.2890,+04.0210,-00.181169,-00.241381,-00.163013
-001.590,+014.651,+013.490,+0.652,+0.536,+2.983,-16.0830,-00.6250,-02.6290,-00.717312,-01.214167,-00.683329
-002.379,+012.768,+012.573,+0.753,+0.545,+2.982,+02.7070,-02.8770,-12.6870,-00.072519,-02.347379,+00.082508
-001.547,+010.115,+011.525,+0.855,+0.487,+2.960,+11.6060,-03.5460,-13.3270,-01.083804,-02.831858,+01.684754
-000.669,+006.343,+010.368,+1.007,+0.420,+2.988,-12.4190,-05.0100,-10.9010,-00.779191,-03.301549,+00.900693
-001.288,+003.006,+009.560,+1.159,+0.418,+2.925,-03.2350,+03.1380,-13.9260,-00.247986,-02.963711,-00.197705
-001.802,-000.165,+010.217,+1.311,+0.438,+2.897,-02.7900,+05.4310,-12.6820,+01.132057,-02.765326,+00.178837
-002.114,-003.324,+012.063,+1.444,+0.449,+2.868,-02.2690,-08.1500,-10.4950,+01.715261,-02.877144,+00.217019
-002.973,-006.846,+013.600,+1.587,+0.531,+2.772,-03.2540,-07.7310,-12.1450,+00.884932,-03.322371,-00.122686
-003.722,-009.657,+013.424,+1.707,+0.544,+2.699,-05.8690,-01.4310,-15.6040,-00.661176,-01.795287,-00.046516
-004.157,-010.612,+012.284,+1.757,+0.484,+2.710,-02.8910,-00.8330,-11.6130,-01.001396,-00.627473,-00.171485
-004.332,-011.035,+011.584,+1.771,+0.474,+2.679,-02.5970,-01.8000,-10.0030,-00.495097,-00.277599,-00.044835
-004.403,-011.271,+011.064,+1.780,+0.459,+2.666,-01.6880,-01.2060,-09.1870,-00.418721,-00.209393,-00.003309
-004.464,-011.501,+010.729,+1.780,+0.449,+2.679,-01.9510,-01.5660,-09.1410,-00.238205,-00.198853,-00.024624
-004.549,-011.703,+010.599,+1.794,+0.430,+2.648,-02.0160,-01.3440,-09.2270,-00.045101,-00.182869,-00.028088
-004.625,-011.893,+010.649,+1.803,+0.454,+2.653,-02.3340,-01.6970,-09.2620,+00.066587,-00.162568,-00.032588
-004.685,-012.032,+010.740,+1.808,+0.459,+2.675,-02.2280,-02.0820,-09.0130,+00.046504,-00.116165,-00.019418
-004.682,-012.162,+010.710,+1.812,+0.449,+2.648,-02.1490,-02.0870,-08.9550,-00.074886,-00.099047,+00.049043
-004.608,-012.277,+010.550,+1.819,+0.449,+2.643,-02.2060,-01.6570,-08.9760,-00.141255,-00.088484,+00.093972
-004.510,-012.424,+010.319,+1.831,+0.439,+2.660,-02.4740,-01.8150,-09.0330,-00.208315,-00.115187,+00.105216
-004.418,-012.549,+010.021,+1.822,+0.414,+2.644,-02.2900,-01.7530,-08.9770,-00.260075,-00.088611,+00.096811
-004.319,-012.666,+009.691,+1.831,+0.427,+2.631,-02.3460,-01.5280,-09.0330,-00.273367,-00.085257,+00.102425
-004.226,-012.798,+009.367,+1.835,+0.360,+2.634,-02.2440,-01.6070,-08.9600,-00.263810,-00.111676,+00.095955
-004.117,-012.965,+009.008,+1.835,+0.380,+2.639,-02.1350,-01.6380,-08.9070,-00.313801,-00.141396,+00.134349
-003.938,-013.168,+008.607,+1.856,+0.372,+2.654,-02.3230,-01.4560,-09.0180,-00.306590,-00.146741,+00.201492
-003.724,-013.351,+008.253,+1.863,+0.331,+2.635,-02.4080,-01.4320,-09.0800,-00.251093,-00.121446,+00.193070
-003.526,-013.490,+007.951,+1.854,+0.330,+2.614,-02.4830,-01.2650,-08.9980,-00.206502,-00.087935,+00.175790
-003.352,-013.630,+007.672,+1.870,+0.298,+2.617,-02.4730,-01.1660,-08.9460,-00.212540,-00.110894,+00.152676
-003.186,-013.811,+007.355,+1.881,+0.291,+2.663,-02.4480,-01.5170,-08.9680,-00.263103,-00.154163,+00.175763
-002.971,-014.049,+006.999,+1.877,+0.316,+2.620,-02.4600,-01.3380,-08.9650,-00.260683,-00.199504,+00.223980
-002.703,-014.338,+006.619,+1.888,+0.261,+2.621,-02.4410,-01.2450,-09.0020,-00.282728,-00.236918,+00.271239
-002.403,-014.672,+006.225,+1.913,+0.246,+2.633,-02.4660,-01.1140,-09.1670,-00.274936,-00.271467,+00.280479
-002.156,-015.046,+005.875,+1.909,+0.217,+2.585,-02.8190,-00.8400,-09.0880,-00.242541,-00.348322,+00.217562
-002.049,-015.590,+005.575,+1.946,+0.211,+2.581,-02.3550,-00.7840,-09.0940,-00.241153,-00.554439,+00.079763
-002.220,-016.436,+005.367,+1.964,+0.177,+2.571,-02.6300,-00.7540,-09.0050,-00.207487,-00.866609,-00.179560
-002.802,-017.708,+005.375,+1.992,+0.235,+2.535,-02.2120,-00.8980,-09.2480,-00.103400,-01.351911,-00.465580
-003.652,-019.524,+005.682,+2.072,+0.229,+2.447,-03.7890,-01.3450,-09.4990,+00.155674,-01.848846,-00.663835
-004.976,-022.046,+006.510,+2.125,+0.263,+2.390,-03.1350,-01.2870,-09.2460,+00.439888,-02.597521,-00.896401
-006.471,-025.774,+007.849,+2.231,+0.325,+2.250,-01.2750,-02.0080,-09.9710,+00.701108,-04.060158,-00.707147
-007.616,-031.697,+009.337,+2.390,+0.357,+2.061,-02.0630,-02.2260,-08.9420,+00.958130,-06.000505,+00.461805
-007.764,-040.044,+010.452,+2.557,+0.324,+1.782,-03.7860,-01.5120,-14.9340,+01.010731,-07.869806,+01.632515
-007.247,-050.507,+011.152,+2.704,+0.256,+1.322,-06.9160,-01.2030,-11.5740,+01.077845,-09.354387,+02.197324
-006.222,-061.464,+011.823,+2.772,+0.175,+0.902,-11.6040,-01.0850,-10.3430,+01.525503,-09.378351,+02.514926
-004.344,-072.528,+012.160,+2.767,+0.040,+0.506,-08.6310,-00.6880,-15.1800,+01.937610,-09.555672,+02.690320
+004.892,-082.682,+004.075,+2.669,-0.098,+0.074,-06.3290,-03.8120,-27.8870,-00.188718,-07.058501,+03.253355
+025.223,-083.276,-016.649,+2.633,-0.147,+0.116,+00.6230,-05.1350,-38.7980,-00.170819,+01.736224,+01.597835
+025.195,-078.855,-016.474,+2.605,-0.190,+0.378,+00.4810,-05.0960,-13.5920,+00.118602,+04.327191,+00.755810
+021.585,-073.864,-013.147,+2.555,-0.168,+0.617,+01.2590,-04.8440,-03.5620,-00.341439,+04.340800,+00.207970
+017.891,-069.334,-010.517,+2.482,-0.125,+0.822,+00.2670,-05.0860,-04.5390,-00.974611,+03.941240,-00.432156
+013.679,-064.660,-007.811,+2.403,-0.135,+0.996,-02.7620,-04.4460,-12.6180,-00.989434,+04.648397,-00.958205
+009.297,-058.605,-004.743,+2.307,-0.084,+1.189,-04.1000,-02.7990,-11.4990,-00.469928,+05.854529,-01.368197
+005.512,-051.728,-001.831,+2.229,-0.060,+1.357,-04.9970,-01.5250,-07.5370,-00.047771,+06.140444,-01.599753
+002.661,-044.783,+000.371,+2.197,-0.037,+1.500,-06.1810,-00.1710,-09.1510,+00.123992,+06.062618,-01.525819
+000.811,-037.688,+001.863,+2.193,+0.038,+1.768,-08.0030,+00.7360,-12.2930,+00.304511,+06.253854,-01.182359
-000.042,-030.398,+002.860,+2.134,+0.079,+2.097,-08.9440,+00.7480,-10.4890,+00.529861,+06.337665,-00.692459
-000.168,-023.603,+003.839,+1.908,+0.152,+2.462,-09.2440,+00.2790,-07.3420,+00.994322,+05.505260,-00.321417
+000.039,-018.107,+004.865,+1.568,+0.211,+2.607,-10.6080,-01.1830,-16.8590,+00.964895,+04.535397,-00.086992
+000.545,-012.648,+005.899,+1.317,+0.297,+2.636,-12.0130,-02.5270,-18.7570,+01.013314,+04.889931,-00.023397
+001.067,-007.351,+006.951,+1.144,+0.333,+2.674,-13.6960,-03.5320,-14.9770,+00.966114,+04.445975,-00.106412
+001.444,-002.604,+007.898,+0.997,+0.374,+2.726,-16.4500,-04.0530,-14.1470,+00.821776,+04.015664,-00.275039
+001.562,+001.818,+008.978,+0.838,+0.440,+2.748,-17.2730,-02.2650,-10.9960,+01.134100,+03.707392,-00.611943
+001.154,+005.999,+010.490,+0.684,+0.481,+2.808,-17.1070,-00.9170,-06.7850,+01.283695,+03.385399,-01.177321
+000.345,+009.648,+011.429,+0.523,+0.561,+2.784,-20.4460,+01.4600,-03.3380,+00.554386,+02.760054,-01.280345
-000.506,+012.417,+011.272,+0.417,+0.552,+2.782,-21.5380,+03.7030,+04.3760,-00.142034,+01.808885,-01.148672
-001.580,+013.699,+010.937,+0.362,+0.538,+2.820,-21.6460,+03.8160,+04.4960,-00.084262,+00.394953,-01.089751
-002.912,+013.611,+010.199,+0.352,+0.548,+2.771,-18.9070,+03.0460,+00.6420,-00.559364,-00.684706,-01.100702
-003.737,+012.306,+009.421,+0.385,+0.523,+2.789,+07.2940,+01.3430,-20.3780,-00.377629,-01.303412,+00.014056
-002.449,+009.935,+009.435,+0.463,+0.493,+2.809,+05.3780,-00.7530,-07.1800,+00.025711,-02.446315,+02.172616
-002.024,+005.863,+009.173,+0.606,+0.476,+2.751,-11.7870,-08.4080,-11.0260,+00.336860,-03.833326,+00.025569
-003.050,+002.251,+009.580,+0.714,+0.495,+2.734,-02.0630,+11.3280,-13.5960,+00.774159,-03.204083,+00.085423
-003.336,-001.733,+011.448,+0.836,+0.533,+2.701,-01.7920,-04.8930,-09.9420,+02.114320,-03.570903,+00.315463
-004.229,-006.360,+013.770,+0.993,+0.644,+2.627,-03.9120,-11.1150,-11.5950,+01.437759,-04.365485,+00.038619
-005.334,-010.311,+013.795,+1.124,+0.635,+2.571,-10.2940,-01.0570,-20.9930,-01.232341,-02.423353,-00.169876
-005.795,-011.400,+012.266,+1.158,+0.583,+2.570,-02.4880,-02.1110,-10.3420,-01.349050,-00.685752,-00.185595
-006.009,-011.837,+011.200,+1.177,+0.553,+2.555,-02.6620,-00.2090,-10.2870,-00.640683,-00.240245,-00.032449
-006.043,-012.087,+010.504,+1.181,+0.526,+2.561,-01.6220,-00.8550,-09.2330,-00.557524,-00.230400,+00.063749
-006.007,-012.345,+010.092,+1.200,+0.494,+2.584,-02.7530,-01.9110,-09.5230,-00.255904,-00.197397,+00.046181
-005.997,-012.556,+009.912,+1.204,+0.533,+2.562,-02.4290,-01.5890,-09.1010,-00.109097,-00.185378,+00.052625
-005.980,-012.747,+009.787,+1.207,+0.516,+2.546,-02.5800,-01.7210,-09.2030,-00.081055,-00.127651,+00.036125
-005.976,-012.858,+009.681,+1.200,+0.489,+2.562,-02.3250,-01.5680,-09.0990,-00.094985,-00.085070,+00.016542
-005.961,-012.956,+009.545,+1.204,+0.484,+2.546,-02.2930,-01.5910,-08.9260,-00.135427,-00.088462,+00.034796
-005.918,-013.071,+009.335,+1.213,+0.491,+2.541,-02.4170,-01.3600,-09.0410,-00.183318,-00.088563,+00.055479
-005.881,-013.181,+009.121,+1.213,+0.469,+2.574,-02.4560,-01.3200,-09.0240,-00.168764,-00.090153,+00.037784
-005.847,-013.287,+008.921,+1.213,+0.469,+2.558,-02.3530,-01.5270,-09.0260,-00.184360,-00.082401,+00.055582
-005.744,-013.419,+008.648,+1.220,+0.469,+2.539,-02.2630,-01.5540,-08.9520,-00.240380,-00.115675,+00.132377
-005.566,-013.597,+008.288,+1.236,+0.440,+2.570,-02.3030,-01.4820,-08.9180,-00.296878,-00.136879,+00.192034
-005.326,-013.817,+007.825,+1.223,+0.435,+2.558,-02.4050,-01.2460,-08.9050,-00.364468,-00.178320,+00.249781
-005.056,-014.052,+007.403,+1.241,+0.415,+2.543,-02.6470,-01.1020,-09.1530,-00.267632,-00.149790,+00.250606
-004.792,-014.216,+007.081,+1.246,+0.395,+2.554,-02.5700,-01.1980,-09.0650,-00.199743,-00.099106,+00.229217
-004.570,-014.333,+006.849,+1.250,+0.395,+2.544,-02.3960,-01.1580,-08.9670,-00.131109,-00.073275,+00.186849
-004.379,-014.456,+006.667,+1.257,+0.380,+2.536,-02.5950,-01.1180,-08.8970,-00.122079,-00.096896,+00.164618
-004.208,-014.611,+006.467,+1.259,+0.390,+2.544,-02.6390,-01.2700,-08.9510,-00.143523,-00.133358,+00.158230
-004.041,-014.812,+006.264,+1.264,+0.370,+2.539,-02.6110,-01.3280,-08.9720,-00.134457,-00.171825,+00.161717
-003.879,-015.033,+006.102,+1.273,+0.341,+2.526,-02.5860,-01.0240,-09.0160,-00.096227,-00.184419,+00.150629
-003.744,-015.298,+005.948,+1.278,+0.336,+2.567,-02.4550,-00.9450,-09.0260,-00.112081,-00.233331,+00.119963
-003.667,-015.673,+005.742,+1.296,+0.350,+2.525,-02.6820,-00.8370,-09.0330,-00.191954,-00.376527,+00.077665
-003.686,-016.234,+005.521,+1.305,+0.348,+2.504,-02.5200,-01.0010,-09.0170,-00.202362,-00.569851,-00.002877
-003.837,-017.052,+005.364,+1.333,+0.335,+2.516,-03.2990,-01.1100,-08.9750,-00.149059,-00.815055,-00.096241
-004.198,-018.149,+005.390,+1.379,+0.315,+2.480,-03.1210,-01.1180,-09.2220,-00.022829,-01.107551,-00.312847
-004.907,-019.704,+005.711,+1.418,+0.351,+2.444,-03.1040,-01.0770,-09.4100,+00.162739,-01.591921,-00.491255
-005.971,-021.860,+006.498,+1.476,+0.387,+2.404,-03.3080,-00.9690,-09.3390,+00.462653,-02.165778,-00.732501
-007.524,-024.790,+007.864,+1.563,+0.445,+2.316,-03.8270,-01.4010,-09.4950,+00.809203,-03.092975,-00.986201
-009.490,-029.369,+009.808,+1.680,+0.478,+2.189,-00.2010,-00.9630,-11.3680,+00.991897,-04.914593,-00.730435
-010.901,-036.462,+012.172,+1.830,+0.510,+2.022,-01.3140,-00.9540,-12.5690,+01.683124,-07.063064,+00.691673
-011.659,-046.226,+014.692,+2.041,+0.491,+1.672,-07.1100,-02.3750,-11.5640,+01.443157,-09.156017,+01.798290
-012.212,-057.628,+017.173,+2.191,+0.463,+1.271,-10.7880,-05.5990,-13.0050,+01.841715,-09.694359,+02.719017
-013.664,-069.244,+020.594,+2.261,+0.347,+0.879,-07.7060,-03.0250,-17.4600,+01.931128,-09.789159,+02.803530
-017.014,-080.699,+025.854,+2.237,+0.217,+0.412,-06.9340,-04.6560,-27.9430,+01.154038,-08.499318,+03.433618
-000.209,-084.346,+009.353,+2.193,+0.102,+0.304,+00.7710,-05.5300,-44.1420,+00.226371,+00.731791,+02.125944
+015.379,-080.809,-005.469,+2.186,+0.026,+0.395,+01.5030,-06.2280,-16.2070,+00.520364,+03.987846,+01.282872
+017.206,-075.868,-007.115,+2.187,-0.003,+0.572,+01.9590,-05.0970,-04.4570,-00.126831,+04.283582,+00.545450
+015.851,-071.166,-006.500,+2.134,-0.001,+0.709,+00.9130,-04.9180,-04.4310,-00.854362,+04.018399,-00.088598
+013.106,-066.284,-005.146,+2.095,+0.000,+0.885,-01.8210,-04.9660,-11.0350,-01.126119,+04.669598,-00.642043
+009.654,-060.338,-003.149,+2.054,+0.065,+1.016,-03.0360,-03.5290,-10.0300,-00.786686,+05.577158,-01.158429
+006.268,-053.746,-000.924,+2.001,+0.091,+1.180,-04.0160,-02.3830,-08.5720,-00.430309,+05.891294,-01.506937
+003.543,-046.846,+000.833,+1.925,+0.151,+1.342,-05.9750,-00.7760,-10.4270,-00.204633,+06.095982,-01.487159
+001.715,-039.555,+002.089,+1.875,+0.207,+1.495,-07.9180,+00.3870,-13.4720,+00.136298,+06.492260,-01.176017
+000.913,-031.878,+002.937,+1.811,+0.221,+1.693,-09.3590,+00.5900,-11.0840,+00.430179,+06.731245,-00.654437
+000.918,-024.662,+003.645,+1.733,+0.225,+1.907,-09.7610,-00.1060,-05.5290,+00.797309,+05.810985,-00.213200
+001.197,-019.058,+004.503,+1.673,+0.295,+2.102,-11.2630,-00.9180,-17.8710,+00.906695,+04.555584,-00.010553
+001.821,-013.302,+005.701,+1.556,+0.320,+2.311,-13.0500,-02.5960,-21.2040,+01.362679,+05.271024,+00.077352
+002.440,-007.297,+007.205,+1.319,+0.350,+2.536,-15.1810,-04.3390,-17.8830,+01.404809,+05.253450,-00.169034
+002.769,-001.418,+008.760,+1.038,+0.457,+2.641,-16.9090,-03.4000,-14.3200,+01.372530,+04.999048,-00.569879
+002.802,+004.059,+010.345,+0.813,+0.481,+2.679,-17.1650,-00.8940,-10.8590,+01.397979,+04.518358,-00.875303
+002.521,+008.877,+011.698,+0.629,+0.506,+2.725,-17.3830,+00.9670,-06.1340,+01.002797,+03.767080,-01.115882
+002.113,+012.626,+012.328,+0.458,+0.542,+2.717,-20.0920,+01.7820,-00.5310,+00.372613,+02.700376,-00.920489
+001.626,+015.007,+012.635,+0.385,+0.545,+2.708,-21.9380,+01.7460,+03.4600,+00.461475,+01.499221,-00.895584
+000.437,+016.005,+012.711,+0.348,+0.572,+2.722,-21.5910,-00.1200,+05.2170,+00.089152,+00.060630,-01.361191
-001.672,+015.396,+011.562,+0.352,+0.552,+2.685,-20.2890,+02.3790,+01.6760,-00.752798,-01.385750,-01.699481
-002.948,+013.050,+010.530,+0.447,+0.522,+2.679,+09.8810,-00.1380,-24.9270,-01.023833,-01.515170,-00.257996
-002.529,+009.814,+009.261,+0.532,+0.497,+2.683,+00.9340,+03.9810,-01.5650,-01.395065,-03.187442,+01.348216
-002.418,+005.537,+008.506,+0.707,+0.460,+2.626,-11.7750,+02.0740,-13.8810,-00.821050,-03.446182,+00.213626
-002.556,+001.750,+008.135,+0.826,+0.434,+2.600,-01.7380,-03.9030,-12.5940,+00.133317,-03.143555,+00.240445
-003.188,-001.821,+008.843,+0.946,+0.447,+2.557,-02.6840,-01.2960,-12.2320,+00.838504,-03.113780,-00.172506
-003.754,-005.635,+009.873,+1.066,+0.515,+2.465,-02.6510,-07.2230,-10.1580,+00.738228,-03.519970,+00.096699
-004.449,-009.583,+009.666,+1.186,+0.511,+2.425,-09.3620,+00.6570,-21.2220,-00.934534,-02.951125,+00.025828
-004.617,-011.294,+008.566,+1.236,+0.454,+2.409,-03.6190,-04.5330,-11.3100,-00.848701,-01.127227,+00.061156
-004.594,-012.102,+007.941,+1.273,+0.428,+2.368,-02.8570,-00.0120,-10.6170,-00.368651,-00.520575,+00.124901
-004.563,-012.577,+007.643,+1.284,+0.441,+2.365,-02.1560,-00.5910,-09.2690,-00.229479,-00.372130,+00.090286
-004.521,-012.906,+007.466,+1.291,+0.409,+2.385,-02.7390,-01.0980,-09.3600,-00.093328,-00.222580,+00.031716
-004.582,-013.079,+007.480,+1.305,+0.448,+2.369,-01.9410,-00.7020,-08.8830,+00.056090,-00.143205,-00.056599
-004.668,-013.217,+007.594,+1.310,+0.431,+2.369,-02.4270,-01.2530,-09.1190,+00.095787,-00.113486,-00.054508
-004.746,-013.313,+007.702,+1.305,+0.443,+2.374,-02.4090,-01.5180,-09.0410,+00.058028,-00.079221,-00.052266
-004.752,-013.406,+007.690,+1.324,+0.428,+2.364,-02.3250,-01.7310,-09.0150,-00.065753,-00.080395,+00.048424
-004.653,-013.504,+007.527,+1.307,+0.431,+2.350,-02.4840,-01.1700,-09.0950,-00.124504,-00.069182,+00.110329
-004.536,-013.583,+007.363,+1.319,+0.433,+2.369,-02.4960,-01.1410,-09.0570,-00.112509,-00.047293,+00.104427
-004.425,-013.645,+007.211,+1.324,+0.428,+2.348,-02.5600,-01.1290,-09.0730,-00.100169,-00.028786,+00.097084
-004.306,-013.679,+007.060,+1.324,+0.413,+2.356,-02.5390,-01.1900,-09.0390,-00.109620,-00.012199,+00.108517
-004.176,-013.714,+006.900,+1.324,+0.423,+2.364,-02.4400,-01.1320,-09.0360,-00.116256,-00.021997,+00.111868
-004.029,-013.777,+006.722,+1.319,+0.438,+2.348,-02.2620,-01.2800,-09.0140,-00.130927,-00.052460,+00.149965
-003.839,-013.872,+006.531,+1.324,+0.403,+2.340,-02.5590,-01.2120,-09.0430,-00.123164,-00.065179,+00.174014
-003.643,-013.967,+006.372,+1.314,+0.374,+2.370,-02.5350,-01.0390,-09.0940,-00.075997,-00.066121,+00.174165
-003.462,-014.060,+006.277,+1.328,+0.379,+2.360,-02.4700,-00.9670,-09.0620,-00.033434,-00.064876,+00.153555
-003.300,-014.167,+006.208,+1.333,+0.391,+2.341,-02.3790,-01.1110,-08.9350,-00.024776,-00.094145,+00.155204
-003.120,-014.342,+006.115,+1.337,+0.359,+2.376,-02.6010,-01.0780,-08.9030,-00.067084,-00.156662,+00.169289
-002.924,-014.583,+005.927,+1.337,+0.369,+2.344,-02.5060,-00.9170,-09.0620,-00.139359,-00.211976,+00.194118
-002.764,-014.882,+005.708,+1.353,+0.351,+2.334,-02.8490,-01.1170,-08.9830,-00.169070,-00.283045,+00.149685
-002.661,-015.311,+005.465,+1.370,+0.354,+2.356,-02.4020,-00.9630,-09.0950,-00.193493,-00.428255,+00.105379
-002.677,-015.929,+005.230,+1.388,+0.358,+2.309,-02.4390,-00.9450,-08.9600,-00.209140,-00.617503,-00.002342
-002.837,-016.778,+005.084,+1.402,+0.336,+2.301,-03.0130,-00.8890,-09.0360,-00.130105,-00.839048,-00.114040
-003.196,-017.938,+005.150,+1.434,+0.309,+2.306,-02.6250,-00.9670,-09.2350,+00.019542,-01.175015,-00.277959
-003.884,-019.551,+005.533,+1.489,+0.352,+2.238,-04.3990,-01.4260,-09.3500,+00.260444,-01.661365,-00.539350
-004.925,-021.750,+006.354,+1.533,+0.388,+2.181,-03.8500,-01.2580,-09.1260,+00.498698,-02.217871,-00.760062
-006.547,-024.729,+007.721,+1.600,+0.419,+2.130,-03.5630,-01.4420,-09.5490,+00.755776,-03.182826,-01.058100
-008.573,-029.437,+009.734,+1.733,+0.456,+1.991,+01.4670,-00.4760,-12.2160,+01.083566,-05.015110,-00.786684
-010.377,-036.539,+012.447,+1.864,+0.530,+1.771,-02.1290,-00.4580,-12.7150,+01.816236,-07.091661,+00.343906
-011.902,-046.182,+015.684,+2.013,+0.485,+1.515,-06.5880,-02.2310,-12.1200,+01.662614,-09.097706,+01.311247
-013.727,-057.373,+019.466,+2.151,+0.433,+1.093,-10.1280,-03.9100,-10.1780,+02.233657,-09.881254,+02.362702
-017.299,-068.787,+025.257,+2.196,+0.337,+0.707,-08.8900,-02.3740,-20.6380,+02.716781,-09.841722,+02.649942
