Yaw,Pitch,Roll,MagX,MagY,MagZ,AccelX,AccelY,AccelZ,GyroX,GyroY,GyroZ
-016.624,-021.258,+008.199,+1.202,-0.602,+2.615,-03.3900,-01.2060,-08.7510,-00.005274,+00.005190,+00.000428
-016.621,-021.253,+008.193,+1.211,-0.607,+2.583,-03.4230,-01.2900,-08.7290,-00.005058,+00.000351,+00.000722
-016.619,-021.251,+008.188,+1.207,-0.617,+2.588,-03.4240,-01.2400,-08.7180,-00.002550,+00.003393,+00.000374
-016.618,-021.248,+008.185,+1.216,-0.602,+2.604,-03.3860,-01.2920,-08.7100,-00.001141,+00.003551,-00.000306
-016.613,-021.245,+008.179,+1.216,-0.617,+2.567,-03.4410,-01.1950,-08.7270,-00.002342,+00.003993,+00.005309
-016.607,-021.244,+008.173,+1.211,-0.622,+2.593,-03.4570,-01.2680,-08.7610,-00.002730,-00.000039,+00.004835
-016.604,-021.246,+008.169,+1.207,-0.592,+2.604,-03.4310,-01.2210,-08.7350,-00.001326,-00.002675,+00.001540
-016.602,-021.244,+008.167,+1.211,-0.612,+2.577,-03.4340,-01.2340,-08.6720,-00.002669,+00.002776,+00.000065
-016.599,-021.242,+008.165,+1.202,-0.622,+2.577,-03.4380,-01.3070,-08.7020,-00.000222,+00.000116,+00.002619
-016.595,-021.246,+008.163,+1.198,-0.612,+2.609,-03.4410,-01.2420,-08.7220,+00.000452,-00.005310,+00.004154
-016.589,-021.252,+008.163,+1.207,-0.612,+2.588,-03.4440,-01.2600,-08.6830,+00.000231,-00.003172,+00.003558
-016.588,-021.254,+008.163,+1.202,-0.617,+2.588,-03.3670,-01.2440,-08.7090,+00.001952,-00.000844,+00.001245
-016.586,-021.255,+008.164,+1.207,-0.627,+2.604,-03.4190,-01.2440,-08.7280,+00.002113,-00.000724,+00.002543
-016.582,-021.259,+008.166,+1.202,-0.617,+2.588,-03.4370,-01.2500,-08.7260,+00.003451,-00.004983,+00.003263
-016.579,-021.266,+008.169,+1.207,-0.617,+2.593,-03.4400,-01.3090,-08.6940,+00.002860,-00.007187,+00.002546
-016.575,-021.272,+008.170,+1.211,-0.603,+2.582,-03.4260,-01.2120,-08.7060,+00.002399,-00.006693,+00.003718
-016.574,-021.286,+008.172,+1.221,-0.612,+2.594,-03.4020,-01.2420,-08.7310,+00.002354,-00.016194,+00.003054
-016.575,-021.307,+008.177,+1.221,-0.622,+2.594,-03.4610,-01.2420,-08.7060,+00.004767,-00.019878,-00.000899
-016.578,-021.324,+008.182,+1.216,-0.627,+2.605,-03.4600,-01.2450,-08.6970,+00.002544,-00.011085,+00.000116
-016.578,-021.330,+008.184,+1.221,-0.588,+2.594,-03.4400,-01.2810,-08.7330,+00.000176,-00.000865,+00.000278
-016.575,-021.328,+008.185,+1.221,-0.617,+2.578,-03.4100,-01.2620,-08.7200,+00.002223,+00.000465,+00.001868
-016.571,-021.330,+008.184,+1.202,-0.617,+2.598,-03.4530,-01.2430,-08.7190,+00.000945,-00.001344,+00.005231
-016.566,-021.331,+008.184,+1.216,-0.603,+2.572,-03.4440,-01.2420,-08.7110,+00.001044,-00.000250,+00.004622
-016.563,-021.332,+008.184,+1.221,-0.613,+2.578,-03.4430,-01.2420,-08.6820,+00.001913,-00.000977,+00.003296
-016.562,-021.336,+008.185,+1.216,-0.622,+2.604,-03.4310,-01.2510,-08.7130,+00.001483,-00.003246,+00.000553
-016.560,-021.341,+008.186,+1.216,-0.622,+2.577,-03.4490,-01.2070,-08.7290,+00.002790,-00.005910,-00.000767
-016.563,-021.348,+008.190,+1.207,-0.627,+2.582,-03.4550,-01.2370,-08.7410,+00.004178,-00.003767,-00.002808
-016.567,-021.353,+008.197,+1.207,-0.607,+2.599,-03.4670,-01.2330,-08.7340,+00.005142,-00.004470,-00.004374
-016.573,-021.360,+008.206,+1.211,-0.607,+2.583,-03.4510,-01.2580,-08.7150,+00.005408,-00.006210,-00.003433
-016.578,-021.365,+008.213,+1.216,-0.612,+2.583,-03.4290,-01.2510,-08.7350,+00.005030,-00.004237,-00.004406
-016.582,-021.367,+008.221,+1.207,-0.583,+2.604,-03.4290,-01.2500,-08.7370,+00.005843,-00.003162,-00.002590
-016.584,-021.367,+008.225,+1.221,-0.603,+2.588,-03.4320,-01.2410,-08.7130,+00.003471,+00.005385,-00.003452
-016.585,-021.359,+008.229,+1.207,-0.612,+2.577,-03.4360,-01.2560,-08.6880,+00.001689,+00.005660,-00.002417
-016.586,-021.354,+008.231,+1.207,-0.607,+2.599,-03.4560,-01.2470,-08.6800,+00.002653,+00.003397,-00.001335
-016.586,-021.348,+008.234,+1.221,-0.578,+2.583,-03.4290,-01.2730,-08.7100,+00.001579,+00.003141,+00.000789
-016.585,-021.348,+008.235,+1.225,-0.622,+2.589,-03.4530,-01.2480,-08.7170,+00.000805,+00.000513,+00.000473
-016.585,-021.346,+008.236,+1.211,-0.627,+2.604,-03.4370,-01.2820,-08.7060,-00.001009,+00.006763,-00.002765
-016.583,-021.336,+008.232,+1.221,-0.588,+2.588,-03.4240,-01.2390,-08.7140,-00.002414,+00.009724,+00.000077
-016.578,-021.323,+008.229,+1.216,-0.608,+2.577,-03.4370,-01.2660,-08.7310,-00.002198,+00.011623,+00.003638
-016.571,-021.312,+008.222,+1.198,-0.602,+2.598,-03.4490,-01.2380,-08.7280,-00.002868,+00.012196,+00.003714
-016.567,-021.305,+008.217,+1.211,-0.603,+2.583,-03.4340,-01.2390,-08.7030,-00.002462,+00.004537,-00.000508
-016.567,-021.299,+008.212,+1.212,-0.593,+2.604,-03.4480,-01.2420,-08.7170,-00.002051,+00.005064,-00.001184
-016.571,-021.290,+008.218,+1.225,-0.627,+2.605,-03.4420,-01.1550,-08.6940,-00.001686,+00.013727,-00.001612
-016.570,-021.284,+008.214,+1.221,-0.608,+2.588,-03.4470,-01.2840,-08.7180,-00.003119,+00.002117,+00.000377
-016.569,-021.281,+008.210,+1.211,-0.637,+2.556,-03.4590,-01.2230,-08.7470,-00.002898,+00.004034,+00.001176
-016.570,-021.278,+008.208,+1.207,-0.612,+2.604,-03.4310,-01.2670,-08.7200,-00.002899,+00.000583,-00.001188
-016.571,-021.277,+008.206,+1.216,-0.593,+2.599,-03.4260,-01.2490,-08.7070,-00.001399,-00.000095,-00.001457
-016.570,-021.277,+008.205,+1.207,-0.627,+2.577,-03.4160,-01.2650,-08.7190,-00.001158,-00.000962,+00.001512
-016.568,-021.279,+008.204,+1.211,-0.627,+2.610,-03.4520,-01.2370,-08.7260,+00.000474,-00.002278,+00.003371
-016.567,-021.283,+008.204,+1.211,-0.607,+2.588,-03.4670,-01.2210,-08.7190,+00.001389,-00.003061,-00.001817
-016.570,-021.287,+008.207,+1.207,-0.612,+2.588,-03.4120,-01.2320,-08.7340,+00.002312,-00.003452,-00.002667
-016.572,-021.295,+008.211,+1.207,-0.622,+2.604,-03.4240,-01.2700,-08.7360,+00.003265,-00.008316,-00.001221
-016.572,-021.307,+008.216,+1.207,-0.607,+2.572,-03.4450,-01.2500,-08.6890,+00.004520,-00.011815,+00.001334
-016.572,-021.322,+008.220,+1.221,-0.593,+2.599,-03.4490,-01.2680,-08.7290,+00.003122,-00.012130,+00.000646
-016.572,-021.333,+008.223,+1.216,-0.607,+2.615,-03.4480,-01.2220,-08.6850,+00.002358,-00.008860,+00.000857
-016.572,-021.337,+008.226,+1.212,-0.597,+2.604,-03.4430,-01.2770,-08.7260,+00.001858,-00.000412,+00.000396
-016.569,-021.339,+008.228,+1.216,-0.603,+2.588,-03.3920,-01.2340,-08.7130,+00.003424,-00.002734,+00.002490
-016.565,-021.344,+008.230,+1.216,-0.637,+2.610,-03.4420,-01.2460,-08.7160,+00.002988,-00.005239,+00.004478
-016.564,-021.349,+008.231,+1.207,-0.588,+2.588,-03.4540,-01.2570,-08.7320,+00.002537,-00.002727,-00.001004
-016.564,-021.350,+008.233,+1.211,-0.612,+2.593,-03.4590,-01.2430,-08.7190,+00.002175,-00.001415,-00.001287
-016.565,-021.349,+008.235,+1.212,-0.602,+2.604,-03.4440,-01.2620,-08.6550,+00.001952,+00.001847,-00.001443
-016.562,-021.347,+008.236,+1.225,-0.603,+2.583,-03.4380,-01.2430,-08.7450,+00.001201,+00.000655,+00.003799
-016.559,-021.350,+008.234,+1.211,-0.612,+2.577,-03.4670,-01.2180,-08.7060,+00.000651,-00.001418,+00.003391
-016.556,-021.354,+008.233,+1.211,-0.617,+2.599,-03.4420,-01.2660,-08.7200,+00.000304,-00.002035,+00.002490
-016.555,-021.357,+008.232,+1.221,-0.603,+2.599,-03.4460,-01.2460,-08.7320,-00.000760,-00.001667,+00.000277
-016.553,-021.357,+008.230,+1.211,-0.603,+2.577,-03.4380,-01.2570,-08.7180,-00.000441,+00.002055,+00.002143
-016.551,-021.356,+008.229,+1.212,-0.627,+2.621,-03.4480,-01.2650,-08.7320,-00.002242,+00.002424,+00.002790
-016.548,-021.355,+008.226,+1.216,-0.603,+2.577,-03.4350,-01.2480,-08.7330,-00.001282,-00.000316,+00.000891
-016.546,-021.357,+008.225,+1.211,-0.617,+2.572,-03.4240,-01.2490,-08.7060,+00.000917,-00.003648,+00.002076
-016.546,-021.361,+008.224,+1.212,-0.607,+2.610,-03.4290,-01.2580,-08.6840,+00.000688,-00.001777,+00.000789
-016.543,-021.361,+008.224,+1.211,-0.617,+2.588,-03.4420,-01.2550,-08.6850,-00.000005,+00.002329,+00.001070
-016.540,-021.359,+008.222,+1.216,-0.598,+2.594,-03.4360,-01.2410,-08.7190,-00.000275,+00.001351,+00.002288
-016.537,-021.359,+008.219,+1.212,-0.602,+2.615,-03.4360,-01.2540,-08.7460,+00.000315,-00.001852,+00.004169
-016.530,-021.361,+008.216,+1.216,-0.593,+2.583,-03.4320,-01.2300,-08.7270,-00.000677,-00.002419,+00.005563
-016.525,-021.366,+008.212,+1.221,-0.627,+2.567,-03.4420,-01.2480,-08.7070,-00.000919,-00.003610,+00.003097
-016.521,-021.371,+008.208,+1.216,-0.597,+2.610,-03.4640,-01.2400,-08.7430,-00.000429,-00.002953,+00.003929
-016.518,-021.375,+008.207,+1.211,-0.617,+2.583,-03.4260,-01.2660,-08.7090,+00.000995,-00.003178,+00.002605
-016.513,-021.377,+008.206,+1.230,-0.623,+2.584,-03.3780,-01.2800,-08.6350,+00.000997,-00.000806,+00.005848
-016.506,-021.374,+008.204,+1.211,-0.622,+2.577,-03.4160,-01.2370,-08.7140,+00.000870,+00.001299,+00.003043
-016.502,-021.378,+008.201,+1.221,-0.608,+2.588,-03.4490,-01.2200,-08.7050,+00.000536,-00.003320,+00.001561
-016.500,-021.384,+008.201,+1.207,-0.583,+2.593,-03.4440,-01.2320,-08.6930,+00.001530,-00.006918,+00.002918
-016.497,-021.391,+008.202,+1.207,-0.597,+2.604,-03.4400,-01.2500,-08.7020,+00.002620,-00.005507,+00.002426
-016.492,-021.396,+008.204,+1.216,-0.608,+2.583,-03.4450,-01.2410,-08.7170,+00.004469,-00.002055,+00.002975
-016.489,-021.401,+008.207,+1.207,-0.583,+2.588,-03.4570,-01.2560,-08.7430,+00.002677,-00.005020,+00.001176
-016.487,-021.404,+008.208,+1.221,-0.622,+2.599,-03.4520,-01.2420,-08.7300,+00.001857,+00.000241,+00.001422
-016.488,-021.406,+008.210,+1.225,-0.618,+2.573,-03.4610,-01.2620,-08.7450,+00.001131,-00.003347,+00.000378
-016.487,-021.410,+008.211,+1.211,-0.622,+2.577,-03.4560,-01.2500,-08.7010,+00.000937,-00.004390,+00.001045
-016.484,-021.415,+008.209,+1.212,-0.627,+2.615,-03.4380,-01.2390,-08.7030,-00.000455,-00.005195,+00.003717
-016.478,-021.417,+008.207,+1.221,-0.598,+2.594,-03.4680,-01.2210,-08.7180,+00.001140,+00.002409,+00.004683
-016.476,-021.421,+008.203,+1.225,-0.613,+2.583,-03.5430,-01.1890,-08.6860,-00.011085,-00.005247,-00.003472
-016.472,-021.419,+008.200,+1.207,-0.588,+2.609,-03.4940,-01.1120,-08.7180,-00.001779,+00.004634,+00.005427
-016.472,-021.412,+008.198,+1.216,-0.613,+2.583,-03.4650,-01.1060,-08.7270,+00.000094,+00.010855,-00.001553
-016.472,-021.400,+008.197,+1.216,-0.623,+2.561,-03.4880,-01.2260,-08.7150,-00.002682,+00.011698,-00.002869
-016.473,-021.386,+008.198,+1.212,-0.617,+2.604,-03.4810,-01.2250,-08.6950,+00.000656,+00.011916,-00.003750
-016.477,-021.368,+008.203,+1.216,-0.613,+2.577,-03.4440,-01.2690,-08.7120,+00.003286,+00.014591,-00.008237
-016.483,-021.350,+008.209,+1.216,-0.622,+2.594,-03.4210,-01.2590,-08.7050,+00.004195,+00.017409,-00.007276
-016.490,-021.332,+008.214,+1.207,-0.612,+2.610,-03.4320,-01.2480,-08.7380,+00.001551,+00.014564,-00.008057
-016.500,-021.314,+008.218,+1.212,-0.608,+2.583,-03.4220,-01.2750,-08.7310,-00.000323,+00.012519,-00.009668
-016.510,-021.297,+008.222,+1.216,-0.622,+2.572,-03.4330,-01.2880,-08.7190,+00.001372,+00.014396,-00.009134
-016.520,-021.273,+008.223,+1.225,-0.617,+2.600,-03.3850,-01.2550,-08.7120,-00.002759,+00.019897,-00.009692
-016.527,-021.255,+008.220,+1.207,-0.617,+2.593,-03.4100,-01.2830,-08.7090,-00.007015,+00.013194,-00.008033
-016.537,-021.239,+008.213,+1.225,-0.618,+2.573,-03.4150,-01.2760,-08.7380,-00.009537,+00.013478,-00.010371
-016.545,-021.213,+008.203,+1.207,-0.612,+2.610,-03.4360,-01.2430,-08.7090,-00.012398,+00.021660,-00.010502
-016.554,-021.187,+008.189,+1.212,-0.603,+2.593,-03.4120,-01.2160,-08.7270,-00.013275,+00.023755,-00.011496
-016.569,-021.159,+008.179,+1.221,-0.628,+2.567,-03.3990,-01.2210,-08.7130,-00.010872,+00.022397,-00.016415
-016.587,-021.129,+008.180,+1.212,-0.612,+2.604,-03.3660,-01.2360,-08.6830,-00.005905,+00.020824,-00.019692
-016.603,-021.107,+008.181,+1.202,-0.583,+2.582,-03.3550,-01.2570,-08.7350,-00.003697,+00.012553,-00.011983
-016.613,-021.094,+008.183,+1.216,-0.617,+2.605,-03.4540,-01.2640,-08.7300,+00.001182,+00.006617,-00.009092
-016.627,-021.088,+008.190,+1.212,-0.588,+2.615,-03.4280,-01.2030,-08.7100,+00.003913,+00.012093,-00.013746
-016.646,-021.070,+008.201,+1.202,-0.593,+2.588,-03.3770,-01.2800,-08.7330,+00.002963,+00.010761,-00.016862
-016.661,-021.058,+008.211,+1.202,-0.627,+2.572,-03.4360,-01.2660,-08.7640,+00.003205,+00.006683,-00.012636
-016.676,-021.049,+008.217,+1.207,-0.627,+2.599,-03.3730,-01.2610,-08.7660,-00.000742,+00.007129,-00.011959
-016.683,-021.037,+008.217,+1.216,-0.593,+2.599,-03.4000,-01.2840,-08.7330,-00.003382,+00.009493,-00.004149
-016.687,-021.030,+008.212,+1.207,-0.613,+2.566,-03.3940,-01.2330,-08.7700,-00.006606,+00.003249,-00.003205
-016.690,-021.024,+008.205,+1.216,-0.622,+2.594,-03.3580,-01.2780,-08.7240,-00.007520,+00.004017,-00.000487
-016.687,-021.016,+008.194,+1.207,-0.612,+2.604,-03.3710,-01.2630,-08.7380,-00.011334,+00.006706,+00.002265
-016.679,-021.002,+008.175,+1.212,-0.627,+2.594,-03.3830,-01.2970,-08.7230,-00.016007,+00.015628,+00.006059
-016.670,-020.988,+008.152,+1.212,-0.602,+2.610,-03.3780,-01.1950,-08.7670,-00.017892,+00.010013,+00.005670
-016.662,-020.980,+008.129,+1.207,-0.612,+2.599,-03.3420,-01.2960,-08.7170,-00.019744,+00.006564,+00.011446
-016.638,-020.976,+008.097,+1.216,-0.603,+2.594,-03.3300,-01.2590,-08.7430,-00.021718,+00.000942,+00.023446
-016.605,-020.984,+008.060,+1.207,-0.627,+2.610,-03.3590,-01.2820,-08.7040,-00.021270,-00.008832,+00.030175
-016.567,-021.013,+008.016,+1.207,-0.603,+2.588,-03.2660,-01.4170,-08.7450,-00.031998,-00.033245,+00.044758
-016.512,-021.066,+007.959,+1.207,-0.622,+2.583,-03.4380,-01.1530,-08.7580,-00.033155,-00.045230,+00.048648
-016.471,-021.128,+007.915,+1.198,-0.622,+2.598,-03.4610,-01.0770,-08.7670,-00.023733,-00.053927,+00.031879
-016.457,-021.214,+007.890,+1.207,-0.627,+2.604,-03.4860,-01.1550,-08.8320,-00.012639,-00.083783,+00.012021
-016.475,-021.343,+007.864,+1.221,-0.642,+2.583,-03.4660,-01.2150,-08.7630,-00.047768,-00.132470,-00.006271
-016.510,-021.511,+007.778,+1.216,-0.612,+2.599,-03.3940,-01.2400,-08.7310,-00.098312,-00.174825,-00.004675
-016.514,-021.772,+007.663,+1.235,-0.638,+2.557,-03.3290,-01.3900,-08.6930,-00.097012,-00.241150,+00.062221
-016.413,-022.172,+007.538,+1.244,-0.638,+2.568,-03.5050,-01.3090,-08.7730,-00.080059,-00.402550,+00.160985
-016.221,-022.779,+007.306,+1.244,-0.663,+2.547,-03.5440,-01.3150,-08.9550,-00.193425,-00.585216,+00.254841
-015.884,-023.663,+006.908,+1.272,-0.648,+2.542,-03.6700,-00.9020,-09.3440,-00.263973,-00.830608,+00.440628
-015.330,-024.878,+006.387,+1.295,-0.698,+2.495,-03.7670,-00.5050,-09.0030,-00.212040,-01.108808,+00.638300
-014.500,-026.368,+005.765,+1.323,-0.718,+2.475,-03.6910,-01.9840,-10.4130,-00.290164,-01.278157,+00.873500
-013.436,-028.063,+005.042,+1.360,-0.753,+2.450,-04.0480,-03.0200,-10.7580,-00.105433,-01.451682,+00.972884
-012.275,-029.656,+004.513,+1.374,-0.774,+2.386,-02.5040,-03.8200,-14.4410,+00.114390,-01.162625,+00.965391
-011.120,-030.752,+004.364,+1.374,-0.769,+2.386,-01.6140,-03.9680,-14.3720,+00.358474,-00.719116,+00.862604
-010.178,-031.495,+004.114,+1.369,-0.798,+2.391,+01.6130,-02.7650,-09.9310,+00.119648,-00.594743,+00.699887
-009.380,-032.225,+003.808,+1.350,-0.808,+2.374,+03.3940,-01.6810,-10.5680,+00.152146,-00.542322,+00.597408
-008.670,-032.661,+003.632,+1.350,-0.813,+2.385,+05.1750,-02.0560,-11.1580,+00.144414,-00.244589,+00.513876
-008.049,-032.644,+003.404,+1.318,-0.793,+2.410,+06.1740,-01.5200,-10.9940,+00.049530,+00.168015,+00.412024
-007.541,-032.224,+003.233,+1.276,-0.777,+2.435,+06.2450,-01.1960,-11.1500,+00.104410,+00.518283,+00.308526
-007.191,-031.391,+003.286,+1.225,-0.816,+2.498,+05.1990,-01.4030,-12.1360,+00.252907,+00.893642,+00.153438
-007.081,-030.079,+003.575,+1.132,-0.761,+2.548,+04.1020,-01.9180,-12.2460,+00.300099,+01.295668,-00.077937
-007.284,-028.347,+004.006,+1.039,-0.779,+2.582,+02.9280,-01.8520,-11.7890,+00.313240,+01.602071,-00.357334
-007.798,-026.356,+004.596,+0.937,-0.758,+2.653,+01.3480,-01.7800,-11.3080,+00.304878,+01.733968,-00.622131
-008.544,-024.242,+005.334,+0.844,-0.767,+2.671,-00.6670,-01.5690,-11.4180,+00.376777,+01.806878,-00.815647
-009.425,-022.096,+005.920,+0.761,-0.786,+2.694,-02.3280,-01.6400,-11.4880,+00.120327,+01.782248,-00.913650
-010.348,-019.975,+006.286,+0.691,-0.815,+2.740,-03.8070,-01.3180,-10.8850,-00.018671,+01.742353,-00.952201
-011.264,-017.950,+006.533,+0.556,-0.794,+2.728,-04.4240,-01.0230,-10.3130,-00.047577,+01.612032,-00.932913
-012.079,-015.962,+007.126,+0.440,-0.783,+2.658,-06.6190,-00.5560,-13.1720,+00.539908,+01.738578,-00.867703
-012.742,-013.582,+008.148,+0.366,-0.733,+2.584,-06.8280,-01.1850,-12.2820,+00.801063,+02.095957,-00.797037
-013.193,-011.049,+009.057,+0.361,-0.734,+2.444,-07.2230,-00.7570,-10.1550,+00.635704,+02.114455,-00.650067
-013.372,-008.585,+009.729,+0.421,-0.754,+2.387,-09.1850,-00.3990,-11.0370,+00.538029,+02.135993,-00.408951
-013.211,-005.929,+010.231,+0.458,-0.730,+2.443,-09.3560,-00.7070,-09.0210,+00.394714,+02.385050,-00.185638
-012.851,-003.361,+010.588,+0.445,-0.665,+2.479,-09.6100,+00.3610,-04.9150,+00.321787,+02.128431,-00.049412
-012.409,-001.347,+010.951,+0.449,-0.699,+2.566,-10.8370,+00.8890,-02.7280,+00.339430,+01.578057,+00.106986
-011.966,-000.023,+011.250,+0.435,-0.684,+2.625,-12.3420,-00.2030,-01.9660,+00.172580,+00.992795,+00.166763
-011.695,+000.650,+011.213,+0.435,-0.684,+2.657,-12.6160,-00.8360,-01.8060,-00.138468,+00.393748,+00.069928
-011.673,+000.855,+010.836,+0.445,-0.664,+2.658,-13.0980,-01.1030,-02.2390,-00.468468,+00.080653,-00.036541
-011.730,+000.455,+010.244,+0.473,-0.699,+2.692,-13.0410,+00.9110,-01.7950,-00.470673,-00.534028,+00.073458
-011.845,-000.152,+009.921,+0.519,-0.699,+2.650,-01.8950,-02.0620,-15.0860,-00.423147,-00.221953,-00.061514
-011.510,-001.128,+009.903,+0.570,-0.725,+2.631,+11.2130,+01.4410,-05.2190,+00.052661,-01.430326,+00.985894
-010.950,-003.344,+009.885,+0.640,-0.720,+2.661,-09.9140,-04.7770,-14.3310,-00.082430,-01.791265,+00.255324
-011.180,-004.950,+009.990,+0.719,-0.682,+2.627,-02.6750,+02.8870,-15.5870,+00.142165,-01.196043,+00.164054
-011.031,-006.240,+010.244,+0.775,-0.707,+2.629,-00.4450,-03.2650,-07.1090,+00.285456,-01.127450,+00.293208
-011.125,-007.770,+010.454,+0.844,-0.693,+2.638,-00.3940,-03.0990,-06.2730,+00.079949,-01.447680,+00.142343
-011.259,-009.580,+010.225,+0.914,-0.664,+2.570,-02.3050,-02.9960,-09.0520,-00.437704,-01.598608,+00.191178
-011.408,-011.389,+009.389,+0.998,-0.705,+2.520,-03.8740,-03.0020,-11.6390,-00.873446,-01.509923,+00.106019
-011.568,-012.785,+008.328,+1.044,-0.755,+2.512,-04.4890,-01.3870,-13.8790,-01.041278,-01.038014,+00.024399
-011.637,-013.714,+007.442,+1.086,-0.775,+2.465,-02.3160,+00.9140,-10.0970,-00.642780,-00.758271,+00.062997
-011.659,-014.543,+006.975,+1.123,-0.791,+2.429,-02.5740,-00.1150,-09.7520,-00.289400,-00.708401,+00.073037
-011.671,-015.333,+006.850,+1.151,-0.796,+2.436,-03.0150,-00.6540,-09.8500,-00.036713,-00.653300,+00.072375
-011.694,-016.057,+006.956,+1.192,-0.792,+2.389,-02.5650,-00.4360,-09.9700,+00.179972,-00.619015,+00.051886
-011.711,-016.758,+007.402,+1.211,-0.782,+2.395,-01.9210,-01.3480,-08.8850,+00.449475,-00.667760,+00.060756
-011.757,-017.597,+008.034,+1.234,-0.772,+2.412,-02.9550,-01.2000,-08.9820,+00.583047,-00.766807,+00.063477
-011.792,-018.452,+008.660,+1.276,-0.728,+2.392,-03.3340,-01.5760,-09.5000,+00.474742,-00.697001,+00.085959
-011.782,-019.145,+009.109,+1.290,-0.723,+2.382,-04.2370,-01.7210,-09.5870,+00.361516,-00.494216,+00.100127
-011.754,-019.611,+009.349,+1.304,-0.733,+2.393,-03.7160,-01.6520,-09.1840,+00.157970,-00.334063,+00.090139
-011.699,-019.889,+009.460,+1.318,-0.704,+2.388,-03.5820,-01.4180,-08.9810,+00.095371,-00.185340,+00.077093
-011.641,-020.061,+009.542,+1.323,-0.729,+2.372,-03.2360,-01.5730,-08.8800,+00.084584,-00.120323,+00.068469
-011.572,-020.201,+009.599,+1.332,-0.714,+2.389,-03.2010,-01.6850,-08.8020,+00.062796,-00.104378,+00.082151
-011.476,-020.322,+009.619,+1.327,-0.699,+2.356,-03.3690,-01.5960,-08.8580,+00.040665,-00.081439,+00.100258
-011.365,-020.420,+009.616,+1.327,-0.714,+2.356,-03.3100,-01.6050,-08.7380,+00.028133,-00.060309,+00.107079
-011.221,-020.511,+009.585,+1.323,-0.719,+2.372,-03.1990,-01.5700,-08.7370,+00.014111,-00.060501,+00.142928
-011.043,-020.615,+009.544,+1.332,-0.714,+2.378,-03.3090,-01.5840,-08.7540,+00.023183,-00.069521,+00.165327
-010.847,-020.747,+009.512,+1.327,-0.729,+2.362,-03.2720,-01.5680,-08.6590,+00.041651,-00.093218,+00.187629
-010.636,-020.904,+009.522,+1.327,-0.724,+2.389,-03.3130,-01.4210,-08.5950,+00.087044,-00.119642,+00.195730
-010.426,-021.111,+009.585,+1.337,-0.714,+2.351,-03.2880,-01.5310,-08.6380,+00.150949,-00.163905,+00.204303
-010.224,-021.369,+009.713,+1.351,-0.734,+2.374,-03.3780,-01.6090,-08.5160,+00.174468,-00.223874,+00.193473
-010.078,-021.735,+009.845,+1.351,-0.739,+2.390,-03.3640,-01.6580,-08.5460,+00.148228,-00.336775,+00.160997
-010.001,-022.341,+009.893,+1.369,-0.719,+2.353,-03.4230,-01.7200,-08.6360,-00.006693,-00.644655,+00.162656
-009.921,-023.347,+009.748,+1.392,-0.740,+2.327,-03.6000,-01.8240,-08.6050,-00.161424,-01.034653,+00.255703
-009.842,-025.132,+009.367,+1.429,-0.755,+2.312,-03.9960,-01.6300,-08.5590,-00.389340,-01.830648,+00.333027
-009.969,-027.707,+008.804,+1.499,-0.766,+2.207,-04.3260,-01.4380,-08.4870,-00.628172,-02.415747,+00.228403
-010.186,-031.021,+007.989,+1.578,-0.797,+2.141,-03.7350,-01.5590,-08.6240,-00.951740,-03.250179,+00.305518
-010.475,-035.979,+006.524,+1.685,-0.848,+2.011,-04.3790,-02.9620,-08.9570,-01.715131,-05.025017,+00.408586
-010.451,-043.168,+004.052,+1.819,-0.895,+1.768,-04.3870,-02.2580,-11.8240,-02.319549,-06.975118,+00.694394
-009.657,-052.127,+000.864,+1.972,-1.022,+1.440,-07.7810,-01.4500,-18.3840,-02.004115,-08.082391,+00.776878
-006.925,-060.510,-001.153,+2.050,-1.064,+1.249,-20.0440,-01.1490,-27.8640,+01.398502,-06.709733,+01.702338
-000.429,-066.078,-004.337,+2.055,-1.129,+1.147,-07.3870,-04.4270,-30.0290,+02.497596,-03.819068,+02.311476
+004.192,-068.799,-006.962,+2.087,-1.188,+1.176,-03.7440,-12.2440,-18.3780,+00.660118,-02.124186,+01.081599
+007.027,-070.176,-009.481,+2.138,-1.213,+1.227,+00.1990,-06.3190,-27.6440,-00.039795,-00.431179,+00.401274
+006.845,-069.313,-009.334,+2.162,-1.203,+1.331,+07.7220,-05.0510,-15.4770,-00.049152,+01.160025,-00.070287
+005.422,-067.703,-008.045,+2.176,-1.197,+1.521,+08.2210,-02.5730,-10.6810,-00.028967,+01.595622,-00.333984
+003.413,-065.622,-006.035,+2.162,-1.167,+1.671,+06.6930,-00.9840,-09.5750,+00.235409,+02.090917,-00.535931
+001.127,-062.997,-003.669,+2.060,-1.086,+1.850,+04.7480,-01.2520,-09.2440,+00.237803,+02.490876,-00.749651
-001.396,-059.937,-001.312,+1.940,-1.014,+1.985,+02.2310,-02.0440,-10.1780,+00.019872,+02.842782,-01.067534
-004.249,-056.464,+000.901,+1.866,-0.959,+2.090,+00.2760,-02.2110,-10.5440,-00.227078,+03.130545,-01.443920
-007.265,-052.524,+003.195,+1.819,-0.874,+2.141,-02.5070,-01.4830,-13.3570,-00.041866,+03.586732,-01.755987
-010.031,-047.652,+005.313,+1.787,-0.833,+2.269,-05.0340,-01.2230,-15.0130,-00.032477,+04.464519,-01.897916
-012.092,-041.862,+006.550,+1.718,-0.767,+2.449,-05.9940,+00.7210,-13.0960,-00.276036,+05.073379,-01.678135
-013.115,-035.896,+007.042,+1.565,-0.725,+2.648,-06.8100,+03.6270,-10.7490,+00.003958,+05.013090,-01.030095
-013.007,-030.298,+007.442,+1.347,-0.702,+2.871,-08.1210,+03.2540,-13.8010,+00.621032,+04.783632,-00.241514
-011.943,-024.815,+008.126,+1.119,-0.654,+3.001,-10.9600,+00.9460,-18.0960,+01.237879,+04.945142,+00.383872
-010.358,-019.207,+009.359,+0.817,-0.557,+3.074,-14.2600,-01.4970,-17.0450,+01.819823,+05.024906,+00.539280
-008.850,-013.775,+011.288,+0.543,-0.430,+3.126,-20.0150,-03.2590,-16.6860,+02.123806,+04.872537,+00.294065
-007.503,-008.184,+013.188,+0.339,-0.363,+3.127,-25.0510,-05.9410,-15.6650,+01.684314,+05.116007,-00.056840
-006.485,-002.402,+014.569,+0.070,-0.266,+3.141,-26.5770,-06.5590,-06.2520,+01.106088,+04.898573,-00.558102
-006.359,+002.369,+015.919,-0.135,-0.215,+3.127,-31.0210,+01.0010,+02.8870,+01.313375,+03.515311,-01.224915
-006.963,+005.820,+017.528,-0.256,-0.159,+3.116,-38.7850,+11.9530,+09.4440,+01.452555,+02.271533,-01.352698
-007.270,+007.228,+018.387,-0.311,-0.099,+3.113,-31.2020,+12.9640,+08.2880,+00.062895,+00.280680,-00.019099
-006.318,+006.033,+016.812,-0.283,-0.134,+3.125,-24.8340,+04.9130,-02.6760,-02.138737,-01.245472,+01.613131
-004.878,+004.624,+015.315,-0.279,-0.243,+3.153,+19.4290,-07.4410,-16.6420,-00.436560,-00.751303,+01.442105
-003.918,+001.298,+014.626,-0.163,-0.244,+3.169,-05.3410,-16.4820,+04.7720,-01.120170,-03.462857,+01.335876
-005.902,-002.718,+013.485,+0.042,-0.310,+3.195,-15.3330,+17.4420,-30.3890,-01.168088,-03.491073,-00.879594
-005.711,-005.488,+011.982,+0.125,-0.356,+3.231,-01.1920,+02.2540,-09.7330,-00.866932,-02.074817,+01.103540
-005.821,-008.042,+010.951,+0.246,-0.421,+3.215,-03.0500,-04.6760,-12.8110,-01.010977,-02.157147,+00.051639
-005.797,-010.141,+009.750,+0.348,-0.517,+3.177,-04.3690,+01.5480,-12.9390,-00.896292,-01.620915,+00.509004
-005.773,-011.792,+008.607,+0.408,-0.577,+3.218,-03.9190,-04.6380,-12.3680,-01.072968,-01.285743,+00.091203
-005.730,-013.098,+007.648,+0.459,-0.602,+3.172,-02.6010,+00.3210,-10.7280,-00.642520,-01.047945,+00.270336
-005.626,-014.224,+007.042,+0.506,-0.667,+3.180,-03.3320,-00.9330,-10.2350,-00.429649,-00.918856,+00.174444
-005.464,-015.251,+006.862,+0.543,-0.682,+3.181,-02.8850,+00.9200,-12.2130,+00.181173,-00.798844,+00.303247
-005.285,-016.205,+007.234,+0.585,-0.668,+3.156,-02.7520,-00.5180,-09.7570,+00.507223,-00.836207,+00.228400
-005.158,-017.163,+007.893,+0.627,-0.629,+3.158,-02.9580,-01.4400,-09.0030,+00.646938,-00.829602,+00.200373
-005.071,-018.182,+008.621,+0.650,-0.594,+3.191,-02.7900,-01.9270,-08.9370,+00.644010,-00.890274,+00.206212
-004.981,-019.126,+009.274,+0.697,-0.570,+3.166,-03.4570,-02.1840,-09.2030,+00.517666,-00.732558,+00.191231
-004.870,-019.831,+009.636,+0.729,-0.560,+3.162,-03.7040,-01.9990,-09.1710,+00.253031,-00.479034,+00.190478
-004.698,-020.265,+009.731,+0.738,-0.550,+3.194,-03.5540,-01.7180,-08.9850,+00.079387,-00.304937,+00.209328
-004.504,-020.598,+009.720,+0.748,-0.536,+3.168,-03.5920,-01.5480,-08.8460,+00.038946,-00.233456,+00.198592
-004.321,-020.860,+009.718,+0.766,-0.556,+3.190,-03.4430,-01.4970,-08.8530,+00.074055,-00.184799,+00.176790
-004.157,-021.068,+009.745,+0.766,-0.570,+3.190,-03.6270,-01.5550,-08.7340,+00.074765,-00.142532,+00.150242
-004.000,-021.242,+009.769,+0.771,-0.556,+3.164,-03.4630,-01.6710,-08.6850,+00.062148,-00.116095,+00.157592
-003.810,-021.396,+009.803,+0.766,-0.566,+3.174,-03.3850,-01.5570,-08.7000,+00.106834,-00.106226,+00.188365
-003.590,-021.565,+009.862,+0.776,-0.576,+3.180,-03.4020,-01.4930,-08.5850,+00.124926,-00.124118,+00.207343
-003.370,-021.779,+009.939,+0.785,-0.541,+3.164,-03.3820,-01.6270,-08.5880,+00.139531,-00.180126,+00.212197
-003.166,-022.084,+010.019,+0.785,-0.551,+3.169,-03.3990,-01.5420,-08.5060,+00.129131,-00.269493,+00.204361
-003.000,-022.564,+010.092,+0.794,-0.566,+3.197,-03.3670,-01.4710,-08.5840,+00.115510,-00.500277,+00.209489
-002.919,-023.413,+010.122,+0.850,-0.547,+3.162,-03.5990,-01.4060,-08.4810,-00.003485,-00.871392,+00.161903
-003.022,-024.855,+010.013,+0.892,-0.537,+3.136,-03.6800,-01.8540,-08.4660,-00.213718,-01.523415,+00.153851
-003.121,-027.289,+009.623,+0.999,-0.598,+3.120,-03.8760,-02.0180,-08.3260,-00.472235,-02.465617,+00.391947
-002.957,-030.565,+008.929,+1.119,-0.600,+3.044,-04.0260,-02.2670,-08.2140,-00.587315,-03.054048,+00.670845
-002.760,-035.313,+007.568,+1.296,-0.681,+2.933,-03.5490,-02.5140,-08.8940,-01.626770,-04.988742,+00.733411
-002.793,-043.400,+004.719,+1.537,-0.779,+2.766,-04.1370,-05.3530,-13.2570,-02.731467,-08.059342,+00.866560
-001.531,-053.712,-000.381,+1.875,-0.933,+2.360,-09.2780,-07.2450,-24.0960,-05.019916,-09.191588,+01.072989
+002.455,-062.623,-008.934,+2.107,-1.125,+1.934,-18.6660,+05.0540,-30.3740,-03.645594,-07.054949,+01.664202
+011.812,-066.607,-018.183,+2.130,-1.176,+1.751,+06.9660,-00.3280,-45.3490,+00.721449,-01.923994,+03.060842
+018.313,-067.571,-024.628,+2.079,-1.221,+1.641,+06.0110,-06.7280,-19.8970,+00.031882,-01.433471,+01.391238
+019.393,-067.182,-025.580,+2.023,-1.255,+1.617,+04.1240,-09.2710,-29.5770,-00.031297,+01.296907,+00.047415
+015.071,-065.014,-021.962,+2.018,-1.215,+1.703,+05.7590,-07.6290,-13.9270,-00.350097,+02.742799,-01.092204
+008.187,-062.181,-015.633,+1.986,-1.135,+1.804,+02.6250,-02.5940,-08.3740,+00.419308,+03.391006,-02.060822
+001.065,-058.924,-008.949,+1.963,-1.045,+1.943,+01.3340,+00.4120,-07.1680,+00.285492,+03.407303,-02.471430
-004.481,-055.251,-004.473,+1.973,-0.984,+2.078,-00.6740,+03.7350,-11.1300,-00.399130,+03.597326,-02.019801
-007.829,-050.865,-002.420,+1.898,-0.924,+2.226,-01.7470,+05.1580,-11.9810,-00.570480,+04.123474,-01.225361
-009.484,-045.928,-001.675,+1.736,-0.936,+2.376,-02.8390,+04.1020,-10.9330,-00.342332,+04.434917,-00.574914
-010.078,-040.776,-001.577,+1.592,-0.949,+2.526,-03.6040,+03.0650,-10.1980,-00.235268,+04.521527,-00.061571
-009.932,-035.679,-001.778,+1.411,-0.966,+2.594,-04.1400,+02.3690,-09.9060,+00.016710,+04.358855,+00.388834
-009.300,-030.885,-001.738,+1.225,-1.038,+2.733,-04.2470,+01.0550,-10.3150,+00.547754,+04.055939,+00.692749
-008.416,-026.364,-000.998,+1.049,-1.061,+2.844,-04.9830,-00.0180,-11.9520,+01.362911,+03.840082,+00.799041
-007.540,-022.087,+000.855,+0.816,-1.008,+2.969,-06.4930,-02.1320,-13.0400,+02.216999,+03.685941,+00.612389
-006.958,-017.887,+003.582,+0.594,-0.956,+3.078,-10.5170,-03.6900,-16.5070,+02.719164,+03.748003,+00.149626
-006.758,-013.261,+006.779,+0.399,-0.879,+3.171,-15.2840,-04.6620,-18.0630,+02.817611,+04.251491,-00.403561
-006.785,-007.915,+009.749,+0.185,-0.743,+3.166,-19.4990,-04.6860,-18.2560,+02.412422,+04.820349,-00.867055
-006.851,-001.944,+012.109,-0.043,-0.647,+3.204,-23.3170,-03.2590,-14.9480,+01.827826,+05.233469,-01.108648
-006.624,+003.914,+014.012,-0.219,-0.556,+3.218,-25.4610,-00.1520,-03.8170,+01.621990,+04.705005,-00.826771
-006.188,+008.139,+016.553,-0.400,-0.405,+3.171,-32.9410,+07.6670,+06.2550,+02.595093,+03.000565,-00.396954
-005.532,+010.375,+019.775,-0.502,-0.251,+3.203,-40.6310,+07.0670,+10.1270,+02.495108,+01.390603,+00.028104
-005.383,+010.255,+020.912,-0.511,-0.206,+3.224,-28.5390,+02.9070,+05.0520,-00.238659,-00.852228,+00.381235
-005.510,+007.851,+018.229,-0.404,-0.261,+3.251,-18.5080,-01.9160,-07.4750,-03.180231,-02.308658,+00.502374
-005.828,+005.370,+016.546,-0.293,-0.341,+3.283,+44.3590,-11.4670,-09.5990,-00.804275,-03.013223,+00.600277
-006.397,+000.402,+013.950,-0.112,-0.437,+3.346,-28.4910,+02.4100,-09.2100,-01.326017,-04.420328,-00.294565
-007.852,-003.655,+012.166,+0.116,-0.509,+3.335,-05.1260,+25.5810,-33.7600,-01.912954,-02.878625,+00.679943
-007.052,-006.813,+011.025,+0.237,-0.574,+3.346,-02.8550,-10.8070,-03.1060,-00.675278,-02.759858,+00.891098
-007.248,-009.906,+009.676,+0.357,-0.635,+3.373,-05.8040,-01.9700,-13.8050,-01.586048,-02.500181,+00.259064
-007.200,-012.288,+007.835,+0.478,-0.716,+3.347,-07.4210,-02.9490,-18.9750,-01.516508,-01.676804,+00.325972
-007.178,-013.926,+006.321,+0.543,-0.801,+3.291,-02.8320,+00.9940,-11.4150,-01.211851,-01.330670,+00.176438
-007.013,-015.154,+005.217,+0.594,-0.846,+3.326,-04.6260,-00.9170,-15.2470,-00.643020,-00.820656,+00.235660
-006.831,-016.010,+004.803,+0.636,-0.861,+3.295,-01.6250,+01.2790,-09.7740,-00.072785,-00.789068,+00.252483
-006.607,-016.799,+004.899,+0.678,-0.867,+3.275,-05.3010,+00.5080,-10.2980,+00.349421,-00.532368,+00.209311
-006.543,-017.393,+005.248,+0.692,-0.857,+3.308,-03.7180,-00.5950,-09.6840,+00.333560,-00.426652,+00.076349
-006.546,-017.843,+005.636,+0.720,-0.832,+3.293,-02.9450,-00.8050,-08.9600,+00.355803,-00.388225,+00.036835
-006.525,-018.292,+006.055,+0.734,-0.813,+3.304,-02.9660,-01.2700,-09.0550,+00.359243,-00.381944,+00.072600
-006.446,-018.682,+006.363,+0.748,-0.817,+3.332,-03.3810,-01.3930,-09.1980,+00.233317,-00.287805,+00.116095
-006.346,-018.942,+006.536,+0.761,-0.793,+3.289,-03.2180,-00.9830,-08.8350,+00.173289,-00.190245,+00.098041
-006.234,-019.210,+006.744,+0.766,-0.803,+3.300,-02.9460,-01.3410,-08.9110,+00.230356,-00.223035,+00.145623
-006.040,-019.519,+006.974,+0.771,-0.783,+3.328,-03.0720,-01.1320,-08.8480,+00.278745,-00.271842,+00.207216
-005.828,-019.858,+007.201,+0.794,-0.749,+3.328,-03.2250,-01.1260,-08.6930,+00.249974,-00.269599,+00.213843
-005.566,-020.203,+007.425,+0.794,-0.754,+3.334,-03.0830,-01.2410,-08.6580,+00.288539,-00.276174,+00.270522
-005.248,-020.587,+007.664,+0.799,-0.758,+3.345,-03.3260,-01.2320,-08.7640,+00.313202,-00.308633,+00.324149
-004.871,-021.010,+007.892,+0.822,-0.724,+3.308,-03.3430,-01.1190,-08.7060,+00.318805,-00.328589,+00.364655
-004.503,-021.479,+008.134,+0.841,-0.739,+3.319,-03.2560,-01.4780,-08.6460,+00.328406,-00.394936,+00.345225
-004.184,-022.071,+008.392,+0.831,-0.679,+3.346,-03.3900,-00.9630,-08.6160,+00.316406,-00.529173,+00.307666
-004.066,-022.842,+008.574,+0.887,-0.695,+3.327,-03.4910,-01.2370,-08.6450,+00.108190,-00.756114,+00.121069
-004.116,-024.375,+008.495,+0.943,-0.716,+3.286,-03.5400,-02.1460,-08.5040,-00.201031,-01.730693,+00.239642
-003.912,-027.418,+007.964,+1.059,-0.737,+3.291,-03.6050,-02.4650,-08.5650,-00.476501,-03.166292,+00.754956
-003.349,-032.162,+006.821,+1.245,-0.784,+3.164,-03.0780,-03.0220,-09.2870,-01.049358,-04.823875,+01.049194
-002.473,-039.803,+003.858,+1.537,-0.916,+2.951,-05.0170,-03.5880,-11.2740,-02.860338,-07.617680,+01.366488
-000.372,-049.966,-001.602,+1.824,-1.074,+2.646,-08.1620,-01.5020,-23.9470,-03.174356,-09.324664,+01.535226
+005.390,-059.599,-006.861,+2.056,-1.153,+2.251,-16.9990,-04.0320,-41.0860,+00.504065,-08.093991,+02.750548
+016.638,-065.635,-016.504,+2.116,-1.254,+1.968,-10.7920,-14.2560,-29.0530,-01.071330,-04.829587,+03.190751
+023.069,-068.791,-024.655,+2.116,-1.280,+1.762,+06.2840,-19.6500,-24.2430,-01.928500,-02.506031,+00.271706
+023.460,-071.262,-026.787,+2.134,-1.256,+1.557,+05.1060,-10.1100,-24.2460,-01.198217,-01.322340,-01.272826
+017.461,-071.733,-021.762,+2.153,-1.177,+1.514,+08.5510,-03.1160,-19.8910,-00.271028,+01.150147,-01.741672
+010.089,-070.292,-014.727,+2.153,-1.113,+1.563,+09.0820,+01.4240,-11.2830,+00.216881,+02.182881,-01.489020
+004.452,-067.611,-008.679,+2.130,-0.978,+1.663,+07.2410,+04.3390,-07.9440,+00.976029,+02.875631,-01.096557
+001.088,-064.223,-004.291,+2.098,-0.913,+1.808,+04.8960,+03.1810,-08.0470,+01.131768,+03.157581,-00.745520
-001.062,-060.384,-001.273,+2.052,-0.817,+1.945,+01.6860,+01.1960,-10.9770,+00.859915,+03.571060,-00.743185
-003.061,-055.914,+001.186,+1.955,-0.722,+2.108,-00.6080,+00.3540,-11.5070,+00.557877,+04.086095,-01.041483
-005.079,-050.789,+003.186,+1.853,-0.626,+2.271,-03.3280,+00.3370,-13.4670,+00.169048,+04.656053,-01.315656
-006.689,-044.753,+004.361,+1.704,-0.574,+2.415,-05.0820,+01.9560,-15.6340,-00.044116,+05.514412,-01.225766
-007.553,-037.940,+005.047,+1.509,-0.462,+2.563,-06.1840,+03.4210,-14.2230,+00.206604,+06.034075,-00.917086
-007.538,-031.000,+005.571,+1.249,-0.454,+2.746,-06.3680,+05.5590,-11.4900,+00.659056,+05.940485,-00.273407
-006.493,-024.658,+006.188,+1.064,-0.441,+2.884,-08.7380,+05.1030,-15.9020,+01.143937,+05.429297,+00.528405
-004.588,-018.266,+007.353,+0.729,-0.403,+3.009,-13.7020,+01.8110,-25.4890,+01.860428,+06.007577,+01.039239
-002.355,-011.307,+009.100,+0.330,-0.359,+3.035,-17.3840,-01.8650,-21.8630,+02.064835,+06.291379,+00.881124
-000.515,-004.526,+011.070,+0.028,-0.296,+3.043,-24.1370,-04.4640,-19.1090,+01.892496,+06.012089,+00.293241
+000.519,+001.992,+012.982,-0.270,-0.225,+2.905,-32.9430,-09.1130,-07.4650,+01.549871,+05.394241,-00.764716
-000.086,+007.167,+014.337,-0.470,-0.203,+2.793,-43.4150,+04.6640,+05.7600,+01.188734,+03.579441,-01.870374
-001.660,+009.844,+015.269,-0.512,-0.213,+2.786,-51.7290,+16.2670,+27.4610,+00.638675,+00.485958,-01.850857
-003.019,+008.173,+013.884,-0.451,-0.228,+2.772,-36.9190,+17.1180,+01.2440,-01.684454,-02.443094,+00.083983
-002.040,+005.103,+012.631,-0.359,-0.338,+2.804,+10.1320,+06.1050,-20.4750,-00.487345,-02.401483,+02.116704
+000.434,+000.952,+011.540,-0.298,-0.378,+2.840,-21.4850,-24.2610,-03.6710,-01.141559,-03.056376,+01.778413
-001.029,-002.999,+010.159,-0.126,-0.439,+2.869,-05.4090,+15.0450,-30.6250,-00.994413,-03.201640,-00.352672
-000.722,-006.264,+009.392,-0.010,-0.520,+2.880,-03.8330,-03.7070,-04.0520,-00.305804,-02.905571,+00.708302
-001.101,-009.486,+008.970,+0.083,-0.540,+2.933,-06.4810,-03.2430,-14.8150,-00.632247,-02.562273,+00.023256
-001.336,-011.921,+008.155,+0.194,-0.576,+2.928,-05.1400,+02.0190,-15.2190,-00.567775,-01.850990,+00.217318
-001.460,-014.081,+007.916,+0.287,-0.607,+2.932,-02.9060,-01.6070,-10.6070,-00.030591,-01.922397,+00.142444
-001.572,-016.029,+008.413,+0.338,-0.592,+2.956,-08.3310,+00.2480,-14.3100,+00.773654,-01.408718,+00.121286
-001.697,-017.339,+009.086,+0.417,-0.573,+2.959,-03.4160,-00.1310,-10.4900,+00.525007,-01.032878,+00.075224
-001.767,-018.238,+009.745,+0.445,-0.578,+2.971,-03.3940,-01.4850,-09.5970,+00.546078,-00.693838,+00.045599
-001.839,-018.929,+010.332,+0.464,-0.554,+2.972,-03.4690,-01.6580,-09.4360,+00.479986,-00.559451,+00.063056
-001.856,-019.539,+010.798,+0.497,-0.524,+2.962,-03.3970,-02.1030,-08.9860,+00.355993,-00.510030,+00.099355
-001.803,-020.075,+011.073,+0.510,-0.539,+2.963,-03.4180,-02.3770,-08.7050,+00.189473,-00.409911,+00.153970
-001.670,-020.498,+011.114,+0.520,-0.520,+2.996,-03.4960,-02.0280,-08.7850,+00.020512,-00.302472,+00.185323
-001.508,-020.812,+011.009,+0.534,-0.540,+2.969,-03.5720,-01.5130,-08.9540,-00.054085,-00.199399,+00.178741
-001.329,-021.016,+010.879,+0.534,-0.550,+2.964,-03.6060,-01.7540,-08.8710,-00.068778,-00.101058,+00.180836
-001.131,-021.144,+010.706,+0.538,-0.545,+2.970,-03.5400,-01.9140,-08.6360,-00.089794,-00.069180,+00.175773
-000.910,-021.223,+010.546,+0.534,-0.550,+2.964,-03.5520,-01.7400,-08.7840,-00.048097,-00.012403,+00.197425
-000.661,-021.277,+010.414,+0.524,-0.559,+2.953,-03.4760,-01.8060,-08.6660,-00.026359,-00.064632,+00.198946
-000.400,-021.340,+010.340,+0.524,-0.554,+2.991,-03.4090,-01.7120,-08.7210,+00.044238,-00.013091,+00.241703
-000.127,-021.432,+010.322,+0.534,-0.545,+2.975,-03.3250,-01.6540,-08.4950,+00.078168,-00.136551,+00.228960
+000.115,-021.739,+010.325,+0.524,-0.564,+2.953,-03.3940,-01.6170,-08.4880,+00.086477,-00.257508,+00.251107
+000.360,-022.153,+010.300,+0.552,-0.550,+2.981,-03.3800,-01.6800,-08.4720,+00.046122,-00.366304,+00.272262
+000.625,-022.780,+010.225,+0.552,-0.555,+2.949,-03.4610,-01.5050,-08.5250,-00.007365,-00.595502,+00.314628
+000.741,-023.837,+010.052,+0.603,-0.570,+2.951,-03.6150,-01.3360,-08.4720,-00.192557,-01.134363,+00.201974
+000.599,-025.789,+009.727,+0.664,-0.586,+2.948,-03.8500,-01.8890,-08.5680,-00.418845,-02.074172,+00.205342
+000.421,-028.945,+009.203,+0.789,-0.607,+2.889,-03.7880,-01.7120,-08.2560,-00.584814,-03.071413,+00.416103
+000.381,-033.228,+008.295,+0.942,-0.648,+2.831,-02.9140,-02.3950,-08.5320,-01.048424,-04.312490,+00.533688
+000.165,-040.492,+006.380,+1.151,-0.730,+2.706,-04.1620,-03.3080,-09.7640,-02.209754,-07.468182,+00.854237
+000.608,-051.106,+003.038,+1.495,-0.815,+2.408,-05.2900,-03.1140,-13.5070,-02.691121,-10.320880,+01.155948
+003.654,-063.570,-000.679,+1.805,-0.904,+2.022,-17.4050,-00.7400,-29.5620,+00.789343,-10.609750,+02.108546
+015.966,-073.589,-009.158,+1.926,-0.936,+1.741,-18.3020,-09.1220,-47.0390,+03.872384,-07.064711,+03.565964
+033.853,-076.200,-023.494,+1.888,-0.956,+1.588,-09.5510,-26.2660,-38.4740,-00.096313,-01.349270,+02.283555
+036.705,-076.140,-026.984,+1.874,-0.992,+1.468,+14.1110,-13.8410,-16.4680,-01.536886,+00.244305,+00.200931
+036.358,-075.600,-027.523,+1.888,-0.977,+1.447,+07.1620,-04.2460,-13.6500,-00.227484,+00.819641,+00.102298
+032.817,-073.874,-024.000,+1.902,-0.957,+1.459,+05.2200,-06.5940,-14.2730,+00.079028,+02.274788,-00.163526
+027.356,-070.844,-019.347,+1.898,-0.941,+1.626,+04.8300,-08.1260,-10.4660,-00.947408,+03.330247,-00.535035
+021.102,-067.098,-015.017,+1.847,-0.906,+1.770,+02.7230,-05.2370,-08.7780,-01.309014,+03.871254,-01.131224
+014.894,-063.031,-010.098,+1.717,-0.849,+1.969,+01.4160,-03.4460,-07.0050,-00.207529,+03.985638,-01.640458
+009.176,-058.733,-004.978,+1.508,-0.787,+2.100,-00.6110,-03.2160,-07.1740,+00.175002,+04.056402,-02.048657
+004.221,-054.175,-000.845,+1.346,-0.755,+2.195,-02.2800,-02.8890,-08.5120,-00.147945,+04.112927,-02.254349
+000.072,-049.259,+002.106,+1.183,-0.718,+2.231,-04.2320,-01.7160,-11.2150,-00.292138,+04.401172,-02.299941
-003.288,-043.698,+004.403,+1.062,-0.737,+2.248,-06.3250,-00.7440,-13.5030,-00.001753,+04.946001,-02.272189
-005.817,-037.398,+006.277,+1.021,-0.741,+2.278,-08.2460,+00.3880,-15.2150,+00.381210,+05.535952,-02.100876
-007.436,-030.639,+008.033,+0.970,-0.656,+2.384,-09.8200,+01.9660,-14.4440,+00.897153,+05.741306,-01.731579
-008.032,-024.037,+009.512,+0.845,-0.570,+2.529,-11.1240,+01.7700,-16.1310,+01.167302,+05.538766,-01.062272
-007.598,-017.627,+011.076,+0.710,-0.523,+2.696,-16.5690,-01.0440,-20.9200,+01.644901,+05.658945,-00.463949
-006.639,-010.872,+012.860,+0.478,-0.475,+2.847,-24.5450,-05.9360,-20.8630,+01.772568,+06.095739,-00.477301
-005.668,-003.863,+014.483,+0.176,-0.467,+2.991,-29.6260,-08.2840,-10.7650,+01.396538,+06.051144,-00.718589
-005.099,+002.227,+016.053,-0.066,-0.444,+3.088,-31.9280,-07.8950,+01.4420,+01.457906,+04.624545,-01.055786
-005.673,+006.463,+018.348,-0.265,-0.358,+3.057,-38.1250,+01.7080,+06.1320,+02.517302,+02.711356,-01.886982
-007.377,+009.235,+021.522,-0.372,-0.243,+3.074,-44.1970,+14.9810,+13.5920,+03.062763,+01.103291,-02.127195
-008.493,+009.093,+022.432,-0.358,-0.193,+3.128,-30.1980,+07.6790,+03.4200,-01.007141,-01.340100,+00.125765
-007.893,+006.665,+019.362,-0.284,-0.288,+3.116,-08.7880,+07.2400,-14.2300,-03.034340,-01.813501,+01.706507
-006.693,+002.666,+017.262,-0.172,-0.378,+3.148,+22.7100,-16.7700,-02.5890,-03.357944,-04.250004,+02.121510
-007.856,-002.477,+013.783,+0.023,-0.499,+3.152,-22.4260,+07.9740,-23.2540,-02.170034,-04.540875,-01.026668
-008.072,-006.331,+011.324,+0.190,-0.570,+3.128,+00.9130,+13.8690,-16.8920,-01.351514,-02.825646,+01.309049
-007.898,-009.651,+009.896,+0.325,-0.661,+3.102,-07.1950,-12.0390,-15.4030,-01.394179,-02.662976,+00.180871
-008.035,-011.920,+008.102,+0.399,-0.736,+3.089,-08.0560,+04.7740,-15.7400,-01.178158,-01.568026,+00.308654
-008.054,-013.489,+007.077,+0.473,-0.757,+3.066,-03.3500,-03.9010,-11.1210,-00.874698,-01.265221,+00.072207
-008.030,-014.542,+006.307,+0.519,-0.832,+3.030,-04.5100,+00.1750,-13.0980,-00.421514,-00.669203,+00.168629
-007.955,-015.129,+005.860,+0.538,-0.812,+3.036,-02.6620,+00.2000,-10.1500,-00.291183,-00.461683,+00.108632
-007.865,-015.678,+005.711,+0.557,-0.837,+3.043,-02.7350,-00.3080,-09.6100,-00.031144,-00.470308,+00.127671
-007.783,-016.219,+005.746,+0.575,-0.837,+3.011,-02.3880,-00.2530,-09.1070,+00.112867,-00.479505,+00.109628
-007.716,-016.757,+005.970,+0.594,-0.832,+3.061,-02.4980,-01.0120,-08.6750,+00.252586,-00.473317,+00.090833
-007.631,-017.326,+006.288,+0.612,-0.798,+3.029,-02.9490,-01.6820,-09.0020,+00.289919,-00.472005,+00.136801
-007.482,-017.877,+006.586,+0.631,-0.823,+3.019,-02.9210,-01.3670,-09.0610,+00.311223,-00.463963,+00.202446
-007.296,-018.396,+006.875,+0.645,-0.773,+3.052,-03.1870,-00.9810,-09.1360,+00.302654,-00.409244,+00.208062
-007.124,-018.789,+007.107,+0.650,-0.773,+3.036,-03.4320,-00.9660,-09.1430,+00.218404,-00.262194,+00.166089
-006.946,-019.085,+007.317,+0.664,-0.783,+3.047,-02.8500,-01.0640,-08.8030,+00.260628,-00.251562,+00.188601
-006.714,-019.440,+007.599,+0.673,-0.754,+3.053,-02.8730,-01.4020,-08.7230,+00.330931,-00.294885,+00.268268
-006.481,-019.831,+007.954,+0.696,-0.724,+3.043,-03.3820,-01.3190,-08.8660,+00.371731,-00.362033,+00.243874
-006.197,-020.022,+008.261,+0.682,-0.699,+3.047,-03.3490,-01.1040,-08.5130,+00.336647,-00.157923,+00.234391
-006.001,-020.399,+008.564,+0.692,-0.729,+3.075,-03.2160,-01.6110,-08.7080,+00.315916,-00.340054,+00.200852
-005.811,-020.817,+008.823,+0.696,-0.699,+3.059,-03.1690,-01.0450,-08.6470,+00.267775,-00.352957,+00.212000
-005.599,-021.297,+009.065,+0.715,-0.665,+3.049,-03.3500,-01.0700,-08.6330,+00.292086,-00.405276,+00.255784
-005.407,-021.840,+009.277,+0.729,-0.690,+3.066,-03.4530,-01.1970,-08.7190,+00.193522,-00.489829,+00.184167
-005.391,-022.700,+009.389,+0.761,-0.661,+3.040,-03.4830,-01.8630,-08.6100,+00.046372,-00.942271,+00.158388
-005.247,-024.570,+009.271,+0.831,-0.701,+3.027,-03.4080,-02.1790,-08.4390,-00.145212,-02.038659,+00.560139
-004.736,-027.988,+008.663,+0.942,-0.732,+3.010,-03.8680,-02.9830,-08.0880,-00.429440,-03.365467,+01.009049
-003.999,-032.995,+007.491,+1.114,-0.754,+2.905,-03.6410,-02.9270,-09.0570,-01.036101,-05.012966,+01.279246
-002.835,-040.917,+004.243,+1.383,-0.892,+2.690,-04.5160,-02.3540,-10.7510,-02.966852,-07.904127,+01.587288
-000.969,-052.070,-001.958,+1.662,-1.044,+2.406,-04.1120,-02.6510,-19.3420,-04.609260,-10.554020,+01.224675
+004.083,-063.565,-010.286,+1.949,-1.203,+1.879,-22.4080,-06.1520,-39.4360,-02.506810,-09.424142,+01.357282
+016.785,-070.085,-022.810,+1.985,-1.334,+1.568,-15.4270,-04.8460,-45.8110,-00.102612,-04.715337,+02.907518
+025.589,-070.641,-031.576,+1.916,-1.403,+1.506,-10.6760,-15.8560,-24.2490,-01.057417,-00.465777,+01.472579
+026.552,-070.413,-032.968,+1.878,-1.413,+1.439,+06.3830,-09.7320,-11.0740,+00.174424,+00.193187,-00.070910
+023.956,-070.172,-030.149,+1.874,-1.403,+1.439,+07.0220,-04.5080,-12.3140,+00.550908,+00.876870,-00.730813
+019.234,-069.145,-024.623,+1.855,-1.363,+1.514,+06.5340,-01.3700,-10.9910,+01.142746,+01.790539,-00.912546
+013.937,-067.107,-018.239,+1.828,-1.293,+1.593,+04.4700,-00.4660,-09.3550,+01.274721,+02.565314,-00.986903
+008.913,-064.080,-012.403,+1.758,-1.252,+1.682,+02.2860,+00.0080,-10.0750,+01.002946,+03.296670,-01.094189
+004.432,-060.210,-007.389,+1.716,-1.182,+1.788,+00.8420,+00.5600,-09.4550,+00.866265,+03.815192,-01.311954
+000.480,-055.846,-003.078,+1.670,-1.102,+1.855,-00.1840,+01.7220,-08.6350,+00.834627,+04.006310,-01.556335
-002.829,-051.302,+000.522,+1.643,-1.056,+1.973,-01.5080,+02.8700,-09.0910,+00.791062,+03.972497,-01.648970
-005.445,-046.533,+003.287,+1.606,-0.951,+2.068,-03.6210,+03.6770,-13.5720,+00.654797,+04.258068,-01.619664
-007.235,-040.992,+005.290,+1.545,-0.881,+2.178,-06.2390,+04.4570,-16.9620,+00.619252,+05.066460,-01.379204
-008.037,-034.611,+006.336,+1.411,-0.804,+2.328,-07.4430,+05.1380,-15.2790,+00.430661,+05.645470,-00.945108
-008.054,-028.066,+006.904,+1.309,-0.758,+2.453,-08.3430,+04.6650,-14.6310,+00.555537,+05.647784,-00.518823
-007.645,-021.703,+007.644,+1.109,-0.661,+2.649,-09.7600,+03.1210,-16.0740,+01.008570,+05.473710,-00.338182
-007.136,-015.694,+009.315,+0.882,-0.579,+2.796,-14.4620,+01.1960,-16.6140,+01.854511,+05.099141,-00.342494
-006.500,-010.255,+011.239,+0.729,-0.512,+2.940,-20.8490,-03.5080,-16.7540,+01.722339,+04.589458,-00.302158
-005.767,-004.994,+012.598,+0.488,-0.440,+3.026,-30.8530,-11.7470,-14.6110,+00.845839,+04.725738,-00.430588
-005.440,+000.428,+013.103,+0.237,-0.457,+3.064,-36.1230,-09.2500,-01.4450,+00.455053,+04.428317,-01.028061
-006.101,+004.648,+014.527,+0.093,-0.396,+3.101,-37.9470,+04.4150,+13.1610,+01.793792,+02.702350,-01.665826
-007.254,+006.504,+016.845,+0.018,-0.296,+3.102,-37.1510,+14.5290,+16.3450,+01.803085,+00.347375,-00.884786
-007.181,+005.196,+016.393,+0.056,-0.321,+3.120,-29.8860,+08.2810,+03.1200,-01.724819,-01.731391,+01.246574
-005.548,+001.661,+015.910,+0.125,-0.341,+3.145,+22.5770,-03.7630,-10.2290,+00.964290,-03.226307,+02.523444
-004.278,-003.774,+014.888,+0.330,-0.368,+3.132,-29.0870,-21.1790,-05.8930,-01.357493,-04.261074,+01.098899
-005.666,-008.226,+012.804,+0.543,-0.455,+3.083,-06.5680,+21.5910,-31.7750,-01.882067,-03.343701,+00.418022
-005.138,-011.764,+011.079,+0.655,-0.530,+3.088,-04.3290,-13.4050,-07.2840,-01.424389,-03.091890,+00.741469
-005.270,-014.454,+009.156,+0.789,-0.611,+3.008,-07.7680,+06.0910,-14.1270,-01.338137,-01.926418,+00.451027
-005.048,-016.317,+008.377,+0.859,-0.662,+2.995,-08.7800,-06.5080,-12.0510,-00.260511,-01.220279,+00.382436
-004.966,-017.588,+008.271,+0.896,-0.682,+2.992,-03.4830,+01.3680,-11.0120,+00.158628,-00.987991,+00.312029
-004.827,-018.474,+008.465,+0.929,-0.648,+2.950,-04.6160,+00.4910,-10.4310,+00.257311,-00.579794,+00.196396
-004.750,-019.050,+008.740,+0.952,-0.648,+2.967,-03.8400,-01.0540,-09.2840,+00.281533,-00.433539,+00.094613
-004.774,-019.515,+009.130,+0.980,-0.633,+2.990,-03.1970,-01.1180,-09.0130,+00.362016,-00.387665,+00.026924
-004.840,-019.947,+009.561,+0.989,-0.614,+2.963,-03.3790,-01.2820,-08.9100,+00.343452,-00.367668,+00.005282
-004.889,-020.333,+009.939,+1.008,-0.609,+2.942,-03.3710,-01.8830,-08.8420,+00.293794,-00.317982,+00.026494
-004.866,-020.633,+010.205,+1.017,-0.589,+2.980,-03.4960,-01.7680,-08.8190,+00.207012,-00.219549,+00.083936
-004.762,-020.849,+010.364,+1.022,-0.569,+2.953,-03.2520,-01.8570,-08.7610,+00.159064,-00.147694,+00.136910
-004.620,-021.014,+010.493,+1.022,-0.559,+2.975,-03.4650,-01.8990,-08.6210,+00.148714,-00.108609,+00.137220
-004.451,-021.098,+010.560,+1.022,-0.559,+2.975,-03.3950,-01.7670,-08.6480,+00.089440,-00.020537,+00.160352
-004.225,-021.172,+010.571,+1.036,-0.570,+2.959,-03.3830,-01.5970,-08.6360,+00.078669,-00.031317,+00.215386
-003.921,-021.263,+010.564,+1.026,-0.574,+2.986,-03.3660,-01.7120,-08.6860,+00.100449,-00.036259,+00.276357
-003.587,-021.405,+010.562,+1.008,-0.594,+2.991,-03.4840,-01.6170,-08.5490,+00.104538,-00.092968,+00.291830
-003.272,-021.598,+010.570,+1.022,-0.564,+2.959,-03.4660,-01.6770,-08.5240,+00.110007,-00.134177,+00.280647
-002.968,-021.826,+010.603,+1.017,-0.574,+2.969,-03.5110,-01.6420,-08.5190,+00.136545,-00.162343,+00.286007
-002.673,-022.098,+010.623,+1.026,-0.564,+2.980,-03.5250,-01.6990,-08.4530,+00.094561,-00.213511,+00.257398
-002.461,-022.517,+010.617,+1.031,-0.555,+2.975,-03.4800,-01.5740,-08.5720,+00.046852,-00.422141,+00.232549
-002.327,-023.227,+010.569,+1.064,-0.570,+2.939,-03.7040,-01.3230,-08.5770,-00.033373,-00.680916,+00.186864
-002.372,-024.287,+010.452,+1.087,-0.605,+2.951,-03.3360,-01.7680,-08.5100,-00.164608,-01.104415,+00.138454
-002.393,-026.303,+010.152,+1.180,-0.601,+2.901,-03.7150,-01.8180,-08.2960,-00.342664,-02.215562,+00.411471
-002.352,-029.932,+009.602,+1.305,-0.642,+2.804,-03.3110,-02.2660,-08.4970,-00.545578,-03.607450,+00.666102
-002.291,-035.200,+008.534,+1.449,-0.689,+2.735,-03.2640,-02.6940,-08.6340,-01.329188,-05.381901,+00.823384
-002.403,-043.770,+006.570,+1.718,-0.787,+2.488,-05.6960,-03.7850,-13.0180,-01.560342,-08.592871,+00.967739
-001.889,-055.133,+005.785,+2.038,-0.866,+2.102,-06.5220,-00.4630,-18.2770,+00.226715,-10.308970,+01.578343
+000.998,-065.522,+006.699,+2.187,-0.859,+1.865,-20.2610,-06.5150,-45.5580,+05.591110,-07.355392,+02.550816
+003.576,-069.190,+009.878,+2.214,-0.775,+1.812,-02.1900,-40.7800,-20.9480,+01.337164,-01.759542,-00.268363
-000.666,-071.565,+012.100,+2.247,-0.811,+1.700,+03.9860,-08.5620,-16.7040,-02.498106,-02.213557,-00.883448
-005.884,-072.381,+015.707,+2.233,-0.801,+1.661,+02.4540,-00.4110,-16.1410,-00.535252,-00.474387,-01.293411
-009.306,-071.611,+018.710,+2.233,-0.732,+1.634,+04.5090,-02.0800,-16.1730,-00.383331,+00.855456,-00.885060
-009.624,-069.646,+017.832,+2.182,-0.741,+1.659,+03.6360,-00.4440,-13.6010,-01.307183,+02.000577,-00.499346
-008.415,-066.749,+015.142,+2.135,-0.755,+1.711,+02.6560,+01.4210,-09.8220,-01.274118,+02.788812,-00.251515
-006.842,-063.264,+012.715,+2.056,-0.744,+1.772,+01.7660,+00.7960,-07.9470,-00.625206,+03.257345,-00.138704
-005.555,-059.322,+011.174,+1.973,-0.738,+1.882,+00.7070,-01.2970,-07.4260,-00.272223,+03.604459,-00.237480
-004.919,-055.039,+010.305,+1.908,-0.722,+1.982,-00.1000,-02.7040,-07.4320,-00.319773,+03.764197,-00.516866
-005.008,-050.552,+009.990,+1.852,-0.666,+2.060,-01.5850,-03.0440,-09.9510,-00.286472,+03.947400,-00.863920
-005.500,-045.473,+010.191,+1.764,-0.620,+2.202,-04.3520,-03.1480,-14.0040,-00.067435,+04.582832,-01.160153
-005.932,-039.447,+010.430,+1.672,-0.544,+2.349,-06.8400,-02.8560,-16.4080,-00.066795,+05.478553,-01.198753
-005.899,-032.546,+010.492,+1.495,-0.507,+2.503,-08.5620,-00.7030,-13.9250,+00.242789,+06.095650,-00.973172
-005.525,-025.748,+011.174,+1.291,-0.464,+2.678,-09.4340,-01.1150,-12.7720,+01.086621,+05.649704,-00.752114
-005.133,-019.372,+012.705,+1.115,-0.437,+2.827,-15.3250,-06.9640,-20.1070,+01.566324,+05.526864,-01.006276
-005.297,-012.764,+014.224,+0.901,-0.335,+2.925,-21.0080,-07.0620,-19.7510,+01.119473,+05.564219,-01.699911
-005.529,-006.631,+014.600,+0.702,-0.298,+3.008,-29.1990,-02.5410,-11.8860,+00.394589,+04.869999,-01.349769
-005.736,-001.417,+015.166,+0.539,-0.247,+3.054,-37.4380,-03.4820,-02.0880,+00.660961,+04.035452,-01.415531
-006.215,+002.554,+016.463,+0.395,-0.171,+3.080,-41.8580,+06.1120,+12.4110,+01.305413,+02.573573,-01.286975
-007.084,+003.737,+017.906,+0.353,-0.096,+3.040,-40.2480,+18.9860,+25.3990,+00.915582,-00.566131,-00.593900
-006.836,+000.439,+016.586,+0.451,-0.107,+3.066,-30.4840,+18.9680,+11.0330,-02.057683,-03.577218,+02.111012
-005.164,-004.779,+014.706,+0.651,-0.179,+2.988,+10.8480,-28.5300,-36.8060,-02.283981,-03.928699,+02.463248
-005.481,-008.845,+011.948,+0.818,-0.265,+2.910,-14.6710,-07.4540,-06.1720,-02.488528,-03.747938,-00.660463
-006.204,-012.213,+009.489,+0.943,-0.356,+2.862,-01.3570,+19.0250,-23.0020,-01.911354,-02.326731,+00.842433
-005.772,-014.709,+008.084,+1.040,-0.432,+2.785,-10.8340,-13.3980,-12.6500,-01.413021,-02.039601,+00.110589
-005.725,-016.411,+007.267,+1.096,-0.462,+2.756,-06.7700,+05.5580,-11.1690,-00.041068,-01.071222,+00.467480
-005.724,-017.542,+007.590,+1.138,-0.448,+2.763,-03.9230,-00.5540,-10.9230,+00.268081,-00.887647,+00.037039
-005.772,-018.418,+008.031,+1.161,-0.433,+2.693,-04.7880,-00.4970,-10.2130,+00.473935,-00.647241,+00.034968
-005.886,-019.031,+008.579,+1.198,-0.424,+2.690,-03.2300,-00.2300,-09.3770,+00.477325,-00.519373,-00.008338
-005.980,-019.549,+009.177,+1.212,-0.399,+2.733,-03.6770,-01.4100,-09.2920,+00.478659,-00.413976,-00.017984
-006.075,-019.935,+009.689,+1.231,-0.360,+2.701,-03.3710,-01.8910,-09.0500,+00.371730,-00.307371,-00.017151
-006.111,-020.217,+010.030,+1.240,-0.355,+2.685,-03.3820,-01.8740,-08.8550,+00.240664,-00.225732,+00.036502
-006.070,-020.464,+010.243,+1.259,-0.380,+2.708,-03.5150,-01.5490,-08.8890,+00.183788,-00.191640,+00.090784
-005.988,-020.653,+010.429,+1.263,-0.335,+2.697,-03.5080,-01.7350,-08.8240,+00.184088,-00.128815,+00.091682
-005.938,-020.804,+010.607,+1.245,-0.355,+2.697,-03.4500,-01.6880,-08.6940,+00.165435,-00.125835,+00.048932
-005.918,-020.966,+010.782,+1.263,-0.345,+2.713,-03.4170,-01.7340,-08.6910,+00.151915,-00.137963,+00.049708
-005.850,-021.084,+010.933,+1.268,-0.296,+2.697,-03.3980,-01.8070,-08.6450,+00.157836,-00.074551,+00.088958
-005.732,-021.186,+011.053,+1.273,-0.350,+2.714,-03.4030,-01.9310,-08.6200,+00.129899,-00.065295,+00.125019
-005.575,-021.273,+011.129,+1.264,-0.325,+2.735,-03.4420,-01.7940,-08.6110,+00.111516,-00.038647,+00.150788
-005.383,-021.342,+011.180,+1.277,-0.330,+2.703,-03.4350,-01.7470,-08.6550,+00.108665,-00.031969,+00.171413
-005.160,-021.425,+011.230,+1.268,-0.325,+2.687,-03.4510,-01.7300,-08.6030,+00.116014,-00.033261,+00.200440
-004.907,-021.513,+011.235,+1.259,-0.340,+2.708,-03.4730,-01.7500,-08.4960,+00.071688,-00.016506,+00.218360
-004.667,-021.669,+011.203,+1.268,-0.320,+2.714,-03.5120,-01.9100,-08.5410,+00.052299,-00.129674,+00.226056
-004.376,-021.877,+011.176,+1.273,-0.340,+2.681,-03.5210,-01.6920,-08.5540,+00.074039,-00.137377,+00.285110
-004.096,-022.176,+011.131,+1.291,-0.320,+2.720,-03.3700,-01.6910,-08.4450,+00.024444,-00.291035,+00.266519
-003.900,-022.711,+011.044,+1.291,-0.331,+2.666,-03.4890,-01.6770,-08.4460,-00.037816,-00.514925,+00.224975
-003.848,-023.527,+010.911,+1.315,-0.361,+2.656,-03.6240,-01.4870,-08.4910,-00.135446,-00.820350,+00.151882
-003.860,-024.904,+010.712,+1.356,-0.346,+2.653,-03.5130,-02.1520,-08.4420,-00.222788,-01.491029,+00.292976
-003.779,-027.542,+010.304,+1.449,-0.372,+2.592,-03.7920,-02.1120,-08.3090,-00.393516,-02.736939,+00.595509
-003.636,-031.647,+009.623,+1.560,-0.443,+2.451,-03.5360,-03.0090,-08.2110,-00.635053,-03.942305,+00.818072
-003.476,-037.962,+008.094,+1.709,-0.495,+2.345,-04.0260,-03.2280,-09.5910,-01.703392,-06.618001,+01.044466
-003.190,-047.702,+006.017,+1.955,-0.578,+2.010,-03.4760,-01.6360,-14.4100,-01.450959,-09.328435,+01.373838
-001.605,-059.700,+003.158,+2.168,-0.662,+1.571,-09.4000,-05.2470,-24.4850,-00.716303,-10.478140,+01.878638
+005.705,-070.758,-003.042,+2.270,-0.789,+1.241,-18.6650,-00.5710,-30.3390,+01.254081,-08.816194,+03.088172
+020.148,-076.106,-013.444,+2.260,-0.879,+1.041,-15.8570,-15.9060,-42.9740,+02.744031,-02.547217,+02.294117
+025.636,-076.075,-018.249,+2.241,-0.948,+0.998,-01.6520,-16.4220,-21.1660,-00.295624,+00.338512,+00.773852
+026.650,-075.743,-020.829,+2.246,-0.978,+1.014,+04.6350,-07.0030,-09.9470,-01.543826,+00.203910,+00.006248
+024.021,-075.252,-019.142,+2.251,-0.923,+1.019,+04.4400,-02.0790,-10.0050,-00.115770,+00.894264,-00.641672
+018.497,-074.049,-012.969,+2.269,-0.883,+1.112,+04.5790,-02.4080,-08.6770,+01.014473,+01.601938,-01.062217
+012.433,-071.994,-006.516,+2.260,-0.808,+1.241,+02.6600,-03.3260,-09.4340,+00.122450,+02.312405,-01.312940
+006.954,-068.846,-001.979,+2.228,-0.728,+1.347,-00.2300,-01.4640,-11.5930,-00.818498,+03.201175,-01.444483
+002.397,-064.532,+001.354,+2.149,-0.662,+1.500,-01.9550,+00.4630,-11.0180,-00.583382,+04.093318,-01.616058
-001.111,-059.274,+004.088,+2.061,-0.606,+1.631,-03.4330,+00.9160,-10.9890,-00.248494,+04.746154,-01.648862
-003.400,-053.217,+005.531,+1.941,-0.515,+1.776,-06.1400,+01.4020,-12.5490,-00.517356,+05.434621,-01.458297
-004.519,-046.489,+005.786,+1.829,-0.518,+1.912,-07.3480,+03.6080,-11.1690,-00.447375,+05.942154,-01.025797
-004.465,-039.469,+005.754,+1.774,-0.477,+2.088,-08.2480,+07.0420,-08.1100,+00.346582,+06.104268,-00.239821
-003.013,-032.977,+006.205,+1.677,-0.445,+2.375,-10.8150,+06.9600,-11.6880,+01.590856,+05.562899,+00.826249
-000.414,-026.746,+007.289,+1.426,-0.411,+2.683,-13.3690,+03.4840,-16.8050,+02.262082,+05.724897,+01.604845
+002.989,-020.496,+008.804,+1.096,-0.347,+2.901,-16.6150,+01.0950,-16.2150,+02.724214,+05.743231,+02.048406
+006.503,-014.656,+011.183,+0.692,-0.199,+2.925,-21.4950,-00.4890,-14.8340,+03.034905,+05.410573,+01.952414
+009.970,-009.152,+013.602,+0.427,-0.078,+2.864,-26.0210,-00.4770,-13.1110,+02.545003,+05.260818,+01.767949
+012.971,-004.289,+015.897,+0.316,-0.017,+2.886,-24.5490,+01.7640,-03.2560,+02.177461,+04.313503,+01.179004
+015.063,-000.772,+018.151,+0.186,+0.123,+2.923,-25.2220,+16.2090,+00.2830,+01.913881,+03.010145,+00.796614
+017.315,+001.295,+019.447,+0.079,+0.139,+2.945,-34.6920,+20.4900,+03.9520,+00.410701,+01.923113,+01.686876
+019.896,+001.184,+018.032,+0.051,+0.134,+2.976,-27.0850,+15.0570,+09.8160,-01.898940,-00.195582,+02.504304
+022.245,-001.001,+015.547,+0.121,+0.020,+2.969,-15.8050,-01.1530,-06.1580,-02.252122,-01.445319,+02.212215
+023.445,-002.528,+013.857,+0.205,-0.041,+2.957,+19.3280,-09.7930,-17.5400,-00.492439,-01.088380,+00.950992
+023.894,-006.260,+014.392,+0.307,-0.057,+2.967,-03.2130,-08.5880,+09.4450,+00.280884,-04.357397,+01.408136
+023.038,-010.383,+013.317,+0.534,-0.064,+2.928,-19.9770,+14.3230,-34.4800,-01.603517,-02.899408,+00.196686
+023.289,-012.879,+011.903,+0.646,-0.135,+2.901,+00.0610,-15.3170,-08.2890,-01.299166,-02.092460,+00.362896
+023.017,-015.178,+009.972,+0.729,-0.210,+2.900,-05.3060,+07.6390,-14.4170,-01.563909,-01.817223,+00.347879
+023.398,-016.903,+008.990,+0.818,-0.226,+2.850,-04.4010,-04.1590,-12.7210,-00.481896,-01.297393,+00.442466
+023.505,-017.948,+008.758,+0.855,-0.256,+2.825,-02.6560,+01.5630,-10.8550,+00.005433,-00.747666,+00.199817
+023.640,-018.637,+008.797,+0.887,-0.266,+2.864,-03.7730,-02.3040,-09.5740,+00.049992,-00.492622,+00.156836
+023.717,-019.142,+008.882,+0.906,-0.237,+2.843,-04.1740,-00.7380,-09.3310,+00.139207,-00.370616,+00.117275
+023.713,-019.583,+009.148,+0.934,-0.247,+2.823,-03.2220,-00.4790,-09.0390,+00.252566,-00.353071,+00.043348
+023.688,-019.939,+009.502,+0.939,-0.217,+2.850,-03.5560,-01.2810,-08.9550,+00.329846,-00.214661,-00.022588
+023.585,-020.225,+009.876,+0.962,-0.203,+2.813,-03.4580,-01.9850,-08.7660,+00.276642,-00.264255,-00.039959
+023.527,-020.469,+010.162,+0.966,-0.218,+2.808,-03.3800,-01.8840,-08.8100,+00.192596,-00.193980,+00.008949
+023.542,-020.618,+010.285,+0.966,-0.193,+2.856,-03.4710,-01.8320,-08.7170,+00.080759,-00.096875,+00.051971
+023.622,-020.725,+010.349,+0.971,-0.198,+2.824,-03.2390,-01.6260,-08.7180,+00.078115,-00.080089,+00.097157
+023.733,-020.847,+010.408,+0.980,-0.178,+2.835,-03.3240,-01.3610,-08.7210,+00.092762,-00.093524,+00.111542
+023.846,-020.981,+010.481,+0.985,-0.218,+2.841,-03.2320,-01.5300,-08.7240,+00.099370,-00.108183,+00.106966
+023.964,-021.136,+010.551,+0.994,-0.168,+2.830,-03.4590,-01.7140,-08.7190,+00.085038,-00.122714,+00.128802
+024.097,-021.282,+010.588,+1.004,-0.193,+2.815,-03.4230,-01.8300,-08.5930,+00.070781,-00.097037,+00.137343
+024.244,-021.397,+010.614,+1.004,-0.203,+2.847,-03.4780,-01.9160,-08.6050,+00.064618,-00.072320,+00.131549
+024.393,-021.514,+010.622,+1.004,-0.188,+2.825,-03.5210,-01.7570,-08.6170,+00.043780,-00.072410,+00.143827
+024.576,-021.596,+010.607,+0.994,-0.218,+2.820,-03.4870,-01.7240,-08.5820,+00.048875,-00.024025,+00.161138
+024.760,-021.626,+010.596,+1.008,-0.208,+2.842,-03.3850,-01.5050,-08.5340,+00.046411,+00.007582,+00.127730
+024.909,-021.672,+010.583,+1.004,-0.188,+2.831,-03.1850,-02.1950,-08.4560,+00.027042,-00.050314,+00.155371
+025.162,-021.825,+010.504,+1.004,-0.208,+2.853,-03.3540,-01.9920,-08.4660,+00.012720,-00.114852,+00.254577
+025.465,-022.083,+010.401,+1.008,-0.213,+2.815,-03.3500,-01.5910,-08.5400,+00.000973,-00.210188,+00.286378
+025.756,-022.489,+010.255,+1.022,-0.208,+2.816,-03.2300,-01.5990,-08.3500,-00.058875,-00.391001,+00.325564
+026.162,-023.269,+009.953,+1.050,-0.224,+2.795,-03.5040,-01.4440,-08.3220,-00.160098,-00.796892,+00.529029
+026.727,-025.053,+009.390,+1.092,-0.249,+2.797,-03.1980,-02.8080,-08.6670,-00.371848,-01.945000,+00.805418
+027.290,-028.742,+008.411,+1.222,-0.295,+2.711,-04.3050,-02.7700,-08.4070,-00.821511,-03.834227,+01.064015
+028.302,-034.564,+006.313,+1.403,-0.337,+2.584,-04.0470,-02.5020,-10.1940,-01.823701,-05.795130,+01.550565
+030.229,-042.777,+001.694,+1.607,-0.494,+2.427,-04.1380,-02.8960,-14.2830,-03.785402,-07.624893,+01.983317
+034.006,-052.755,-007.666,+1.866,-0.726,+2.050,-09.1340,-03.6860,-18.5650,-06.513980,-09.178110,+01.454926
+041.514,-061.519,-017.871,+2.052,-0.873,+1.681,-10.1220,+06.5460,-36.4500,-00.671875,-07.359952,+02.483356
+054.474,-063.300,-024.431,+2.042,-0.948,+1.681,+03.1510,+00.6360,-32.3410,+05.919424,-01.188601,+05.112499
+061.170,-062.230,-025.520,+1.991,-0.917,+1.825,+01.6230,-19.4540,-12.2120,+03.609782,-00.215429,+01.439056
+061.195,-062.212,-021.834,+1.982,-0.817,+2.002,+07.7300,-09.8220,-12.6770,+02.880422,+00.306349,-00.709954
+057.332,-061.768,-014.819,+1.969,-0.682,+2.141,+06.7500,+02.0250,-14.1160,+03.275120,+01.232804,-01.620613
+052.770,-060.091,-007.610,+1.876,-0.452,+2.319,+04.4380,+07.3310,-12.7780,+02.364568,+02.123285,-01.476406
+050.310,-057.158,-003.552,+1.691,-0.266,+2.478,+01.6020,+13.7470,-12.9920,+01.510056,+03.018755,-00.430376
+050.590,-053.030,-001.868,+1.468,-0.219,+2.597,-00.5720,+14.2320,-12.5860,+01.776120,+03.896935,+00.738880
+052.570,-048.197,-001.425,+1.106,-0.141,+2.624,-01.4370,+10.1440,-10.8410,+01.611314,+04.302103,+01.408491
+054.801,-043.131,-001.225,+0.794,-0.123,+2.556,-01.9080,+08.0330,-09.2050,+01.560749,+04.382156,+01.425190
+056.677,-038.180,-000.786,+0.613,-0.156,+2.484,-02.3580,+07.2410,-08.7840,+01.382315,+04.228218,+01.254025
+058.280,-033.503,-000.065,+0.478,-0.175,+2.353,-03.3440,+07.4610,-10.7220,+01.557299,+04.004529,+01.123340
+059.864,-028.911,+001.103,+0.413,-0.205,+2.264,-05.5350,+07.6120,-15.1430,+01.823990,+04.069518,+01.187837
+061.784,-024.049,+002.446,+0.352,-0.184,+2.364,-07.7890,+07.4580,-17.0430,+01.992750,+04.409514,+01.493768
+064.109,-019.060,+004.149,+0.204,-0.157,+2.433,-09.6330,+07.3190,-16.5950,+02.395800,+04.445835,+01.693902
+066.640,-014.240,+006.378,+0.046,-0.086,+2.501,-11.5940,+05.5730,-16.4130,+02.636686,+04.328146,+01.726111
+069.221,-009.645,+008.724,-0.103,+0.010,+2.543,-15.1990,-03.5700,-13.9390,+02.346133,+04.181727,+01.572663
+071.010,-005.333,+010.962,-0.256,+0.115,+2.519,-19.1560,-03.7960,-10.9320,+02.167437,+03.885066,+00.450017
+072.009,-001.353,+013.290,-0.372,+0.196,+2.487,-23.2170,+04.3050,-04.4150,+02.088001,+03.358383,+00.081762
+073.072,+001.622,+015.709,-0.456,+0.266,+2.515,-30.2700,+11.8050,+05.6660,+02.139750,+02.329505,+00.348132
+073.869,+002.737,+017.230,-0.479,+0.341,+2.486,-27.1590,+10.9730,+10.9770,+00.351829,+00.256848,+00.543446
+075.063,+001.757,+015.496,-0.451,+0.301,+2.488,-23.8800,+07.8570,-06.9770,-02.163559,-00.595586,+01.579477
+076.466,+000.837,+012.613,-0.419,+0.216,+2.484,-11.2230,-00.7370,-12.9110,-02.642257,-00.281934,+00.908387
+076.718,-000.290,+012.032,-0.386,+0.196,+2.475,+29.1250,-06.1520,-01.6930,+00.133074,-02.010155,+00.554816
+077.110,-004.186,+012.049,-0.251,+0.180,+2.465,-13.7830,-00.6410,-06.3610,+00.047631,-03.654479,+00.439036
+076.883,-007.579,+011.167,-0.135,+0.183,+2.492,-06.8130,+06.7330,-24.0310,-00.416345,-02.384677,+00.891468
+077.124,-010.046,+010.265,-0.038,+0.138,+2.475,-04.3220,-10.0630,-08.9120,-00.973766,-02.070307,+00.213030
+077.063,-011.980,+008.845,+0.032,+0.083,+2.467,-06.0060,+06.0230,-14.1720,-00.906801,-01.373518,+00.415306
+077.256,-013.463,+008.176,+0.055,+0.057,+2.452,-03.4950,-03.4960,-11.3210,-00.418374,-01.162891,+00.234995
+077.326,-014.675,+007.787,+0.106,+0.082,+2.438,-03.0410,+00.4420,-10.1120,-00.194417,-00.981579,+00.217916
+077.408,-015.663,+007.781,+0.139,+0.051,+2.423,-04.8380,-01.8690,-10.6580,+00.191537,-00.697989,+00.147275
+077.398,-016.506,+008.132,+0.162,+0.041,+2.441,-02.1530,-00.4640,-09.3250,+00.430572,-00.762414,+00.106210
+077.386,-017.321,+008.700,+0.190,+0.096,+2.425,-03.0140,-01.2920,-09.2740,+00.505418,-00.678087,+00.074289
+077.372,-018.002,+009.239,+0.213,+0.095,+2.416,-03.4940,-01.8130,-09.1880,+00.417371,-00.526500,+00.079728
+077.387,-018.584,+009.582,+0.227,+0.100,+2.432,-02.8390,-02.0500,-09.1930,+00.217918,-00.487037,+00.117003
+077.484,-019.007,+009.699,+0.246,+0.140,+2.422,-03.2400,-01.6560,-09.0740,+00.092272,-00.306896,+00.149655
+077.641,-019.328,+009.694,+0.255,+0.105,+2.407,-03.2930,-01.7110,-09.0770,+00.023218,-00.233439,+00.191025
+077.830,-019.631,+009.642,+0.265,+0.105,+2.450,-03.4080,-01.5040,-08.9990,+00.012384,-00.226754,+00.200018
+078.012,-019.892,+009.616,+0.265,+0.125,+2.418,-03.3150,-01.5400,-08.7890,+00.038788,-00.189240,+00.171816
+078.183,-020.119,+009.593,+0.283,+0.129,+2.402,-03.2820,-01.9030,-08.7270,+00.023805,-00.161617,+00.178443
+078.389,-020.304,+009.561,+0.288,+0.114,+2.430,-03.4640,-01.6540,-08.8010,+00.042605,-00.128684,+00.204045
+078.629,-020.481,+009.554,+0.297,+0.139,+2.414,-03.3420,-01.6760,-08.6920,+00.076199,-00.118310,+00.228494
+078.890,-020.654,+009.532,+0.283,+0.114,+2.397,-03.3350,-01.7560,-08.5350,+00.050888,-00.114374,+00.246757
+079.197,-020.845,+009.493,+0.297,+0.129,+2.414,-03.4820,-01.5710,-08.6350,+00.069883,-00.132086,+00.287340
+079.495,-021.069,+009.466,+0.311,+0.124,+2.398,-03.5960,-01.5070,-08.6130,+00.067993,-00.173175,+00.261946
+079.771,-021.332,+009.427,+0.306,+0.119,+2.371,-03.3730,-01.7720,-08.5680,+00.046934,-00.197513,+00.263304
+080.048,-021.684,+009.367,+0.316,+0.119,+2.404,-03.3420,-01.6970,-08.4960,+00.030011,-00.325597,+00.281772
+080.287,-022.253,+009.286,+0.334,+0.163,+2.399,-03.4870,-01.6090,-08.5290,-00.009192,-00.551535,+00.253736
+080.364,-023.230,+009.155,+0.357,+0.114,+2.389,-03.5400,-01.6520,-08.4260,-00.145761,-01.077193,+00.180727
+080.375,-025.157,+008.840,+0.413,+0.113,+2.419,-03.5970,-01.8740,-08.5090,-00.351354,-02.050877,+00.357591
+080.662,-028.215,+008.196,+0.506,+0.122,+2.380,-04.0270,-02.4610,-08.1510,-00.502956,-02.869725,+00.789418
+081.434,-032.283,+007.041,+0.613,+0.066,+2.331,-03.3090,-02.8800,-08.4170,-00.849625,-03.920038,+01.171535
+082.405,-038.828,+004.553,+0.776,+0.015,+2.316,-04.0250,-02.6140,-09.6580,-02.247565,-06.714397,+01.359500
+084.025,-048.768,-000.184,+1.059,-0.108,+2.146,-04.7950,-03.6640,-14.8510,-03.799355,-09.848400,+01.301528
+087.617,-061.477,-007.873,+1.393,-0.256,+1.853,-13.6210,-04.3940,-31.9120,-03.684249,-11.272280,+00.773767
+097.770,-071.836,-019.562,+1.611,-0.329,+1.642,-20.9100,+03.4430,-38.6030,-00.654656,-08.293954,+02.135780
+119.286,-076.012,-040.094,+1.787,-0.416,+1.439,-03.8040,-04.2000,-38.7750,+00.537697,-03.822464,+02.644234
+127.964,-075.787,-047.798,+1.889,-0.487,+1.417,+03.4560,-12.2280,-26.0430,+00.883213,-00.159045,+00.579330
+126.854,-075.887,-045.107,+1.978,-0.472,+1.426,+05.1110,-09.3700,-07.9650,+01.231034,-00.000970,-00.756579
+121.273,-076.632,-038.638,+2.103,-0.384,+1.480,+05.6120,-01.8510,-13.6460,+00.876061,+00.651768,-01.470245
+110.695,-076.137,-027.205,+2.206,-0.295,+1.603,+03.6630,+01.3040,-13.8110,+01.039598,+02.096204,-01.641440
+099.167,-073.677,-015.009,+2.243,-0.235,+1.815,+01.9270,+02.6400,-12.3020,+00.753007,+03.402692,-01.666329
+090.791,-069.452,-006.526,+2.197,-0.085,+2.104,-00.3910,+03.1790,-10.5080,+00.321845,+04.374814,-01.539221
+085.518,-064.137,-001.475,+2.003,+0.028,+2.435,-01.9240,+02.7200,-08.3850,+00.074877,+04.925718,-01.455148
+082.215,-058.305,+001.219,+1.748,+0.066,+2.667,-03.3720,+02.1020,-07.6370,-00.377696,+05.161129,-01.325431
+080.153,-052.263,+002.185,+1.334,+0.066,+2.806,-05.2280,+02.3900,-09.0660,-00.746902,+05.287384,-01.100625
+078.926,-045.995,+002.496,+0.906,+0.021,+2.825,-07.2550,+03.1180,-12.7130,-00.309724,+05.567529,-00.799884
+078.432,-039.209,+002.997,+0.576,-0.030,+2.789,-08.5910,+02.4030,-11.6530,+00.426363,+06.053886,-00.475548
+078.456,-032.427,+003.881,+0.264,-0.053,+2.570,-09.5660,+00.9030,-10.2330,+00.908318,+05.710173,-00.248071
+078.915,-026.177,+004.942,+0.190,-0.043,+2.410,-12.8100,-00.3870,-18.3750,+01.284951,+05.463826,+00.045226
+079.846,-019.524,+006.460,+0.139,+0.037,+2.445,-18.0110,-03.1360,-23.8450,+01.857211,+06.130429,+00.183324
+080.797,-012.234,+008.592,-0.014,+0.192,+2.502,-22.0200,-06.3270,-20.3200,+02.170352,+06.509088,-00.216833
+081.469,-004.795,+010.683,-0.242,+0.299,+2.578,-28.8250,-08.9790,-13.8860,+01.609926,+06.431745,-00.669388
+081.953,+002.091,+012.132,-0.451,+0.361,+2.617,-33.0200,-07.2150,-00.4810,+01.269710,+05.513824,-00.813145
+081.940,+006.971,+014.249,-0.669,+0.452,+2.591,-38.6670,+06.0510,+11.6250,+02.447114,+03.287021,-01.088264
+081.124,+009.544,+017.652,-0.785,+0.557,+2.574,-41.1900,+12.6290,+18.7500,+02.685744,+00.791406,-01.328065
+080.287,+008.164,+016.030,-0.767,+0.542,+2.629,-31.0480,+13.0610,+02.9560,-03.770232,-02.282958,+00.648271
+082.214,+004.921,+012.566,-0.627,+0.422,+2.668,+10.7880,+02.9450,-21.8270,-01.699345,-02.178821,+02.920050
+084.263,+000.384,+009.725,-0.483,+0.337,+2.773,-10.7700,-24.6300,+01.3170,-03.122521,-03.774528,+01.648558
+082.284,-004.418,+008.652,-0.316,+0.286,+2.845,-14.2230,+17.0470,-25.4750,-01.004162,-04.377113,-01.581400
+082.717,-008.030,+007.980,-0.153,+0.255,+2.864,-02.6280,+12.7350,-14.5430,-00.017157,-02.635580,+01.754403
+082.905,-011.007,+007.447,-0.032,+0.254,+2.874,-06.3880,-16.5830,-18.0030,-00.993717,-02.475772,-00.198418
+082.936,-013.074,+006.792,+0.033,+0.209,+2.915,-03.3840,+06.6720,-12.0100,-00.186084,-01.559436,+00.424748
+082.981,-014.761,+006.673,+0.117,+0.227,+2.876,-05.0750,-06.2700,-14.1180,-00.196608,-01.351020,+00.112178
+082.991,-016.058,+007.027,+0.168,+0.212,+2.900,-01.5590,-00.4900,-10.0590,+00.534273,-01.097471,+00.160974
+082.921,-017.206,+007.570,+0.210,+0.251,+2.896,-02.9240,-00.1910,-09.0370,+00.457570,-00.957103,+00.015806
+082.844,-018.244,+008.208,+0.247,+0.271,+2.892,-04.4030,-01.0030,-10.5890,+00.578902,-00.806033,+00.062098
+082.757,-018.992,+008.837,+0.275,+0.310,+2.898,-03.6960,-00.6470,-09.5830,+00.520343,-00.604552,+00.014357
+082.631,-019.584,+009.413,+0.303,+0.320,+2.894,-03.6210,-01.4590,-09.2100,+00.421563,-00.472838,-00.023767
+082.560,-020.041,+009.831,+0.312,+0.339,+2.872,-03.4740,-01.9340,-08.9380,+00.294835,-00.353271,+00.035365
+082.586,-020.345,+010.089,+0.335,+0.334,+2.863,-03.7130,-01.8110,-08.9890,+00.200277,-00.170202,+00.087131
+082.615,-020.595,+010.239,+0.335,+0.324,+2.890,-03.5970,-02.0480,-08.7970,+00.084180,-00.203111,+00.094285
+082.734,-020.821,+010.302,+0.349,+0.369,+2.879,-03.4980,-01.6940,-08.7530,+00.105381,-00.112373,+00.132695
+082.911,-020.956,+010.352,+0.345,+0.369,+2.874,-03.3850,-01.6850,-08.7410,+00.092001,-00.082599,+00.184940
+083.134,-021.114,+010.369,+0.349,+0.369,+2.896,-03.6280,-01.7810,-08.6020,+00.084536,-00.117053,+00.198633
+083.360,-021.281,+010.387,+0.368,+0.374,+2.864,-03.4550,-01.9160,-08.5830,+00.087933,-00.104459,+00.218125
+083.620,-021.448,+010.424,+0.372,+0.354,+2.870,-03.5400,-01.8280,-08.5990,+00.132623,-00.117083,+00.242292
+083.890,-021.665,+010.471,+0.372,+0.384,+2.891,-03.6260,-01.8420,-08.5030,+00.126215,-00.153216,+00.256288
+084.172,-021.893,+010.537,+0.382,+0.378,+2.870,-03.5610,-01.9410,-08.4530,+00.158951,-00.175641,+00.259790
+084.437,-022.197,+010.606,+0.396,+0.373,+2.870,-03.7090,-01.7770,-08.4760,+00.146396,-00.237741,+00.253501
+084.681,-022.557,+010.662,+0.396,+0.368,+2.881,-03.5020,-01.8610,-08.4310,+00.111128,-00.300043,+00.241470
+084.863,-023.085,+010.655,+0.419,+0.418,+2.855,-03.6100,-01.8910,-08.4020,+00.020975,-00.526264,+00.222657
+084.994,-023.963,+010.575,+0.451,+0.387,+2.835,-03.6880,-01.6360,-08.4590,-00.063537,-00.858708,+00.240330
+084.929,-025.303,+010.436,+0.498,+0.382,+2.875,-03.9550,-01.5820,-08.4120,-00.202938,-01.416094,+00.129233
+084.688,-027.638,+010.158,+0.582,+0.351,+2.830,-03.7370,-01.8360,-08.3480,-00.423742,-02.397117,+00.258435
+084.546,-030.966,+009.640,+0.716,+0.355,+2.825,-04.1320,-02.0730,-08.0600,-00.589563,-03.207975,+00.407462
+083.930,-036.114,+008.831,+0.879,+0.289,+2.784,-03.4550,-03.1040,-08.7000,-01.400339,-05.584604,+00.191058
+082.716,-044.682,+007.492,+1.181,+0.225,+2.614,-04.2390,-03.3330,-10.8790,-02.010388,-08.546721,+00.394818
+081.395,-056.096,+007.606,+1.575,+0.181,+2.388,-09.4670,-02.4130,-22.3470,+00.433463,-10.567490,+00.759618
+081.767,-066.513,+010.681,+1.822,+0.247,+2.177,-22.0660,-02.7740,-36.8720,+04.210590,-07.779635,+02.230667
+089.271,-072.777,+009.567,+1.989,+0.279,+1.957,-07.4960,-05.6630,-37.8510,+04.411880,-03.360772,+03.456271
+099.392,-075.367,+001.216,+2.040,+0.218,+1.884,-16.5380,-15.2170,-29.2840,+00.084732,-01.288231,+02.307303
+107.432,-075.891,-006.875,+2.058,+0.174,+1.906,+03.4850,-09.6040,-20.8890,-00.056432,+00.011256,+01.414320
+110.053,-074.994,-009.668,+2.054,+0.179,+1.949,+07.2820,-10.6590,-11.9650,-00.394306,+01.021486,+00.266478
+107.996,-073.450,-008.287,+2.003,+0.219,+2.012,+07.4390,-05.6420,-09.2560,-00.482318,+01.647659,-00.552114
+104.087,-071.085,-004.757,+1.947,+0.240,+2.112,+05.6880,-01.4700,-08.4230,+00.001655,+02.527882,-00.883354
+100.756,-067.679,-001.523,+1.850,+0.276,+2.216,+03.7490,-01.6270,-08.2900,+00.072645,+03.291812,-00.831768
+098.257,-063.448,+000.516,+1.701,+0.274,+2.350,+02.0700,-02.6210,-07.9010,-00.371804,+03.911133,-00.933687
+095.847,-058.716,+002.174,+1.585,+0.280,+2.474,+00.6410,-02.1010,-07.9120,-00.300726,+04.187219,-01.232157
+093.302,-053.670,+004.106,+1.409,+0.337,+2.574,-01.6870,-02.5450,-09.0350,-00.125416,+04.424717,-01.613326
+090.806,-048.150,+005.862,+1.162,+0.399,+2.650,-04.4630,-03.3640,-12.8920,-00.177340,+04.878613,-01.889828
+088.478,-041.858,+007.378,+0.949,+0.432,+2.727,-06.9140,-01.7620,-14.3880,-00.032518,+05.520297,-02.134374
+086.692,-035.124,+008.825,+0.661,+0.543,+2.648,-07.8530,+01.4870,-12.2260,+00.486968,+05.614917,-01.900426
+085.883,-028.756,+010.200,+0.554,+0.578,+2.546,-09.3780,+01.8000,-15.1820,+00.991738,+05.288193,-01.245140
+086.119,-022.389,+011.338,+0.498,+0.629,+2.646,-12.9400,-01.8640,-22.5100,+01.103795,+05.725741,-00.665721
+086.971,-015.406,+012.202,+0.271,+0.766,+2.727,-16.5970,-05.0530,-21.8130,+00.898112,+06.265779,-00.543789
+087.846,-008.183,+012.900,-0.055,+0.897,+2.674,-22.1990,-04.7150,-18.6400,+00.755011,+06.297639,-00.718857
+088.545,-001.271,+013.850,-0.241,+0.978,+2.579,-29.2120,-06.0630,-06.0020,+00.815240,+05.624576,-00.777279
+088.979,+003.931,+014.572,-0.334,+1.083,+2.471,-34.0260,-04.5090,+02.6620,+00.523853,+03.813484,-00.815489
+088.669,+007.167,+015.618,-0.371,+1.132,+2.426,-37.5340,+03.9520,+06.4550,+01.278591,+02.018404,-01.077653
+087.948,+008.459,+017.029,-0.371,+1.217,+2.425,-38.4190,+13.7290,+10.4210,+01.245184,+00.197721,-00.683699
+087.775,+006.809,+017.089,-0.273,+1.250,+2.397,-32.7470,+10.4770,+10.3840,-00.906357,-02.461904,+01.044453
+088.684,+002.438,+015.467,-0.064,+1.214,+2.428,+15.9680,-01.8130,-20.2570,-00.930249,-03.904850,+02.066303
+089.240,-002.475,+013.385,+0.132,+1.207,+2.469,-20.9000,-15.5630,-09.5640,-01.814962,-03.805360,+00.702995
+088.017,-006.498,+011.319,+0.308,+1.205,+2.455,-02.9630,+15.0900,-23.1040,-01.811514,-03.268106,+00.149242
+088.342,-010.048,+009.625,+0.457,+1.109,+2.424,-06.2090,-07.4550,-07.5090,-01.346673,-03.031111,+00.690852
+088.110,-012.867,+007.511,+0.550,+1.054,+2.461,-10.5340,+04.0220,-14.2640,-01.512384,-02.012818,+00.295060
+088.196,-014.928,+006.245,+0.629,+1.038,+2.427,-04.2140,-00.8900,-15.6310,-00.724845,-01.555083,+00.283577
+088.301,-016.123,+006.041,+0.680,+1.013,+2.392,-02.5560,-00.3170,-10.6590,+00.076547,-00.944363,+00.110116
+088.376,-016.983,+006.150,+0.698,+1.037,+2.419,-03.7300,-01.5160,-09.8650,+00.124505,-00.633340,+00.100323
+088.385,-017.587,+006.449,+0.726,+1.072,+2.382,-03.1150,-00.4140,-09.4480,+00.316957,-00.507191,+00.048976
+088.332,-018.083,+006.880,+0.754,+1.066,+2.362,-03.1580,-00.4190,-09.3150,+00.403471,-00.400113,-00.003157
+088.283,-018.509,+007.393,+0.768,+1.051,+2.390,-03.2890,-01.3330,-09.0720,+00.435009,-00.359189,+00.016569
+088.288,-018.879,+007.869,+0.787,+1.096,+2.336,-03.2160,-01.7800,-08.9420,+00.399824,-00.295797,+00.067596
+088.373,-019.187,+008.296,+0.787,+1.105,+2.331,-03.1450,-01.5380,-08.9930,+00.387781,-00.235126,+00.122175
+088.492,-019.499,+008.626,+0.791,+1.110,+2.342,-03.2650,-01.9660,-08.8680,+00.285516,-00.260649,+00.139865
+088.615,-019.776,+008.851,+0.824,+1.130,+2.327,-03.4130,-01.7820,-08.8970,+00.210196,-00.198263,+00.136155
+088.751,-019.983,+009.005,+0.824,+1.115,+2.316,-03.5500,-01.5960,-08.7740,+00.153318,-00.136246,+00.132293
+088.874,-020.122,+009.106,+0.828,+1.095,+2.333,-03.2760,-01.6200,-08.8250,+00.102650,-00.070062,+00.123441
+089.023,-020.211,+009.147,+0.824,+1.120,+2.311,-03.3880,-01.7040,-08.7270,+00.065544,-00.086493,+00.167577
+089.246,-020.200,+009.167,+0.838,+1.120,+2.306,-03.3360,-01.6130,-08.6560,+00.086055,+00.053009,+00.177441
+089.430,-020.313,+009.198,+0.852,+1.144,+2.328,-03.2470,-01.4440,-08.6040,+00.084005,-00.167531,+00.160694
+089.607,-020.582,+009.240,+0.852,+1.129,+2.301,-03.4430,-01.4020,-08.5750,+00.099779,-00.217411,+00.197234
+089.861,-020.883,+009.287,+0.866,+1.134,+2.285,-03.1400,-01.8070,-08.6050,+00.123020,-00.221975,+00.273119
+090.184,-021.225,+009.314,+0.889,+1.119,+2.286,-03.2490,-01.7650,-08.4870,+00.113563,-00.304399,+00.327913
+090.540,-021.815,+009.281,+0.917,+1.168,+2.276,-03.1150,-01.3880,-08.4200,+00.061399,-00.571116,+00.378212
+090.774,-022.815,+009.155,+0.931,+1.119,+2.267,-03.5610,-01.1240,-08.6680,-00.082731,-00.971851,+00.272353
+090.790,-024.429,+008.939,+0.977,+1.108,+2.274,-03.5210,-01.4560,-08.5500,-00.232997,-01.711409,+00.247808
+090.814,-027.118,+008.606,+1.070,+1.112,+2.208,-03.8430,-01.6320,-08.2980,-00.278969,-02.627204,+00.464684
+090.985,-030.787,+008.190,+1.186,+1.066,+2.148,-03.5860,-02.2030,-08.0640,-00.317491,-03.608407,+00.661590
+090.990,-037.141,+007.125,+1.316,+1.039,+2.078,-05.6040,-03.9690,-08.6430,-01.428686,-06.784070,+00.875932
+091.571,-046.969,+005.084,+1.595,+0.986,+1.848,-03.0520,-03.4790,-15.1230,-01.081536,-09.322139,+01.603455
+094.606,-058.624,+001.132,+1.882,+0.882,+1.515,-10.8310,-05.7220,-31.3400,-01.200873,-09.932185,+02.652783
+105.618,-066.818,-008.178,+2.091,+0.750,+1.249,-17.4710,-07.0200,-63.6610,+02.066276,-04.758747,+04.328627
+112.743,-067.525,-015.301,+2.291,+0.629,+1.199,+03.9290,-18.9830,-16.0820,-01.848960,-00.845367,+01.393731
+116.269,-068.249,-020.214,+2.490,+0.577,+1.214,+02.9180,-10.8220,-17.3880,-01.130559,-00.656100,+00.530105
+115.760,-068.084,-020.137,+2.621,+0.606,+1.327,+07.5070,-07.5390,-16.0110,+00.131205,+00.701373,-00.399591
+112.273,-066.924,-016.657,+2.756,+0.745,+1.538,+08.7130,-06.9630,-11.9820,+00.205175,+01.608083,-00.985715
+107.315,-065.051,-011.921,+2.761,+0.930,+1.867,+06.2250,-04.0830,-10.2270,+00.182475,+02.263459,-01.506406
+101.591,-062.323,-006.555,+2.623,+1.195,+2.172,+02.8640,-02.7270,-11.0070,+00.208956,+02.949745,-01.957701
+096.030,-058.739,-001.554,+2.177,+1.429,+2.449,+00.2360,-02.4000,-10.5340,+00.034337,+03.464855,-02.277656
+091.091,-054.534,+002.405,+1.736,+1.424,+2.473,-01.7850,-01.0720,-09.0950,-00.239752,+03.726754,-02.438794
+087.002,-050.086,+005.316,+1.517,+1.372,+2.566,-03.2820,-00.0960,-08.0080,-00.286983,+03.664910,-02.422194
+083.756,-045.665,+007.382,+1.252,+1.316,+2.679,-05.2220,+00.4130,-09.4760,-00.342901,+03.635547,-02.228338
+081.450,-040.987,+008.472,+0.941,+1.200,+2.807,-08.0970,+00.4030,-14.4280,-00.474699,+04.031931,-01.847929
+080.179,-035.479,+008.896,+0.680,+1.134,+2.861,-10.7440,+00.3860,-17.9760,-00.112439,+04.981365,-01.436703
+079.818,-029.175,+009.449,+0.392,+1.053,+2.887,-11.3840,+00.3010,-16.2840,+00.553731,+05.558615,-00.921009
+080.297,-022.892,+010.479,+0.043,+1.026,+2.818,-12.7140,-00.3490,-12.5090,+01.418524,+05.315941,-00.374360
+081.291,-017.259,+012.294,-0.152,+1.003,+2.707,-17.4190,-03.2430,-13.8120,+02.019948,+04.856965,-00.089949
+082.505,-011.549,+013.786,-0.315,+0.994,+2.586,-24.2310,-08.2350,-18.2820,+01.217562,+05.323417,-00.209571
+083.547,-005.220,+014.578,-0.506,+0.950,+2.470,-25.7400,-06.8830,-10.2420,+00.609676,+05.549242,-00.661210
+084.052,+000.536,+015.086,-0.636,+0.912,+2.448,-25.5200,-03.9700,+00.4530,+00.394573,+04.488420,-00.948467
+083.862,+004.927,+015.508,-0.776,+0.863,+2.334,-30.6920,+02.3720,+03.4530,+00.379875,+03.194005,-01.291264
+083.410,+007.664,+015.729,-0.873,+0.814,+2.303,-31.8060,+10.5700,+10.1110,+00.068820,+01.481872,-00.724301
+083.427,+007.983,+015.361,-0.869,+0.795,+2.309,-28.7520,+09.2700,+04.2340,-00.624061,-00.300217,+00.323158
+084.006,+007.037,+014.124,-0.827,+0.769,+2.316,-22.7290,-00.5850,-01.8260,-01.398455,-00.884553,+00.845916
+084.488,+005.862,+012.541,-0.780,+0.759,+2.356,+01.0990,-02.1760,-18.7740,-00.537338,-00.439853,+00.318375
+084.600,+003.031,+013.359,-0.720,+0.774,+2.408,+23.2260,+04.9250,+14.3220,-00.434824,-04.056200,+01.570837
+083.984,-002.319,+012.530,-0.501,+0.757,+2.455,-25.9810,+11.3490,-31.5880,-00.492558,-04.161469,-00.478488
+084.449,-005.922,+011.597,-0.381,+0.741,+2.493,+01.1320,+00.7610,-13.3880,-00.163359,-02.632511,+01.515157
+084.593,-009.001,+011.127,-0.278,+0.760,+2.546,-08.3800,-09.6740,-18.6810,-00.795225,-02.337261,+00.222438
+084.630,-010.972,+009.888,-0.195,+0.715,+2.534,-04.8580,-05.0400,-12.8380,-01.097274,-01.481904,+00.280214
+084.514,-012.375,+008.700,-0.153,+0.675,+2.574,-03.2560,-00.0820,-11.5510,-00.968540,-01.112335,+00.083078
+084.534,-013.555,+007.889,-0.097,+0.630,+2.604,-02.6470,-02.9490,-09.2930,-00.643832,-00.996846,+00.166069
+084.545,-014.755,+007.264,-0.060,+0.649,+2.589,-02.0040,+00.8960,-09.9310,-00.410846,-01.081399,+00.166746
+084.631,-015.867,+007.317,-0.027,+0.624,+2.580,-02.1750,-00.9910,-09.6240,+00.271967,-00.969966,+00.154286
+084.608,-017.048,+007.954,+0.029,+0.633,+2.609,-02.8500,-00.7170,-09.1170,+00.685266,-01.050799,+00.108896
+084.536,-018.222,+008.732,+0.066,+0.688,+2.589,-03.6720,-01.6280,-09.6210,+00.585641,-00.943725,+00.092378
+084.527,-019.013,+009.250,+0.094,+0.697,+2.563,-03.5090,-02.1610,-09.2560,+00.367662,-00.579171,+00.103253
+084.582,-019.500,+009.498,+0.108,+0.712,+2.601,-03.7830,-01.8990,-09.4600,+00.163428,-00.355742,+00.150082
+084.708,-019.741,+009.594,+0.117,+0.761,+2.574,-03.3610,-01.8050,-08.8050,+00.081829,-00.170114,+00.137690
+084.836,-019.953,+009.608,+0.136,+0.707,+2.565,-03.2800,-01.8190,-08.8190,+00.035284,-00.150221,+00.136563
+084.971,-020.145,+009.595,+0.140,+0.702,+2.592,-03.4970,-01.5500,-08.8240,+00.029706,-00.127313,+00.137034
+085.115,-020.287,+009.605,+0.150,+0.736,+2.565,-03.4370,-01.7040,-08.6830,+00.056711,-00.099125,+00.143762
+085.294,-020.412,+009.609,+0.150,+0.726,+2.576,-03.2020,-01.8610,-08.6200,+00.060200,-00.077333,+00.183665
+085.547,-020.558,+009.603,+0.154,+0.751,+2.587,-03.3320,-01.5390,-08.7830,+00.091842,-00.097736,+00.249656
+085.844,-020.739,+009.652,+0.163,+0.716,+2.582,-03.4030,-01.6490,-08.6330,+00.160276,-00.125368,+00.268661
+086.129,-020.974,+009.725,+0.168,+0.746,+2.577,-03.3820,-01.7220,-08.5070,+00.141295,-00.194922,+00.262424
+086.399,-021.306,+009.763,+0.177,+0.746,+2.582,-03.4070,-01.8200,-08.4990,+00.103885,-00.292770,+00.277993
+086.687,-021.845,+009.762,+0.219,+0.785,+2.579,-03.4190,-01.5610,-08.5280,+00.080767,-00.509192,+00.333784
+086.894,-022.652,+009.741,+0.233,+0.730,+2.542,-03.6110,-01.2840,-08.5760,+00.012612,-00.772351,+00.236211
+086.862,-023.880,+009.689,+0.275,+0.735,+2.587,-03.7540,-01.6640,-08.5490,-00.100090,-01.298494,+00.141777
+086.765,-026.151,+009.492,+0.349,+0.744,+2.552,-03.5170,-02.4660,-08.3140,-00.301158,-02.410753,+00.354065
+086.943,-029.656,+008.846,+0.475,+0.703,+2.536,-04.0490,-02.2180,-08.0640,-00.592054,-03.273131,+00.743227
+086.914,-034.736,+007.683,+0.614,+0.672,+2.548,-02.8310,-02.6890,-09.0460,-01.487118,-05.461411,+00.524097
+086.440,-043.523,+005.592,+0.911,+0.599,+2.426,-04.7730,-01.7910,-09.6630,-02.289778,-08.955368,+00.583658
+085.765,-056.025,+003.777,+1.306,+0.495,+2.250,-07.9830,-01.2530,-16.9070,-01.726373,-11.919880,+00.333744
+086.618,-069.655,+002.773,+1.617,+0.461,+1.999,-18.9650,+00.9630,-21.5840,+00.444850,-11.623500,+01.889015
+104.897,-082.350,-013.079,+1.928,+0.411,+1.574,-13.0470,-06.9160,-18.7230,+02.460066,-10.650240,+02.993010
-148.044,-084.193,-117.237,+2.104,+0.289,+1.204,-21.4000,-13.7770,-42.5100,+01.113467,-07.272213,+03.119871
-134.626,-080.879,-132.831,+2.122,+0.209,+1.135,-20.5320,-17.3010,-39.4120,-02.100716,-00.760712,+00.607871
-157.480,-082.950,-111.690,+2.076,+0.165,+1.269,-00.6330,-08.5520,-23.8140,-00.923358,+04.843693,-00.508561
+147.121,-083.652,-056.988,+1.988,+0.152,+1.465,+04.1430,-01.7740,-04.7190,+00.130753,+05.271216,-01.189618
+113.397,-080.128,-022.839,+1.918,+0.159,+1.635,+05.0350,-00.3110,+01.3650,+00.846380,+04.600440,-01.285801
+100.234,-076.267,-008.935,+1.863,+0.205,+1.752,+03.2330,-00.6560,+01.0000,+00.818105,+03.401079,-01.354483
+093.235,-072.961,-001.656,+1.812,+0.206,+1.885,-01.0220,-02.2590,-07.9600,+00.145701,+03.033566,-01.366003
+088.308,-068.541,+002.503,+1.738,+0.202,+2.049,-05.7510,-03.7480,-16.5150,-00.748760,+04.464978,-01.507031
+084.528,-062.240,+004.798,+1.557,+0.230,+2.273,-08.0140,-03.8790,-14.0510,-01.115992,+05.854471,-01.885042
+081.142,-054.910,+006.437,+1.250,+0.274,+2.444,-08.3330,-01.8130,-08.1900,-01.021783,+06.288549,-02.281843
+078.381,-047.621,+007.517,+0.995,+0.301,+2.448,-08.9890,-00.0100,-07.3560,-00.901207,+06.019281,-02.191874
+076.559,-040.626,+007.932,+0.804,+0.352,+2.369,-10.2530,+01.4460,-10.0020,-00.592015,+05.832319,-01.772167
+075.872,-033.955,+008.243,+0.716,+0.378,+2.392,-11.3340,+02.0520,-12.1020,+00.167196,+05.576098,-00.966211
+076.125,-027.732,+008.591,+0.637,+0.364,+2.535,-14.2210,+00.9640,-14.7980,+00.541809,+05.331933,-00.374868
+077.062,-021.762,+009.214,+0.502,+0.371,+2.702,-18.7630,-00.6820,-17.0780,+01.076858,+05.235734,+00.085147
+078.533,-015.807,+010.346,+0.228,+0.380,+2.831,-24.8570,-02.9470,-18.1050,+01.549800,+05.443877,+00.456516
+080.597,-009.327,+012.008,-0.083,+0.467,+2.871,-32.8110,-07.1580,-15.5480,+01.990836,+06.220016,+00.726688
+083.068,-002.346,+013.802,-0.422,+0.535,+2.758,-37.7790,-10.3570,+01.0900,+01.584208,+06.270144,+00.540397
+084.059,+003.525,+015.944,-0.673,+0.586,+2.633,-44.5960,+01.4780,+18.6370,+02.462194,+04.307828,-01.318002
+081.782,+006.826,+019.015,-0.794,+0.671,+2.578,-36.7570,+13.2680,+23.5630,+02.459871,+00.679099,-02.885021
+080.404,+005.603,+018.998,-0.757,+0.671,+2.564,-25.9930,+13.8180,-01.7600,-00.943670,-02.105269,+00.543647
+081.231,+003.571,+018.494,-0.701,+0.670,+2.609,+11.0990,-07.4520,-22.3850,+00.323803,-01.044025,+01.304854
+081.993,-000.406,+019.334,-0.594,+0.749,+2.646,-01.2330,-08.5960,+11.2160,-00.677199,-04.438513,+01.706341
+080.837,-005.293,+017.442,-0.404,+0.713,+2.714,-21.2490,+16.6420,-40.9040,-02.218817,-03.608423,+00.504838
+081.506,-008.323,+014.690,-0.283,+0.588,+2.731,+00.9290,-11.5850,-02.1770,-01.790250,-02.421217,+01.017473
+080.931,-011.489,+011.981,-0.190,+0.503,+2.817,-06.8110,-01.4520,-19.4690,-03.234569,-02.595240,+00.068531
+081.002,-013.726,+009.310,-0.079,+0.427,+2.822,-04.5320,-02.1500,-12.0790,-01.842897,-01.781345,+00.390835
+081.063,-015.537,+007.823,-0.009,+0.328,+2.837,-06.6200,+03.5660,-17.0740,-00.666050,-01.277768,+00.358343
+081.217,-016.848,+007.658,+0.028,+0.352,+2.828,-03.4670,-02.7570,-09.8980,+00.136883,-01.107586,+00.241950
+081.341,-017.901,+007.952,+0.084,+0.342,+2.835,-05.4700,+01.0530,-10.8960,+00.479060,-00.742208,+00.211088
+081.384,-018.688,+008.560,+0.107,+0.376,+2.798,-03.5280,-00.3930,-09.6200,+00.608298,-00.625127,+00.115949
+081.365,-019.304,+009.247,+0.131,+0.440,+2.848,-03.6780,-02.0020,-09.2680,+00.543917,-00.480232,+00.046794
+081.343,-019.770,+009.775,+0.149,+0.430,+2.827,-03.9710,-02.0350,-09.0350,+00.404333,-00.258727,+00.088239
+081.417,-020.123,+010.073,+0.159,+0.430,+2.838,-03.5580,-02.1830,-08.9530,+00.250680,-00.157577,+00.133939
+081.543,-020.326,+010.214,+0.163,+0.430,+2.855,-03.3480,-02.1160,-08.5990,+00.099683,-00.203273,+00.149058
+081.670,-020.575,+010.259,+0.177,+0.455,+2.817,-03.4220,-01.8370,-08.6890,+00.070745,-00.185764,+00.135592
+081.797,-020.808,+010.293,+0.182,+0.445,+2.823,-03.4920,-01.6630,-08.7670,+00.078406,-00.173668,+00.138935
+081.950,-021.016,+010.352,+0.191,+0.454,+2.823,-03.5560,-01.7380,-08.6340,+00.109430,-00.144103,+00.166657
+082.174,-021.184,+010.403,+0.210,+0.454,+2.819,-03.3380,-01.9680,-08.6180,+00.114975,-00.078688,+00.238921
+082.540,-021.262,+010.418,+0.205,+0.469,+2.834,-03.2580,-02.1020,-08.5100,+00.129021,+00.000313,+00.339088
+082.962,-021.403,+010.382,+0.214,+0.459,+2.830,-03.4830,-01.7560,-08.4790,+00.088861,-00.115717,+00.365744
+083.357,-021.690,+010.330,+0.224,+0.474,+2.824,-03.7000,-01.8190,-08.4950,+00.072999,-00.223975,+00.349599
+083.700,-022.049,+010.300,+0.238,+0.459,+2.831,-03.7130,-01.7700,-08.4890,+00.093666,-00.242649,+00.325506
+084.016,-022.485,+010.256,+0.256,+0.484,+2.831,-03.5820,-01.8330,-08.3830,+00.043517,-00.417944,+00.324507
+084.293,-023.227,+010.133,+0.280,+0.498,+2.816,-03.5170,-01.6010,-08.4390,-00.052786,-00.710518,+00.345933
+084.475,-024.374,+009.913,+0.321,+0.468,+2.807,-03.9190,-01.4790,-08.3390,-00.181956,-01.161753,+00.273684
+084.396,-026.378,+009.578,+0.382,+0.452,+2.804,-03.7470,-01.9420,-08.2850,-00.404644,-02.119853,+00.247184
+084.372,-029.655,+008.972,+0.503,+0.436,+2.777,-04.0840,-02.1800,-08.1240,-00.611271,-03.232252,+00.600085
+084.592,-034.453,+007.839,+0.712,+0.414,+2.765,-02.7330,-02.6760,-08.3770,-01.168724,-04.885911,+00.813675
+084.588,-042.627,+005.643,+0.939,+0.303,+2.700,-05.7660,-02.4270,-09.6680,-02.282191,-08.525142,+00.836301
+084.526,-054.639,+003.762,+1.362,+0.228,+2.443,-07.1770,-03.5850,-15.8760,-01.042207,-11.345890,+00.679220
+084.953,-067.489,+004.533,+1.756,+0.212,+2.115,-19.6660,-04.7250,-30.4330,+02.068268,-10.521320,+01.460568
+094.211,-076.627,+001.673,+1.951,+0.244,+1.842,-15.3930,-13.3870,-45.3830,+06.333674,-05.417338,+03.311797
+107.202,-078.495,-009.874,+2.012,+0.193,+1.731,-03.2130,-24.8880,-32.9510,-01.974435,-00.169628,+01.117948
+111.662,-077.501,-017.571,+2.007,+0.099,+1.737,+10.7040,-03.4520,-13.9980,-03.447480,+00.947566,+00.870159
+114.764,-076.458,-022.798,+1.997,+0.015,+1.797,+06.8490,-01.7830,-05.7540,-01.191891,+00.588194,+00.876787
+115.456,-075.443,-023.500,+1.979,-0.019,+1.818,+05.5960,-02.5360,-08.4960,+00.601195,+00.940418,+00.281553
+112.915,-074.136,-020.051,+1.956,+0.021,+1.898,+03.6560,-07.0300,-10.4910,+00.720234,+01.509657,-00.409063
+106.934,-072.209,-014.420,+1.905,+0.057,+1.987,+01.2210,-06.7410,-12.2810,-00.522996,+02.397278,-01.266299
+099.233,-069.228,-008.137,+1.784,+0.133,+2.073,-01.0640,-02.7580,-12.3020,-00.926682,+03.302830,-01.864951
+092.341,-065.051,-002.758,+1.608,+0.160,+2.179,-02.6170,-00.3290,-12.0380,-00.848316,+04.166574,-01.978096
+087.676,-059.707,+000.305,+1.441,+0.226,+2.263,-04.0140,+01.4740,-11.8280,-00.992560,+05.015981,-01.624721
+085.173,-053.470,+001.353,+1.264,+0.198,+2.299,-04.7000,+02.3610,-10.4690,-00.808897,+05.608129,-01.067531
+084.089,-046.849,+001.728,+1.106,+0.131,+2.417,-05.5080,+02.1770,-10.5690,-00.097352,+05.829641,-00.589114
+083.845,-040.013,+002.509,+0.953,+0.089,+2.529,-07.2940,+01.7230,-11.0730,+00.872513,+06.027565,-00.240143
+084.212,-033.242,+003.548,+0.734,+0.106,+2.633,-08.7630,+00.0240,-12.9280,+01.145305,+05.807329,+00.062343
+085.044,-026.747,+004.670,+0.474,+0.124,+2.703,-10.5060,-01.6080,-18.4100,+01.508510,+05.690838,+00.328183
+086.241,-020.157,+006.567,+0.256,+0.205,+2.714,-15.5610,-05.2650,-21.8460,+02.435792,+05.888447,+00.343633
+087.216,-013.594,+009.779,-0.004,+0.391,+2.658,-22.0820,-05.3500,-16.8820,+03.289536,+05.635252,-00.220953
+088.025,-007.186,+013.009,-0.237,+0.517,+2.561,-33.5710,-06.1570,-16.1510,+02.604026,+05.732979,-00.537051
+088.630,-000.869,+015.293,-0.404,+0.598,+2.509,-35.4060,-05.0690,-00.2040,+01.715600,+04.975238,-01.100735
+087.951,+003.585,+017.129,-0.562,+0.683,+2.410,-43.1490,+10.1100,+11.0160,+01.685472,+02.774719,-01.809520
+086.623,+005.842,+019.252,-0.641,+0.748,+2.373,-46.3900,+20.8760,+23.0350,+01.884887,+00.427048,-01.513017
+085.581,+004.311,+018.967,-0.595,+0.708,+2.381,-30.5120,+04.4730,+04.3070,-01.539808,-02.350632,+00.143603
+084.887,+001.767,+017.453,-0.511,+0.688,+2.423,+31.9460,-00.8830,-18.6610,-00.148046,-02.483527,+00.222027
+085.350,-003.746,+015.598,-0.302,+0.626,+2.487,-24.3310,+04.3730,+00.9270,-02.037335,-05.102351,+01.966739
+084.868,-008.718,+013.437,-0.162,+0.586,+2.552,-13.2000,+07.9830,-36.3510,-02.858162,-03.406001,+00.946959
+085.169,-012.251,+010.806,-0.032,+0.540,+2.580,-08.7740,-19.5860,-14.1660,-02.664107,-02.974719,+00.288268
+085.081,-014.680,+008.537,+0.061,+0.425,+2.569,-02.9030,+09.0310,-13.3110,-01.479007,-01.777101,+00.509730
+085.418,-016.321,+007.500,+0.121,+0.375,+2.615,-09.7730,-05.4720,-11.1970,-00.627757,-01.034479,+00.252195
+085.513,-017.458,+007.432,+0.177,+0.414,+2.590,-04.6160,-00.9730,-10.6720,+00.121881,-00.835857,+00.236572
+085.579,-018.157,+007.652,+0.182,+0.394,+2.591,-02.8880,+00.4000,-09.2510,+00.255938,-00.523993,+00.145970
+085.651,-018.724,+008.000,+0.214,+0.423,+2.603,-03.1850,-00.1770,-09.2190,+00.363281,-00.476733,+00.114699
+085.660,-019.252,+008.531,+0.214,+0.478,+2.586,-03.3370,-00.8120,-09.0810,+00.511001,-00.437896,+00.040670
+085.611,-019.748,+009.150,+0.237,+0.453,+2.582,-03.5410,-01.7780,-08.9520,+00.501195,-00.417387,+00.023535
+085.607,-020.165,+009.585,+0.256,+0.463,+2.588,-03.4890,-02.2370,-08.8040,+00.297971,-00.319286,+00.083525
+085.705,-020.447,+009.843,+0.275,+0.492,+2.583,-03.4680,-01.9620,-08.8600,+00.230867,-00.169873,+00.131012
+085.836,-020.626,+009.988,+0.279,+0.482,+2.578,-03.5730,-02.0370,-08.6510,+00.134113,-00.131874,+00.133814
+085.976,-020.773,+010.075,+0.284,+0.502,+2.583,-03.4810,-01.9370,-08.6440,+00.109392,-00.083604,+00.130803
+086.129,-020.891,+010.122,+0.279,+0.512,+2.562,-03.5180,-01.6040,-08.6550,+00.078215,-00.081760,+00.150354
+086.302,-021.014,+010.194,+0.289,+0.502,+2.557,-03.6200,-01.1780,-08.7020,+00.141329,-00.094412,+00.165738
+086.516,-021.146,+010.290,+0.284,+0.507,+2.589,-03.4070,-01.9980,-08.6140,+00.163278,-00.051753,+00.213717
+086.854,-021.114,+010.352,+0.298,+0.512,+2.568,-03.6810,-02.0670,-08.6910,+00.140745,+00.133114,+00.272422
+087.203,-021.072,+010.312,+0.289,+0.507,+2.557,-03.3260,-02.0870,-08.3770,+00.036135,+00.015361,+00.289149
+087.554,-021.276,+010.200,+0.293,+0.517,+2.578,-03.2590,-01.8430,-08.3770,-00.012755,-00.275672,+00.336299
+087.888,-021.872,+010.002,+0.317,+0.521,+2.568,-03.3150,-01.4750,-08.4520,-00.101829,-00.577677,+00.362209
+088.158,-022.854,+009.753,+0.363,+0.511,+2.576,-03.6380,-01.2570,-08.5570,-00.152657,-00.959037,+00.360844
+088.407,-024.418,+009.372,+0.396,+0.526,+2.583,-03.4110,-01.9560,-08.4680,-00.306577,-01.625553,+00.484569
+088.682,-027.410,+008.745,+0.498,+0.480,+2.539,-04.5550,-02.1160,-08.2320,-00.527019,-03.208651,+00.689163
+088.797,-032.918,+007.672,+0.665,+0.428,+2.498,-02.1310,-04.3350,-09.3610,-01.205012,-05.757954,+00.851411
+088.975,-041.828,+005.509,+0.916,+0.371,+2.444,-03.4550,-02.3260,-12.3580,-01.960054,-08.837011,+01.082832
+090.052,-053.498,+002.140,+1.278,+0.282,+2.218,-07.2940,-08.7600,-23.8540,-02.407569,-10.609480,+01.468483
+094.817,-063.265,-002.502,+1.566,+0.174,+1.971,-17.4010,+04.1550,-57.8840,+02.417495,-06.378497,+02.796305
+100.799,-065.416,-006.014,+1.626,+0.158,+1.979,+10.5050,-24.9360,-16.4430,-00.225155,-01.167729,+01.225705
+102.819,-066.601,-009.149,+1.672,+0.128,+1.922,+12.3380,-10.0820,-19.9200,-01.052992,-00.811785,+00.322896
+101.684,-066.289,-008.551,+1.677,+0.108,+1.928,+08.7720,-05.4540,-17.9420,+00.129284,+00.939672,-00.698282
+098.527,-064.481,-005.459,+1.631,+0.173,+2.012,+08.1130,-06.2670,-14.7890,-00.042168,+02.120631,-01.053031
+095.021,-061.392,-002.869,+1.543,+0.204,+2.089,+04.7060,-02.9400,-12.3030,-00.628715,+03.156711,-01.275231
+091.750,-057.205,-000.623,+1.445,+0.216,+2.133,+01.2640,-00.5650,-10.5790,-00.371665,+03.990241,-01.359751
+089.125,-052.211,+001.361,+1.399,+0.231,+2.185,-01.2960,-00.6410,-10.5150,-00.047912,+04.544871,-01.335640
+087.142,-046.636,+002.702,+1.394,+0.272,+2.352,-03.0670,-01.7020,-09.8190,-00.225386,+04.957858,-01.277202
+085.554,-040.785,+003.536,+1.330,+0.338,+2.690,-03.9280,-01.8570,-08.8810,-00.189311,+05.063503,-01.285185
+084.156,-035.044,+004.459,+0.968,+0.418,+2.982,-04.4420,-01.7470,-07.7220,+00.228392,+04.763131,-01.318468
+082.972,-029.719,+005.770,+0.437,+0.441,+2.699,-06.9450,-01.7350,-12.3230,+00.831908,+04.495605,-01.236921
+082.216,-024.237,+007.452,+0.405,+0.456,+2.621,-10.7200,-02.9730,-18.3550,+01.297555,+04.857277,-01.075331
+082.048,-018.201,+009.132,+0.233,+0.533,+2.754,-13.2790,-03.6830,-20.4650,+01.492834,+05.359514,-00.763789
+082.428,-011.877,+010.942,-0.078,+0.695,+2.734,-18.0560,-05.3820,-19.8390,+01.765611,+05.543924,-00.624151
+082.951,-005.313,+012.908,-0.385,+0.727,+2.634,-25.4940,-05.6780,-18.3400,+01.772913,+05.810316,-00.805359
+083.615,+001.168,+014.892,-0.608,+0.738,+2.510,-29.6020,-03.3970,-06.2350,+01.775973,+05.311680,-00.792149
+084.198,+006.244,+017.546,-0.799,+0.824,+2.371,-40.3660,+09.1790,+05.5250,+02.693584,+03.849283,-00.566723
+084.931,+009.349,+021.222,-0.901,+0.839,+2.242,-49.0660,+14.5090,+24.2080,+03.004147,+01.637837,-00.305493
+084.850,+008.387,+021.996,-0.869,+0.883,+2.233,-30.3100,+05.2210,+05.0990,-01.309611,-01.845146,+00.790448
+084.912,+005.971,+018.113,-0.799,+0.769,+2.296,-15.5100,-01.9090,-23.9210,-03.870778,-01.470190,+00.551088
+085.104,+004.214,+016.163,-0.753,+0.689,+2.336,+48.2260,-06.8640,-12.2650,-00.789385,-02.249149,+00.912157
+086.035,-000.516,+014.413,-0.636,+0.649,+2.380,-32.6780,-02.7170,+01.3280,-00.653957,-04.213859,+01.076377
+084.926,-004.703,+012.895,-0.492,+0.618,+2.419,-05.1130,+15.0150,-36.2240,-01.617520,-02.838882,+00.761773
+085.401,-007.873,+011.505,-0.381,+0.538,+2.440,-05.2700,-16.7670,-06.2640,-01.089441,-02.735126,+00.461989
+084.934,-010.474,+009.603,-0.321,+0.507,+2.487,-06.1430,+07.2190,-17.9880,-01.837543,-01.924851,+00.240548
+085.013,-012.114,+008.056,-0.251,+0.442,+2.479,-05.7630,-07.7010,-13.2400,-01.155826,-01.197386,+00.096172
+084.859,-013.229,+006.899,-0.218,+0.388,+2.492,-03.5700,+03.5140,-12.1590,-00.871113,-00.828200,+00.069020
+084.861,-013.915,+006.074,-0.209,+0.368,+2.514,-03.4840,-03.1610,-10.0580,-00.694777,-00.506542,-00.004023
+084.839,-014.348,+005.571,-0.191,+0.333,+2.494,-02.2530,+01.4780,-09.6080,-00.261490,-00.342986,+00.053931
+084.842,-014.806,+005.585,-0.172,+0.322,+2.462,-01.9860,+00.5270,-09.0970,+00.164194,-00.441281,+00.031944
+084.831,-015.395,+006.005,-0.163,+0.337,+2.495,-02.5390,-00.4850,-09.1730,+00.436967,-00.522335,+00.047038
+084.843,-016.009,+006.538,-0.144,+0.407,+2.490,-02.2990,-00.2440,-08.7960,+00.469839,-00.541818,+00.092847
+084.909,-016.667,+007.000,-0.135,+0.372,+2.496,-02.7690,-02.2880,-08.9680,+00.353944,-00.546989,+00.136504
+085.029,-017.270,+007.294,-0.102,+0.411,+2.497,-02.7520,-01.8780,-08.8340,+00.257032,-00.496790,+00.193276
+085.228,-017.871,+007.524,-0.079,+0.426,+2.498,-02.7670,-01.4200,-08.8220,+00.254620,-00.458731,+00.250886
+085.441,-018.405,+007.832,-0.070,+0.440,+2.471,-02.9820,-01.5020,-09.2980,+00.341525,-00.397240,+00.208718
+085.633,-018.813,+008.106,-0.051,+0.450,+2.510,-03.3520,-01.6680,-09.0820,+00.263310,-00.269430,+00.208429
+085.827,-019.115,+008.307,-0.042,+0.485,+2.494,-03.3870,-01.5630,-09.0150,+00.208495,-00.205523,+00.187675
+086.012,-019.346,+008.433,-0.032,+0.455,+2.478,-03.1190,-01.6240,-08.8000,+00.146156,-00.184867,+00.175891
+086.207,-019.600,+008.493,-0.037,+0.465,+2.505,-03.3180,-01.4910,-08.7850,+00.093396,-00.180844,+00.207471
+086.400,-019.852,+008.512,-0.014,+0.460,+2.473,-03.2690,-01.7130,-08.7330,+00.054079,-00.231972,+00.173830
+086.587,-020.162,+008.505,-0.009,+0.455,+2.474,-03.3680,-01.4800,-08.7350,+00.045757,-00.233686,+00.203617
+086.814,-020.428,+008.473,-0.014,+0.470,+2.500,-03.3710,-01.4780,-08.5540,+00.042159,-00.206868,+00.224827
+087.089,-020.769,+008.433,+0.005,+0.484,+2.474,-03.2740,-01.4970,-08.5270,+00.055937,-00.305635,+00.293655
+087.329,-021.253,+008.389,+0.019,+0.479,+2.480,-03.0710,-00.9390,-08.6150,+00.007838,-00.476267,+00.211484
+087.441,-022.235,+008.296,+0.047,+0.459,+2.508,-02.7510,-01.7720,-08.7700,-00.091090,-01.163355,+00.284495
+087.765,-024.498,+007.914,+0.112,+0.513,+2.478,-03.5160,-02.0140,-08.6030,-00.299711,-02.405468,+00.696409
+088.442,-028.144,+007.150,+0.233,+0.467,+2.484,-04.7180,-02.0390,-08.2980,-00.454750,-03.415917,+01.083024
+089.428,-033.349,+005.648,+0.386,+0.436,+2.507,-03.3850,-03.5840,-09.1710,-01.308943,-05.368300,+01.383527
+091.160,-041.525,+001.893,+0.655,+0.319,+2.423,-05.1660,-02.3800,-09.5320,-02.910041,-07.998722,+01.778520
+094.347,-052.726,-004.789,+1.017,+0.161,+2.288,-04.8300,-01.2660,-15.9010,-04.012432,-10.864940,+01.520884
+102.601,-065.252,-014.638,+1.314,+0.028,+2.080,-18.2680,-03.5340,-29.0150,-01.573641,-11.325240,+02.273992
+127.649,-074.309,-039.975,+1.630,-0.071,+1.765,-16.5350,-05.8880,-29.2730,-01.808480,-09.427970,+03.529866
+161.885,-075.735,-076.539,+1.773,-0.257,+1.481,-16.9090,-16.1910,-44.4070,-03.709666,-05.202096,+02.112699
+166.975,-075.341,-082.951,+1.801,-0.292,+1.406,-07.9050,-16.4360,-39.5170,-00.168307,+01.248287,-00.302305
+154.821,-076.255,-070.082,+1.783,-0.257,+1.416,+04.1480,-08.9880,-09.0620,+01.282754,+02.369048,-01.785877
+141.356,-077.432,-056.015,+1.815,-0.208,+1.439,+05.0660,-01.4130,-03.7360,+00.539960,+01.674495,-02.169751
+127.593,-077.891,-041.564,+1.834,-0.154,+1.472,+03.3220,+02.5400,-07.2600,+01.199383,+01.791630,-01.887459
+113.085,-076.868,-025.668,+1.862,-0.074,+1.553,-00.2250,+01.9400,-12.5330,+01.605824,+02.647583,-01.772696
+100.406,-073.495,-011.800,+1.807,+0.036,+1.712,-04.4650,+00.7170,-18.0180,+01.132095,+04.402051,-01.731957
+092.107,-067.397,-003.392,+1.672,+0.153,+1.895,-06.7280,+00.6740,-16.1500,+00.187972,+06.162311,-01.706631
+087.282,-059.808,+000.751,+1.436,+0.220,+2.046,-07.0060,+02.2560,-10.0510,-00.358000,+06.806127,-01.720599
+084.481,-052.091,+002.464,+1.231,+0.178,+2.227,-06.9810,+04.4110,-07.9290,-00.599573,+06.582112,-01.410359
+083.199,-044.672,+002.885,+1.078,+0.176,+2.404,-07.6910,+05.9890,-09.5430,-00.327459,+06.364136,-00.801506
+083.126,-037.392,+003.055,+0.837,+0.209,+2.534,-08.9550,+05.8860,-11.1520,+00.393811,+06.338100,-00.111135
+083.955,-030.333,+003.750,+0.562,+0.256,+2.603,-11.1610,+04.1510,-12.7220,+01.352838,+06.046421,+00.423464
+085.287,-023.401,+005.095,+0.377,+0.318,+2.654,-15.9150,-00.5400,-21.1040,+01.816165,+06.294248,+00.597767
+086.628,-015.797,+006.789,+0.070,+0.405,+2.699,-20.5280,-05.0600,-25.0570,+01.903028,+06.939400,+00.225383
+087.371,-007.686,+008.716,-0.278,+0.493,+2.672,-27.6020,-07.8200,-17.6110,+01.742681,+07.064124,-00.669402
+087.540,-000.074,+010.576,-0.534,+0.560,+2.596,-34.7660,-09.1390,-03.9490,+01.564662,+06.134725,-01.093795
+087.012,+005.685,+012.617,-0.762,+0.665,+2.471,-41.5140,-01.5400,+11.1910,+02.135493,+03.932555,-01.729626
+085.160,+008.803,+015.907,-0.883,+0.730,+2.341,-52.1850,+17.2280,+22.8910,+03.376681,+01.176444,-02.370534
+082.927,+008.143,+016.505,-0.887,+0.760,+2.357,-36.3630,+10.1870,+06.4230,-01.475602,-02.247079,-00.952739
+082.788,+005.423,+013.515,-0.813,+0.715,+2.377,+04.4900,+12.0330,-25.6410,-01.655592,-01.928936,+01.224926
+084.634,+001.129,+012.098,-0.669,+0.704,+2.448,-01.8000,-13.6910,-01.7500,-02.587483,-03.779235,+02.477414
+083.443,-003.909,+010.576,-0.534,+0.673,+2.535,-16.1150,+11.3840,-23.7890,-01.089448,-04.707820,-01.177034
+083.740,-007.801,+009.166,-0.381,+0.667,+2.564,-01.1610,+08.3790,-13.5400,-00.831365,-02.847799,+01.597891
+083.744,-011.094,+007.767,-0.260,+0.612,+2.597,-08.5260,-15.9360,-25.7000,-01.844930,-02.525585,-00.202267
+083.805,-013.241,+006.543,-0.204,+0.591,+2.642,-02.3100,+06.0150,-13.4250,-00.784299,-01.672402,+00.338679
+084.009,-014.865,+006.115,-0.130,+0.596,+2.635,-07.6160,-04.0320,-11.2420,-00.081240,-01.164961,+00.263319
+084.087,-016.108,+006.265,-0.088,+0.585,+2.642,-02.9370,+00.0910,-10.3170,+00.304908,-01.000946,+00.228534
+084.111,-017.073,+006.623,-0.060,+0.610,+2.665,-02.8240,+00.4620,-09.5150,+00.344038,-00.788474,+00.089415
+084.127,-017.919,+007.152,-0.037,+0.644,+2.622,-04.7020,-00.8060,-09.9490,+00.530792,-00.643367,+00.074388
+084.087,-018.566,+007.766,+0.005,+0.639,+2.630,-03.5590,-00.7630,-09.3390,+00.533451,-00.515761,+00.038164
+084.025,-019.082,+008.309,+0.019,+0.649,+2.641,-03.4520,-01.2740,-09.1380,+00.397552,-00.415883,+00.014986
+084.011,-019.480,+008.689,+0.043,+0.693,+2.609,-03.2170,-01.7770,-09.0080,+00.295944,-00.310413,+00.062733
+084.076,-019.785,+008.961,+0.052,+0.693,+2.626,-03.1960,-02.1720,-08.8960,+00.228066,-00.219110,+00.107042
+084.204,-019.985,+009.172,+0.052,+0.693,+2.642,-04.1940,-01.6350,-09.1370,+00.233675,-00.016798,+00.123102
+084.401,-020.168,+009.290,+0.052,+0.718,+2.609,-03.6810,-01.8730,-08.9030,+00.171792,-00.069542,+00.196460
+084.578,-020.233,+009.395,+0.066,+0.703,+2.616,-03.3860,-01.7200,-08.6190,+00.103406,-00.061985,+00.164848
+084.777,-020.328,+009.405,+0.061,+0.713,+2.621,-03.3020,-01.6330,-08.6100,+00.055885,-00.044147,+00.178196
+085.037,-020.387,+009.369,+0.066,+0.727,+2.615,-03.3040,-01.7380,-08.6740,+00.047574,+00.001322,+00.237763
+085.337,-020.491,+009.322,+0.080,+0.747,+2.610,-03.2950,-01.5590,-08.5320,+00.047171,-00.096470,+00.262168
+085.642,-020.713,+009.264,+0.085,+0.712,+2.633,-03.3540,-01.4760,-08.5750,+00.042872,-00.165978,+00.289679
+085.972,-020.956,+009.194,+0.094,+0.727,+2.617,-03.4390,-01.7420,-08.5600,+00.043275,-00.170094,+00.305220
+086.319,-021.261,+009.109,+0.108,+0.742,+2.617,-03.3080,-01.9020,-08.5270,+00.023640,-00.255795,+00.335472
+086.682,-021.768,+008.955,+0.122,+0.717,+2.613,-03.3570,-01.3880,-08.5640,-00.044886,-00.498908,+00.367272
+086.944,-022.608,+008.748,+0.154,+0.761,+2.608,-03.5880,-01.2640,-08.6610,-00.134341,-00.807319,+00.286265
+087.128,-023.943,+008.453,+0.210,+0.711,+2.611,-03.2450,-01.6310,-08.5590,-00.224694,-01.403930,+00.397113
+087.556,-026.622,+007.865,+0.284,+0.715,+2.625,-03.7750,-02.4910,-08.1980,-00.440418,-02.818821,+00.867756
+088.534,-030.975,+006.598,+0.447,+0.684,+2.600,-02.6870,-03.8270,-08.6030,-00.910465,-04.218410,+01.403546
+090.168,-037.934,+003.589,+0.684,+0.602,+2.573,-03.8860,-02.3280,-09.4320,-02.367686,-07.006764,+01.898108
+092.918,-048.147,-002.079,+0.986,+0.500,+2.506,-05.2660,-02.1420,-14.0030,-03.967184,-10.106350,+01.731557
+098.715,-060.865,-010.328,+1.408,+0.345,+2.250,-10.5830,-05.0300,-29.1050,-01.763032,-11.675300,+01.844217
+117.073,-071.832,-028.585,+1.765,+0.221,+1.877,-20.0290,-05.8600,-30.9440,-01.236217,-10.367710,+03.392108
+150.064,-075.774,-062.805,+1.900,+0.114,+1.624,-18.4620,-13.1780,-44.5090,-03.181196,-05.971979,+02.676867
+156.407,-075.208,-070.728,+1.923,+0.094,+1.468,-06.1610,-13.2720,-44.5630,+00.223033,+01.378076,+00.509577
+142.891,-074.695,-057.055,+1.862,+0.149,+1.460,+07.8740,-10.0300,-08.9410,+01.144408,+03.117610,-01.649128
+128.679,-074.840,-041.809,+1.830,+0.238,+1.474,+07.0740,-02.4410,-02.1230,+01.247671,+02.021286,-02.403575
+115.345,-074.676,-027.367,+1.830,+0.297,+1.419,+04.7620,+01.2500,-07.0260,+01.467415,+01.886886,-02.396151
+103.188,-073.174,-014.286,+1.849,+0.263,+1.431,+00.9620,+01.3180,-12.7140,+00.898590,+02.600754,-02.188158
+094.236,-069.615,-005.399,+1.858,+0.219,+1.583,-02.7790,+01.8900,-16.9630,+00.058342,+04.058949,-01.770438
+088.894,-064.036,-000.651,+1.798,+0.151,+1.890,-05.1330,+02.5720,-14.1580,-00.189365,+05.422050,-01.487967
+085.762,-057.286,+001.885,+1.561,+0.081,+2.242,-06.0680,+02.3460,-10.0060,-00.183227,+06.038342,-01.350316
+083.927,-050.249,+003.053,+1.245,+0.036,+2.488,-06.7390,+01.7740,-08.7890,-00.333782,+06.090228,-01.124412
+082.854,-043.239,+003.507,+0.836,+0.040,+2.589,-07.7710,+01.7770,-10.3340,-00.191082,+06.070422,-00.904610
+082.311,-036.137,+004.055,+0.502,+0.098,+2.607,-09.3890,+01.3230,-12.1010,+00.409231,+06.236072,-00.685444
+082.177,-029.048,+004.919,+0.242,+0.200,+2.573,-10.9050,+00.4200,-13.1600,+00.783979,+06.013093,-00.503441
+082.543,-022.307,+006.024,-0.009,+0.336,+2.485,-14.0800,-00.4440,-20.7660,+01.336177,+05.916136,-00.106124
+083.500,-015.167,+007.649,-0.260,+0.442,+2.376,-21.2070,-03.6270,-25.0010,+01.854814,+06.522724,+00.055250
+084.447,-007.565,+009.463,-0.418,+0.532,+2.309,-27.2140,-07.2980,-17.4170,+01.582616,+06.648374,-00.334328
+085.183,-000.501,+010.902,-0.679,+0.613,+2.140,-35.1220,-06.5110,-03.9990,+01.244551,+05.777510,-00.546667
+085.302,+004.925,+012.628,-0.842,+0.648,+1.873,-41.4600,+02.6190,+11.3800,+01.719225,+03.814549,-01.053206
+084.580,+007.564,+014.785,-0.860,+0.648,+1.710,-46.0380,+22.7300,+23.7900,+01.705708,+00.874719,-01.047573
+084.503,+006.526,+014.033,-0.814,+0.622,+1.518,-34.4870,+10.7380,-01.3110,-02.317852,-01.481062,+00.848105
+085.824,+004.388,+011.965,-0.870,+0.592,+1.331,-01.4960,+03.1610,-17.0150,-00.931032,-01.552839,+01.551001
+087.336,+000.455,+011.326,-0.898,+0.636,+1.184,+03.3870,-15.5200,-03.1260,-01.277447,-03.599638,+02.108197
+086.241,-004.001,+009.996,-1.043,+0.571,+0.826,-14.1370,+14.5670,-25.0630,-01.589877,-03.940124,-00.645300
+086.915,-007.447,+008.835,-1.271,+0.597,+0.524,-03.6100,+00.6440,-12.7740,-00.659622,-02.592464,+01.487997
+086.921,-010.111,+007.610,-1.466,+0.642,+0.348,-07.2600,-08.8760,-17.6170,-01.557765,-02.030774,-00.142390
+086.985,-011.722,+006.323,-1.680,+0.653,+0.165,-03.8240,+05.9520,-13.0270,-00.517846,-01.157744,+00.357730
+087.052,-012.825,+006.004,-1.815,+0.649,+0.083,-03.6560,-04.5500,-10.6900,-00.329060,-00.880725,+00.032934
+087.057,-013.718,+005.832,-1.899,+0.660,+0.026,-02.8000,-00.2390,-09.9970,-00.023834,-00.715214,+00.112671
+087.062,-014.467,+005.910,-1.987,+0.680,-0.043,-02.3050,-00.5920,-09.4810,+00.173738,-00.637022,+00.064427
+087.085,-015.238,+006.343,-2.062,+0.666,-0.106,-03.0190,-01.2140,-09.4920,+00.429329,-00.655135,+00.084754
+087.056,-015.937,+006.852,-2.136,+0.676,-0.099,-02.7080,-00.0160,-09.3300,+00.466252,-00.592692,+00.043666
+086.998,-016.541,+007.372,-2.187,+0.746,-0.150,-03.2720,-01.4210,-09.5040,+00.385098,-00.469925,+00.008119
+086.962,-017.009,+007.797,-2.238,+0.746,-0.212,-02.9780,-01.7620,-09.2680,+00.342229,-00.374158,+00.043187
+086.997,-017.373,+008.130,-2.276,+0.762,-0.208,-03.1480,-01.7570,-09.0830,+00.272461,-00.273405,+00.093461
+087.107,-017.654,+008.366,-2.304,+0.791,-0.242,-02.3080,-02.1040,-08.2790,+00.199548,-00.293026,+00.172446
+087.246,-017.856,+008.543,-2.322,+0.796,-0.259,-03.2050,-01.5670,-09.0370,+00.155733,-00.211875,+00.168155
+087.401,-018.032,+008.696,-2.336,+0.807,-0.244,-03.0420,-01.7390,-08.9290,+00.176888,-00.096827,+00.126512
+087.540,-018.177,+008.807,-2.345,+0.846,-0.287,-03.1410,-01.5070,-08.8580,+00.117032,-00.084141,+00.147319
+087.706,-018.288,+008.884,-2.364,+0.851,-0.310,-03.1560,-01.6460,-08.8700,+00.106449,-00.062049,+00.155156
+087.900,-018.366,+008.951,-2.373,+0.851,-0.300,-03.0680,-01.5970,-08.7650,+00.109519,-00.046746,+00.169034
+088.081,-018.493,+009.015,-2.382,+0.881,-0.316,-02.8900,-01.5850,-08.7350,+00.110959,-00.103584,+00.169685
+088.288,-018.649,+009.088,-2.401,+0.891,-0.350,-03.1470,-01.4660,-08.7360,+00.125334,-00.103324,+00.199362
+088.515,-018.851,+009.150,-2.415,+0.876,-0.323,-02.9960,-01.6060,-08.6150,+00.105779,-00.178678,+00.225230
+088.750,-019.137,+009.171,-2.420,+0.911,-0.351,-02.8540,-02.0020,-08.6910,+00.066940,-00.242361,+00.230807
+089.009,-019.595,+009.166,-2.466,+0.921,-0.358,-03.0160,-01.6590,-08.6240,+00.067233,-00.458319,+00.289108
+089.189,-020.378,+009.134,-2.494,+0.926,-0.376,-03.0670,-01.4560,-08.7510,+00.002947,-00.779335,+00.228226
+089.345,-021.804,+009.012,-2.531,+0.962,-0.345,-03.1290,-01.7100,-08.7870,-00.100463,-01.573613,+00.425001
+089.686,-024.581,+008.643,-2.573,+0.982,-0.261,-03.1170,-01.7650,-08.6880,-00.259463,-02.782575,+00.782677
+090.203,-028.627,+008.022,-2.596,+1.033,-0.132,-03.1700,-02.2450,-08.8230,-00.447336,-03.931532,+00.904386
+090.711,-034.836,+006.274,-2.610,+1.044,+0.030,-03.9000,-02.2930,-09.7930,-01.949639,-06.296810,+01.205034
+091.684,-044.095,+002.225,-2.563,+1.035,+0.329,-05.4000,-02.6370,-12.0010,-03.504080,-09.040660,+01.287653
+094.246,-056.173,-003.930,-2.418,+0.970,+0.617,-07.1770,-00.9480,-24.2740,-02.916848,-11.127610,+01.276174
+101.670,-067.584,-012.660,-1.800,+0.805,+0.575,-21.7240,-01.3960,-39.7800,-01.252482,-09.274429,+02.055498
+116.827,-072.911,-026.714,-0.374,+0.458,+0.402,-10.3830,-04.0860,-49.9880,+01.128723,-03.260300,+02.637762
+123.687,-073.206,-034.499,+0.616,+0.161,+0.550,-03.2430,-08.2380,-20.6180,-01.380500,-00.666634,+00.937721
+126.145,-073.447,-037.473,+1.401,-0.069,+0.689,+04.0290,-07.3100,-09.0680,-00.271075,-00.502946,+00.085301
+125.791,-073.803,-036.901,+1.968,-0.182,+0.958,+06.0840,-03.7280,-12.1850,+00.532445,+00.129981,-00.413326
+122.024,-073.495,-032.336,+2.243,-0.149,+1.278,+06.1420,-02.9330,-09.3350,+00.939391,+01.064310,-00.735777
+116.033,-072.575,-025.459,+2.369,-0.020,+1.586,+04.0950,-01.9340,-09.1420,+00.961368,+01.692092,-01.082854
+108.689,-070.778,-017.671,+2.365,+0.076,+1.893,+01.5190,-01.6420,-10.0980,+00.540830,+02.508172,-01.405032
+101.437,-067.879,-010.631,+2.295,+0.138,+2.160,-00.5010,-01.2810,-10.0950,+00.030686,+03.263815,-01.633840
+095.146,-063.972,-005.018,+2.068,+0.256,+2.485,-02.4570,-00.7240,-10.5770,-00.190450,+03.923400,-01.814523
+090.144,-059.092,-000.991,+1.739,+0.304,+2.670,-04.6020,-00.7140,-11.9600,-00.410097,+04.633392,-01.865603
+086.454,-053.179,+001.468,+1.474,+0.362,+2.788,-07.0250,-00.6940,-13.6540,-00.588732,+05.458910,-01.764124
+083.889,-046.388,+002.808,+1.121,+0.371,+2.848,-08.0270,-00.4060,-12.0140,-00.483444,+06.060653,-01.600513
+082.194,-039.221,+003.626,+0.777,+0.355,+2.860,-08.1320,+00.5130,-09.7460,-00.181104,+06.198624,-01.300711
+081.358,-032.280,+004.170,+0.521,+0.357,+2.795,-08.7790,+00.6410,-09.8170,+00.225104,+05.806587,-00.796801
+081.279,-025.813,+004.915,+0.340,+0.388,+2.716,-12.1390,-00.6290,-18.4230,+00.856204,+05.650828,-00.330333
+081.961,-018.787,+006.295,+0.131,+0.440,+2.680,-18.5090,-02.4540,-25.8550,+01.676528,+06.501658,+00.083402
+083.076,-011.069,+007.842,-0.069,+0.481,+2.665,-24.1880,-04.0270,-21.3460,+01.428103,+06.883939,+00.088507
+084.417,-003.618,+009.196,-0.292,+0.562,+2.601,-30.0220,-02.1000,-09.9010,+01.382655,+06.296613,+00.299868
+085.692,+002.142,+010.708,-0.469,+0.613,+2.544,-38.6950,-03.8440,+04.7860,+01.385669,+04.459153,+00.054371
+086.019,+005.749,+012.545,-0.576,+0.674,+2.517,-44.6510,+06.9750,+15.8720,+01.759165,+02.224759,-00.507352
+085.532,+005.982,+013.769,-0.585,+0.738,+2.495,-38.9640,+15.3830,+24.2850,+00.319634,-01.406629,-00.227959
+085.254,+002.034,+012.243,-0.436,+0.678,+2.561,-18.9760,+12.3070,-03.0740,-02.252522,-04.039785,+00.664149
+086.074,-003.366,+011.097,-0.255,+0.681,+2.650,+03.6730,-04.3820,-31.4300,-01.137118,-04.396848,+02.491370
+086.179,-007.808,+009.762,-0.074,+0.640,+2.680,-15.8000,-00.8490,-15.4010,-01.753821,-03.766568,-00.470228
+086.056,-011.346,+008.099,+0.084,+0.549,+2.699,+02.8370,+06.9170,-15.8280,-01.215280,-02.780279,+01.081009
+086.421,-014.149,+006.724,+0.182,+0.533,+2.719,-13.1580,-07.9860,-17.4490,-01.573183,-02.040562,+00.177399
+086.764,-015.802,+005.871,+0.261,+0.493,+2.734,-05.9680,-00.9560,-10.1460,-00.331994,-01.176112,+00.422116
+086.886,-016.954,+005.859,+0.303,+0.478,+2.719,-03.4060,+00.2540,-09.8480,+00.074715,-00.882825,+00.204158
+086.989,-017.798,+005.994,+0.345,+0.477,+2.727,-04.8310,-01.1270,-09.7840,+00.122043,-00.529653,+00.112668
+087.061,-018.373,+006.234,+0.372,+0.507,+2.717,-03.8350,-00.1430,-09.3610,+00.265388,-00.444502,+00.119784
+087.070,-018.860,+006.631,+0.382,+0.526,+2.696,-03.3450,-00.5330,-09.0310,+00.407140,-00.416381,+00.028566
+087.030,-019.301,+007.173,+0.396,+0.511,+2.713,-03.3930,-00.8800,-08.8870,+00.480821,-00.368657,+00.016184
+086.994,-019.749,+007.737,+0.419,+0.576,+2.702,-03.4880,-01.6310,-08.9700,+00.466073,-00.390197,+00.023593
+086.995,-020.144,+008.183,+0.438,+0.560,+2.692,-03.4930,-01.9650,-08.9140,+00.339799,-00.309558,+00.067253
+087.067,-020.429,+008.465,+0.438,+0.595,+2.708,-03.6430,-01.6980,-08.8320,+00.230662,-00.193065,+00.108045
+087.184,-020.605,+008.640,+0.452,+0.590,+2.682,-03.5010,-01.4670,-08.7730,+00.167868,-00.120553,+00.114581
+087.284,-020.744,+008.777,+0.456,+0.575,+2.688,-03.4870,-01.5520,-08.7120,+00.141425,-00.102212,+00.085092
+087.350,-020.889,+008.894,+0.452,+0.570,+2.687,-03.0630,-01.8370,-08.2920,+00.100535,-00.179379,+00.088047
+087.445,-020.990,+008.964,+0.466,+0.615,+2.682,-03.6910,-01.4780,-08.6320,+00.093391,-00.051561,+00.095463
+087.614,-021.021,+009.000,+0.470,+0.590,+2.667,-03.3770,-01.6770,-08.6390,+00.076530,-00.038865,+00.185138
+087.892,-021.019,+009.032,+0.470,+0.595,+2.683,-03.4920,-01.4760,-08.6640,+00.123402,+00.054744,+00.241952
+088.174,-021.064,+009.060,+0.475,+0.615,+2.688,-03.3830,-01.5210,-08.5280,+00.099048,-00.054671,+00.217545
+088.415,-021.221,+009.068,+0.475,+0.615,+2.688,-03.4270,-01.7920,-08.5180,+00.075841,-00.114236,+00.228827
+088.710,-021.379,+009.028,+0.484,+0.580,+2.678,-03.3400,-01.7680,-08.5590,+00.048995,-00.104839,+00.274002
+089.033,-021.657,+008.954,+0.480,+0.634,+2.672,-03.4020,-01.5650,-08.4700,+00.027230,-00.268701,+00.305837
+089.275,-022.209,+008.845,+0.507,+0.599,+2.668,-03.5140,-01.1670,-08.4940,-00.051287,-00.596784,+00.222609
+089.315,-023.229,+008.702,+0.540,+0.569,+2.681,-03.5870,-01.4690,-08.5060,-00.147209,-01.064269,+00.180170
+089.418,-025.272,+008.379,+0.614,+0.588,+2.651,-03.9160,-02.0870,-08.2730,-00.329709,-02.264806,+00.468699
+089.813,-028.720,+007.690,+0.744,+0.552,+2.619,-04.1140,-02.6150,-08.3420,-00.519097,-03.247880,+00.859444
+090.465,-033.576,+006.421,+0.888,+0.521,+2.604,-02.9720,-03.4470,-08.7330,-01.164367,-05.048083,+01.104051
+091.582,-041.672,+003.249,+1.162,+0.453,+2.492,-04.8060,-01.8780,-09.6510,-02.679109,-08.117392,+01.449023
+093.400,-053.452,-002.020,+1.529,+0.290,+2.234,-05.7700,-00.7700,-14.6190,-03.757556,-11.492630,+01.009816
+099.287,-066.957,-008.905,+1.840,+0.191,+1.951,-16.2440,-04.9510,-33.7690,+00.304706,-11.519630,+01.889697
+120.695,-076.523,-028.569,+2.081,+0.107,+1.556,-19.2300,-04.7630,-41.2830,+00.779488,-08.016070,+03.159582
+136.839,-078.300,-045.170,+2.141,+0.056,+1.435,-05.2790,-23.4220,-50.0030,-01.884898,-00.297188,+00.444109
