Yaw,Pitch,Roll,MagX,MagY,MagZ,AccelX,AccelY,AccelZ,GyroX,GyroY,GyroZ
+113.429,-028.939,+010.324,+1.388,-0.620,+2.526,-04.6080,-01.5060,-08.1730,-00.000016,+00.001206,+00.000118
+113.428,-028.939,+010.326,+1.388,-0.644,+2.553,-04.5820,-01.4940,-08.1740,+00.000743,+00.000232,+00.000255
+113.428,-028.937,+010.326,+1.384,-0.615,+2.536,-04.5930,-01.5070,-08.1440,-00.000225,+00.001199,-00.000792
+113.429,-028.935,+010.324,+1.374,-0.624,+2.536,-04.5840,-01.4790,-08.1660,+00.000536,+00.003572,-00.000424
+113.430,-028.933,+010.323,+1.374,-0.624,+2.552,-04.5800,-01.4770,-08.1540,+00.001290,+00.001125,-00.000481
+113.429,-028.931,+010.325,+1.384,-0.605,+2.531,-04.5870,-01.4940,-08.1610,+00.000774,+00.000544,-00.000654
+113.428,-028.930,+010.327,+1.384,-0.615,+2.536,-04.5950,-01.4870,-08.1540,+00.000204,+00.000695,+00.000597
+113.428,-028.928,+010.326,+1.379,-0.600,+2.563,-04.5810,-01.4710,-08.1560,+00.000575,+00.000440,-00.000451
+113.428,-028.928,+010.327,+1.374,-0.615,+2.520,-04.5650,-01.4870,-08.1650,+00.001791,-00.000132,-00.000514
+113.428,-028.928,+010.326,+1.379,-0.619,+2.536,-04.5790,-01.4950,-08.1880,-00.000280,-00.000856,+00.000285
+113.427,-028.928,+010.327,+1.384,-0.615,+2.531,-04.5780,-01.5030,-08.2140,-00.000719,-00.001773,+00.000897
+113.425,-028.929,+010.326,+1.384,-0.610,+2.542,-04.5810,-01.4830,-08.1500,-00.000452,-00.001460,-00.000387
+113.427,-028.930,+010.323,+1.384,-0.620,+2.531,-04.5990,-01.4850,-08.1730,-00.001402,-00.000717,+00.001353
+113.428,-028.928,+010.319,+1.383,-0.634,+2.531,-04.5770,-01.4790,-08.1750,-00.002048,+00.002074,+00.000190
+113.429,-028.925,+010.316,+1.379,-0.595,+2.525,-04.5930,-01.5000,-08.1700,-00.002232,+00.002473,+00.001361
+113.428,-028.923,+010.313,+1.384,-0.605,+2.558,-04.5730,-01.4880,-08.1530,-00.001833,+00.002975,+00.000383
+113.429,-028.921,+010.310,+1.379,-0.639,+2.536,-04.5890,-01.4790,-08.1200,-00.001507,-00.000208,+00.001664
+113.431,-028.921,+010.306,+1.379,-0.624,+2.526,-04.5930,-01.5020,-08.1550,-00.001777,+00.001507,+00.001727
+113.432,-028.920,+010.303,+1.374,-0.619,+2.536,-04.5900,-01.4760,-08.1450,-00.002972,+00.002376,+00.000576
+113.434,-028.918,+010.298,+1.384,-0.624,+2.537,-04.5840,-01.4710,-08.1600,-00.000910,+00.002785,-00.000644
+113.434,-028.915,+010.296,+1.388,-0.620,+2.537,-04.5530,-01.4810,-08.0300,-00.001601,+00.004651,-00.002346
+113.435,-028.912,+010.292,+1.370,-0.624,+2.520,-04.5860,-01.4600,-08.1560,-00.003769,+00.000794,+00.002146
+113.436,-028.908,+010.288,+1.374,-0.600,+2.552,-04.5730,-01.4780,-08.1550,-00.003019,+00.003469,-00.000103
+113.437,-028.904,+010.284,+1.379,-0.629,+2.531,-04.5700,-01.5020,-08.1540,-00.002703,+00.003778,+00.000500
+113.439,-028.900,+010.279,+1.384,-0.615,+2.537,-04.5800,-01.4690,-08.2250,-00.002346,+00.003235,+00.000454
+113.439,-028.896,+010.276,+1.384,-0.629,+2.542,-04.5790,-01.4760,-08.1500,-00.000954,+00.001829,-00.000663
+113.439,-028.894,+010.275,+1.379,-0.610,+2.542,-04.5700,-01.4950,-08.1550,-00.002185,+00.001723,+00.000365
+113.440,-028.892,+010.271,+1.384,-0.610,+2.542,-04.5660,-01.4610,-08.1700,-00.001625,+00.002173,+00.000712
+113.440,-028.892,+010.269,+1.393,-0.639,+2.559,-04.5830,-01.5020,-08.1460,-00.003813,+00.000125,+00.001321
+113.442,-028.892,+010.265,+1.393,-0.615,+2.510,-04.5840,-01.4930,-08.1350,-00.003618,+00.000211,+00.003169
+113.445,-028.894,+010.259,+1.393,-0.630,+2.537,-04.5850,-01.4760,-08.1230,-00.002073,-00.000548,+00.003749
+113.446,-028.896,+010.255,+1.384,-0.634,+2.531,-04.5790,-01.4870,-08.1680,-00.002515,-00.003463,+00.002261
+113.448,-028.896,+010.250,+1.388,-0.615,+2.531,-04.5490,-01.4680,-08.1520,-00.001490,-00.001925,+00.002040
+113.450,-028.900,+010.247,+1.384,-0.615,+2.542,-04.6040,-01.4790,-08.1800,-00.001674,-00.002153,+00.001693
+113.452,-028.902,+010.244,+1.374,-0.599,+2.568,-04.5790,-01.4860,-08.1510,-00.002168,-00.000270,+00.002537
+113.455,-028.904,+010.238,+1.384,-0.625,+2.537,-04.5720,-01.4840,-08.1860,-00.002429,-00.002245,+00.003601
+113.459,-028.907,+010.233,+1.374,-0.619,+2.536,-04.5990,-01.4520,-08.1810,-00.003684,-00.002779,+00.003769
+113.464,-028.912,+010.224,+1.379,-0.629,+2.553,-04.6160,-01.4560,-08.1920,-00.003823,-00.004341,+00.003829
+113.467,-028.917,+010.218,+1.379,-0.629,+2.536,-04.5970,-01.4820,-08.1470,-00.003362,-00.004054,+00.003908
+113.470,-028.924,+010.211,+1.384,-0.629,+2.537,-04.6000,-01.4740,-08.1740,-00.004232,-00.004228,+00.003162
+113.473,-028.928,+010.205,+1.388,-0.630,+2.537,-04.5760,-01.4550,-08.1350,-00.005183,-00.004168,+00.002189
+113.478,-028.932,+010.196,+1.379,-0.610,+2.536,-04.5820,-01.4600,-08.1640,-00.004117,-00.003203,+00.003398
+113.481,-028.939,+010.189,+1.379,-0.625,+2.526,-04.6070,-01.4700,-08.1830,-00.004656,-00.001700,+00.003567
+113.484,-028.942,+010.182,+1.379,-0.634,+2.542,-04.5980,-01.4580,-08.1750,-00.004889,-00.000950,+00.001924
+113.485,-028.943,+010.175,+1.388,-0.615,+2.510,-04.5760,-01.4680,-08.1740,-00.006671,-00.000790,+00.001991
+113.487,-028.943,+010.167,+1.393,-0.635,+2.526,-04.5940,-01.4720,-08.1340,-00.005420,+00.001020,+00.003581
+113.489,-028.941,+010.160,+1.370,-0.629,+2.552,-04.5910,-01.4890,-08.1650,-00.006722,+00.002210,+00.001830
+113.493,-028.940,+010.151,+1.384,-0.630,+2.515,-04.5710,-01.4640,-08.1840,-00.004709,+00.001759,+00.001742
+113.494,-028.940,+010.145,+1.379,-0.624,+2.542,-04.6110,-01.4400,-08.1710,-00.003295,+00.000615,+00.000254
+113.495,-028.940,+010.141,+1.374,-0.639,+2.531,-04.5710,-01.4430,-08.1700,-00.002630,-00.000429,+00.000889
+113.495,-028.938,+010.137,+1.384,-0.610,+2.537,-04.5690,-01.4680,-08.1620,-00.002883,+00.001282,+00.000765
+113.496,-028.939,+010.133,+1.370,-0.619,+2.541,-04.5830,-01.4310,-08.1450,-00.002733,-00.000448,+00.001708
+113.498,-028.940,+010.130,+1.384,-0.614,+2.564,-04.5760,-01.4570,-08.1400,-00.003705,-00.001408,+00.002903
+113.500,-028.940,+010.125,+1.379,-0.615,+2.531,-04.5890,-01.4580,-08.1910,-00.002813,-00.000461,+00.002431
+113.503,-028.939,+010.119,+1.379,-0.625,+2.526,-04.5790,-01.4300,-08.1800,-00.002754,+00.002281,+00.002540
+113.504,-028.939,+010.117,+1.379,-0.619,+2.547,-04.5830,-01.4670,-08.1490,-00.000220,-00.001136,+00.001752
+113.506,-028.938,+010.114,+1.384,-0.610,+2.531,-04.5920,-01.4460,-08.1620,-00.000331,-00.000684,+00.000816
+113.507,-028.940,+010.112,+1.370,-0.649,+2.488,-04.5880,-01.4540,-08.1810,+00.000309,-00.001102,+00.001480
+113.507,-028.940,+010.112,+1.384,-0.629,+2.548,-04.5740,-01.4600,-08.1970,-00.000945,+00.000743,+00.000852
+113.508,-028.942,+010.110,+1.384,-0.630,+2.515,-04.5870,-01.4410,-08.1810,-00.000239,-00.000195,+00.001742
+113.509,-028.943,+010.109,+1.379,-0.600,+2.531,-04.5930,-01.4460,-08.1840,+00.000921,-00.000314,+00.001182
+113.510,-028.943,+010.108,+1.370,-0.634,+2.558,-04.5900,-01.4530,-08.1810,+00.000928,-00.001229,+00.002264
+113.512,-028.945,+010.107,+1.379,-0.615,+2.542,-04.5880,-01.4420,-08.1710,+00.000847,-00.001893,+00.001013
+113.512,-028.946,+010.107,+1.384,-0.639,+2.537,-04.5790,-01.4600,-08.1160,+00.000183,-00.002371,+00.000762
+113.513,-028.949,+010.108,+1.379,-0.624,+2.542,-04.5940,-01.4520,-08.1760,+00.002059,-00.003952,+00.001465
+113.513,-028.953,+010.110,+1.379,-0.585,+2.531,-04.5640,-01.4420,-08.1380,+00.002923,-00.003278,+00.001555
+113.513,-028.960,+010.114,+1.374,-0.620,+2.509,-04.6060,-01.3780,-08.1140,+00.005174,-00.004836,+00.000285
+113.512,-028.966,+010.119,+1.379,-0.615,+2.536,-04.5860,-01.4180,-08.1090,+00.004793,-00.004645,-00.000678
+113.508,-028.972,+010.127,+1.379,-0.620,+2.515,-04.5570,-01.4720,-08.1510,+00.005534,-00.006667,+00.000296
+113.507,-028.982,+010.134,+1.379,-0.630,+2.520,-04.6200,-01.4410,-08.1670,+00.006755,-00.008953,+00.000543
+113.505,-028.990,+010.143,+1.379,-0.624,+2.542,-04.5890,-01.4650,-08.2000,+00.007023,-00.007965,-00.000044
+113.502,-029.000,+010.152,+1.393,-0.620,+2.505,-04.5760,-01.4810,-08.1860,+00.004730,-00.010546,+00.000560
+113.500,-029.011,+010.160,+1.384,-0.625,+2.526,-04.6190,-01.4510,-08.1480,+00.005529,-00.008906,+00.000579
+113.499,-029.021,+010.166,+1.379,-0.620,+2.542,-04.6000,-01.4660,-08.1580,+00.004679,-00.006687,+00.001469
+113.498,-029.030,+010.171,+1.388,-0.620,+2.542,-04.6090,-01.4500,-08.1580,+00.003938,-00.007176,+00.001363
+113.498,-029.038,+010.176,+1.379,-0.629,+2.531,-04.5990,-01.4610,-08.1680,+00.004030,-00.005458,+00.000589
+113.498,-029.042,+010.180,+1.388,-0.639,+2.542,-04.6290,-01.4570,-08.2130,+00.003911,-00.002191,-00.000073
+113.497,-029.045,+010.184,+1.379,-0.629,+2.542,-04.5960,-01.4380,-08.1640,+00.004597,-00.002688,-00.001331
+113.496,-029.046,+010.187,+1.374,-0.610,+2.531,-04.5960,-01.4740,-08.1410,+00.003164,-00.000635,-00.000111
+113.496,-029.047,+010.190,+1.379,-0.634,+2.553,-04.6100,-01.4620,-08.1640,+00.001280,-00.000665,-00.000472
+113.495,-029.046,+010.191,+1.379,-0.620,+2.520,-04.5930,-01.4560,-08.1380,+00.001332,+00.002090,-00.001812
+113.495,-029.043,+010.190,+1.379,-0.620,+2.536,-04.6300,-01.4470,-08.1480,+00.000264,+00.002676,-00.000086
+113.494,-029.040,+010.192,+1.384,-0.629,+2.537,-04.5990,-01.4720,-08.1450,+00.001669,+00.001032,-00.001647
+113.493,-029.040,+010.194,+1.388,-0.615,+2.504,-04.6290,-01.4600,-08.1510,+00.001737,+00.001234,-00.000993
+113.491,-029.038,+010.196,+1.384,-0.605,+2.531,-04.6070,-01.4480,-08.1800,+00.001930,+00.000216,-00.000905
+113.489,-029.037,+010.199,+1.393,-0.605,+2.548,-04.6090,-01.4730,-08.1590,+00.001778,-00.000610,-00.000023
+113.488,-029.037,+010.201,+1.388,-0.615,+2.521,-04.5770,-01.4440,-08.1840,+00.002048,+00.000576,-00.000542
+113.488,-029.038,+010.203,+1.379,-0.634,+2.520,-04.6120,-01.4320,-08.1350,+00.001793,-00.000763,+00.000063
+113.486,-029.040,+010.206,+1.379,-0.634,+2.531,-04.5980,-01.4610,-08.1410,+00.003073,-00.001066,-00.001002
+113.485,-029.041,+010.209,+1.379,-0.600,+2.526,-04.6000,-01.4690,-08.1470,+00.002134,-00.000909,+00.000481
+113.485,-029.041,+010.209,+1.374,-0.590,+2.525,-04.5940,-01.4430,-08.1440,+00.001596,-00.000575,-00.000801
+113.484,-029.041,+010.210,+1.384,-0.629,+2.553,-04.6150,-01.4470,-08.1580,+00.001900,-00.000394,-00.001014
+113.482,-029.042,+010.213,+1.384,-0.590,+2.536,-04.6090,-01.4750,-08.1460,+00.002623,-00.000900,-00.001748
+113.481,-029.044,+010.218,+1.379,-0.625,+2.531,-04.6130,-01.4900,-08.1230,+00.003110,-00.001041,-00.000934
+113.480,-029.045,+010.221,+1.384,-0.634,+2.553,-04.6010,-01.4770,-08.1850,+00.000307,+00.000194,-00.000397
+113.481,-029.046,+010.220,+1.393,-0.605,+2.532,-04.5960,-01.4630,-08.1750,+00.000324,-00.000740,+00.001300
+113.482,-029.048,+010.220,+1.384,-0.610,+2.537,-04.6080,-01.4780,-08.1830,+00.000707,-00.000977,+00.000625
+113.483,-029.049,+010.219,+1.379,-0.619,+2.558,-04.6170,-01.4460,-08.1530,+00.000285,+00.000460,+00.000329
+113.483,-029.048,+010.220,+1.384,-0.610,+2.526,-04.6150,-01.4710,-08.1270,+00.000400,+00.000620,-00.001294
+113.483,-029.047,+010.219,+1.384,-0.634,+2.542,-04.6090,-01.4630,-08.1460,-00.000310,+00.001658,+00.001035
+113.484,-029.045,+010.218,+1.388,-0.639,+2.559,-04.5920,-01.4740,-08.1610,-00.001582,+00.000475,-00.000046
+113.485,-029.043,+010.217,+1.388,-0.615,+2.515,-04.5950,-01.4710,-08.1470,-00.000051,+00.000906,+00.001378
+113.486,-029.043,+010.216,+1.388,-0.625,+2.532,-04.6190,-01.4780,-08.1660,+00.000112,+00.001268,+00.000736
+113.487,-029.044,+010.217,+1.374,-0.624,+2.553,-04.6110,-01.4530,-08.1270,+00.001953,-00.000084,-00.000250
+113.487,-029.044,+010.218,+1.388,-0.615,+2.526,-04.5970,-01.4600,-08.1720,+00.000343,-00.000015,+00.000124
+113.487,-029.044,+010.218,+1.397,-0.635,+2.516,-04.6250,-01.4820,-08.1660,+00.000385,+00.000713,-00.000074
+113.488,-029.044,+010.217,+1.379,-0.629,+2.542,-04.6000,-01.4710,-08.1590,-00.000494,-00.000883,+00.001266
+113.489,-029.045,+010.216,+1.384,-0.625,+2.526,-04.6070,-01.4710,-08.1770,-00.000154,-00.001106,+00.001463
+113.490,-029.048,+010.215,+1.384,-0.634,+2.542,-04.6090,-01.4600,-08.1630,-00.000208,-00.001575,+00.001073
+113.490,-029.049,+010.217,+1.384,-0.644,+2.542,-04.5930,-01.4790,-08.1660,+00.001224,-00.002771,+00.000463
+113.489,-029.050,+010.219,+1.384,-0.625,+2.537,-04.6050,-01.4900,-08.1820,+00.001187,-00.002048,+00.000280
+113.489,-029.054,+010.221,+1.388,-0.595,+2.526,-04.6000,-01.4800,-08.1390,+00.001565,-00.001688,-00.001824
+113.488,-029.054,+010.223,+1.384,-0.639,+2.526,-04.6050,-01.4940,-08.1640,-00.000424,+00.000921,+00.000240
+113.489,-029.055,+010.222,+1.393,-0.620,+2.510,-04.6140,-01.4700,-08.1560,-00.000655,+00.000917,+00.000619
+113.489,-029.055,+010.222,+1.384,-0.610,+2.537,-04.5940,-01.4530,-08.1350,-00.000278,+00.000092,+00.000800
+113.489,-029.053,+010.221,+1.388,-0.625,+2.553,-04.5890,-01.4510,-08.1590,+00.000312,+00.001404,-00.000190
+113.487,-029.050,+010.223,+1.379,-0.615,+2.531,-04.5950,-01.4860,-08.1390,+00.000027,+00.002616,-00.001121
+113.486,-029.047,+010.224,+1.388,-0.630,+2.521,-04.6220,-01.4770,-08.1720,-00.000093,+00.001876,+00.000135
+113.486,-029.044,+010.224,+1.384,-0.639,+2.548,-04.5840,-01.4690,-08.1140,-00.000739,+00.000907,+00.002161
+113.487,-029.042,+010.223,+1.384,-0.615,+2.526,-04.6010,-01.4720,-08.1520,+00.000221,+00.001902,+00.000225
+113.488,-029.043,+010.221,+1.388,-0.635,+2.521,-04.5880,-01.4690,-08.1830,+00.000218,+00.000713,-00.000041
+113.488,-029.042,+010.220,+1.384,-0.654,+2.553,-04.5970,-01.4640,-08.1340,-00.000040,+00.002378,-00.000868
+113.487,-029.041,+010.222,+1.384,-0.620,+2.520,-04.5980,-01.4670,-08.1310,+00.002487,+00.000828,-00.001512
+113.486,-029.040,+010.225,+1.374,-0.629,+2.526,-04.5790,-01.4920,-08.1550,+00.001777,-00.000146,+00.000968
+113.484,-029.040,+010.228,+1.388,-0.640,+2.526,-04.5970,-01.4880,-08.1250,+00.001855,-00.000916,-00.000271
+113.483,-029.043,+010.232,+1.393,-0.625,+2.526,-04.6020,-01.4610,-08.1230,+00.003171,-00.002183,-00.001117
+113.480,-029.047,+010.238,+1.388,-0.630,+2.526,-04.5710,-01.4780,-08.1590,+00.005529,-00.002567,-00.000830
+113.478,-029.051,+010.243,+1.384,-0.634,+2.548,-04.6180,-01.4760,-08.1340,+00.005374,-00.003448,-00.001682
+113.476,-029.054,+010.249,+1.384,-0.590,+2.537,-04.6020,-01.4580,-08.1650,+00.004396,-00.002863,-00.001935
+113.473,-029.056,+010.254,+1.388,-0.600,+2.542,-04.6120,-01.4640,-08.1920,+00.005015,-00.003357,-00.001795
+113.471,-029.058,+010.260,+1.379,-0.634,+2.542,-04.5830,-01.4840,-08.1360,+00.003061,-00.002512,-00.000046
+113.470,-029.059,+010.265,+1.388,-0.620,+2.532,-04.6010,-01.4960,-08.1710,+00.003269,-00.003221,-00.000482
+113.469,-029.061,+010.269,+1.374,-0.629,+2.531,-04.5880,-01.4660,-08.1560,+00.002659,-00.001494,-00.000616
+113.467,-029.064,+010.274,+1.370,-0.595,+2.558,-04.6290,-01.4720,-08.1580,+00.002442,-00.002498,-00.000537
+113.467,-029.066,+010.276,+1.384,-0.610,+2.526,-04.6070,-01.4690,-08.1420,+00.001062,-00.001435,+00.000066
+113.468,-029.067,+010.276,+1.393,-0.635,+2.510,-04.5940,-01.4660,-08.1670,+00.001126,+00.001293,+00.000817
+113.469,-029.066,+010.276,+1.388,-0.634,+2.548,-04.6110,-01.4920,-08.1580,+00.000389,-00.000681,+00.001711
+113.470,-029.067,+010.276,+1.384,-0.605,+2.526,-04.6190,-01.4690,-08.1520,+00.000992,+00.000757,+00.000360
+113.471,-029.066,+010.274,+1.374,-0.625,+2.526,-04.6310,-01.4590,-08.1790,-00.000310,+00.001450,+00.000951
+113.471,-029.063,+010.274,+1.374,-0.629,+2.536,-04.5920,-01.5080,-08.1380,-00.001043,+00.003123,-00.000376
+113.471,-029.060,+010.273,+1.393,-0.630,+2.543,-04.5600,-01.4770,-08.1470,-00.000929,+00.001944,-00.000227
+113.472,-029.059,+010.272,+1.388,-0.630,+2.542,-04.5790,-01.4690,-08.1220,+00.000044,+00.001203,+00.001802
+113.472,-029.059,+010.274,+1.384,-0.644,+2.548,-04.6180,-01.4920,-08.1460,+00.000325,-00.001288,+00.000820
+113.472,-029.061,+010.272,+1.393,-0.600,+2.537,-04.6300,-01.4590,-08.1630,+00.000950,+00.000478,+00.001087
+113.472,-029.061,+010.272,+1.388,-0.600,+2.537,-04.6010,-01.4560,-08.1480,+00.000595,-00.000348,-00.001214
+113.472,-029.061,+010.274,+1.384,-0.615,+2.531,-04.5890,-01.4650,-08.1720,+00.003589,-00.000261,-00.000191
+113.470,-029.060,+010.278,+1.379,-0.620,+2.515,-04.5960,-01.5020,-08.1670,+00.003458,-00.000483,-00.001091
+113.469,-029.061,+010.282,+1.379,-0.625,+2.537,-04.6350,-01.4870,-08.1410,+00.003377,-00.000740,-00.000393
+113.468,-029.061,+010.286,+1.384,-0.634,+2.548,-04.6080,-01.4750,-08.1410,+00.002518,-00.000580,+00.000270
+113.468,-029.064,+010.288,+1.379,-0.625,+2.499,-04.6440,-01.4900,-08.1580,+00.001277,-00.001576,-00.000489
+113.467,-029.064,+010.290,+1.388,-0.625,+2.521,-04.5920,-01.4750,-08.1450,+00.002224,-00.001006,+00.000178
+113.467,-029.065,+010.291,+1.384,-0.620,+2.558,-04.5990,-01.4640,-08.1690,+00.001984,-00.002088,-00.000712
+113.465,-029.066,+010.295,+1.384,-0.620,+2.531,-04.5930,-01.4920,-08.1590,+00.002787,-00.002059,-00.000156
+113.465,-029.069,+010.298,+1.388,-0.640,+2.537,-04.6100,-01.4830,-08.1720,+00.002308,-00.002732,+00.001107
+113.465,-029.070,+010.300,+1.379,-0.624,+2.547,-04.5950,-01.5070,-08.1530,+00.001312,-00.000991,+00.000760
+113.468,-029.074,+010.299,+1.388,-0.600,+2.537,-04.5910,-01.4320,-08.0520,+00.002912,-00.003477,+00.000754
+113.469,-029.077,+010.302,+1.379,-0.620,+2.542,-04.5960,-01.4600,-08.1300,+00.003126,-00.002546,+00.001597
+113.468,-029.081,+010.303,+1.388,-0.630,+2.532,-04.5940,-01.4820,-08.1290,+00.002247,-00.003897,+00.001303
+113.467,-029.085,+010.307,+1.398,-0.610,+2.532,-04.6190,-01.4900,-08.1270,+00.002329,-00.003776,+00.001557
+113.468,-029.089,+010.308,+1.384,-0.630,+2.515,-04.5940,-01.5020,-08.1260,+00.000123,-00.003297,+00.002687
+113.470,-029.094,+010.308,+1.374,-0.629,+2.547,-04.6000,-01.4920,-08.1540,+00.001804,-00.005293,+00.001940
+113.470,-029.100,+010.310,+1.388,-0.615,+2.526,-04.6430,-01.5120,-08.1260,+00.002661,-00.003750,+00.000453
+113.468,-029.103,+010.313,+1.384,-0.630,+2.531,-04.5950,-01.4810,-08.1330,+00.002287,-00.001550,-00.000955
+113.468,-029.105,+010.315,+1.379,-0.644,+2.548,-04.5740,-01.4700,-08.1300,+00.001899,-00.001935,+00.001153
+113.468,-029.109,+010.317,+1.393,-0.610,+2.515,-04.6200,-01.4710,-08.1510,+00.001908,-00.003753,+00.000807
+113.468,-029.114,+010.319,+1.379,-0.630,+2.537,-04.6140,-01.4840,-08.1690,+00.002534,-00.005075,+00.000340
+113.468,-029.118,+010.318,+1.393,-0.605,+2.553,-04.6180,-01.4830,-08.1390,-00.000794,-00.000832,-00.000227
+113.468,-029.118,+010.317,+1.388,-0.610,+2.526,-04.6170,-01.4740,-08.1270,-00.000652,+00.002036,-00.000110
+113.469,-029.118,+010.314,+1.393,-0.620,+2.526,-04.6360,-01.4780,-08.1520,-00.001863,+00.002172,+00.000450
+113.469,-029.116,+010.312,+1.379,-0.600,+2.542,-04.6120,-01.4710,-08.1830,-00.002171,+00.001806,+00.000827
+113.469,-029.114,+010.311,+1.384,-0.620,+2.531,-04.6020,-01.4760,-08.1320,-00.000341,+00.001116,-00.000251
+113.467,-029.112,+010.311,+1.393,-0.615,+2.532,-04.6260,-01.4850,-08.1390,-00.000320,+00.001734,-00.002084
+113.467,-029.108,+010.310,+1.388,-0.639,+2.553,-04.6090,-01.4950,-08.1470,-00.002197,+00.004381,-00.000126
+113.468,-029.101,+010.306,+1.388,-0.610,+2.537,-04.5970,-01.4680,-08.1770,-00.004482,+00.006027,+00.000743
+113.469,-029.094,+010.300,+1.384,-0.620,+2.537,-04.6150,-01.4880,-08.1880,-00.004208,+00.005341,+00.000027
+113.472,-029.089,+010.294,+1.374,-0.620,+2.542,-04.6100,-01.4930,-08.1510,-00.005072,+00.004611,+00.000835
+113.474,-029.086,+010.287,+1.379,-0.620,+2.526,-04.6370,-01.4650,-08.1200,-00.005201,+00.004505,+00.001046
+113.476,-029.080,+010.279,+1.388,-0.605,+2.537,-04.6320,-01.4440,-08.1690,-00.004734,+00.005479,-00.000757
+113.477,-029.074,+010.273,+1.388,-0.630,+2.537,-04.6180,-01.4940,-08.1100,-00.005889,+00.004702,+00.000254
+113.479,-029.070,+010.266,+1.388,-0.610,+2.526,-04.6050,-01.4820,-08.1330,-00.006452,+00.003584,+00.001928
+113.482,-029.064,+010.257,+1.393,-0.620,+2.537,-04.6240,-01.4790,-08.1610,-00.007258,+00.005209,+00.001900
+113.485,-029.060,+010.247,+1.370,-0.624,+2.552,-04.5860,-01.4530,-08.1650,-00.006497,+00.004824,+00.001303
+113.488,-029.055,+010.237,+1.388,-0.605,+2.515,-04.5960,-01.4810,-08.1540,-00.006066,+00.004628,+00.002774
+113.490,-029.050,+010.229,+1.384,-0.635,+2.531,-04.6180,-01.4820,-08.1730,-00.006793,+00.005664,+00.000144
+113.491,-029.046,+010.222,+1.388,-0.630,+2.548,-04.6150,-01.4670,-08.1770,-00.005544,+00.002438,+00.000788
+113.492,-029.043,+010.216,+1.384,-0.610,+2.531,-04.5810,-01.4520,-08.1470,-00.006218,+00.002400,+00.001718
+113.495,-029.040,+010.208,+1.393,-0.610,+2.532,-04.6020,-01.4580,-08.1550,-00.006010,+00.004016,+00.000585
+113.496,-029.036,+010.201,+1.384,-0.639,+2.553,-04.6080,-01.4520,-08.1480,-00.006155,+00.004371,+00.001378
+113.496,-029.032,+010.196,+1.384,-0.620,+2.521,-04.5980,-01.4990,-08.1360,-00.006068,+00.003694,+00.001426
+113.498,-029.030,+010.188,+1.384,-0.605,+2.542,-04.5850,-01.4690,-08.1400,-00.007270,+00.001426,+00.002745
+113.503,-029.030,+010.177,+1.384,-0.600,+2.547,-04.6160,-01.4610,-08.1440,-00.007430,+00.003000,+00.003765
+113.507,-029.028,+010.168,+1.384,-0.625,+2.537,-04.5910,-01.4610,-08.1610,-00.006736,+00.001839,+00.002293
+113.510,-029.026,+010.160,+1.379,-0.620,+2.537,-04.5750,-01.4460,-08.1840,-00.005365,+00.000793,+00.000950
+113.511,-029.025,+010.155,+1.374,-0.639,+2.542,-04.6070,-01.4670,-08.1790,-00.005590,+00.000828,+00.001434
+113.513,-029.025,+010.149,+1.384,-0.625,+2.515,-04.5820,-01.4660,-08.1290,-00.003956,+00.000858,+00.002744
+113.516,-029.025,+010.142,+1.384,-0.625,+2.515,-04.5800,-01.4650,-08.1370,-00.003725,-00.000407,+00.002688
+113.520,-029.026,+010.134,+1.379,-0.654,+2.542,-04.5840,-01.4440,-08.1410,-00.003043,-00.001226,+00.001109
+113.521,-029.026,+010.130,+1.388,-0.625,+2.521,-04.5840,-01.4670,-08.1680,-00.000687,-00.002325,+00.001205
+113.523,-029.028,+010.126,+1.384,-0.595,+2.520,-04.6070,-01.4460,-08.1640,-00.002437,-00.001430,+00.002083
+113.526,-029.030,+010.120,+1.384,-0.640,+2.526,-04.6040,-01.4430,-08.1650,-00.001219,-00.001546,+00.001359
+113.527,-029.032,+010.117,+1.384,-0.625,+2.510,-04.6040,-01.4710,-08.1620,-00.002170,-00.000762,+00.001439
+113.529,-029.034,+010.114,+1.384,-0.645,+2.515,-04.6030,-01.4120,-08.1910,+00.000711,-00.000183,+00.000468
+113.529,-029.036,+010.114,+1.379,-0.634,+2.548,-04.5960,-01.4790,-08.1730,+00.000451,-00.002084,-00.000450
+113.528,-029.038,+010.115,+1.384,-0.625,+2.531,-04.5940,-01.4450,-08.1480,+00.000648,-00.001982,+00.000770
+113.528,-029.039,+010.115,+1.388,-0.620,+2.532,-04.5920,-01.4510,-08.1640,-00.000430,-00.001621,+00.000215
+113.527,-029.041,+010.116,+1.379,-0.639,+2.531,-04.6130,-01.4500,-08.1340,-00.000108,-00.000581,-00.000156
+113.527,-029.043,+010.115,+1.384,-0.625,+2.504,-04.6320,-01.4450,-08.1620,-00.000470,+00.000102,-00.001066
+113.526,-029.043,+010.115,+1.388,-0.625,+2.542,-04.6120,-01.4520,-08.1540,-00.001089,+00.000240,-00.000913
+113.524,-029.042,+010.117,+1.388,-0.605,+2.548,-04.6010,-01.4480,-08.1370,+00.000252,+00.000268,+00.000178
+113.524,-029.042,+010.117,+1.384,-0.635,+2.532,-04.6190,-01.4680,-08.1800,-00.000098,-00.000353,+00.000372
+113.525,-029.041,+010.114,+1.384,-0.635,+2.499,-04.5940,-01.4420,-08.1890,-00.000168,+00.000292,+00.000675
+113.523,-029.043,+010.116,+1.374,-0.644,+2.537,-04.5960,-01.4430,-08.1690,+00.000038,-00.001413,-00.000797
+113.521,-029.044,+010.118,+1.393,-0.605,+2.532,-04.6030,-01.4480,-08.1710,+00.000176,-00.000141,-00.000925
+113.520,-029.044,+010.119,+1.393,-0.635,+2.494,-04.5910,-01.4840,-08.1530,+00.000115,-00.000511,-00.000983
+113.519,-029.042,+010.118,+1.379,-0.654,+2.537,-04.6010,-01.4580,-08.1630,-00.000468,+00.000992,-00.000862
+113.518,-029.042,+010.118,+1.384,-0.615,+2.510,-04.6080,-01.4800,-08.1610,+00.000161,-00.000121,-00.000443
+113.520,-029.043,+010.117,+1.379,-0.635,+2.531,-04.6340,-01.4550,-08.1700,+00.001147,-00.000559,+00.001252
+113.520,-029.045,+010.117,+1.398,-0.630,+2.538,-04.6160,-01.4710,-08.1740,+00.002622,-00.001077,-00.000145
+113.519,-029.045,+010.116,+1.374,-0.620,+2.520,-04.6190,-01.4470,-08.1320,+00.000564,+00.001677,-00.000609
+113.519,-029.043,+010.118,+1.379,-0.625,+2.531,-04.6000,-01.4480,-08.1640,+00.002104,+00.001560,+00.000371
+113.518,-029.043,+010.120,+1.388,-0.630,+2.543,-04.6070,-01.4460,-08.1570,+00.002139,-00.000220,-00.000806
+113.517,-029.041,+010.123,+1.398,-0.615,+2.494,-04.6120,-01.4520,-08.1620,+00.001408,+00.001683,-00.001099
+113.516,-029.039,+010.124,+1.370,-0.624,+2.536,-04.6280,-01.4850,-08.1500,+00.001635,+00.001667,-00.000190
+113.515,-029.037,+010.126,+1.384,-0.610,+2.548,-04.6140,-01.4510,-08.1450,+00.001322,+00.003060,-00.001225
+113.515,-029.034,+010.127,+1.379,-0.595,+2.531,-04.5760,-01.4700,-08.1900,+00.000708,+00.002752,-00.000424
+113.514,-029.029,+010.127,+1.388,-0.630,+2.537,-04.5720,-01.4490,-08.1730,+00.000172,+00.002302,-00.002120
+113.511,-029.026,+010.130,+1.384,-0.630,+2.553,-04.5760,-01.4800,-08.1440,+00.002596,+00.002215,-00.001292
+113.511,-029.021,+010.131,+1.388,-0.630,+2.510,-04.5730,-01.4550,-08.1860,+00.001579,+00.002176,-00.000844
+113.509,-029.019,+010.132,+1.388,-0.635,+2.521,-04.6100,-01.4630,-08.1570,-00.000287,+00.003209,-00.000906
+113.509,-029.015,+010.132,+1.374,-0.634,+2.537,-04.5780,-01.4390,-08.1790,+00.000347,+00.003831,-00.000519
+113.508,-029.011,+010.132,+1.384,-0.620,+2.531,-04.5980,-01.4780,-08.1670,+00.000700,+00.002887,-00.000739
+113.507,-029.009,+010.133,+1.388,-0.635,+2.505,-04.5980,-01.4420,-08.1510,+00.001212,+00.002389,-00.000868
+113.505,-029.004,+010.135,+1.384,-0.625,+2.553,-04.5930,-01.4610,-08.1870,+00.001262,+00.003876,-00.001923
+113.503,-028.999,+010.137,+1.388,-0.615,+2.505,-04.5790,-01.4530,-08.1550,+00.001962,+00.001355,-00.002701
+113.501,-028.996,+010.140,+1.393,-0.635,+2.527,-04.5820,-01.4580,-08.1510,+00.001756,+00.001434,-00.001054
+113.501,-028.995,+010.141,+1.379,-0.634,+2.542,-04.5950,-01.4690,-08.1620,+00.001113,+00.001215,+00.000614
+113.502,-028.995,+010.141,+1.388,-0.605,+2.526,-04.6160,-01.4330,-08.1600,+00.001637,+00.000292,+00.000257
+113.502,-028.995,+010.143,+1.374,-0.635,+2.510,-04.6000,-01.4410,-08.1640,+00.002446,+00.001158,-00.000158
+113.499,-028.994,+010.146,+1.379,-0.630,+2.521,-04.6080,-01.4710,-08.1750,+00.002394,+00.000798,-00.001501
+113.497,-028.992,+010.150,+1.384,-0.620,+2.515,-04.5780,-01.4660,-08.1670,+00.002688,+00.001835,-00.001029
+113.496,-028.990,+010.154,+1.379,-0.595,+2.542,-04.5960,-01.4790,-08.1530,+00.002907,+00.001467,+00.000521
+113.496,-028.989,+010.157,+1.374,-0.615,+2.547,-04.5810,-01.4480,-08.1510,+00.004160,+00.000795,-00.001877
+113.495,-028.990,+010.160,+1.379,-0.605,+2.520,-04.5850,-01.4490,-08.1710,+00.004100,-00.000272,-00.000072
+113.493,-028.991,+010.166,+1.384,-0.630,+2.532,-04.5990,-01.4630,-08.1570,+00.004125,-00.001180,-00.001566
+113.490,-028.991,+010.172,+1.379,-0.620,+2.547,-04.6100,-01.4660,-08.1560,+00.004421,-00.000075,-00.002635
+113.487,-028.991,+010.178,+1.384,-0.625,+2.521,-04.6030,-01.4700,-08.1480,+00.003613,+00.001083,-00.000905
+113.485,-028.991,+010.184,+1.388,-0.635,+2.526,-04.6130,-01.4620,-08.1670,+00.003180,+00.000290,-00.000465
+113.483,-028.989,+010.189,+1.384,-0.630,+2.559,-04.5660,-01.4720,-08.1270,+00.003545,+00.002305,-00.001395
+113.481,-028.987,+010.194,+1.388,-0.625,+2.532,-04.6160,-01.4340,-08.1960,+00.004370,+00.000142,-00.002070
+113.479,-028.986,+010.199,+1.374,-0.625,+2.531,-04.6150,-01.4910,-08.1440,+00.003540,+00.000626,-00.002022
+113.477,-028.983,+010.205,+1.379,-0.620,+2.520,-04.5790,-01.4840,-08.1370,+00.003869,+00.001854,-00.001957
+113.474,-028.980,+010.212,+1.388,-0.615,+2.521,-04.6160,-01.4970,-08.1480,+00.004020,+00.002045,-00.001885
+113.472,-028.978,+010.216,+1.374,-0.635,+2.515,-04.5810,-01.4610,-08.1430,+00.004028,+00.004166,-00.001940
+113.470,-028.974,+010.221,+1.374,-0.634,+2.542,-04.5700,-01.4770,-08.1400,+00.005200,+00.003148,-00.003200
+113.467,-028.970,+010.226,+1.379,-0.610,+2.515,-04.5860,-01.4540,-08.1580,+00.003171,+00.003141,-00.003869
+113.464,-028.967,+010.231,+1.374,-0.630,+2.520,-04.5950,-01.4890,-08.1270,+00.003176,+00.003392,-00.001242
+113.463,-028.963,+010.232,+1.374,-0.605,+2.553,-04.6530,-01.4290,-08.1840,+00.001238,+00.003902,-00.002242
+113.463,-028.959,+010.234,+1.384,-0.615,+2.526,-04.5910,-01.4510,-08.1510,+00.000986,+00.002732,-00.000302
+113.460,-028.956,+010.237,+1.388,-0.630,+2.537,-04.6110,-01.4810,-08.1350,+00.001879,+00.001057,-00.001203
+113.458,-028.953,+010.241,+1.379,-0.644,+2.548,-04.5890,-01.4660,-08.2270,+00.002819,+00.001119,-00.002431
+113.455,-028.949,+010.245,+1.388,-0.605,+2.526,-04.5890,-01.4940,-08.1590,+00.002299,+00.003180,-00.002226
+113.453,-028.945,+010.247,+1.384,-0.595,+2.531,-04.5930,-01.4600,-08.1520,+00.000810,+00.004081,-00.001769
+113.450,-028.940,+010.250,+1.374,-0.634,+2.542,-04.5800,-01.4880,-08.1820,+00.000913,+00.003465,-00.001357
+113.447,-028.935,+010.250,+1.379,-0.610,+2.515,-04.6070,-01.4620,-08.1710,-00.001048,+00.004408,-00.002586
+113.443,-028.930,+010.251,+1.388,-0.640,+2.526,-04.5550,-01.5040,-08.1540,-00.000464,+00.004959,-00.003767
+113.439,-028.925,+010.253,+1.374,-0.629,+2.547,-04.5930,-01.4880,-08.1820,-00.000016,+00.003072,-00.002308
+113.438,-028.921,+010.254,+1.379,-0.625,+2.510,-04.5870,-01.4900,-08.1750,-00.000659,+00.003792,-00.000406
+113.437,-028.917,+010.253,+1.388,-0.635,+2.526,-04.5930,-01.4920,-08.1430,-00.001723,+00.004244,-00.000798
+113.436,-028.914,+010.253,+1.379,-0.605,+2.542,-04.5920,-01.4620,-08.1930,+00.001446,+00.000940,-00.000834
+113.435,-028.912,+010.253,+1.388,-0.615,+2.515,-04.5850,-01.4890,-08.1990,-00.000955,+00.002425,+00.000379
+113.434,-028.909,+010.253,+1.370,-0.629,+2.542,-04.5660,-01.4920,-08.1800,-00.001378,+00.002226,-00.000960
+113.434,-028.906,+010.249,+1.384,-0.620,+2.548,-04.5910,-01.4550,-08.1680,-00.003222,+00.003269,+00.001071
+113.434,-028.903,+010.245,+1.379,-0.610,+2.537,-04.5920,-01.4810,-08.1420,-00.002515,+00.004318,-00.000524
+113.433,-028.900,+010.243,+1.374,-0.625,+2.531,-04.5750,-01.4850,-08.1580,-00.002074,+00.005352,-00.000402
+113.432,-028.893,+010.241,+1.379,-0.630,+2.531,-04.5800,-01.5030,-08.1750,-00.003118,+00.007107,-00.001833
+113.431,-028.886,+010.237,+1.374,-0.610,+2.536,-04.6000,-01.4450,-08.1860,-00.005015,+00.006754,-00.003418
+113.430,-028.877,+010.233,+1.388,-0.600,+2.532,-04.5830,-01.4760,-08.1870,-00.002413,+00.007962,-00.003174
+113.427,-028.866,+010.228,+1.374,-0.625,+2.542,-04.5680,-01.5190,-08.1940,-00.005278,+00.007556,-00.003223
+113.424,-028.856,+010.223,+1.379,-0.625,+2.531,-04.5790,-01.4810,-08.1520,-00.006499,+00.009792,-00.003458
+113.422,-028.844,+010.218,+1.370,-0.610,+2.542,-04.5660,-01.4900,-08.1600,-00.005345,+00.010589,-00.002524
+113.423,-028.833,+010.210,+1.370,-0.620,+2.531,-04.5500,-01.4800,-08.1780,-00.006450,+00.010079,-00.000488
+113.425,-028.824,+010.200,+1.388,-0.610,+2.548,-04.5680,-01.4850,-08.2070,-00.007129,+00.007472,-00.000153
+113.427,-028.817,+010.190,+1.379,-0.644,+2.537,-04.6010,-01.4670,-08.1650,-00.007086,+00.005816,+00.000964
+113.427,-028.810,+010.183,+1.374,-0.605,+2.547,-04.5200,-01.4480,-08.1740,-00.006648,+00.004324,+00.000698
+113.429,-028.808,+010.175,+1.374,-0.590,+2.515,-04.5560,-01.4880,-08.1910,-00.007725,-00.000022,+00.002588
+113.433,-028.808,+010.165,+1.379,-0.630,+2.531,-04.5650,-01.4660,-08.1850,-00.006867,+00.000156,+00.003789
+113.438,-028.809,+010.153,+1.365,-0.634,+2.552,-04.5900,-01.4690,-08.1830,-00.007230,+00.001196,+00.003613
+113.442,-028.810,+010.143,+1.379,-0.615,+2.520,-04.5880,-01.4320,-08.1590,-00.005274,+00.001788,+00.002579
+113.443,-028.811,+010.138,+1.374,-0.630,+2.531,-04.5750,-01.4800,-08.1900,-00.003172,-00.000497,+00.001154
+113.446,-028.811,+010.131,+1.370,-0.620,+2.536,-04.5640,-01.4700,-08.1780,-00.004817,+00.000521,+00.001027
+113.447,-028.813,+010.126,+1.379,-0.625,+2.526,-04.5770,-01.4630,-08.1800,-00.004725,+00.000631,+00.002487
+113.451,-028.813,+010.119,+1.379,-0.605,+2.526,-04.5670,-01.4660,-08.1770,-00.003461,+00.000183,+00.002448
+113.452,-028.811,+010.112,+1.374,-0.625,+2.537,-04.5670,-01.4470,-08.1900,-00.002668,+00.002254,-00.000565
+113.453,-028.810,+010.109,+1.384,-0.625,+2.521,-04.5950,-01.4720,-08.1600,-00.002296,+00.000553,+00.000765
+113.455,-028.808,+010.105,+1.384,-0.625,+2.515,-04.5710,-01.4680,-08.1670,-00.002528,+00.002286,+00.002264
+113.458,-028.806,+010.098,+1.374,-0.620,+2.542,-04.5610,-01.4300,-08.1650,-00.003310,+00.002444,+00.003103
+113.460,-028.805,+010.093,+1.379,-0.580,+2.536,-04.5520,-01.4630,-08.1880,-00.002515,+00.000042,+00.002224
+113.463,-028.805,+010.088,+1.370,-0.634,+2.531,-04.5670,-01.4420,-08.1750,-00.001572,-00.001644,+00.002533
+113.466,-028.806,+010.083,+1.370,-0.639,+2.542,-04.5570,-01.4530,-08.1760,-00.002807,-00.000347,+00.002856
+113.469,-028.808,+010.081,+1.374,-0.620,+2.547,-04.5600,-01.4720,-08.1700,-00.000809,-00.001391,+00.003131
+113.471,-028.813,+010.080,+1.384,-0.645,+2.510,-04.5910,-01.4500,-08.1880,+00.000224,-00.004386,+00.001685
+113.472,-028.818,+010.081,+1.374,-0.595,+2.553,-04.5730,-01.4490,-08.1940,+00.002714,-00.004878,+00.002888
+113.474,-028.824,+010.082,+1.374,-0.630,+2.520,-04.5440,-01.4760,-08.1720,+00.002402,-00.006420,+00.002647
+113.475,-028.832,+010.082,+1.379,-0.625,+2.526,-04.5900,-01.4140,-08.1840,+00.002427,-00.005150,+00.001260
+113.475,-028.839,+010.084,+1.374,-0.630,+2.547,-04.5710,-01.4730,-08.1690,+00.002864,-00.004353,+00.000336
+113.474,-028.846,+010.088,+1.374,-0.625,+2.504,-04.5760,-01.4410,-08.1990,+00.004754,-00.006902,+00.001367
+113.474,-028.854,+010.092,+1.388,-0.640,+2.532,-04.5890,-01.4520,-08.1710,+00.002389,-00.007074,+00.001197
+113.474,-028.862,+010.095,+1.384,-0.645,+2.537,-04.5940,-01.4220,-08.1700,+00.004210,-00.004968,-00.000270
+113.471,-028.867,+010.101,+1.384,-0.630,+2.532,-04.6010,-01.4500,-08.1840,+00.005685,-00.003216,-00.000459
+113.468,-028.867,+010.108,+1.379,-0.640,+2.515,-04.5700,-01.4500,-08.1860,+00.004877,-00.001261,-00.002790
+113.464,-028.867,+010.115,+1.384,-0.615,+2.542,-04.5620,-01.4380,-08.1350,+00.004013,+00.000861,-00.002249
+113.462,-028.867,+010.120,+1.384,-0.630,+2.505,-04.5770,-01.4710,-08.1550,+00.002739,+00.001014,-00.000575
+113.460,-028.866,+010.123,+1.370,-0.634,+2.536,-04.5460,-01.4770,-08.1830,+00.003184,+00.001225,-00.002228
+113.458,-028.865,+010.128,+1.379,-0.644,+2.553,-04.5870,-01.4620,-08.1700,+00.003865,-00.000138,-00.003054
+113.456,-028.865,+010.132,+1.379,-0.600,+2.531,-04.5700,-01.4380,-08.1930,+00.003545,-00.000454,-00.001637
+113.452,-028.865,+010.138,+1.379,-0.640,+2.532,-04.5830,-01.4650,-08.1880,+00.003892,+00.000233,-00.001516
+113.449,-028.861,+010.143,+1.379,-0.610,+2.537,-04.5460,-01.4740,-08.1930,+00.002391,+00.001158,-00.001902
+113.447,-028.861,+010.148,+1.374,-0.625,+2.531,-04.5750,-01.4560,-08.1690,+00.002464,-00.000124,-00.000244
+113.445,-028.863,+010.153,+1.388,-0.610,+2.526,-04.6010,-01.4870,-08.1490,+00.002781,-00.000148,-00.000985
+113.445,-028.865,+010.156,+1.365,-0.629,+2.547,-04.5740,-01.4420,-08.1760,+00.003502,-00.001048,-00.000459
+113.445,-028.864,+010.160,+1.374,-0.610,+2.526,-04.5520,-01.4560,-08.1810,+00.003024,-00.000816,+00.000672
+113.444,-028.867,+010.163,+1.379,-0.610,+2.520,-04.5640,-01.4480,-08.1550,+00.002651,-00.002048,-00.000337
+113.443,-028.868,+010.165,+1.370,-0.625,+2.547,-04.5730,-01.4640,-08.1700,+00.001427,-00.000922,-00.000068
+113.443,-028.871,+010.169,+1.388,-0.595,+2.532,-04.5710,-01.4720,-08.1890,+00.001831,-00.002202,+00.000553
+113.444,-028.872,+010.170,+1.384,-0.625,+2.537,-04.5830,-01.4450,-08.1740,+00.002838,-00.002547,+00.000695
+113.442,-028.876,+010.175,+1.379,-0.600,+2.553,-04.6110,-01.4750,-08.1260,+00.004192,-00.002555,-00.000754
+113.441,-028.880,+010.179,+1.379,-0.620,+2.515,-04.5750,-01.4710,-08.1660,+00.004137,-00.003247,-00.001188
+113.438,-028.884,+010.186,+1.388,-0.635,+2.505,-04.5830,-01.4800,-08.1680,+00.004294,-00.006472,-00.000173
+113.436,-028.890,+010.191,+1.379,-0.615,+2.548,-04.5750,-01.4860,-08.1550,+00.002742,-00.004349,+00.001444
+113.437,-028.894,+010.192,+1.384,-0.635,+2.505,-04.5680,-01.4440,-08.1690,+00.004040,-00.003738,+00.001022
+113.436,-028.898,+010.195,+1.374,-0.620,+2.510,-04.5790,-01.4950,-08.2090,+00.003072,-00.002263,-00.000453
+113.436,-028.904,+010.197,+1.370,-0.605,+2.558,-04.5720,-01.4690,-08.1760,+00.002340,-00.005439,+00.001964
+113.437,-028.909,+010.199,+1.384,-0.605,+2.531,-04.5860,-01.4520,-08.1720,+00.002192,-00.004070,+00.001061
+113.438,-028.914,+010.201,+1.374,-0.605,+2.536,-04.5790,-01.4470,-08.1620,+00.001456,-00.003392,+00.000749
+113.438,-028.916,+010.203,+1.379,-0.640,+2.542,-04.5690,-01.4790,-08.1390,+00.001398,-00.001961,+00.002093
+113.439,-028.919,+010.205,+1.374,-0.610,+2.526,-04.5520,-01.4690,-08.1500,+00.001038,-00.002106,+00.001776
+113.440,-028.923,+010.205,+1.388,-0.625,+2.532,-04.5890,-01.4840,-08.1760,+00.002183,-00.004023,-00.000207
+113.441,-028.927,+010.205,+1.388,-0.595,+2.553,-04.6130,-01.4570,-08.1410,+00.001929,-00.001504,+00.001571
+113.443,-028.928,+010.204,+1.384,-0.615,+2.515,-04.5690,-01.4490,-08.2140,+00.000840,+00.000327,+00.001831
+113.443,-028.929,+010.203,+1.379,-0.625,+2.526,-04.5890,-01.4700,-08.1550,+00.000118,+00.000635,-00.000427
+113.441,-028.927,+010.202,+1.374,-0.625,+2.526,-04.5830,-01.4860,-08.1610,-00.000337,+00.002161,-00.000712
+113.442,-028.924,+010.202,+1.370,-0.580,+2.531,-04.5660,-01.4650,-08.1830,+00.000482,+00.002116,-00.000585
+113.442,-028.923,+010.201,+1.384,-0.635,+2.521,-04.5920,-01.4830,-08.1580,-00.000900,+00.000512,+00.000973
+113.443,-028.922,+010.200,+1.365,-0.630,+2.525,-04.5900,-01.4800,-08.1650,-00.000696,+00.001714,+00.000576
+113.443,-028.923,+010.199,+1.374,-0.615,+2.515,-04.5910,-01.4810,-08.1400,-00.001174,+00.001015,-00.000510
+113.442,-028.921,+010.198,+1.384,-0.615,+2.532,-04.5930,-01.4760,-08.1730,-00.000706,+00.001955,-00.000605
+113.440,-028.918,+010.200,+1.384,-0.635,+2.532,-04.5810,-01.4720,-08.1490,+00.001112,+00.001958,-00.000403
+113.438,-028.918,+010.203,+1.374,-0.615,+2.526,-04.5710,-01.4840,-08.1640,+00.000655,+00.000083,-00.002095
+113.438,-028.919,+010.204,+1.379,-0.625,+2.542,-04.5830,-01.4580,-08.1400,+00.000909,+00.000813,-00.000768
+113.437,-028.918,+010.205,+1.379,-0.639,+2.553,-04.5790,-01.4610,-08.1590,-00.000281,+00.000460,-00.000013
+113.436,-028.918,+010.206,+1.370,-0.625,+2.526,-04.5900,-01.4910,-08.1750,+00.000749,-00.000127,-00.000773
+113.435,-028.917,+010.206,+1.388,-0.640,+2.521,-04.5890,-01.4700,-08.1850,-00.000586,+00.000179,-00.000203
+113.435,-028.917,+010.205,+1.379,-0.620,+2.531,-04.5700,-01.4650,-08.1750,-00.000557,+00.000213,+00.000311
+113.435,-028.915,+010.204,+1.375,-0.595,+2.547,-04.5870,-01.4680,-08.1780,-00.000612,+00.002165,-00.000779
+113.436,-028.914,+010.202,+1.379,-0.635,+2.526,-04.5860,-01.4570,-08.1410,-00.000744,+00.002179,+00.000401
+113.437,-028.912,+010.201,+1.370,-0.629,+2.558,-04.5880,-01.4620,-08.1760,-00.000100,+00.001058,-00.000909
+113.436,-028.911,+010.200,+1.379,-0.625,+2.526,-04.5670,-01.4470,-08.1410,-00.000126,+00.001974,-00.000889
+113.434,-028.908,+010.200,+1.384,-0.630,+2.521,-04.5610,-01.4990,-08.1860,+00.000623,+00.002617,-00.001435
+113.432,-028.904,+010.201,+1.379,-0.644,+2.548,-04.5590,-01.4660,-08.1320,+00.000980,+00.001706,-00.001449
+113.430,-028.900,+010.203,+1.384,-0.615,+2.515,-04.5780,-01.4680,-08.1590,-00.000167,+00.004420,-00.000517
+113.430,-028.899,+010.204,+1.374,-0.645,+2.504,-04.5830,-01.4760,-08.1520,+00.001244,+00.001710,+00.000023
+113.429,-028.898,+010.206,+1.374,-0.610,+2.542,-04.5690,-01.4760,-08.1740,+00.002517,-00.000182,-00.001165
+113.428,-028.897,+010.206,+1.379,-0.610,+2.504,-04.5690,-01.4510,-08.1820,+00.001517,-00.000805,+00.000298
+113.428,-028.896,+010.208,+1.379,-0.625,+2.542,-04.6050,-01.4590,-08.1790,+00.002094,-00.000197,-00.000678
+113.426,-028.896,+010.212,+1.365,-0.615,+2.542,-04.5900,-01.4530,-08.1430,+00.002431,-00.000962,-00.000120
+113.425,-028.899,+010.216,+1.384,-0.630,+2.532,-04.5810,-01.4770,-08.1370,+00.003035,-00.001480,+00.000180
+113.424,-028.902,+010.219,+1.384,-0.635,+2.526,-04.5840,-01.4890,-08.1840,+00.002046,-00.001967,-00.000615
+113.423,-028.903,+010.222,+1.370,-0.634,+2.547,-04.5740,-01.4660,-08.1710,+00.002989,-00.000791,-00.001037
+113.422,-028.905,+010.226,+1.379,-0.605,+2.548,-04.5830,-01.4910,-08.1750,+00.003548,-00.002037,-00.000727
+113.420,-028.906,+010.232,+1.379,-0.625,+2.515,-04.5680,-01.4690,-08.1760,+00.002483,-00.000878,+00.000172
+113.418,-028.908,+010.237,+1.384,-0.595,+2.553,-04.5860,-01.4850,-08.1510,+00.003912,-00.001053,-00.001395
+113.416,-028.910,+010.242,+1.384,-0.615,+2.515,-04.5620,-01.4830,-08.1560,+00.003560,-00.002372,-00.000956
+113.413,-028.912,+010.248,+1.384,-0.595,+2.537,-04.5950,-01.4710,-08.1590,+00.003689,-00.000978,-00.002009
+113.412,-028.913,+010.251,+1.370,-0.639,+2.542,-04.5780,-01.4780,-08.1570,+00.001988,-00.000219,-00.000439
+113.411,-028.914,+010.254,+1.388,-0.590,+2.537,-04.6040,-01.4830,-08.1620,+00.002480,+00.000177,-00.000265
+113.411,-028.916,+010.256,+1.384,-0.630,+2.532,-04.5740,-01.4680,-08.1620,+00.001625,-00.001390,-00.000722
+113.411,-028.917,+010.258,+1.379,-0.635,+2.553,-04.5590,-01.4890,-08.1900,+00.002098,-00.001343,+00.001056
+113.411,-028.918,+010.260,+1.370,-0.605,+2.531,-04.6010,-01.4620,-08.1700,+00.002486,-00.000807,-00.000284
+113.409,-028.918,+010.264,+1.388,-0.640,+2.521,-04.5720,-01.4820,-08.1720,+00.001851,-00.001391,-00.000819
+113.408,-028.920,+010.266,+1.365,-0.639,+2.558,-04.5680,-01.4690,-08.1610,+00.000658,-00.001814,+00.000892
+113.409,-028.921,+010.268,+1.384,-0.585,+2.526,-04.6150,-01.4880,-08.1660,+00.000183,-00.000600,+00.000443
+113.409,-028.921,+010.270,+1.384,-0.615,+2.521,-04.5960,-01.4760,-08.1580,+00.001183,-00.000021,+00.000198
+113.409,-028.921,+010.270,+1.384,-0.635,+2.543,-04.5680,-01.4700,-08.1720,+00.001755,+00.000483,+00.000613
+113.410,-028.919,+010.270,+1.379,-0.615,+2.537,-04.5680,-01.4760,-08.1910,+00.002369,-00.000780,-00.000566
+113.410,-028.920,+010.270,+1.384,-0.620,+2.537,-04.5740,-01.4730,-08.1500,+00.001589,-00.000997,-00.000091
+113.409,-028.923,+010.272,+1.379,-0.605,+2.553,-04.6130,-01.4840,-08.1630,+00.000832,-00.002140,+00.000352
+113.409,-028.926,+010.274,+1.388,-0.605,+2.537,-04.5920,-01.4920,-08.1530,+00.001523,-00.000947,+00.000699
+113.408,-028.929,+010.275,+1.388,-0.600,+2.537,-04.5750,-01.4890,-08.1610,+00.000997,-00.000594,+00.000129
+113.409,-028.930,+010.276,+1.375,-0.595,+2.558,-04.5730,-01.4880,-08.1530,+00.000383,-00.000549,+00.001009
+113.410,-028.930,+010.273,+1.384,-0.600,+2.532,-04.5860,-01.4550,-08.2000,+00.000342,-00.000100,-00.000132
+113.410,-028.929,+010.274,+1.388,-0.615,+2.537,-04.5810,-01.4890,-08.1650,+00.000344,+00.000430,+00.000798
+113.412,-028.928,+010.272,+1.370,-0.635,+2.542,-04.5660,-01.4550,-08.1460,+00.000441,+00.000192,+00.002255
+113.413,-028.930,+010.272,+1.384,-0.620,+2.537,-04.5920,-01.4930,-08.1630,+00.000336,-00.001171,+00.001681
+113.413,-028.933,+010.271,+1.379,-0.595,+2.531,-04.5890,-01.4870,-08.1670,+00.000105,+00.000070,+00.000435
+113.414,-028.934,+010.271,+1.374,-0.625,+2.531,-04.5870,-01.4690,-08.1580,+00.001077,-00.000943,-00.000477
+113.414,-028.934,+010.270,+1.379,-0.620,+2.521,-04.5840,-01.4740,-08.1600,-00.000591,-00.001284,+00.001277
+113.414,-028.934,+010.270,+1.374,-0.630,+2.542,-04.5710,-01.4750,-08.1680,-00.000837,-00.000501,+00.001229
+113.416,-028.935,+010.267,+1.370,-0.620,+2.558,-04.6090,-01.4760,-08.1550,-00.000800,+00.001588,+00.000541
+113.416,-028.935,+010.266,+1.379,-0.620,+2.515,-04.5920,-01.4700,-08.1370,+00.000181,-00.000059,+00.000031
+113.415,-028.935,+010.267,+1.388,-0.625,+2.510,-04.6000,-01.4980,-08.1630,-00.000348,-00.000470,+00.000608
+113.414,-028.933,+010.266,+1.379,-0.615,+2.548,-04.6010,-01.4960,-08.1830,-00.002307,+00.000654,+00.000239
+113.415,-028.931,+010.262,+1.384,-0.620,+2.505,-04.5830,-01.4960,-08.1600,-00.002767,+00.001834,+00.001269
+113.416,-028.929,+010.259,+1.379,-0.635,+2.526,-04.5940,-01.4830,-08.1710,-00.001646,+00.001425,+00.001015
+113.416,-028.927,+010.257,+1.374,-0.640,+2.537,-04.5740,-01.4840,-08.1670,-00.000379,+00.001900,-00.000048
+113.416,-028.926,+010.256,+1.384,-0.620,+2.526,-04.5910,-01.4800,-08.1280,-00.001358,+00.000808,+00.000501
+113.416,-028.924,+010.253,+1.379,-0.630,+2.521,-04.5640,-01.4690,-08.1440,-00.003505,+00.002187,+00.000390
+113.415,-028.921,+010.250,+1.384,-0.625,+2.548,-04.5780,-01.4840,-08.1610,-00.003443,+00.002396,-00.001180
+113.415,-028.917,+010.246,+1.379,-0.620,+2.537,-04.5710,-01.4750,-08.1890,-00.002309,+00.002945,+00.000063
+113.415,-028.915,+010.243,+1.375,-0.610,+2.537,-04.5970,-01.4990,-08.1590,-00.003405,+00.002842,+00.000808
+113.415,-028.912,+010.238,+1.374,-0.645,+2.521,-04.5750,-01.4990,-08.1610,-00.005485,+00.001679,+00.002278
+113.417,-028.910,+010.232,+1.370,-0.615,+2.509,-04.5670,-01.4800,-08.1440,-00.005170,+00.003796,+00.002071
+113.418,-028.908,+010.227,+1.374,-0.620,+2.531,-04.5680,-01.5010,-08.1490,-00.003396,+00.001678,-00.000155
+113.419,-028.906,+010.222,+1.375,-0.595,+2.553,-04.5670,-01.4860,-08.1460,-00.004183,+00.002914,+00.000955
+113.420,-028.902,+010.215,+1.379,-0.575,+2.531,-04.5410,-01.4740,-08.1660,-00.006378,+00.002949,+00.001430
+113.424,-028.899,+010.207,+1.379,-0.630,+2.542,-04.5750,-01.4850,-08.1720,-00.005220,+00.002069,+00.002824
+113.425,-028.898,+010.202,+1.379,-0.620,+2.526,-04.5790,-01.4830,-08.1230,-00.003040,-00.000193,+00.002260
+113.426,-028.899,+010.197,+1.370,-0.630,+2.537,-04.5780,-01.4610,-08.1820,-00.002003,-00.001825,+00.001424
+113.427,-028.900,+010.195,+1.384,-0.635,+2.526,-04.5710,-01.4670,-08.1450,-00.001540,-00.001017,+00.001867
+113.428,-028.901,+010.193,+1.375,-0.625,+2.542,-04.6010,-01.4760,-08.1980,-00.001613,-00.000974,+00.001610
+113.431,-028.901,+010.187,+1.384,-0.620,+2.526,-04.5910,-01.4260,-08.1670,-00.002946,-00.000813,+00.001462
+113.431,-028.902,+010.183,+1.379,-0.640,+2.521,-04.5710,-01.4530,-08.1720,-00.001843,+00.001176,+00.000888
+113.432,-028.901,+010.179,+1.379,-0.640,+2.526,-04.5600,-01.4610,-08.1530,-00.002031,+00.000578,+00.000686
+113.433,-028.900,+010.176,+1.375,-0.600,+2.531,-04.5860,-01.4800,-08.1600,-00.001585,+00.000402,+00.001659
+113.435,-028.900,+010.173,+1.384,-0.645,+2.532,-04.5770,-01.4720,-08.1880,-00.000649,-00.000083,+00.001543
+113.436,-028.901,+010.169,+1.375,-0.630,+2.553,-04.5870,-01.4620,-08.1500,-00.002068,+00.001027,+00.001546
+113.438,-028.901,+010.165,+1.375,-0.610,+2.526,-04.5750,-01.4550,-08.1540,-00.003843,+00.002303,+00.000937
+113.441,-028.899,+010.160,+1.375,-0.600,+2.520,-04.5850,-01.4570,-08.1660,-00.002031,+00.001402,+00.001891
+113.443,-028.899,+010.155,+1.374,-0.640,+2.531,-04.5990,-01.4570,-08.1750,-00.002703,+00.000927,+00.001818
+113.444,-028.900,+010.152,+1.388,-0.625,+2.537,-04.5580,-01.4690,-08.1710,-00.001311,-00.000371,+00.000580
+113.445,-028.901,+010.150,+1.384,-0.600,+2.537,-04.5720,-01.4670,-08.1570,-00.002084,+00.000369,-00.000120
+113.445,-028.901,+010.149,+1.374,-0.635,+2.542,-04.5670,-01.4820,-08.1720,-00.000724,+00.000590,+00.001278
+113.445,-028.901,+010.147,+1.374,-0.620,+2.515,-04.5870,-01.4700,-08.1750,-00.001887,-00.000576,+00.000557
+113.446,-028.902,+010.145,+1.375,-0.605,+2.542,-04.5840,-01.4540,-08.1950,-00.000993,-00.000813,+00.001353
+113.447,-028.904,+010.142,+1.375,-0.625,+2.548,-04.5780,-01.4560,-08.1780,-00.001736,-00.001283,+00.001638
+113.448,-028.904,+010.141,+1.374,-0.635,+2.537,-04.5880,-01.4600,-08.1820,-00.001074,-00.000990,+00.001808
+113.450,-028.904,+010.137,+1.388,-0.590,+2.526,-04.5700,-01.4370,-08.2160,-00.002345,+00.000281,+00.000723
+113.449,-028.903,+010.135,+1.370,-0.595,+2.553,-04.5700,-01.4530,-08.2020,-00.000652,-00.000973,-00.000177
+113.449,-028.901,+010.134,+1.379,-0.630,+2.526,-04.5820,-01.4600,-08.1760,-00.000605,+00.000628,+00.000927
+113.449,-028.898,+010.134,+1.375,-0.615,+2.542,-04.5750,-01.4870,-08.1800,+00.000127,+00.001371,-00.001140
+113.448,-028.896,+010.134,+1.370,-0.600,+2.547,-04.5750,-01.4640,-08.1840,+00.000508,+00.001007,+00.000786
+113.449,-028.898,+010.132,+1.375,-0.630,+2.537,-04.6390,-01.4460,-08.1570,-00.000086,+00.000481,+00.001042
+113.451,-028.899,+010.130,+1.374,-0.620,+2.504,-04.5640,-01.4400,-08.1560,+00.000379,-00.000106,+00.001280
+113.448,-028.898,+010.133,+1.375,-0.635,+2.548,-04.5770,-01.4770,-08.1670,+00.001644,+00.001120,-00.002186
+113.446,-028.897,+010.137,+1.374,-0.635,+2.526,-04.5710,-01.4700,-08.1810,+00.002511,+00.000140,-00.001701
+113.445,-028.896,+010.139,+1.370,-0.640,+2.510,-04.5660,-01.4600,-08.1850,+00.000926,+00.000080,-00.000924
+113.443,-028.897,+010.141,+1.375,-0.620,+2.553,-04.5960,-01.4660,-08.1260,+00.001021,+00.000548,-00.000360
+113.443,-028.897,+010.140,+1.375,-0.605,+2.526,-04.5610,-01.4450,-08.1400,-00.000761,+00.001087,+00.000581
+113.443,-028.897,+010.142,+1.365,-0.620,+2.515,-04.5740,-01.4890,-08.1590,+00.000612,+00.000234,-00.001471
+113.442,-028.898,+010.144,+1.375,-0.625,+2.548,-04.5720,-01.4620,-08.1700,+00.002596,-00.001257,-00.000622
+113.440,-028.900,+010.146,+1.379,-0.630,+2.532,-04.5870,-01.4650,-08.1540,+00.000778,-00.001060,-00.000675
+113.441,-028.901,+010.148,+1.375,-0.610,+2.531,-04.5790,-01.4550,-08.1490,+00.000908,-00.000677,+00.001525
+113.441,-028.902,+010.147,+1.370,-0.635,+2.542,-04.5690,-01.4550,-08.1620,-00.000649,-00.000688,+00.002045
+113.441,-028.903,+010.148,+1.379,-0.625,+2.510,-04.6140,-01.4740,-08.1600,+00.000278,-00.001047,+00.000225
+113.441,-028.904,+010.149,+1.379,-0.625,+2.537,-04.5670,-01.4560,-08.1670,+00.001737,-00.001821,+00.000573
+113.441,-028.904,+010.150,+1.379,-0.590,+2.548,-04.5640,-01.4590,-08.1840,+00.001382,-00.001175,+00.001101
+113.442,-028.904,+010.150,+1.370,-0.630,+2.542,-04.5740,-01.4710,-08.1610,-00.000182,-00.000079,+00.000864
+113.443,-028.903,+010.148,+1.379,-0.620,+2.532,-04.5720,-01.4540,-08.1510,-00.000787,+00.000104,-00.000887
+113.443,-028.903,+010.148,+1.370,-0.630,+2.547,-04.5550,-01.4570,-08.1840,-00.000274,+00.000217,+00.000009
+113.442,-028.903,+010.148,+1.370,-0.635,+2.526,-04.5950,-01.4610,-08.1320,+00.000759,+00.000602,+00.000297
+113.441,-028.904,+010.149,+1.370,-0.635,+2.537,-04.5860,-01.4540,-08.1830,+00.000603,+00.000132,-00.000811
+113.439,-028.905,+010.150,+1.375,-0.635,+2.542,-04.5870,-01.4730,-08.1700,+00.000767,-00.000849,-00.000047
+113.438,-028.905,+010.152,+1.375,-0.625,+2.531,-04.5780,-01.4570,-08.1800,+00.001362,-00.000649,-00.000774
+113.437,-028.906,+010.154,+1.379,-0.620,+2.532,-04.5710,-01.4690,-08.1660,+00.000527,-00.000945,-00.000593
+113.435,-028.906,+010.157,+1.379,-0.615,+2.559,-04.5820,-01.4770,-08.1600,+00.002070,-00.001363,-00.000286
+113.434,-028.907,+010.160,+1.384,-0.615,+2.532,-04.5790,-01.4870,-08.1630,+00.001318,-00.000746,+00.000968
+113.435,-028.907,+010.159,+1.365,-0.590,+2.542,-04.5710,-01.4370,-08.2000,+00.000389,+00.000685,+00.000365
+113.435,-028.908,+010.159,+1.365,-0.610,+2.547,-04.5980,-01.4930,-08.1770,-00.001004,-00.000681,+00.000679
+113.435,-028.907,+010.160,+1.375,-0.605,+2.548,-04.5880,-01.4460,-08.1530,-00.000089,-00.000106,+00.000622
+113.436,-028.906,+010.159,+1.379,-0.620,+2.542,-04.5870,-01.4650,-08.1720,-00.000037,+00.001676,-00.000202
+113.438,-028.904,+010.158,+1.370,-0.625,+2.553,-04.5590,-01.4510,-08.1850,+00.000219,+00.000485,+00.000313
+113.439,-028.903,+010.157,+1.375,-0.615,+2.526,-04.5630,-01.4490,-08.1420,+00.001077,+00.000354,-00.001585
+113.438,-028.903,+010.158,+1.379,-0.620,+2.526,-04.6020,-01.4530,-08.1430,+00.000469,+00.000983,-00.000348
+113.437,-028.901,+010.159,+1.370,-0.635,+2.537,-04.5780,-01.4360,-08.1450,+00.001230,-00.000596,+00.000007
+113.436,-028.901,+010.161,+1.379,-0.595,+2.526,-04.5900,-01.4600,-08.1810,+00.000891,+00.000012,-00.000365
+113.436,-028.903,+010.162,+1.388,-0.635,+2.516,-04.5920,-01.4580,-08.1240,+00.002483,-00.000860,-00.001224
+113.435,-028.903,+010.165,+1.370,-0.615,+2.542,-04.5700,-01.4660,-08.1900,+00.002237,-00.001816,+00.000649
+113.432,-028.904,+010.169,+1.384,-0.615,+2.516,-04.5960,-01.4650,-08.1650,+00.002183,-00.000331,-00.001650
+113.430,-028.905,+010.172,+1.379,-0.625,+2.521,-04.5560,-01.4570,-08.1870,+00.001971,-00.002520,-00.000722
+113.428,-028.907,+010.176,+1.370,-0.640,+2.542,-04.5960,-01.4690,-08.1330,+00.002483,-00.000801,-00.000689
+113.429,-028.906,+010.177,+1.379,-0.600,+2.531,-04.5880,-01.4480,-08.1710,+00.000975,+00.001201,-00.000614
+113.429,-028.905,+010.177,+1.370,-0.630,+2.520,-04.5890,-01.4560,-08.1590,+00.000605,+00.001779,-00.000273
+113.428,-028.905,+010.179,+1.375,-0.630,+2.542,-04.5830,-01.4510,-08.1310,+00.001800,+00.000395,-00.000839
+113.428,-028.904,+010.182,+1.370,-0.600,+2.536,-04.5740,-01.4770,-08.1680,+00.002290,+00.001116,-00.001016
+113.426,-028.902,+010.185,+1.375,-0.635,+2.526,-04.5720,-01.4620,-08.1710,+00.001841,+00.000699,-00.001534
+113.424,-028.902,+010.189,+1.370,-0.600,+2.553,-04.5920,-01.4860,-08.1540,+00.000867,+00.001054,-00.001190
+113.423,-028.900,+010.191,+1.375,-0.595,+2.520,-04.5780,-01.4490,-08.1640,+00.002474,+00.001465,-00.001267
+113.422,-028.899,+010.193,+1.365,-0.620,+2.526,-04.5800,-01.4800,-08.1750,-00.000050,-00.000152,-00.000452
+113.422,-028.897,+010.195,+1.389,-0.625,+2.554,-04.5700,-01.4860,-08.1550,+00.001722,+00.001415,+00.000828
+113.422,-028.894,+010.196,+1.375,-0.605,+2.515,-04.5520,-01.4710,-08.1490,+00.001280,-00.000327,-00.000050
+113.421,-028.892,+010.197,+1.379,-0.620,+2.521,-04.5720,-01.4630,-08.1880,+00.001595,+00.001345,+00.000037
+113.421,-028.891,+010.198,+1.379,-0.595,+2.548,-04.5590,-01.4760,-08.1790,+00.001066,-00.000609,+00.000620
+113.421,-028.893,+010.199,+1.375,-0.615,+2.537,-04.5910,-01.4690,-08.1570,+00.001415,+00.000429,+00.001402
+113.421,-028.895,+010.199,+1.379,-0.615,+2.532,-04.6040,-01.4780,-08.1780,+00.000796,-00.000818,+00.000476
+113.421,-028.896,+010.200,+1.370,-0.625,+2.548,-04.5930,-01.4580,-08.1820,+00.000724,-00.000646,+00.000784
+113.422,-028.897,+010.200,+1.370,-0.630,+2.510,-04.5870,-01.4520,-08.1680,+00.000664,+00.000459,+00.000092
+113.422,-028.898,+010.202,+1.379,-0.620,+2.521,-04.5690,-01.4700,-08.1650,+00.000787,-00.001158,+00.000312
+113.421,-028.898,+010.204,+1.370,-0.649,+2.537,-04.5830,-01.4580,-08.1820,+00.000684,-00.000950,+00.000997
+113.421,-028.900,+010.204,+1.379,-0.610,+2.532,-04.5670,-01.4560,-08.1640,+00.000949,-00.002889,+00.002016
+113.423,-028.902,+010.204,+1.379,-0.615,+2.537,-04.5810,-01.4600,-08.1490,+00.000554,-00.002745,+00.001833
+113.423,-028.905,+010.205,+1.379,-0.635,+2.537,-04.5820,-01.4840,-08.1360,+00.000015,-00.002171,+00.001667
+113.423,-028.908,+010.206,+1.379,-0.610,+2.537,-04.5890,-01.4770,-08.1670,+00.000619,-00.001506,+00.001455
+113.423,-028.911,+010.204,+1.388,-0.620,+2.516,-04.5950,-01.4500,-08.1830,-00.000367,-00.002785,+00.001182
+113.425,-028.913,+010.203,+1.361,-0.630,+2.531,-04.5910,-01.4730,-08.1660,+00.000237,-00.000607,+00.000600
+113.426,-028.915,+010.203,+1.375,-0.620,+2.526,-04.5710,-01.4670,-08.1610,-00.000197,-00.002215,+00.002296
+113.427,-028.916,+010.202,+1.384,-0.615,+2.499,-04.5660,-01.4610,-08.1940,-00.000988,-00.003969,+00.002253
+113.429,-028.921,+010.201,+1.379,-0.640,+2.537,-04.5860,-01.4470,-08.1420,-00.000426,-00.003503,+00.002425
+113.431,-028.925,+010.199,+1.375,-0.615,+2.515,-04.5870,-01.4480,-08.1530,+00.000789,-00.003121,+00.001521
+113.432,-028.928,+010.199,+1.379,-0.595,+2.531,-04.5960,-01.4610,-08.1700,+00.001272,-00.004295,+00.002181
+113.433,-028.933,+010.200,+1.384,-0.625,+2.537,-04.5790,-01.4590,-08.1610,+00.002362,-00.002499,+00.001135
+113.434,-028.940,+010.201,+1.379,-0.625,+2.526,-04.6020,-01.4700,-08.1480,+00.002295,-00.005369,+00.001791
+113.436,-028.948,+010.204,+1.375,-0.625,+2.521,-04.6000,-01.4920,-08.1820,+00.002886,-00.005646,+00.003354
+113.438,-028.958,+010.204,+1.379,-0.645,+2.543,-04.6500,-01.4660,-08.1980,+00.000991,-00.007896,+00.004817
+113.440,-028.967,+010.203,+1.379,-0.610,+2.537,-04.6220,-01.4440,-08.1680,+00.000940,-00.006976,+00.003242
+113.440,-028.974,+010.205,+1.384,-0.630,+2.521,-04.6170,-01.4570,-08.2020,+00.002186,-00.004415,+00.000387
+113.439,-028.980,+010.209,+1.379,-0.645,+2.553,-04.5930,-01.4770,-08.1670,+00.001991,-00.005904,+00.001186
+113.440,-028.985,+010.209,+1.375,-0.615,+2.531,-04.5940,-01.4660,-08.1500,+00.000074,-00.003041,+00.001266
+113.442,-028.988,+010.208,+1.384,-0.635,+2.537,-04.6150,-01.4750,-08.1610,+00.000757,-00.001869,+00.001886
+113.442,-028.990,+010.209,+1.375,-0.625,+2.542,-04.6030,-01.4470,-08.1510,+00.002105,-00.001794,-00.001031
+113.441,-028.993,+010.212,+1.384,-0.620,+2.526,-04.5960,-01.4590,-08.1440,+00.001967,-00.002934,-00.001265
+113.442,-028.995,+010.214,+1.361,-0.625,+2.531,-04.6020,-01.4610,-08.1760,+00.002302,-00.001948,-00.000673
+113.440,-028.996,+010.216,+1.384,-0.620,+2.543,-04.6020,-01.4670,-08.1660,+00.000984,-00.001351,-00.000297
+113.440,-028.994,+010.215,+1.379,-0.615,+2.537,-04.6190,-01.4610,-08.1840,-00.000915,+00.001435,-00.000215
+113.440,-028.992,+010.214,+1.379,-0.610,+2.548,-04.5960,-01.4610,-08.1580,-00.000703,+00.001530,-00.001088
+113.439,-028.990,+010.214,+1.370,-0.620,+2.547,-04.6070,-01.4840,-08.1340,-00.001375,+00.002426,+00.000545
+113.438,-028.987,+010.213,+1.388,-0.610,+2.516,-04.5900,-01.4690,-08.1850,-00.000892,+00.003228,-00.001146
+113.438,-028.984,+010.211,+1.379,-0.630,+2.532,-04.5980,-01.4590,-08.1510,-00.003030,+00.003894,+00.000115
+113.439,-028.980,+010.207,+1.370,-0.630,+2.558,-04.5860,-01.4530,-08.1630,-00.001833,+00.003513,+00.001263
+113.440,-028.976,+010.204,+1.379,-0.615,+2.521,-04.6040,-01.4620,-08.1400,-00.003094,+00.004451,+00.000205
+113.441,-028.971,+010.198,+1.375,-0.620,+2.537,-04.5790,-01.4620,-08.1890,-00.003730,+00.003592,-00.000089
+113.443,-028.968,+010.192,+1.375,-0.605,+2.553,-04.5820,-01.4620,-08.1740,-00.003208,+00.003130,+00.001621
+113.444,-028.966,+010.189,+1.375,-0.620,+2.510,-04.5820,-01.4810,-08.1860,-00.002874,+00.001085,+00.001515
+113.445,-028.964,+010.186,+1.370,-0.635,+2.515,-04.5920,-01.4620,-08.1710,-00.002843,+00.001770,+00.000149
+113.446,-028.964,+010.184,+1.375,-0.635,+2.559,-04.5930,-01.4770,-08.1760,-00.002403,+00.000285,+00.002672
+113.449,-028.964,+010.181,+1.375,-0.620,+2.526,-04.6010,-01.4340,-08.1740,-00.001402,-00.000304,+00.001698
+113.450,-028.963,+010.180,+1.389,-0.615,+2.532,-04.5870,-01.4820,-08.1570,-00.000922,+00.000242,+00.001093
+113.450,-028.962,+010.178,+1.370,-0.630,+2.558,-04.5760,-01.4880,-08.1530,-00.001803,+00.000453,+00.000416
+113.451,-028.962,+010.176,+1.379,-0.595,+2.526,-04.5830,-01.4720,-08.1720,-00.002388,-00.000144,+00.001222
+113.453,-028.962,+010.173,+1.379,-0.600,+2.537,-04.6150,-01.4500,-08.1830,-00.002212,+00.000152,+00.001557
+113.455,-028.962,+010.170,+1.365,-0.635,+2.542,-04.5870,-01.4620,-08.1700,-00.001836,+00.000132,+00.002035
+113.456,-028.961,+010.168,+1.375,-0.615,+2.504,-04.5600,-01.4810,-08.1350,-00.001509,-00.000698,+00.001855
+113.458,-028.960,+010.164,+1.370,-0.615,+2.520,-04.5900,-01.4530,-08.1840,-00.000371,-00.000709,+00.001457
+113.459,-028.961,+010.161,+1.370,-0.630,+2.548,-04.5890,-01.4590,-08.1720,-00.000798,-00.000042,+00.001769
+113.461,-028.960,+010.159,+1.375,-0.600,+2.526,-04.5750,-01.4630,-08.1610,-00.000159,-00.000620,+00.000197
+113.460,-028.961,+010.158,+1.375,-0.610,+2.510,-04.5860,-01.4630,-08.1660,-00.000613,-00.001384,+00.000302
+113.459,-028.962,+010.158,+1.384,-0.640,+2.532,-04.6010,-01.4710,-08.1770,-00.000857,-00.000301,+00.000535
+113.461,-028.962,+010.154,+1.393,-0.580,+2.532,-04.5860,-01.4390,-08.1720,-00.000911,-00.000118,+00.001529
+113.462,-028.962,+010.152,+1.379,-0.625,+2.515,-04.6080,-01.4640,-08.1420,-00.002118,+00.001347,+00.001439
+113.464,-028.961,+010.148,+1.379,-0.630,+2.526,-04.5790,-01.4510,-08.1910,-00.001995,+00.001820,+00.000943
+113.464,-028.961,+010.147,+1.379,-0.620,+2.505,-04.5920,-01.4630,-08.1500,-00.000645,+00.000614,+00.000767
+113.464,-028.960,+010.148,+1.375,-0.605,+2.531,-04.5490,-01.4760,-08.1430,-00.000344,+00.000090,+00.000318
+113.464,-028.963,+010.147,+1.379,-0.625,+2.548,-04.6080,-01.4410,-08.1740,-00.000284,-00.001026,+00.000152
+113.466,-028.963,+010.142,+1.375,-0.625,+2.532,-04.5940,-01.4380,-08.1920,-00.002472,+00.000950,+00.000042
+113.466,-028.963,+010.140,+1.365,-0.630,+2.537,-04.6050,-01.4360,-08.1540,-00.000568,+00.001621,-00.001362
+113.467,-028.962,+010.138,+1.370,-0.630,+2.564,-04.5680,-01.4560,-08.1590,-00.000658,+00.000405,-00.000066
+113.468,-028.960,+010.137,+1.365,-0.635,+2.504,-04.5800,-01.4560,-08.1850,-00.001114,+00.001352,+00.000009
+113.469,-028.959,+010.135,+1.375,-0.630,+2.521,-04.5760,-01.4650,-08.1670,-00.000741,+00.000132,+00.001528
+113.468,-028.959,+010.133,+1.379,-0.635,+2.564,-04.5850,-01.4600,-08.1580,-00.000239,-00.000320,+00.000516
+113.467,-028.958,+010.133,+1.379,-0.585,+2.537,-04.5770,-01.4500,-08.1910,+00.000319,-00.000004,-00.001713
+113.466,-028.956,+010.134,+1.375,-0.630,+2.521,-04.5960,-01.4570,-08.1710,+00.001207,+00.000315,-00.002321
+113.464,-028.955,+010.134,+1.384,-0.640,+2.548,-04.5770,-01.4710,-08.1980,+00.000767,-00.000275,-00.000886
+113.463,-028.955,+010.136,+1.375,-0.640,+2.515,-04.5870,-01.4760,-08.1290,-00.000521,+00.001203,-00.000963
+113.462,-028.953,+010.135,+1.375,-0.635,+2.532,-04.5880,-01.4480,-08.1670,-00.001746,+00.001943,-00.000386
+113.460,-028.951,+010.136,+1.370,-0.644,+2.553,-04.5910,-01.4540,-08.1650,+00.002347,+00.001434,-00.002311
+113.457,-028.948,+010.139,+1.379,-0.630,+2.505,-04.5930,-01.4390,-08.1970,+00.001547,+00.001597,-00.002466
+113.456,-028.946,+010.138,+1.379,-0.595,+2.537,-04.6070,-01.4910,-08.1700,-00.002114,+00.001653,+00.000232
+113.455,-028.943,+010.137,+1.379,-0.640,+2.521,-04.5810,-01.4560,-08.1520,-00.002263,+00.003233,-00.000753
+113.455,-028.941,+010.135,+1.389,-0.630,+2.538,-04.5910,-01.4370,-08.1600,-00.001883,+00.002635,-00.000636
+113.455,-028.937,+010.132,+1.375,-0.605,+2.526,-04.5860,-01.4410,-08.1820,-00.001809,+00.001755,-00.000348
+113.454,-028.936,+010.131,+1.370,-0.630,+2.558,-04.6060,-01.4760,-08.1240,-00.001716,+00.002238,-00.000628
+113.453,-028.934,+010.129,+1.379,-0.605,+2.526,-04.5960,-01.4570,-08.1510,-00.002951,+00.003181,-00.000089
+113.453,-028.931,+010.126,+1.379,-0.645,+2.526,-04.5740,-01.4530,-08.1430,-00.002854,+00.001350,-00.000141
+113.453,-028.929,+010.124,+1.375,-0.644,+2.559,-04.5940,-01.4750,-08.1640,-00.002610,+00.001323,+00.001094
+113.455,-028.929,+010.120,+1.375,-0.605,+2.537,-04.5940,-01.4410,-08.1820,-00.002289,+00.000912,+00.000187
+113.455,-028.927,+010.117,+1.379,-0.630,+2.537,-04.5600,-01.4560,-08.1730,-00.000660,+00.000135,+00.000414
+113.455,-028.926,+010.115,+1.365,-0.630,+2.542,-04.6080,-01.4860,-08.1350,-00.001855,+00.000891,-00.000324
+113.454,-028.925,+010.113,+1.375,-0.610,+2.526,-04.5930,-01.4550,-08.1450,-00.002790,+00.000912,+00.000057
+113.455,-028.924,+010.109,+1.375,-0.630,+2.532,-04.5630,-01.4540,-08.1640,-00.001527,+00.001235,+00.000949
+113.455,-028.923,+010.107,+1.365,-0.639,+2.553,-04.5680,-01.4470,-08.1780,-00.001496,+00.001376,-00.000406
+113.456,-028.921,+010.105,+1.375,-0.625,+2.532,-04.5740,-01.4510,-08.1800,-00.001782,+00.002810,+00.000582
+113.457,-028.918,+010.102,+1.365,-0.610,+2.531,-04.5850,-01.4600,-08.1800,-00.002036,+00.001666,+00.000097
+113.459,-028.915,+010.098,+1.375,-0.625,+2.537,-04.5680,-01.4870,-08.2040,-00.002013,+00.003840,-00.000015
+113.460,-028.910,+010.092,+1.370,-0.605,+2.531,-04.5110,-01.5100,-08.1290,-00.003475,+00.003076,+00.000786
+113.463,-028.907,+010.086,+1.375,-0.605,+2.542,-04.5960,-01.4060,-08.1770,-00.003759,+00.003016,+00.002422
+113.464,-028.904,+010.081,+1.384,-0.605,+2.553,-04.5890,-01.4380,-08.1800,-00.004015,+00.004203,+00.000472
+113.464,-028.898,+010.078,+1.379,-0.600,+2.532,-04.5650,-01.4530,-08.1530,-00.003264,+00.003934,+00.000836
+113.466,-028.895,+010.073,+1.361,-0.640,+2.531,-04.5890,-01.4510,-08.1700,-00.003400,+00.003443,+00.001564
+113.469,-028.891,+010.067,+1.370,-0.635,+2.553,-04.6070,-01.4370,-08.1850,-00.004960,+00.004930,+00.000631
+113.470,-028.887,+010.062,+1.379,-0.625,+2.526,-04.5840,-01.4460,-08.1690,-00.002606,+00.003803,+00.000970
+113.471,-028.883,+010.059,+1.379,-0.605,+2.532,-04.5690,-01.4730,-08.1670,-00.002371,+00.003381,+00.000134
+113.474,-028.878,+010.054,+1.370,-0.630,+2.558,-04.5770,-01.4650,-08.1790,-00.002889,+00.003058,+00.001731
+113.475,-028.875,+010.050,+1.379,-0.615,+2.537,-04.5530,-01.4580,-08.1770,-00.002137,+00.000105,+00.001241
+113.478,-028.875,+010.046,+1.379,-0.605,+2.537,-04.5820,-01.4430,-08.1590,-00.003071,+00.000432,+00.001574
+113.480,-028.876,+010.042,+1.361,-0.639,+2.553,-04.5710,-01.4460,-08.1640,-00.002631,+00.001651,+00.000691
+113.480,-028.876,+010.041,+1.379,-0.620,+2.532,-04.5890,-01.4410,-08.1660,+00.000717,+00.001032,+00.000811
+113.480,-028.877,+010.041,+1.370,-0.645,+2.532,-04.5640,-01.4460,-08.1480,+00.000004,+00.000329,-00.001548
+113.479,-028.875,+010.041,+1.370,-0.605,+2.542,-04.5650,-01.4400,-08.1590,+00.000181,-00.000531,+00.000525
+113.480,-028.875,+010.040,+1.370,-0.625,+2.521,-04.5750,-01.4360,-08.1510,-00.001146,+00.000452,+00.001157
+113.480,-028.874,+010.039,+1.370,-0.640,+2.526,-04.5620,-01.4460,-08.1510,-00.000430,+00.000974,-00.000349
+113.480,-028.874,+010.040,+1.379,-0.630,+2.559,-04.5630,-01.4570,-08.1620,-00.000040,-00.000174,+00.000139
+113.479,-028.872,+010.039,+1.375,-0.600,+2.531,-04.5770,-01.4470,-08.1710,+00.000689,+00.000293,-00.000146
+113.478,-028.873,+010.042,+1.379,-0.650,+2.527,-04.5800,-01.4500,-08.1700,+00.002205,-00.000484,-00.001168
+113.477,-028.873,+010.043,+1.370,-0.659,+2.553,-04.5880,-01.4480,-08.1710,+00.001052,+00.001264,+00.000149
+113.478,-028.872,+010.043,+1.370,-0.630,+2.526,-04.5790,-01.4490,-08.1730,+00.001722,+00.000374,-00.000665
+113.477,-028.870,+010.043,+1.375,-0.635,+2.510,-04.5690,-01.4310,-08.1690,+00.000207,+00.000922,-00.001240
+113.478,-028.868,+010.043,+1.379,-0.645,+2.543,-04.5530,-01.4450,-08.1790,+00.000945,+00.001370,+00.000150
+113.477,-028.867,+010.045,+1.384,-0.625,+2.516,-04.5750,-01.4510,-08.1750,+00.001544,-00.000746,-00.000187
+113.478,-028.867,+010.045,+1.370,-0.630,+2.526,-04.5950,-01.4600,-08.1790,+00.001284,+00.000244,+00.000357
+113.477,-028.869,+010.047,+1.375,-0.640,+2.548,-04.5800,-01.4430,-08.1800,+00.001369,-00.001307,-00.000563
+113.477,-028.870,+010.049,+1.379,-0.615,+2.526,-04.5740,-01.4490,-08.1620,+00.002122,-00.001371,-00.001052
+113.476,-028.874,+010.052,+1.370,-0.635,+2.521,-04.6030,-01.4620,-08.1890,+00.003301,-00.003105,+00.000002
+113.476,-028.877,+010.055,+1.370,-0.630,+2.542,-04.5650,-01.4400,-08.1400,+00.003417,-00.002800,+00.000071
+113.475,-028.881,+010.060,+1.375,-0.610,+2.532,-04.5680,-01.4370,-08.1530,+00.003996,-00.003291,-00.000727
+113.473,-028.885,+010.066,+1.384,-0.630,+2.532,-04.5930,-01.4720,-08.1710,+00.002872,-00.003702,+00.000740
+113.472,-028.890,+010.071,+1.379,-0.635,+2.554,-04.6020,-01.4500,-08.1920,+00.004187,-00.002871,-00.000017
+113.470,-028.891,+010.076,+1.384,-0.620,+2.537,-04.5520,-01.4690,-08.1830,+00.003679,-00.003020,+00.000603
+113.469,-028.895,+010.081,+1.379,-0.645,+2.510,-04.5670,-01.4520,-08.1450,+00.003687,-00.003770,+00.002046
+113.468,-028.898,+010.084,+1.379,-0.595,+2.548,-04.5560,-01.4650,-08.1450,+00.004868,-00.003463,-00.002693
+113.465,-028.903,+010.090,+1.379,-0.620,+2.521,-04.5780,-01.4470,-08.1520,+00.005372,-00.001748,-00.002384
+113.462,-028.905,+010.097,+1.379,-0.635,+2.505,-04.5570,-01.4670,-08.1550,+00.005229,-00.002481,-00.001403
+113.460,-028.907,+010.103,+1.375,-0.625,+2.553,-04.5820,-01.4530,-08.1590,+00.005119,-00.003195,-00.001181
+113.457,-028.911,+010.109,+1.370,-0.620,+2.531,-04.6020,-01.4290,-08.1780,+00.003073,-00.003905,-00.001772
+113.455,-028.913,+010.115,+1.375,-0.605,+2.526,-04.5770,-01.4600,-08.1740,+00.004042,-00.002347,-00.000900
+113.452,-028.913,+010.121,+1.375,-0.645,+2.553,-04.5720,-01.4590,-08.2020,+00.004857,-00.000650,-00.001646
+113.448,-028.914,+010.129,+1.375,-0.615,+2.537,-04.5790,-01.4770,-08.1340,+00.005066,-00.003087,-00.001202
+113.445,-028.916,+010.134,+1.379,-0.635,+2.516,-04.5620,-01.4550,-08.1480,+00.004112,-00.002138,-00.002159
+113.441,-028.918,+010.141,+1.389,-0.625,+2.543,-04.5850,-01.4490,-08.1780,+00.004920,-00.001997,-00.002123
+113.437,-028.917,+010.148,+1.375,-0.620,+2.515,-04.5960,-01.4650,-08.2090,+00.003933,+00.000825,-00.003242
+113.434,-028.916,+010.155,+1.375,-0.600,+2.542,-04.5980,-01.4790,-08.1600,+00.003533,+00.001561,-00.002648
+113.431,-028.914,+010.160,+1.375,-0.640,+2.543,-04.5920,-01.4570,-08.1130,+00.002182,+00.003505,-00.000397
+113.428,-028.910,+010.165,+1.379,-0.620,+2.526,-04.5650,-01.4580,-08.1750,+00.004329,+00.002384,-00.003572
+113.425,-028.906,+010.171,+1.379,-0.640,+2.521,-04.5580,-01.4690,-08.1570,+00.002111,+00.002195,-00.001643
+113.424,-028.901,+010.175,+1.375,-0.615,+2.564,-04.5740,-01.4570,-08.1640,+00.003104,+00.002726,-00.001005
+113.424,-028.900,+010.176,+1.375,-0.620,+2.521,-04.5790,-01.4400,-08.1500,+00.001289,+00.000871,-00.000867
+113.424,-028.900,+010.178,+1.375,-0.620,+2.537,-04.5850,-01.4590,-08.1620,+00.003813,+00.001334,-00.001713
+113.423,-028.899,+010.182,+1.379,-0.635,+2.554,-04.5690,-01.4510,-08.1750,+00.003639,-00.001131,-00.000680
+113.421,-028.900,+010.190,+1.379,-0.605,+2.532,-04.7020,-01.3720,-08.2510,+00.006307,-00.003322,-00.001584
+113.416,-028.903,+010.199,+1.384,-0.630,+2.532,-04.5690,-01.4750,-08.1310,+00.005189,-00.002920,-00.002871
+113.417,-028.892,+010.202,+1.379,-0.640,+2.559,-04.5600,-01.4570,-08.1120,+00.007456,-00.006280,-00.002919
+113.413,-028.888,+010.212,+1.365,-0.615,+2.526,-04.5550,-01.4710,-08.1500,+00.007912,-00.005655,-00.004124
+113.408,-028.884,+010.222,+1.375,-0.620,+2.510,-04.5860,-01.4740,-08.1990,+00.008313,+00.000591,-00.003951
+113.404,-028.880,+010.231,+1.375,-0.630,+2.559,-04.5440,-01.4680,-08.1520,+00.005920,+00.003676,-00.003086
+113.401,-028.878,+010.239,+1.375,-0.610,+2.526,-04.5960,-01.4620,-08.1860,+00.004421,+00.003813,-00.001692
+113.398,-028.877,+010.247,+1.379,-0.625,+2.543,-04.5880,-01.4850,-08.2130,+00.006491,+00.001371,-00.002453
+113.393,-028.876,+010.258,+1.365,-0.635,+2.548,-04.6070,-01.4750,-08.1580,+00.007538,+00.001238,-00.004572
+113.389,-028.874,+010.267,+1.379,-0.620,+2.543,-04.5930,-01.4860,-08.1940,+00.005514,+00.001957,-00.003643
+113.385,-028.869,+010.274,+1.379,-0.625,+2.521,-04.5820,-01.4960,-08.1770,+00.002934,+00.005076,-00.002373
+113.382,-028.863,+010.280,+1.375,-0.615,+2.553,-04.5800,-01.4760,-08.1430,+00.003439,+00.005624,-00.002575
+113.379,-028.855,+010.286,+1.384,-0.620,+2.527,-04.5720,-01.4840,-08.1740,+00.003409,+00.005028,-00.002606
+113.375,-028.851,+010.293,+1.375,-0.600,+2.537,-04.5760,-01.4880,-08.1490,+00.004096,+00.002675,-00.003012
+113.371,-028.848,+010.300,+1.379,-0.590,+2.559,-04.5780,-01.4760,-08.1640,+00.004218,+00.002280,-00.003820
+113.369,-028.842,+010.303,+1.375,-0.610,+2.532,-04.5930,-01.4740,-08.2040,+00.002421,+00.003951,-00.001748
+113.367,-028.840,+010.306,+1.370,-0.630,+2.532,-04.5590,-01.4770,-08.1800,+00.001912,+00.001883,-00.000411
+113.366,-028.838,+010.308,+1.370,-0.615,+2.564,-04.5710,-01.4740,-08.1620,+00.002601,+00.001871,-00.002187
+113.363,-028.835,+010.313,+1.379,-0.615,+2.532,-04.5420,-01.5420,-08.1800,+00.005267,-00.004814,-00.002141
+113.360,-028.834,+010.319,+1.370,-0.625,+2.510,-04.5890,-01.5150,-08.1790,+00.004966,-00.000690,-00.003196
+113.357,-028.834,+010.324,+1.365,-0.625,+2.553,-04.5650,-01.5190,-08.1280,+00.004859,-00.002885,-00.002658
+113.355,-028.834,+010.329,+1.370,-0.615,+2.531,-04.5340,-01.5320,-08.1600,+00.001137,-00.002100,+00.000955
+113.353,-028.834,+010.332,+1.379,-0.615,+2.543,-04.5700,-01.5250,-08.1540,+00.001932,-00.002357,-00.001092
+113.353,-028.831,+010.333,+1.384,-0.640,+2.543,-04.5590,-01.4630,-08.1730,+00.001643,+00.002947,-00.001409
+113.353,-028.829,+010.333,+1.370,-0.615,+2.537,-04.5540,-01.5190,-08.1650,-00.000755,+00.001717,-00.000300
+113.349,-028.826,+010.338,+1.379,-0.630,+2.532,-04.5570,-01.5110,-08.1890,+00.003004,-00.002339,-00.002562
+113.347,-028.821,+010.341,+1.379,-0.640,+2.543,-04.5240,-01.5410,-08.1270,+00.000186,+00.003235,-00.000285
+113.347,-028.820,+010.342,+1.379,-0.605,+2.532,-04.5840,-01.5190,-08.1580,-00.001664,-00.002620,+00.002687
+113.351,-028.822,+010.338,+1.379,-0.625,+2.526,-04.5480,-01.5020,-08.1640,-00.001737,-00.002731,+00.003774
+113.349,-028.825,+010.342,+1.370,-0.625,+2.564,-04.5610,-01.4880,-08.1500,+00.004187,-00.007473,-00.001226
+113.345,-028.830,+010.349,+1.384,-0.600,+2.527,-04.5060,-01.5320,-08.1430,+00.004193,-00.005753,-00.000927
+113.340,-028.836,+010.357,+1.370,-0.600,+2.537,-04.5590,-01.5520,-08.1500,+00.004577,-00.009340,-00.002435
+113.336,-028.838,+010.361,+1.379,-0.640,+2.543,-04.5740,-01.5660,-08.1720,-00.001139,-00.001171,-00.000406
+113.337,-028.837,+010.355,+1.389,-0.600,+2.543,-04.5690,-01.5370,-08.1560,-00.008171,+00.002897,+00.003233
+113.344,-028.833,+010.336,+1.375,-0.625,+2.521,-04.5790,-01.5110,-08.1330,-00.016529,+00.005433,+00.006703
+113.357,-028.829,+010.308,+1.375,-0.605,+2.553,-04.5790,-01.5150,-08.1510,-00.023070,+00.007732,+00.011174
+113.373,-028.826,+010.270,+1.379,-0.600,+2.537,-04.5990,-01.4970,-08.1270,-00.025367,+00.001542,+00.011668
+113.390,-028.824,+010.230,+1.389,-0.630,+2.522,-04.5560,-01.4420,-08.1660,-00.027452,+00.004321,+00.011994
+113.405,-028.821,+010.191,+1.379,-0.640,+2.559,-04.5770,-01.4780,-08.1700,-00.028342,+00.004572,+00.010641
+113.421,-028.818,+010.148,+1.370,-0.605,+2.531,-04.5600,-01.4890,-08.2100,-00.032367,+00.003824,+00.013726
+113.439,-028.815,+010.104,+1.375,-0.630,+2.521,-04.5730,-01.5280,-08.2440,-00.034800,+00.005020,+00.015001
+113.459,-028.813,+010.056,+1.379,-0.640,+2.532,-04.5800,-01.4360,-08.1720,-00.030372,+00.003387,+00.013404
+113.476,-028.813,+010.013,+1.379,-0.620,+2.537,-04.6060,-01.4280,-08.2080,-00.028592,+00.000052,+00.012516
+113.489,-028.819,+009.976,+1.375,-0.630,+2.537,-04.5670,-01.4800,-08.1590,-00.026714,-00.001738,+00.011339
+113.504,-028.825,+009.937,+1.375,-0.635,+2.553,-04.5670,-01.3910,-08.2000,-00.025153,-00.004960,+00.011635
+113.516,-028.837,+009.901,+1.384,-0.625,+2.500,-04.5880,-01.4640,-08.2030,-00.027943,-00.010656,+00.012522
+113.532,-028.849,+009.863,+1.379,-0.625,+2.527,-04.5810,-01.4310,-08.1670,-00.026182,-00.008276,+00.014226
+113.546,-028.870,+009.828,+1.356,-0.649,+2.547,-04.6030,-01.4340,-08.2130,-00.028876,-00.019518,+00.016693
+113.567,-028.889,+009.773,+1.370,-0.615,+2.537,-04.6010,-01.4130,-08.2360,-00.039953,-00.008932,+00.020599
+113.585,-028.917,+009.720,+1.375,-0.650,+2.510,-04.5800,-01.4770,-08.2580,-00.030878,-00.018844,+00.017542
+113.607,-028.932,+009.676,+1.375,-0.630,+2.521,-04.5520,-01.4410,-08.1540,-00.022823,-00.010994,+00.017605
+113.624,-028.957,+009.643,+1.365,-0.630,+2.537,-04.6280,-01.3580,-08.1640,-00.020542,-00.015061,+00.015804
+113.640,-028.967,+009.620,+1.370,-0.650,+2.521,-04.6040,-01.3050,-08.1540,-00.010459,-00.005908,+00.009466
+113.647,-028.977,+009.599,+1.365,-0.655,+2.521,-04.5970,-01.2780,-08.1540,-00.018653,-00.001890,+00.005914
+113.651,-028.977,+009.589,+1.375,-0.645,+2.510,-04.5880,-01.3800,-08.1770,+00.001531,-00.001314,+00.000644
+113.654,-028.978,+009.570,+1.365,-0.650,+2.532,-04.5820,-01.3760,-08.1290,-00.015232,+00.001007,+00.001157
+113.657,-028.976,+009.547,+1.370,-0.625,+2.542,-04.5800,-01.4170,-08.1510,-00.022988,+00.002235,+00.004199
+113.668,-028.969,+009.517,+1.384,-0.645,+2.494,-04.4820,-01.4450,-08.1880,-00.032676,+00.004541,+00.010677
+113.701,-028.963,+009.446,+1.370,-0.645,+2.510,-04.5790,-01.3420,-08.1580,-00.054373,+00.015076,+00.031627
+113.740,-028.954,+009.366,+1.365,-0.650,+2.542,-04.5700,-01.2560,-08.1990,-00.048941,+00.009991,+00.026218
+113.770,-028.951,+009.315,+1.361,-0.620,+2.526,-04.6220,-01.2400,-08.1860,-00.016378,+00.003600,+00.019376
+113.784,-028.958,+009.286,+1.361,-0.645,+2.537,-04.6180,-01.1860,-08.1660,-00.010227,-00.008696,+00.004019
+113.769,-028.980,+009.295,+1.375,-0.660,+2.537,-04.6800,-01.2110,-08.2490,+00.016823,-00.023316,-00.016456
+113.736,-029.009,+009.335,+1.375,-0.655,+2.521,-04.5140,-01.5190,-08.1240,+00.012308,-00.034623,-00.016279
+113.722,-029.037,+009.357,+1.365,-0.670,+2.499,-04.6670,-01.2100,-08.1310,+00.000760,-00.019274,-00.002996
+113.704,-029.058,+009.377,+1.375,-0.655,+2.527,-04.6510,-01.3250,-08.1370,+00.019682,-00.023016,-00.016232
+113.665,-029.080,+009.434,+1.379,-0.645,+2.505,-04.6550,-01.2680,-08.1450,+00.046225,-00.026700,-00.031176
+113.611,-029.110,+009.522,+1.375,-0.655,+2.521,-04.6070,-01.2320,-08.2000,+00.060608,-00.034304,-00.039182
+113.549,-029.153,+009.632,+1.375,-0.655,+2.537,-04.6040,-01.4110,-08.1490,+00.075369,-00.046279,-00.040748
+113.493,-029.196,+009.728,+1.375,-0.630,+2.499,-04.6130,-01.4390,-08.1180,+00.051843,-00.045620,-00.031944
+113.439,-029.239,+009.813,+1.365,-0.645,+2.532,-04.6570,-01.3960,-08.1110,+00.050294,-00.040003,-00.034585
+113.386,-029.271,+009.896,+1.379,-0.625,+2.532,-04.5830,-01.3360,-08.0460,+00.042967,-00.028174,-00.033316
+113.338,-029.279,+009.970,+1.384,-0.630,+2.494,-04.6590,-01.3920,-08.1180,+00.042201,-00.004868,-00.035228
+113.293,-029.266,+010.038,+1.389,-0.635,+2.516,-04.6930,-01.5050,-08.1310,+00.039016,+00.012588,-00.035263
+113.248,-029.233,+010.109,+1.384,-0.645,+2.516,-04.7290,-01.5530,-08.2080,+00.038700,+00.030470,-00.040078
+113.215,-029.191,+010.151,+1.379,-0.620,+2.527,-04.6330,-01.6220,-08.2130,+00.012936,+00.029639,-00.025164
+113.198,-029.164,+010.162,+1.384,-0.620,+2.521,-04.6030,-01.4470,-08.1410,-00.000885,+00.018486,-00.014042
+113.184,-029.144,+010.170,+1.375,-0.635,+2.543,-04.5400,-01.4730,-08.1480,+00.003781,+00.015297,-00.014267
+113.171,-029.131,+010.186,+1.384,-0.620,+2.511,-04.5110,-01.3620,-08.0620,+00.010732,+00.005203,-00.010911
+113.157,-029.131,+010.211,+1.389,-0.640,+2.522,-04.6090,-01.3140,-08.1790,+00.021094,-00.004576,-00.010932
+113.137,-029.132,+010.255,+1.384,-0.635,+2.532,-04.6620,-01.3480,-08.1880,+00.040641,-00.001760,-00.020115
+113.101,-029.143,+010.329,+1.384,-0.625,+2.511,-04.6430,-01.3170,-08.2180,+00.056152,-00.014380,-00.029792
+113.054,-029.158,+010.413,+1.389,-0.610,+2.527,-04.5940,-01.4580,-08.1700,+00.055445,-00.024914,-00.034948
+112.997,-029.176,+010.524,+1.384,-0.625,+2.532,-04.5950,-01.4780,-08.1030,+00.079001,-00.034534,-00.043018
+112.934,-029.213,+010.630,+1.389,-0.615,+2.522,-04.6500,-01.5610,-08.1190,+00.085676,-00.038980,-00.045402
+112.863,-029.259,+010.753,+1.389,-0.620,+2.527,-04.6870,-01.5630,-08.1730,+00.070919,-00.052241,-00.045612
+112.791,-029.303,+010.874,+1.393,-0.620,+2.538,-04.6600,-01.7280,-08.0680,+00.061282,-00.047848,-00.041790
+112.732,-029.344,+010.980,+1.407,-0.596,+2.528,-04.6770,-01.7410,-08.1440,+00.061788,-00.042115,-00.033544
+112.683,-029.384,+011.071,+1.398,-0.586,+2.527,-04.6110,-01.7200,-08.0940,+00.048446,-00.041011,-00.022710
+112.648,-029.426,+011.142,+1.403,-0.571,+2.549,-04.6990,-01.7220,-08.1040,+00.045959,-00.040495,-00.014993
+112.622,-029.461,+011.198,+1.407,-0.596,+2.506,-04.6910,-01.6570,-08.1170,+00.026846,-00.030253,-00.011338
+112.600,-029.487,+011.234,+1.398,-0.615,+2.517,-04.7190,-01.6580,-08.0870,+00.019704,-00.020527,-00.012656
+112.584,-029.496,+011.265,+1.398,-0.610,+2.527,-04.5920,-01.6390,-08.0350,+00.002469,-00.006406,-00.007142
+112.573,-029.501,+011.278,+1.407,-0.581,+2.517,-04.6220,-01.5030,-08.0990,+00.015947,-00.004299,-00.009914
+112.558,-029.510,+011.295,+1.407,-0.615,+2.517,-04.6520,-01.5320,-08.1330,+00.019089,-00.013919,-00.015083
+112.533,-029.525,+011.333,+1.403,-0.580,+2.549,-04.6690,-01.5420,-08.1460,+00.027164,-00.018273,-00.017767
+112.498,-029.545,+011.395,+1.407,-0.586,+2.511,-04.7090,-01.5860,-08.1220,+00.037680,-00.020092,-00.024292
+112.456,-029.561,+011.471,+1.417,-0.591,+2.528,-04.6880,-01.5400,-08.1130,+00.051299,-00.015749,-00.029452
+112.416,-029.566,+011.542,+1.412,-0.595,+2.549,-04.6070,-01.6880,-07.9940,+00.043343,-00.004939,-00.027218
+112.390,-029.567,+011.598,+1.421,-0.581,+2.523,-04.6180,-01.7910,-07.9990,+00.030820,-00.005889,-00.013737
+112.378,-029.580,+011.617,+1.407,-0.601,+2.511,-04.6960,-01.7460,-08.0470,-00.000086,-00.017888,-00.002650
+112.367,-029.607,+011.631,+1.407,-0.576,+2.555,-04.6630,-01.6990,-08.0190,+00.013737,-00.027409,-00.003314
+112.360,-029.641,+011.635,+1.421,-0.581,+2.506,-04.6660,-01.6260,-08.0380,-00.009661,-00.032709,+00.000776
+112.354,-029.667,+011.642,+1.417,-0.566,+2.522,-04.6660,-01.5550,-08.0340,+00.000070,-00.017730,+00.000862
+112.358,-029.677,+011.632,+1.417,-0.591,+2.544,-04.6180,-01.7330,-07.9990,-00.015074,-00.004699,+00.008326
+112.376,-029.681,+011.593,+1.407,-0.591,+2.506,-04.6620,-01.7340,-08.0370,-00.032920,+00.001742,+00.017946
+112.404,-029.686,+011.538,+1.417,-0.596,+2.528,-04.7080,-01.6820,-08.0800,-00.038328,-00.000456,+00.021782
+112.435,-029.688,+011.478,+1.407,-0.605,+2.555,-04.6650,-01.6870,-08.0480,-00.041272,+00.004082,+00.024443
+112.469,-029.687,+011.413,+1.412,-0.591,+2.517,-04.6660,-01.6390,-08.0600,-00.043996,+00.008511,+00.026604
+112.507,-029.682,+011.340,+1.421,-0.615,+2.528,-04.6980,-01.6460,-08.0860,-00.049228,+00.012301,+00.027576
+112.551,-029.673,+011.254,+1.407,-0.581,+2.528,-04.7350,-01.6350,-08.1250,-00.064001,+00.017635,+00.033949
+112.594,-029.665,+011.167,+1.421,-0.601,+2.517,-04.7700,-01.5650,-08.1480,-00.060812,+00.013112,+00.031413
+112.629,-029.663,+011.098,+1.407,-0.601,+2.522,-04.7520,-01.5460,-08.1570,-00.040644,+00.005796,+00.023186
+112.654,-029.662,+011.044,+1.412,-0.571,+2.538,-04.7520,-01.5750,-08.1480,-00.031590,+00.005850,+00.014805
+112.672,-029.655,+011.002,+1.407,-0.591,+2.522,-04.7280,-01.5770,-08.1230,-00.026719,+00.010603,+00.010112
+112.690,-029.643,+010.962,+1.403,-0.610,+2.500,-04.6970,-01.5590,-08.0780,-00.027251,+00.016214,+00.010730
+112.707,-029.626,+010.923,+1.412,-0.595,+2.544,-04.7260,-01.5750,-08.1210,-00.025928,+00.018131,+00.008939
+112.723,-029.610,+010.886,+1.407,-0.596,+2.522,-04.6840,-01.5620,-08.0740,-00.025026,+00.013208,+00.009052
+112.739,-029.601,+010.851,+1.407,-0.581,+2.506,-04.6810,-01.5760,-08.0910,-00.023949,+00.005647,+00.011315
+112.754,-029.598,+010.816,+1.403,-0.625,+2.528,-04.6850,-01.5330,-08.1110,-00.024057,+00.005177,+00.011688
+112.770,-029.595,+010.781,+1.412,-0.606,+2.495,-04.7130,-01.5320,-08.0890,-00.026223,+00.007661,+00.012254
+112.788,-029.586,+010.741,+1.407,-0.605,+2.522,-04.6890,-01.5090,-08.1270,-00.028021,+00.014911,+00.011701
+112.806,-029.572,+010.701,+1.398,-0.630,+2.517,-04.6970,-01.5090,-08.1130,-00.026449,+00.015109,+00.011101
+112.825,-029.557,+010.662,+1.403,-0.605,+2.517,-04.6920,-01.5300,-08.1440,-00.026853,+00.013062,+00.010302
+112.843,-029.541,+010.623,+1.398,-0.620,+2.511,-04.6820,-01.5030,-08.1000,-00.025710,+00.017809,+00.009903
+112.860,-029.524,+010.583,+1.398,-0.620,+2.549,-04.6740,-01.5520,-08.1090,-00.028738,+00.019914,+00.011063
+112.879,-029.500,+010.541,+1.403,-0.620,+2.511,-04.6580,-01.5260,-08.1320,-00.029163,+00.024164,+00.009613
+112.898,-029.478,+010.504,+1.403,-0.600,+2.533,-04.6900,-01.5710,-08.1190,-00.021406,+00.018624,+00.011455
+112.923,-029.460,+010.452,+1.393,-0.640,+2.522,-04.6690,-01.6870,-08.0830,-00.034697,+00.011030,+00.014614
+112.943,-029.458,+010.413,+1.403,-0.586,+2.511,-04.6740,-01.4820,-08.1340,-00.022846,+00.001279,+00.012611
+112.960,-029.461,+010.381,+1.393,-0.635,+2.506,-04.6510,-01.4420,-08.1330,-00.019437,-00.000940,+00.014128
+112.978,-029.463,+010.351,+1.403,-0.630,+2.544,-04.6630,-01.3980,-08.0880,-00.017263,+00.004172,+00.010278
+112.990,-029.456,+010.329,+1.393,-0.630,+2.500,-04.6540,-01.4250,-08.1110,-00.009517,+00.008518,+00.005094
+112.996,-029.448,+010.318,+1.393,-0.640,+2.522,-04.6530,-01.4400,-08.1380,-00.004652,+00.006579,+00.001991
+113.000,-029.446,+010.314,+1.393,-0.625,+2.549,-04.6750,-01.4240,-08.1600,+00.001247,+00.000478,+00.002156
+112.998,-029.450,+010.321,+1.393,-0.586,+2.516,-04.6800,-01.4030,-08.1350,+00.008964,-00.004098,-00.003381
+112.990,-029.452,+010.339,+1.389,-0.615,+2.505,-04.6890,-01.4130,-08.1170,+00.017326,+00.001499,-00.010066
+112.975,-029.440,+010.368,+1.403,-0.620,+2.538,-04.6750,-01.4780,-08.1020,+00.019360,+00.011482,-00.016172
+112.959,-029.428,+010.397,+1.393,-0.615,+2.522,-04.6420,-01.5210,-08.1120,+00.016560,+00.003789,-00.013294
+112.948,-029.423,+010.419,+1.389,-0.620,+2.522,-04.6350,-01.4800,-08.1070,+00.012523,+00.002569,-00.008870
+112.938,-029.421,+010.436,+1.398,-0.630,+2.506,-04.6640,-01.5390,-08.0920,+00.007211,+00.000234,-00.005784
+112.935,-029.420,+010.442,+1.398,-0.615,+2.527,-04.6670,-01.5350,-08.1600,+00.001548,-00.001574,+00.000693
+112.936,-029.425,+010.443,+1.393,-0.630,+2.489,-04.6710,-01.5360,-08.1310,+00.000358,-00.006223,+00.002597
+112.935,-029.434,+010.446,+1.403,-0.615,+2.538,-04.6370,-01.4680,-08.1060,+00.003734,-00.009020,+00.001365
+112.932,-029.442,+010.455,+1.393,-0.610,+2.522,-04.6590,-01.4550,-08.1740,+00.009806,-00.005663,-00.004377
+112.924,-029.446,+010.472,+1.398,-0.620,+2.527,-04.6520,-01.5690,-08.1340,+00.008918,-00.003640,-00.006611
+112.918,-029.449,+010.483,+1.393,-0.630,+2.533,-04.6390,-01.5500,-08.1110,+00.008540,-00.001620,-00.004359
+112.913,-029.445,+010.493,+1.398,-0.620,+2.527,-04.6470,-01.5070,-08.0640,+00.002800,+00.006711,-00.002864
+112.912,-029.430,+010.492,+1.403,-0.620,+2.522,-04.6670,-01.5570,-08.1260,-00.002412,+00.017629,-00.003786
+112.911,-029.408,+010.486,+1.398,-0.640,+2.538,-04.6550,-01.5800,-08.1450,-00.009196,+00.017538,-00.001888
+112.914,-029.390,+010.474,+1.393,-0.620,+2.527,-04.6830,-01.5790,-08.1130,-00.014137,+00.013947,+00.001176
+112.919,-029.378,+010.456,+1.379,-0.620,+2.510,-04.6280,-01.5100,-08.1030,-00.013486,+00.009946,+00.002223
+112.924,-029.372,+010.441,+1.398,-0.635,+2.533,-04.6440,-01.4510,-08.1380,-00.007506,+00.002371,+00.001170
+112.927,-029.371,+010.433,+1.398,-0.605,+2.522,-04.6580,-01.4370,-08.1230,-00.002092,-00.000641,-00.000386
+112.927,-029.366,+010.434,+1.389,-0.625,+2.511,-04.6270,-01.4450,-08.0960,+00.003408,+00.007011,-00.003068
+112.927,-029.357,+010.435,+1.398,-0.610,+2.544,-04.5450,-01.4410,-08.0270,+00.003491,+00.009948,-00.001242
+112.934,-029.359,+010.428,+1.389,-0.615,+2.505,-04.4410,-01.5960,-08.0510,-00.010012,-00.016356,+00.011235
+112.954,-029.399,+010.394,+1.403,-0.625,+2.511,-04.6360,-01.5430,-08.1590,-00.029693,-00.037401,+00.027724
+112.983,-029.447,+010.349,+1.384,-0.645,+2.538,-04.6270,-01.6050,-08.1860,-00.019942,-00.034340,+00.029543
+113.017,-029.506,+010.302,+1.393,-0.610,+2.511,-04.6550,-01.5900,-08.1480,-00.028353,-00.052566,+00.037398
+113.053,-029.566,+010.276,+1.393,-0.635,+2.517,-04.8280,-01.3640,-08.1340,-00.017233,-00.042017,+00.036418
+113.089,-029.615,+010.244,+1.398,-0.635,+2.522,-04.6310,-01.4560,-08.0430,-00.002592,-00.037674,+00.035192
+113.133,-029.654,+010.183,+1.403,-0.625,+2.511,-04.5970,-01.4470,-08.2550,-00.041728,-00.018084,+00.039057
+113.194,-029.685,+010.101,+1.407,-0.655,+2.506,-04.6230,-01.6440,-08.0810,-00.045976,-00.017596,+00.056226
+113.281,-029.733,+009.979,+1.393,-0.655,+2.522,-04.6820,-01.5160,-08.1490,-00.077912,-00.035821,+00.079910
+113.377,-029.792,+009.861,+1.403,-0.635,+2.495,-04.7410,-01.3950,-08.1750,-00.054761,-00.039137,+00.077532
+113.464,-029.862,+009.762,+1.403,-0.625,+2.490,-04.8090,-01.2990,-08.1050,-00.043866,-00.056412,+00.072362
+113.533,-029.939,+009.693,+1.416,-0.670,+2.523,-04.7940,-01.2390,-08.1530,-00.022677,-00.056534,+00.054867
+113.574,-030.009,+009.656,+1.398,-0.635,+2.506,-04.8250,-01.1830,-08.1120,-00.004699,-00.050263,+00.030786
+113.587,-030.060,+009.659,+1.421,-0.645,+2.512,-04.7250,-01.2450,-08.0700,+00.017067,-00.040026,+00.009920
+113.586,-030.106,+009.684,+1.407,-0.640,+2.501,-04.7720,-01.3130,-08.0750,+00.023681,-00.039286,+00.003141
+113.576,-030.143,+009.706,+1.412,-0.645,+2.496,-04.8730,-01.3990,-08.0780,+00.020250,-00.023886,-00.006973
+113.558,-030.151,+009.740,+1.403,-0.635,+2.501,-04.8240,-01.3740,-08.0580,+00.020395,-00.001919,-00.017143
+113.536,-030.139,+009.770,+1.412,-0.655,+2.523,-04.7670,-01.4590,-08.0660,+00.012559,+00.010684,-00.017263
+113.526,-030.137,+009.780,+1.407,-0.645,+2.501,-04.7150,-01.5010,-08.0300,-00.001139,-00.008632,-00.001235
+113.533,-030.158,+009.778,+1.412,-0.650,+2.507,-04.7210,-01.4620,-08.0860,-00.003667,-00.025624,+00.015189
+113.554,-030.206,+009.763,+1.407,-0.650,+2.512,-04.7850,-01.4060,-08.0710,-00.006600,-00.044322,+00.025585
+113.581,-030.262,+009.740,+1.412,-0.616,+2.496,-04.8790,-01.3870,-08.0640,-00.007409,-00.041914,+00.025956
+113.603,-030.302,+009.721,+1.417,-0.635,+2.501,-04.8800,-01.3500,-08.0840,-00.005144,-00.023892,+00.018792
+113.615,-030.309,+009.711,+1.417,-0.660,+2.518,-04.8750,-01.3040,-08.0470,-00.001368,+00.007450,+00.001321
+113.611,-030.286,+009.716,+1.412,-0.625,+2.507,-04.7910,-01.3120,-08.0650,+00.005326,+00.024005,-00.012176
+113.598,-030.258,+009.730,+1.416,-0.645,+2.480,-04.7260,-01.3890,-08.0490,+00.009852,+00.019215,-00.013025
+113.587,-030.242,+009.742,+1.407,-0.665,+2.501,-04.7540,-01.4150,-08.1130,+00.003568,+00.010708,-00.009304
+113.579,-030.234,+009.751,+1.407,-0.625,+2.495,-04.7880,-01.4130,-08.0630,+00.002905,+00.002941,-00.005561
+113.575,-030.233,+009.757,+1.412,-0.621,+2.506,-04.8000,-01.4170,-08.0750,+00.000348,-00.000643,-00.001577
+113.574,-030.234,+009.757,+1.407,-0.645,+2.517,-04.7850,-01.4030,-08.0140,-00.001681,+00.000862,+00.000405
+113.577,-030.231,+009.751,+1.412,-0.645,+2.490,-04.8200,-01.4070,-08.0700,-00.006450,+00.005376,+00.001651
+113.581,-030.218,+009.741,+1.407,-0.630,+2.512,-04.8450,-01.3490,-08.1430,-00.005304,+00.016503,-00.001983
+113.580,-030.191,+009.733,+1.403,-0.625,+2.528,-04.8460,-01.3530,-08.0680,-00.011058,+00.029433,-00.006157
+113.571,-030.149,+009.726,+1.417,-0.640,+2.512,-04.8470,-01.3430,-08.0530,-00.010397,+00.050894,-00.015604
+113.550,-030.086,+009.728,+1.403,-0.655,+2.501,-04.9410,-01.3210,-08.1430,-00.006116,+00.070295,-00.031103
+113.515,-029.993,+009.738,+1.407,-0.650,+2.512,-04.7690,-01.3000,-08.1370,-00.004908,+00.071950,-00.045372
+113.468,-029.906,+009.763,+1.403,-0.601,+2.506,-04.7460,-01.3820,-08.1330,+00.007514,+00.069335,-00.049728
+113.420,-029.831,+009.798,+1.398,-0.645,+2.511,-04.6830,-01.4340,-08.1710,+00.015270,+00.053553,-00.047535
+113.373,-029.764,+009.844,+1.398,-0.645,+2.517,-04.6930,-01.4430,-08.0870,+00.017227,+00.047929,-00.042577
+113.333,-029.707,+009.889,+1.398,-0.640,+2.517,-04.6530,-01.4240,-08.1040,+00.020396,+00.042429,-00.036917
+113.299,-029.651,+009.930,+1.393,-0.650,+2.506,-04.6990,-01.4880,-08.1290,+00.019021,+00.054555,-00.029925
+113.278,-029.597,+009.953,+1.389,-0.640,+2.506,-04.6070,-01.4630,-08.0840,-00.000641,+00.027406,-00.021120
+113.262,-029.552,+009.966,+1.403,-0.630,+2.501,-04.6790,-01.4980,-08.1060,+00.000686,+00.058204,-00.013985
+113.254,-029.517,+009.957,+1.398,-0.630,+2.517,-04.6300,-01.4780,-08.1010,-00.019024,+00.013850,-00.007105
+113.255,-029.490,+009.933,+1.403,-0.640,+2.539,-04.6280,-01.4590,-08.1120,-00.024958,+00.022572,-00.000288
+113.264,-029.468,+009.896,+1.403,-0.640,+2.506,-04.6240,-01.4740,-08.1370,-00.034742,+00.021048,+00.008774
+113.284,-029.441,+009.845,+1.393,-0.650,+2.490,-04.6440,-01.4420,-08.1570,-00.042780,+00.027178,+00.013425
+113.310,-029.412,+009.781,+1.389,-0.645,+2.544,-04.6610,-01.4240,-08.1500,-00.043224,+00.029274,+00.017839
+113.339,-029.377,+009.713,+1.389,-0.640,+2.506,-04.6180,-01.3830,-08.1400,-00.047779,+00.034876,+00.017874
+113.371,-029.338,+009.647,+1.379,-0.655,+2.522,-04.5720,-01.3120,-08.0950,-00.044984,+00.032698,+00.018207
+113.405,-029.318,+009.582,+1.379,-0.665,+2.549,-04.5650,-01.3630,-08.1240,-00.048169,+00.017624,+00.024830
+113.446,-029.306,+009.507,+1.384,-0.650,+2.511,-04.5840,-01.2990,-08.0890,-00.050481,+00.015938,+00.031505
+113.494,-029.306,+009.425,+1.384,-0.670,+2.495,-04.6260,-01.3700,-08.1100,-00.052138,+00.002379,+00.038403
+113.541,-029.312,+009.347,+1.393,-0.675,+2.501,-04.5620,-01.3070,-08.1510,-00.043537,-00.001989,+00.034195
+113.597,-029.323,+009.264,+1.389,-0.630,+2.506,-04.6320,-01.3890,-08.1970,-00.047874,+00.001294,+00.050915
+113.675,-029.330,+009.180,+1.379,-0.670,+2.516,-04.6230,-01.2810,-08.1370,-00.038755,-00.000561,+00.062396
+113.749,-029.352,+009.098,+1.389,-0.685,+2.511,-04.5900,-01.2690,-08.1800,-00.033669,-00.015212,+00.055686
+113.821,-029.375,+009.011,+1.375,-0.660,+2.500,-04.7200,-01.2790,-08.1690,-00.050198,-00.006329,+00.058228
+113.898,-029.385,+008.915,+1.375,-0.680,+2.511,-04.7060,-01.2540,-08.1910,-00.046266,-00.001310,+00.057473
+113.964,-029.398,+008.838,+1.379,-0.675,+2.522,-04.6510,-01.2400,-08.1450,-00.031936,-00.003463,+00.046158
+114.025,-029.402,+008.773,+1.389,-0.675,+2.511,-04.6560,-01.1930,-08.1280,-00.025292,+00.002996,+00.045366
+114.078,-029.407,+008.726,+1.361,-0.675,+2.505,-04.6910,-01.2430,-08.1440,-00.016208,-00.001084,+00.039549
+114.123,-029.410,+008.688,+1.365,-0.679,+2.527,-04.7010,-01.1790,-08.1530,-00.010943,+00.005682,+00.027720
+114.156,-029.404,+008.663,+1.375,-0.670,+2.489,-04.6900,-01.1820,-08.1780,-00.005769,+00.009470,+00.021116
+114.189,-029.390,+008.638,+1.365,-0.680,+2.505,-04.6100,-01.2530,-08.2030,-00.010263,+00.021154,+00.024925
+114.228,-029.372,+008.612,+1.384,-0.690,+2.517,-04.6780,-01.1390,-08.1830,-00.000832,+00.024690,+00.024525
+114.250,-029.355,+008.605,+1.379,-0.660,+2.511,-04.6920,-01.1440,-08.1520,+00.011184,+00.012118,+00.005597
+114.251,-029.332,+008.629,+1.365,-0.680,+2.505,-04.6780,-01.1830,-08.1860,+00.034187,+00.013879,-00.008915
+114.238,-029.316,+008.675,+1.370,-0.689,+2.521,-04.6770,-01.2680,-08.1180,+00.032606,+00.008898,-00.011518
+114.220,-029.308,+008.719,+1.375,-0.670,+2.500,-04.6460,-01.2460,-08.1600,+00.033296,+00.002647,-00.014666
+114.203,-029.303,+008.759,+1.361,-0.670,+2.505,-04.6420,-01.2820,-08.2020,+00.022401,+00.001736,-00.010661
+114.191,-029.303,+008.788,+1.365,-0.684,+2.532,-04.6280,-01.2700,-08.1680,+00.022935,-00.001265,-00.009244
+114.180,-029.300,+008.816,+1.379,-0.625,+2.516,-04.6220,-01.2520,-08.1740,+00.016008,-00.000951,-00.008118
+114.171,-029.294,+008.838,+1.370,-0.685,+2.478,-04.6150,-01.2800,-08.1570,+00.018972,+00.007215,-00.005751
+114.167,-029.288,+008.862,+1.379,-0.630,+2.538,-04.6390,-01.2740,-08.1500,+00.018605,+00.002821,-00.003759
+114.156,-029.288,+008.889,+1.375,-0.655,+2.527,-04.6320,-01.2760,-08.1950,+00.022221,-00.002091,-00.010182
+114.138,-029.289,+008.931,+1.370,-0.665,+2.505,-04.6450,-01.2030,-08.2120,+00.033421,-00.005286,-00.017230
+114.112,-029.294,+008.988,+1.375,-0.650,+2.543,-04.5870,-01.3330,-08.1860,+00.040224,-00.013762,-00.018878
+114.082,-029.310,+009.049,+1.393,-0.670,+2.495,-04.6100,-01.3250,-08.1680,+00.043197,-00.022116,-00.021627
+114.054,-029.326,+009.113,+1.370,-0.670,+2.500,-04.6070,-01.3610,-08.1660,+00.041959,-00.023354,-00.018111
+114.028,-029.346,+009.173,+1.379,-0.675,+2.522,-04.6470,-01.3090,-08.1780,+00.041472,-00.021119,-00.017718
+114.000,-029.365,+009.231,+1.379,-0.630,+2.538,-04.6740,-01.2700,-08.1440,+00.043687,-00.017389,-00.021737
+113.961,-029.388,+009.311,+1.375,-0.645,+2.521,-04.6570,-01.2510,-08.1620,+00.057104,-00.024953,-00.030827
+113.917,-029.409,+009.397,+1.379,-0.660,+2.527,-04.6350,-01.3220,-08.1400,+00.056988,-00.024960,-00.030848
+113.870,-029.431,+009.487,+1.384,-0.635,+2.522,-04.5910,-01.3790,-08.1070,+00.061474,-00.027257,-00.031885
+113.824,-029.457,+009.583,+1.384,-0.630,+2.500,-04.6240,-01.4630,-08.1290,+00.062501,-00.031959,-00.026392
+113.783,-029.493,+009.673,+1.379,-0.645,+2.527,-04.6860,-01.3910,-08.1690,+00.064973,-00.032260,-00.028075
+113.740,-029.525,+009.766,+1.403,-0.655,+2.523,-04.6280,-01.4160,-08.1320,+00.063675,-00.032591,-00.027505
+113.695,-029.558,+009.862,+1.384,-0.640,+2.505,-04.6970,-01.4070,-08.1170,+00.068406,-00.029719,-00.031146
+113.646,-029.593,+009.964,+1.393,-0.650,+2.533,-04.7190,-01.4140,-08.1500,+00.066310,-00.026752,-00.030618
+113.597,-029.625,+010.062,+1.393,-0.635,+2.522,-04.6230,-01.4390,-08.1040,+00.058342,-00.036659,-00.031629
+113.544,-029.657,+010.168,+1.393,-0.640,+2.506,-04.6680,-01.4780,-08.0820,+00.072792,-00.035189,-00.034679
+113.467,-029.722,+010.320,+1.403,-0.635,+2.522,-04.6020,-01.2070,-08.0450,+00.122894,-00.096766,-00.063331
+113.335,-029.816,+010.554,+1.412,-0.606,+2.506,-04.7070,-01.4030,-08.1010,+00.154639,-00.108259,-00.093466
+113.183,-029.912,+010.813,+1.412,-0.586,+2.533,-04.7200,-01.5740,-08.0760,+00.164330,-00.107018,-00.102330
+113.022,-030.014,+011.089,+1.417,-0.610,+2.545,-04.7500,-01.6540,-08.0520,+00.170070,-00.113141,-00.105340
+112.862,-030.110,+011.352,+1.426,-0.576,+2.523,-04.7580,-01.7610,-08.0200,+00.146053,-00.104342,-00.094105
+112.720,-030.198,+011.593,+1.431,-0.581,+2.518,-04.8190,-01.6030,-08.0830,+00.149461,-00.089882,-00.092464
+112.575,-030.283,+011.829,+1.435,-0.571,+2.540,-04.8360,-01.6520,-08.0290,+00.140138,-00.094475,-00.091878
+112.431,-030.359,+012.050,+1.445,-0.561,+2.508,-04.8050,-01.7710,-08.0440,+00.126057,-00.088093,-00.089715
+112.291,-030.438,+012.265,+1.449,-0.571,+2.497,-04.7460,-01.7340,-08.0020,+00.126590,-00.096367,-00.086945
+112.148,-030.531,+012.489,+1.463,-0.552,+2.525,-04.7490,-01.8260,-08.0060,+00.130800,-00.111463,-00.083175
+112.006,-030.636,+012.711,+1.463,-0.542,+2.524,-04.8750,-01.8230,-08.0150,+00.130346,-00.111943,-00.085286
+111.862,-030.745,+012.938,+1.459,-0.552,+2.503,-04.8370,-01.7010,-07.9620,+00.132168,-00.119397,-00.083672
+111.715,-030.851,+013.166,+1.468,-0.522,+2.530,-04.8710,-01.8830,-07.9020,+00.128193,-00.113141,-00.086694
+111.578,-030.947,+013.370,+1.473,-0.517,+2.525,-04.8460,-01.9200,-07.9180,+00.108982,-00.098564,-00.077624
+111.451,-031.035,+013.557,+1.482,-0.492,+2.525,-04.9110,-01.8900,-07.8530,+00.101034,-00.095686,-00.074090
+111.328,-031.115,+013.737,+1.487,-0.527,+2.525,-04.9080,-01.9870,-07.8520,+00.097259,-00.079863,-00.075402
+111.213,-031.177,+013.890,+1.482,-0.507,+2.520,-04.9410,-01.9280,-07.8720,+00.069912,-00.068288,-00.069106
+111.107,-031.231,+014.016,+1.500,-0.522,+2.510,-04.9100,-01.9570,-07.8430,+00.056561,-00.065159,-00.060186
+111.015,-031.287,+014.129,+1.491,-0.507,+2.525,-04.8820,-02.0230,-07.8630,+00.055191,-00.066862,-00.051243
+110.936,-031.351,+014.220,+1.514,-0.483,+2.505,-04.9490,-02.0090,-07.8850,+00.034207,-00.063233,-00.035378
+110.884,-031.404,+014.276,+1.496,-0.488,+2.498,-04.9330,-02.0640,-07.8310,+00.020090,-00.050826,-00.021809
+110.855,-031.449,+014.308,+1.505,-0.488,+2.510,-04.9530,-02.0300,-07.8540,+00.005736,-00.037824,-00.004540
+110.861,-031.475,+014.291,+1.510,-0.458,+2.499,-05.0600,-02.0740,-07.7920,-00.022126,-00.007741,+00.017736
+110.888,-031.487,+014.253,+1.510,-0.468,+2.504,-05.0470,-01.9380,-07.8730,-00.016984,+00.002212,+00.019129
+110.908,-031.484,+014.228,+1.505,-0.507,+2.510,-05.0340,-01.9450,-07.8720,-00.007979,+00.010694,+00.005457
+110.915,-031.478,+014.216,+1.505,-0.493,+2.510,-04.9900,-01.9450,-07.8530,-00.005172,+00.002769,-00.001309
+110.909,-031.482,+014.215,+1.505,-0.488,+2.488,-04.9510,-02.0310,-07.8800,-00.000346,-00.011651,-00.002211
+110.905,-031.504,+014.219,+1.510,-0.493,+2.505,-04.9380,-02.0250,-07.8460,+00.001738,-00.024638,+00.003355
+110.905,-031.540,+014.220,+1.510,-0.493,+2.505,-04.9840,-01.9870,-07.8510,-00.001460,-00.034611,+00.008996
+110.911,-031.587,+014.206,+1.515,-0.473,+2.505,-04.9670,-01.9960,-07.8340,-00.015611,-00.041443,+00.016671
+110.923,-031.635,+014.175,+1.519,-0.478,+2.521,-04.9980,-01.9850,-07.8470,-00.023922,-00.034561,+00.020253
+110.936,-031.679,+014.142,+1.514,-0.493,+2.505,-05.0340,-01.9860,-07.8400,-00.021764,-00.031791,+00.017424
+110.948,-031.717,+014.111,+1.515,-0.473,+2.515,-05.0020,-02.0100,-07.8350,-00.024308,-00.019563,+00.018029
+110.973,-031.739,+014.057,+1.501,-0.512,+2.520,-05.0040,-01.9730,-07.8350,-00.040584,-00.010643,+00.026162
+111.004,-031.755,+013.997,+1.510,-0.493,+2.483,-05.0550,-01.9440,-07.8130,-00.037527,-00.001748,+00.022953
+111.029,-031.758,+013.942,+1.496,-0.507,+2.493,-05.0370,-01.9440,-07.8070,-00.035721,+00.006994,+00.015130
+111.050,-031.750,+013.896,+1.505,-0.512,+2.494,-05.0230,-01.8940,-07.8560,-00.026960,+00.016466,+00.011024
+111.072,-031.724,+013.852,+1.510,-0.503,+2.494,-05.0400,-01.9150,-07.8630,-00.028534,+00.032024,+00.010044
+111.098,-031.687,+013.807,+1.510,-0.483,+2.504,-05.0460,-01.8650,-07.8450,-00.022832,+00.042613,+00.007990
+111.123,-031.631,+013.771,+1.514,-0.522,+2.510,-05.0040,-01.8590,-07.8530,-00.016445,+00.052962,+00.004029
+111.145,-031.577,+013.751,+1.496,-0.507,+2.499,-04.9030,-01.9570,-07.8290,-00.001946,+00.041530,+00.004431
+111.162,-031.548,+013.751,+1.501,-0.502,+2.510,-04.9180,-01.9590,-07.8680,+00.012915,+00.019484,+00.007415
+111.169,-031.548,+013.775,+1.501,-0.507,+2.520,-05.0100,-01.9900,-07.8810,+00.026023,-00.005484,+00.005342
+111.175,-031.568,+013.799,+1.510,-0.493,+2.505,-04.9610,-01.9700,-07.8410,+00.021095,-00.020056,+00.008221
+111.183,-031.601,+013.814,+1.514,-0.478,+2.499,-04.9450,-02.0000,-07.8990,+00.008958,-00.030384,+00.018624
+111.205,-031.648,+013.805,+1.496,-0.517,+2.510,-04.9550,-02.0060,-07.8510,-00.008237,-00.039494,+00.035333
+111.245,-031.713,+013.768,+1.505,-0.507,+2.499,-04.9780,-01.9890,-07.8340,-00.019949,-00.051674,+00.046633
+111.300,-031.791,+013.716,+1.510,-0.508,+2.499,-05.0190,-01.9760,-07.8160,-00.023847,-00.059884,+00.061854
+111.368,-031.880,+013.647,+1.519,-0.532,+2.521,-04.9550,-01.9260,-07.8100,-00.033000,-00.064326,+00.069236
+111.441,-031.966,+013.568,+1.514,-0.508,+2.489,-05.0150,-01.8780,-07.8180,-00.039456,-00.056963,+00.070368
+111.516,-032.039,+013.482,+1.510,-0.508,+2.499,-05.0460,-01.8790,-07.7610,-00.043710,-00.043692,+00.065885
+111.591,-032.087,+013.391,+1.505,-0.512,+2.515,-05.0790,-01.8440,-07.8230,-00.046667,-00.013616,+00.059704
+111.668,-032.095,+013.293,+1.510,-0.537,+2.489,-05.0820,-01.8410,-07.8130,-00.051003,+00.022159,+00.054855
+111.749,-032.072,+013.191,+1.510,-0.542,+2.472,-05.0930,-01.7880,-07.8430,-00.051320,+00.039640,+00.049609
+111.821,-032.029,+013.093,+1.510,-0.542,+2.500,-05.0560,-01.8040,-07.8260,-00.049209,+00.051676,+00.035579
+111.879,-031.986,+013.006,+1.510,-0.532,+2.510,-05.0030,-01.8030,-07.8520,-00.044432,+00.041648,+00.029133
+111.921,-031.958,+012.942,+1.496,-0.532,+2.504,-05.0040,-01.7700,-07.8440,-00.034360,+00.022919,+00.020287
+111.948,-031.949,+012.897,+1.505,-0.532,+2.521,-05.0150,-01.7850,-07.8500,-00.024327,+00.006823,+00.014343
+111.969,-031.949,+012.860,+1.505,-0.528,+2.461,-04.9970,-01.8000,-07.8450,-00.023464,+00.001565,+00.015416
+111.995,-031.953,+012.820,+1.500,-0.532,+2.504,-05.0100,-01.8530,-07.8340,-00.027922,+00.000920,+00.022430
+112.028,-031.963,+012.773,+1.486,-0.557,+2.504,-05.0080,-01.8210,-07.8170,-00.029638,-00.005488,+00.028338
+112.069,-031.976,+012.720,+1.500,-0.532,+2.483,-05.0380,-01.7650,-07.8370,-00.028444,-00.000533,+00.033115
+112.116,-031.983,+012.660,+1.500,-0.557,+2.467,-05.0520,-01.7320,-07.8790,-00.028867,+00.004504,+00.033709
+112.159,-031.983,+012.603,+1.500,-0.527,+2.504,-05.0150,-01.7320,-07.8380,-00.028574,+00.009089,+00.026569
+112.197,-031.977,+012.551,+1.491,-0.552,+2.477,-05.0460,-01.7500,-07.8630,-00.028154,+00.012649,+00.024841
+112.232,-031.961,+012.498,+1.496,-0.557,+2.483,-05.0260,-01.6840,-07.8830,-00.029972,+00.024477,+00.017919
+112.267,-031.936,+012.437,+1.491,-0.572,+2.510,-05.0430,-01.7430,-07.8930,-00.039251,+00.032829,+00.019800
+112.306,-031.899,+012.370,+1.491,-0.537,+2.477,-05.0550,-01.7570,-07.8520,-00.042944,+00.041773,+00.021406
+112.352,-031.855,+012.300,+1.496,-0.547,+2.494,-05.0550,-01.7210,-07.8940,-00.044572,+00.049561,+00.024084
+112.404,-031.805,+012.219,+1.500,-0.542,+2.505,-04.9770,-01.7240,-07.8770,-00.049972,+00.046725,+00.031661
+112.465,-031.761,+012.132,+1.491,-0.562,+2.499,-04.9750,-01.6840,-07.8940,-00.050593,+00.043473,+00.040111
+112.536,-031.731,+012.032,+1.482,-0.572,+2.509,-04.9990,-01.6900,-07.9040,-00.058048,+00.034650,+00.048178
+112.608,-031.710,+011.926,+1.477,-0.577,+2.504,-04.9990,-01.6640,-07.9020,-00.064017,+00.029989,+00.047729
+112.688,-031.681,+011.812,+1.491,-0.587,+2.477,-04.9720,-01.6630,-07.9190,-00.064255,+00.040259,+00.053525
+112.775,-031.646,+011.691,+1.472,-0.606,+2.488,-05.0310,-01.6510,-07.9220,-00.066441,+00.049574,+00.058015
+112.867,-031.602,+011.556,+1.482,-0.606,+2.493,-05.0000,-01.6100,-07.9400,-00.075303,+00.053910,+00.058559
+112.957,-031.554,+011.420,+1.477,-0.577,+2.488,-05.0480,-01.6150,-07.9450,-00.079231,+00.060999,+00.053842
+113.040,-031.482,+011.283,+1.458,-0.606,+2.482,-05.0610,-01.5750,-07.9420,-00.083465,+00.084659,+00.042527
+113.105,-031.379,+011.153,+1.454,-0.596,+2.514,-05.0420,-01.5100,-07.9530,-00.084292,+00.106083,+00.020441
+113.145,-031.246,+011.044,+1.449,-0.591,+2.486,-05.0560,-01.4740,-08.0160,-00.069190,+00.126241,-00.005597
+113.160,-031.085,+010.962,+1.440,-0.601,+2.486,-05.0310,-01.4130,-07.9660,-00.060084,+00.148146,-00.025985
+113.154,-030.909,+010.904,+1.445,-0.616,+2.519,-04.9030,-01.4100,-07.9960,-00.046790,+00.149579,-00.037758
+113.140,-030.743,+010.863,+1.445,-0.566,+2.513,-04.7830,-01.5920,-08.0360,-00.040874,+00.132862,-00.037286
+113.128,-030.598,+010.831,+1.426,-0.606,+2.529,-04.7920,-01.5020,-08.0280,-00.031182,+00.116114,-00.032027
+113.113,-030.468,+010.808,+1.440,-0.611,+2.513,-04.8620,-01.5470,-08.0020,-00.023623,+00.105143,-00.036873
+113.091,-030.342,+010.802,+1.440,-0.601,+2.513,-04.7540,-01.5530,-08.0090,-00.015228,+00.102217,-00.035007
+113.076,-030.232,+010.793,+1.431,-0.616,+2.491,-04.7400,-01.5450,-08.0260,-00.013606,+00.085810,-00.025544
+113.066,-030.136,+010.781,+1.426,-0.601,+2.540,-04.7360,-01.4700,-08.0530,-00.012074,+00.078371,-00.023555
+113.054,-030.049,+010.782,+1.417,-0.616,+2.518,-04.7220,-01.5260,-08.0860,+00.001054,+00.070535,-00.023837
+113.041,-029.967,+010.788,+1.431,-0.601,+2.513,-04.6430,-01.5240,-08.0990,+00.000566,+00.062631,-00.021614
+113.029,-029.899,+010.795,+1.421,-0.606,+2.545,-04.7000,-01.5270,-08.1000,+00.000314,+00.054524,-00.018531
+113.021,-029.834,+010.803,+1.407,-0.601,+2.517,-04.6510,-01.5420,-08.0700,+00.003566,+00.055049,-00.015924
+113.013,-029.772,+010.810,+1.421,-0.611,+2.512,-04.6480,-01.5240,-08.0750,+00.003952,+00.047664,-00.014356
+113.008,-029.721,+010.814,+1.417,-0.606,+2.545,-04.5970,-01.5690,-08.0820,-00.001734,+00.036695,-00.008495
+113.007,-029.686,+010.811,+1.407,-0.596,+2.512,-04.6740,-01.5900,-08.0650,-00.007497,+00.026779,-00.003302
+113.013,-029.656,+010.797,+1.407,-0.611,+2.533,-04.6710,-01.5840,-08.0960,-00.014101,+00.027282,+00.002946
+113.025,-029.631,+010.772,+1.417,-0.620,+2.550,-04.6850,-01.5420,-08.0750,-00.019477,+00.021212,+00.006011
+113.038,-029.607,+010.746,+1.412,-0.601,+2.528,-04.6740,-01.4980,-08.1130,-00.014542,+00.020817,+00.004578
+113.047,-029.586,+010.727,+1.412,-0.616,+2.512,-04.6840,-01.4810,-08.0950,-00.007603,+00.016266,+00.000600
+113.050,-029.566,+010.721,+1.403,-0.620,+2.539,-04.6600,-01.4910,-08.1080,+00.000807,+00.017417,-00.003465
+113.049,-029.547,+010.722,+1.403,-0.605,+2.544,-04.6420,-01.5510,-08.1220,+00.000987,+00.015719,-00.005046
+113.049,-029.526,+010.721,+1.403,-0.625,+2.544,-04.6600,-01.5770,-08.1240,-00.004933,+00.017856,-00.000619
+113.056,-029.505,+010.704,+1.403,-0.615,+2.544,-04.6820,-01.5920,-08.1240,-00.018220,+00.021548,+00.005570
+113.073,-029.482,+010.667,+1.403,-0.596,+2.528,-04.6580,-01.5680,-08.1420,-00.030911,+00.024424,+00.012666
+113.097,-029.454,+010.617,+1.403,-0.620,+2.528,-04.6430,-01.5660,-08.1360,-00.037603,+00.027718,+00.016099
+113.124,-029.427,+010.560,+1.398,-0.605,+2.538,-04.6640,-01.4820,-08.1100,-00.035833,+00.024627,+00.015026
+113.151,-029.401,+010.506,+1.398,-0.606,+2.522,-04.6550,-01.4870,-08.1270,-00.035572,+00.021748,+00.016121
+113.177,-029.379,+010.455,+1.393,-0.591,+2.527,-04.6340,-01.4920,-08.1670,-00.028624,+00.023111,+00.014050
+113.203,-029.358,+010.404,+1.407,-0.640,+2.544,-04.6260,-01.4840,-08.1470,-00.036224,+00.019226,+00.018713
+113.233,-029.340,+010.349,+1.403,-0.630,+2.506,-04.6380,-01.4690,-08.1120,-00.031746,+00.019650,+00.017219
+113.260,-029.320,+010.301,+1.393,-0.610,+2.544,-04.6610,-01.4490,-08.1250,-00.027488,+00.020992,+00.015119
+113.283,-029.301,+010.258,+1.389,-0.635,+2.533,-04.6390,-01.4510,-08.0960,-00.027755,+00.017864,+00.015010
+113.306,-029.283,+010.217,+1.393,-0.610,+2.522,-04.6120,-01.4720,-08.1780,-00.025783,+00.015856,+00.013403
+113.327,-029.268,+010.178,+1.389,-0.620,+2.522,-04.6310,-01.4460,-08.1410,-00.020925,+00.013015,+00.012956
+113.344,-029.255,+010.146,+1.393,-0.630,+2.522,-04.5980,-01.4460,-08.1390,-00.014917,+00.011229,+00.009664
+113.359,-029.248,+010.120,+1.398,-0.615,+2.517,-04.6130,-01.4150,-08.1330,-00.012283,+00.006739,+00.008189
+113.371,-029.241,+010.098,+1.393,-0.620,+2.506,-04.6090,-01.4590,-08.1620,-00.014179,+00.002945,+00.010434
+113.383,-029.240,+010.076,+1.384,-0.635,+2.543,-04.6110,-01.4310,-08.1390,-00.010297,+00.002813,+00.007106
+113.394,-029.237,+010.059,+1.393,-0.615,+2.544,-04.6410,-01.4450,-08.1280,-00.007728,+00.004195,+00.005326
+113.402,-029.232,+010.046,+1.403,-0.640,+2.496,-04.6120,-01.4380,-08.1390,-00.007620,+00.004803,+00.005114
+113.410,-029.225,+010.032,+1.389,-0.630,+2.544,-04.6230,-01.4100,-08.1380,-00.007894,+00.005131,+00.004687
+113.418,-029.216,+010.018,+1.384,-0.630,+2.527,-04.6030,-01.4310,-08.1530,-00.009135,+00.005670,+00.005638
+113.428,-029.210,+010.000,+1.398,-0.640,+2.522,-04.6120,-01.4580,-08.1770,-00.012295,+00.005024,+00.007060
+113.440,-029.204,+009.980,+1.393,-0.630,+2.544,-04.6200,-01.4000,-08.1540,-00.010739,+00.004686,+00.007910
+113.451,-029.200,+009.961,+1.403,-0.616,+2.512,-04.6190,-01.4450,-08.1710,-00.013939,+00.003988,+00.009834
+113.465,-029.197,+009.938,+1.393,-0.615,+2.517,-04.5860,-01.4350,-08.1740,-00.012811,+00.000566,+00.011470
+113.480,-029.199,+009.917,+1.398,-0.655,+2.533,-04.6220,-01.3940,-08.1630,-00.010266,-00.003502,+00.010788
+113.493,-029.203,+009.899,+1.389,-0.630,+2.517,-04.6480,-01.3830,-08.1700,-00.006124,+00.000607,+00.008178
+113.504,-029.208,+009.886,+1.393,-0.635,+2.533,-04.6300,-01.3810,-08.1990,-00.003055,-00.000101,+00.006735
+113.510,-029.211,+009.878,+1.393,-0.615,+2.538,-04.6060,-01.4140,-08.1590,-00.003376,-00.004205,+00.005678
+113.517,-029.216,+009.868,+1.398,-0.601,+2.522,-04.6430,-01.4100,-08.1160,-00.006649,-00.003317,+00.008216
+113.526,-029.220,+009.855,+1.398,-0.650,+2.523,-04.6230,-01.4260,-08.1700,-00.006119,-00.001059,+00.006438
+113.533,-029.224,+009.845,+1.398,-0.650,+2.528,-04.6230,-01.3980,-08.1720,-00.004298,-00.004247,+00.004737
+113.540,-029.230,+009.836,+1.389,-0.610,+2.516,-04.6260,-01.4000,-08.1750,-00.004670,-00.006733,+00.006263
+113.546,-029.236,+009.826,+1.389,-0.625,+2.517,-04.6270,-01.4140,-08.1700,-00.003136,-00.003583,+00.004218
+113.549,-029.242,+009.822,+1.380,-0.615,+2.543,-04.6100,-01.4100,-08.1730,-00.001085,-00.005646,+00.002664
+113.552,-029.247,+009.819,+1.384,-0.630,+2.527,-04.6350,-01.3880,-08.1510,+00.000833,-00.004858,+00.001903
+113.554,-029.254,+009.820,+1.389,-0.625,+2.527,-04.6140,-01.3910,-08.1380,-00.001399,-00.007434,+00.003635
+113.558,-029.262,+009.817,+1.393,-0.635,+2.538,-04.6080,-01.3630,-08.1460,+00.003533,-00.011037,+00.002549
+113.560,-029.268,+009.818,+1.398,-0.635,+2.517,-04.6090,-01.3720,-08.1310,+00.004276,-00.008452,+00.001840
+113.560,-029.279,+009.822,+1.389,-0.650,+2.528,-04.6490,-01.3980,-08.1420,+00.004247,-00.005481,+00.000333
+113.560,-029.285,+009.826,+1.389,-0.650,+2.533,-04.6720,-01.4210,-08.1690,+00.004990,-00.004650,+00.001270
+113.560,-029.290,+009.831,+1.393,-0.630,+2.517,-04.6240,-01.3840,-08.1450,+00.004320,-00.003684,-00.000301
+113.559,-029.295,+009.835,+1.393,-0.655,+2.517,-04.6230,-01.4220,-08.1410,+00.000488,-00.006822,+00.002798
+113.560,-029.302,+009.836,+1.398,-0.615,+2.539,-04.6210,-01.4180,-08.1450,-00.000362,-00.007844,+00.004137
+113.562,-029.310,+009.834,+1.398,-0.620,+2.512,-04.6260,-01.3970,-08.1530,+00.001551,-00.006225,+00.003519
+113.565,-029.319,+009.834,+1.389,-0.630,+2.517,-04.6400,-01.3970,-08.1470,+00.003171,-00.005993,+00.002321
+113.567,-029.324,+009.835,+1.398,-0.645,+2.533,-04.6160,-01.3900,-08.1560,+00.005867,-00.005483,+00.000870
+113.566,-029.328,+009.842,+1.393,-0.640,+2.522,-04.5940,-01.3970,-08.1220,+00.005280,-00.008573,+00.001677
+113.568,-029.340,+009.848,+1.393,-0.640,+2.533,-04.5950,-01.4160,-08.1410,+00.004121,-00.015408,+00.005027
+113.574,-029.359,+009.846,+1.398,-0.620,+2.549,-04.6720,-01.3990,-08.1220,+00.002827,-00.015177,+00.009357
+113.582,-029.376,+009.844,+1.398,-0.620,+2.528,-04.6410,-01.4200,-08.1430,+00.000712,-00.012976,+00.009155
+113.591,-029.393,+009.840,+1.389,-0.620,+2.533,-04.6390,-01.4120,-08.1320,+00.001284,-00.014089,+00.010768
+113.603,-029.410,+009.833,+1.398,-0.655,+2.544,-04.6770,-01.3880,-08.1840,-00.000069,-00.014091,+00.009772
+113.611,-029.423,+009.831,+1.403,-0.635,+2.496,-04.6270,-01.3910,-08.1580,+00.004079,-00.010322,+00.006730
+113.618,-029.435,+009.832,+1.398,-0.640,+2.517,-04.6290,-01.4390,-08.1310,+00.004570,-00.012146,+00.008130
+113.627,-029.450,+009.834,+1.398,-0.625,+2.528,-04.6640,-01.3990,-08.1660,+00.010018,-00.009752,+00.008685
+113.636,-029.462,+009.836,+1.403,-0.606,+2.539,-04.6340,-01.3950,-08.1410,+00.004705,-00.008420,+00.008291
+113.643,-029.477,+009.839,+1.393,-0.635,+2.522,-04.6800,-01.3810,-08.1650,+00.008527,-00.010514,+00.007178
+113.651,-029.490,+009.842,+1.403,-0.635,+2.539,-04.6700,-01.3670,-08.1440,+00.010296,-00.009582,+00.007640
+113.658,-029.503,+009.844,+1.398,-0.635,+2.522,-04.6060,-01.4010,-08.1410,+00.001656,-00.011099,+00.007979
+113.668,-029.518,+009.841,+1.393,-0.635,+2.506,-04.7050,-01.3860,-08.1250,+00.002168,-00.011779,+00.010223
+113.681,-029.533,+009.835,+1.398,-0.640,+2.539,-04.6920,-01.4020,-08.1270,+00.001054,-00.009874,+00.010336
+113.691,-029.545,+009.831,+1.393,-0.601,+2.517,-04.6370,-01.4220,-08.1220,+00.000212,-00.009214,+00.009541
+113.705,-029.558,+009.823,+1.403,-0.655,+2.517,-04.7030,-01.3850,-08.1000,-00.001487,-00.006557,+00.011044
+113.716,-029.565,+009.816,+1.398,-0.635,+2.539,-04.6960,-01.3660,-08.1510,-00.000897,-00.004530,+00.007476
+113.725,-029.569,+009.811,+1.398,-0.591,+2.511,-04.6690,-01.3970,-08.1460,+00.000973,-00.003550,+00.006319
+113.732,-029.574,+009.809,+1.407,-0.640,+2.512,-04.6490,-01.4060,-08.0940,+00.000634,-00.005128,+00.008001
+113.742,-029.580,+009.805,+1.389,-0.650,+2.533,-04.6880,-01.3920,-08.1100,-00.000907,-00.003798,+00.009980
+113.751,-029.585,+009.799,+1.403,-0.620,+2.528,-04.6860,-01.3850,-08.1240,-00.000658,-00.002628,+00.006886
+113.759,-029.588,+009.794,+1.398,-0.655,+2.517,-04.6450,-01.3980,-08.1500,-00.000557,-00.003202,+00.006642
+113.768,-029.593,+009.791,+1.393,-0.665,+2.533,-04.6830,-01.3920,-08.1360,+00.000532,-00.004216,+00.007793
+113.775,-029.599,+009.788,+1.398,-0.635,+2.512,-04.6910,-01.3820,-08.1220,+00.001869,-00.004066,+00.005706
+113.782,-029.603,+009.786,+1.389,-0.625,+2.522,-04.6690,-01.4070,-08.1380,+00.000692,-00.004162,+00.006786
+113.789,-029.612,+009.784,+1.403,-0.660,+2.512,-04.6760,-01.3920,-08.1380,+00.003086,-00.006120,+00.006250
+113.796,-029.622,+009.783,+1.398,-0.625,+2.517,-04.6970,-01.3940,-08.1250,+00.002709,-00.007621,+00.005801
+113.802,-029.630,+009.784,+1.407,-0.650,+2.518,-04.6950,-01.3820,-08.1540,+00.005463,-00.006794,+00.003385
+113.804,-029.640,+009.790,+1.403,-0.611,+2.539,-04.6880,-01.4110,-08.0990,+00.006171,-00.007193,+00.002669
+113.805,-029.644,+009.796,+1.393,-0.620,+2.517,-04.6740,-01.4120,-08.1460,+00.006172,-00.005219,+00.001315
+113.808,-029.650,+009.802,+1.403,-0.640,+2.517,-04.6720,-01.3990,-08.1210,+00.004823,-00.007594,+00.004459
+113.813,-029.660,+009.804,+1.403,-0.645,+2.517,-04.7000,-01.4020,-08.1360,+00.005402,-00.006014,+00.003778
+113.815,-029.668,+009.806,+1.389,-0.635,+2.506,-04.7180,-01.3860,-08.0690,+00.004627,-00.002919,+00.001616
+113.819,-029.670,+009.808,+1.389,-0.650,+2.517,-04.6820,-01.3800,-08.1130,+00.003052,-00.002732,+00.003143
+113.824,-029.672,+009.809,+1.398,-0.640,+2.533,-04.6910,-01.3890,-08.0870,+00.003502,-00.001921,+00.005639
+113.830,-029.677,+009.809,+1.393,-0.625,+2.506,-04.6920,-01.3920,-08.1190,+00.003325,-00.002953,+00.005821
+113.835,-029.683,+009.809,+1.398,-0.640,+2.512,-04.6790,-01.3920,-08.0810,+00.003323,-00.005889,+00.005567
+113.841,-029.693,+009.811,+1.393,-0.655,+2.522,-04.6910,-01.3760,-08.0950,+00.005516,-00.009107,+00.003897
+113.846,-029.704,+009.816,+1.403,-0.596,+2.517,-04.6860,-01.3860,-08.0990,+00.007834,-00.011472,+00.005935
+113.850,-029.719,+009.824,+1.407,-0.650,+2.518,-04.6670,-01.3990,-08.0880,+00.010314,-00.014205,+00.004975
+113.852,-029.735,+009.834,+1.407,-0.660,+2.534,-04.6920,-01.4030,-08.1080,+00.008714,-00.013141,+00.004148
+113.854,-029.748,+009.843,+1.407,-0.601,+2.523,-04.6940,-01.4120,-08.0830,+00.007453,-00.011878,+00.003734
+113.859,-029.762,+009.848,+1.393,-0.645,+2.522,-04.7410,-01.4010,-08.0980,+00.005697,-00.009538,+00.005502
+113.864,-029.776,+009.850,+1.407,-0.635,+2.523,-04.7410,-01.4170,-08.1050,+00.004050,-00.009322,+00.004873
+113.866,-029.785,+009.853,+1.417,-0.641,+2.502,-04.6940,-01.3880,-08.1010,+00.003383,-00.007626,+00.004446
+113.870,-029.794,+009.856,+1.403,-0.645,+2.512,-04.6900,-01.4080,-08.0860,+00.003065,-00.007825,+00.004324
+113.875,-029.803,+009.856,+1.403,-0.645,+2.534,-04.6790,-01.4090,-08.1260,+00.003256,-00.010947,+00.008356
+113.885,-029.819,+009.856,+1.407,-0.616,+2.517,-04.6770,-01.3760,-08.0790,+00.004295,-00.013352,+00.010991
+113.898,-029.837,+009.854,+1.412,-0.651,+2.491,-04.6830,-01.3960,-08.0880,+00.006208,-00.018272,+00.013085
+113.911,-029.865,+009.858,+1.407,-0.640,+2.523,-04.7020,-01.4230,-08.0880,+00.010506,-00.026161,+00.016953
+113.927,-029.901,+009.862,+1.407,-0.601,+2.517,-04.7570,-01.4120,-08.1060,+00.011945,-00.032514,+00.016694
+113.938,-029.939,+009.872,+1.398,-0.635,+2.512,-04.7580,-01.4070,-08.1130,+00.014969,-00.031387,+00.011448
+113.944,-029.977,+009.888,+1.403,-0.630,+2.534,-04.7560,-01.4010,-08.0760,+00.017990,-00.030298,+00.006957
+113.946,-030.013,+009.908,+1.407,-0.631,+2.512,-04.7380,-01.3850,-08.0830,+00.020685,-00.032264,+00.004600
+113.943,-030.051,+009.936,+1.412,-0.650,+2.529,-04.7600,-01.3960,-08.0600,+00.024205,-00.033779,+00.003133
+113.936,-030.090,+009.968,+1.412,-0.621,+2.523,-04.7650,-01.4350,-08.0630,+00.024564,-00.033650,+00.000583
+113.929,-030.124,+010.000,+1.412,-0.621,+2.496,-04.7600,-01.4420,-08.0720,+00.023557,-00.029420,-00.000101
+113.923,-030.153,+010.028,+1.403,-0.635,+2.512,-04.7670,-01.4630,-08.0910,+00.019147,-00.024333,+00.001221
+113.921,-030.178,+010.047,+1.417,-0.631,+2.513,-04.7990,-01.4320,-08.1080,+00.014172,-00.016721,+00.000303
+113.919,-030.192,+010.059,+1.421,-0.631,+2.507,-04.7960,-01.4390,-08.0670,+00.005075,-00.012343,-00.000248
+113.918,-030.199,+010.064,+1.412,-0.636,+2.518,-04.8060,-01.4260,-08.0810,+00.001560,-00.000461,-00.002400
+113.919,-030.196,+010.060,+1.412,-0.640,+2.529,-04.8040,-01.4770,-08.0760,-00.007368,+00.007963,+00.002604
+113.925,-030.181,+010.046,+1.421,-0.626,+2.513,-04.8160,-01.4810,-08.0750,-00.012614,+00.019443,+00.002261
+113.933,-030.157,+010.029,+1.417,-0.636,+2.523,-04.7870,-01.4200,-08.0870,-00.012566,+00.023863,+00.000368
+113.938,-030.128,+010.013,+1.417,-0.621,+2.529,-04.7640,-01.4480,-08.0990,-00.012292,+00.028110,-00.002724
+113.938,-030.095,+009.998,+1.426,-0.631,+2.491,-04.7910,-01.4140,-08.0700,-00.010880,+00.031858,-00.007849
+113.935,-030.056,+009.983,+1.412,-0.631,+2.523,-04.7650,-01.3980,-08.0610,-00.016103,+00.035058,-00.008396
+113.931,-030.011,+009.963,+1.403,-0.650,+2.534,-04.7610,-01.4240,-08.0860,-00.020489,+00.041417,-00.010557
+113.930,-029.959,+009.940,+1.412,-0.636,+2.502,-04.6990,-01.4270,-08.1050,-00.020281,+00.041972,-00.008452
+113.928,-029.913,+009.915,+1.412,-0.636,+2.518,-04.7190,-01.3970,-08.1030,-00.019970,+00.037554,-00.009349
+113.926,-029.873,+009.894,+1.403,-0.635,+2.528,-04.7390,-01.3870,-08.0860,-00.016070,+00.030975,-00.009331
+113.918,-029.838,+009.880,+1.403,-0.645,+2.507,-04.7430,-01.3360,-08.0820,-00.011473,+00.028039,-00.013829
+113.902,-029.803,+009.876,+1.403,-0.640,+2.523,-04.7200,-01.3910,-08.0910,-00.008018,+00.031312,-00.020842
+113.883,-029.765,+009.877,+1.403,-0.630,+2.544,-04.7040,-01.3860,-08.1180,-00.005080,+00.029389,-00.022978
+113.856,-029.731,+009.883,+1.403,-0.631,+2.496,-04.7420,-01.3650,-08.1250,-00.007760,+00.024406,-00.027567
+113.822,-029.696,+009.900,+1.398,-0.640,+2.501,-04.7280,-01.4020,-08.1090,+00.000374,+00.024261,-00.032719
+113.785,-029.661,+009.920,+1.389,-0.650,+2.528,-04.6470,-01.4270,-08.1350,+00.001958,+00.023166,-00.030516
+113.756,-029.629,+009.938,+1.403,-0.621,+2.517,-04.6760,-01.4300,-08.0930,+00.003606,+00.022415,-00.022595
