Yaw,Pitch,Roll,MagX,MagY,MagZ,AccelX,AccelY,AccelZ,GyroX,GyroY,GyroZ
+147.973,-021.296,-006.286,-0.127,-0.003,+2.603,-03.4490,+00.9530,-08.7600,+00.020759,+00.017433,-00.003871
+147.961,-021.276,-006.254,-0.127,-0.018,+2.592,-03.4000,+00.9430,-08.7630,+00.027821,+00.018382,-00.009484
+147.943,-021.258,-006.212,-0.137,-0.033,+2.576,-03.4030,+00.9370,-08.7450,+00.034227,+00.015420,-00.015194
+147.920,-021.242,-006.173,-0.137,-0.013,+2.592,-03.4140,+00.8560,-08.7340,+00.023202,+00.017044,-00.015154
+147.904,-021.224,-006.149,-0.127,+0.012,+2.565,-03.4270,+00.9090,-08.7860,+00.010479,+00.015996,-00.009328
+147.899,-021.203,-006.137,-0.127,+0.007,+2.587,-03.4460,+00.9570,-08.7740,+00.008536,+00.020457,-00.000760
+147.898,-021.182,-006.130,-0.127,-0.023,+2.603,-03.4970,+00.9410,-08.7720,+00.003876,+00.019109,+00.004886
+147.907,-021.154,-006.132,-0.123,+0.012,+2.582,-03.4360,+00.9200,-08.7810,-00.000969,+00.027437,+00.012073
+147.918,-021.119,-006.136,-0.127,-0.023,+2.571,-03.4050,+00.8480,-08.7990,-00.002356,+00.030936,+00.013079
+147.939,-021.085,-006.156,-0.127,-0.023,+2.592,-03.4170,+00.8450,-08.7510,-00.019826,+00.030611,+00.026460
+147.979,-021.047,-006.196,-0.137,-0.028,+2.576,-03.3380,+00.8650,-08.8260,-00.018713,+00.028854,+00.041285
+148.026,-021.014,-006.245,-0.132,-0.008,+2.581,-03.3500,+00.8060,-08.8000,-00.039385,+00.022733,+00.041556
+148.069,-020.986,-006.311,-0.137,-0.023,+2.608,-03.3680,+00.9900,-08.7550,-00.038378,+00.015582,+00.035506
+148.100,-020.966,-006.367,-0.146,+0.002,+2.564,-03.3820,+01.0440,-08.7760,-00.031954,+00.012005,+00.020165
+148.105,-020.938,-006.404,-0.132,-0.033,+2.592,-03.3870,+01.0670,-08.7880,-00.020907,+00.026132,-00.003447
+148.083,-020.898,-006.432,-0.141,-0.033,+2.597,-03.3560,+00.9270,-08.7310,-00.033414,+00.036973,-00.015280
+148.055,-020.856,-006.451,-0.141,-0.008,+2.586,-03.4420,+01.1850,-08.7370,-00.014029,+00.041209,-00.021365
+148.021,-020.802,-006.458,-0.146,-0.028,+2.586,-03.3510,+01.0250,-08.7570,-00.018824,+00.045871,-00.018529
+148.023,-020.769,-006.549,-0.146,-0.042,+2.597,-03.2600,+00.3800,-08.6750,-00.135896,+00.013341,+00.032498
+148.119,-020.785,-006.820,-0.141,+0.017,+2.581,-03.2190,+00.9010,-08.8090,-00.227162,-00.023579,+00.093782
+148.252,-020.819,-007.151,-0.137,-0.048,+2.587,-03.4070,+01.3170,-08.7880,-00.243549,-00.050807,+00.101531
+148.364,-020.862,-007.430,-0.141,-0.062,+2.592,-03.4450,+01.2630,-08.8350,-00.189990,-00.043516,+00.075940
+148.449,-020.903,-007.654,-0.132,-0.033,+2.565,-03.4320,+01.2800,-08.7490,-00.153639,-00.037737,+00.056831
+148.518,-020.936,-007.844,-0.137,-0.077,+2.576,-03.3650,+01.1480,-08.7530,-00.139049,-00.035497,+00.047854
+148.575,-020.966,-008.011,-0.141,-0.072,+2.603,-03.3820,+01.2550,-08.7410,-00.119322,-00.026774,+00.037118
+148.603,-020.982,-008.135,-0.137,-0.058,+2.581,-03.3730,+01.2420,-08.7970,-00.082622,-00.010956,+00.006023
+148.588,-020.982,-008.181,-0.142,-0.072,+2.571,-03.3980,+01.2410,-08.8100,-00.024323,+00.008069,-00.020802
+148.550,-020.965,-008.135,-0.132,-0.077,+2.587,-03.3850,+01.2690,-08.7980,+00.072950,+00.024723,-00.036947
+148.482,-020.939,-007.969,-0.137,-0.058,+2.576,-03.3340,+01.1710,-08.8360,+00.146209,+00.032845,-00.060698
+148.392,-020.922,-007.747,-0.151,-0.028,+2.570,-03.3110,+01.2310,-08.7910,+00.167717,+00.011314,-00.078959
+148.286,-020.928,-007.511,-0.137,-0.048,+2.592,-03.2020,+01.0790,-08.5840,+00.154900,-00.013410,-00.088716
+148.170,-020.947,-007.278,-0.141,-0.013,+2.570,-03.3520,+01.1470,-08.7430,+00.158896,-00.001314,-00.099763
+148.053,-020.969,-007.082,-0.146,-0.028,+2.570,-03.4010,+01.0710,-08.6520,+00.116193,-00.009065,-00.094000
+147.944,-020.977,-006.917,-0.146,-0.042,+2.608,-03.2990,+00.9610,-08.6680,+00.097887,+00.001058,-00.086328
+147.843,-020.989,-006.778,-0.137,-0.023,+2.581,-03.2940,+01.0150,-08.6830,+00.078956,-00.008355,-00.084343
+147.735,-020.999,-006.653,-0.141,-0.028,+2.592,-03.1850,+00.9940,-08.6650,+00.066058,-00.007363,-00.093117
+147.605,-021.023,-006.532,-0.132,-0.043,+2.587,-03.2360,+00.9920,-08.5670,+00.053358,-00.018159,-00.115930
+147.467,-021.093,-006.439,-0.132,-0.018,+2.587,-03.2330,+00.9020,-08.6310,+00.027619,-00.065461,-00.123648
+147.316,-021.214,-006.380,-0.127,-0.018,+2.565,-03.2170,+00.8670,-08.5910,-00.007130,-00.114458,-00.137364
+147.174,-021.394,-006.349,-0.127,-0.048,+2.604,-03.3300,+00.9080,-08.5880,-00.024726,-00.161213,-00.130419
+147.030,-021.637,-006.339,-0.113,-0.018,+2.588,-03.4050,+00.9810,-08.7500,-00.029819,-00.214693,-00.143089
+146.849,-021.951,-006.264,-0.118,-0.033,+2.571,-03.4710,+01.1300,-08.7380,+00.033623,-00.280980,-00.202406
+146.590,-022.351,-006.085,-0.090,-0.048,+2.611,-03.5030,+01.0950,-08.7260,+00.091140,-00.353925,-00.264547
+146.304,-022.850,-005.851,-0.076,-0.023,+2.584,-03.9030,+00.8390,-08.6780,+00.118875,-00.446522,-00.279996
+146.027,-023.473,-005.561,-0.062,-0.023,+2.590,-03.8750,+01.0920,-08.5900,+00.190153,-00.585008,-00.284676
+145.803,-024.305,-005.154,-0.029,+0.001,+2.618,-03.7370,+01.0630,-08.7730,+00.331525,-00.793444,-00.216029
+145.658,-025.405,-004.628,+0.004,+0.006,+2.598,-03.5970,+00.7990,-08.7420,+00.449800,-01.038232,-00.184056
+145.600,-026.777,-004.043,+0.055,+0.020,+2.606,-03.9330,+00.5880,-08.5560,+00.509022,-01.290331,-00.094464
+145.755,-028.445,-003.514,+0.102,+0.030,+2.618,-03.7650,+00.6020,-08.7250,+00.544047,-01.570246,+00.132773
+146.352,-030.559,-003.080,+0.181,+0.069,+2.600,-04.6890,+00.7060,-08.4460,+00.689969,-02.053496,+00.474561
+147.399,-033.321,-002.813,+0.279,+0.093,+2.604,-04.2280,+00.5140,-08.7210,+00.801861,-02.636809,+00.618482
+148.774,-036.900,-002.773,+0.382,+0.142,+2.592,-04.7130,+01.3580,-08.9030,+00.868111,-03.436606,+00.805402
+150.210,-041.365,-002.739,+0.541,+0.160,+2.561,-03.8860,+00.1040,-10.5070,+00.831893,-04.203679,+00.652257
+151.500,-046.939,-002.659,+0.732,+0.173,+2.504,-05.2070,+01.3130,-09.8760,+00.978813,-05.295359,+00.262755
+151.745,-053.749,-002.115,+0.900,+0.206,+2.440,-07.8690,+00.0250,-10.8850,+00.452732,-06.318697,-00.243642
+151.523,-061.736,-002.578,+1.166,+0.202,+2.256,-11.5280,-00.1440,-12.4440,-01.110892,-07.326494,-00.449435
+151.018,-070.669,-004.587,+1.409,+0.144,+2.039,-10.6460,-00.5500,-09.5710,-02.397073,-08.031816,-00.931187
+147.226,-079.684,-004.648,+1.586,+0.111,+1.841,-10.8700,+01.0500,-14.8070,-03.700623,-07.458479,-01.732151
+127.123,-086.079,+011.754,+1.716,+0.129,+1.613,-07.7980,+05.7640,-21.2930,-02.325964,-04.088383,-01.783359
+103.354,-086.727,+035.382,+1.744,+0.148,+1.538,-04.2080,+06.4020,-29.7210,+00.309737,+00.434733,-00.345718
+115.955,-084.958,+023.435,+1.726,+0.168,+1.553,+01.3880,+02.3480,-09.6560,+00.651915,+02.025913,+00.059911
+125.202,-082.944,+014.442,+1.698,+0.179,+1.568,+02.2580,+00.4900,-04.7460,-00.176344,+01.848359,+00.322236
+131.630,-080.812,+007.590,+1.684,+0.154,+1.605,-00.1450,+01.2150,-10.0360,-00.440968,+02.178806,+00.469150
+136.412,-077.559,+002.821,+1.670,+0.145,+1.686,-02.6300,+01.5990,-14.1030,+00.189850,+03.397117,+00.574759
+139.912,-072.726,-000.141,+1.623,+0.126,+1.793,-03.8680,+00.0810,-11.5420,+00.401641,+04.659661,+00.747666
+142.184,-066.926,-002.042,+1.516,+0.088,+1.957,-05.2140,-01.6510,-07.2360,+00.046075,+05.187239,+00.748534
+143.443,-060.959,-003.319,+1.409,+0.040,+2.127,-05.3560,-01.0380,-06.3210,-00.208948,+05.122634,+00.724140
+144.190,-055.149,-004.165,+1.213,+0.027,+2.276,-07.2210,-01.2610,-08.5670,-00.141921,+05.015404,+00.628917
+144.524,-049.241,-004.548,+1.007,+0.000,+2.398,-08.9730,-00.1910,-10.6720,-00.089667,+05.221200,+00.563031
+144.969,-043.180,-004.841,+0.821,-0.053,+2.482,-09.3170,+01.4830,-09.4740,+00.102013,+05.209808,+00.824578
+145.816,-037.442,-005.233,+0.638,-0.041,+2.523,-09.9930,+00.4950,-08.5970,+00.150588,+04.737771,+01.083688
+146.741,-032.348,-005.584,+0.452,-0.074,+2.531,-11.4180,-00.5420,-10.4340,+00.144373,+04.157002,+01.031918
+147.344,-027.736,-005.706,+0.330,-0.072,+2.542,-12.4670,-00.6060,-11.6160,+00.175304,+03.866779,+00.726871
+147.554,-023.444,-005.713,+0.241,-0.037,+2.457,-12.5820,+00.3040,-11.4620,+00.005147,+03.618939,+00.442062
+147.558,-019.414,-005.810,+0.213,-0.076,+2.477,-13.2350,+01.2680,-12.6300,-00.117679,+03.455978,+00.310261
+147.412,-015.351,-005.855,+0.153,-0.041,+2.545,-14.4900,+01.9120,-13.0350,-00.023666,+03.615059,+00.185763
+147.041,-011.123,-005.828,+0.022,-0.069,+2.638,-14.0200,+00.2780,-08.9980,-00.129595,+03.701884,-00.022600
+146.403,-007.107,-006.218,-0.188,-0.081,+2.721,-14.3180,-01.6590,-05.2550,-00.610263,+03.411594,-00.279068
+145.479,-003.657,-006.981,-0.352,-0.109,+2.736,-14.2710,-00.7950,-01.7480,-00.722228,+02.853173,-00.522921
+144.611,-001.089,-007.588,-0.515,-0.113,+2.707,-14.1730,+01.2600,+00.3490,-00.439038,+01.988449,-00.376416
+144.256,+000.651,-007.768,-0.632,-0.127,+2.669,-14.2720,+02.2620,+01.5770,+00.027705,+01.277357,+00.078680
+144.510,+001.499,-007.365,-0.693,-0.121,+2.672,-13.0970,+01.8580,+03.7840,+00.499452,+00.311084,+00.424555
+145.171,+001.224,-006.717,-0.692,-0.062,+2.677,-12.8960,+01.2590,-00.3060,+00.522893,-00.597060,+00.613776
+146.020,+000.320,-006.223,-0.688,-0.032,+2.709,-09.6740,+00.1230,-04.0710,+00.380440,-01.018437,+00.625058
+146.651,-001.072,-005.863,-0.660,-0.027,+2.754,-06.7400,-00.6260,-07.0520,+00.327885,-01.379864,+00.270672
+146.592,-002.754,-005.215,-0.631,+0.018,+2.793,+09.5330,+02.5510,-20.3660,+00.636880,-01.528042,-00.474202
+145.585,-004.942,-005.633,-0.571,-0.007,+2.839,+08.3200,+05.3700,+00.0390,-01.050246,-02.674212,-01.182283
+145.442,-009.602,-006.056,-0.454,-0.053,+2.921,-13.8360,-02.4850,-14.9640,-00.353051,-04.221703,-00.156010
+145.379,-013.844,-006.081,-0.309,-0.019,+2.965,-06.9330,-01.7910,-14.0910,-00.302237,-03.490605,-00.718799
+145.254,-017.364,-006.376,-0.197,-0.050,+3.014,-12.5580,+02.4770,-24.7910,-00.235088,-02.625781,-00.310980
+145.229,-019.272,-006.754,-0.141,-0.050,+3.049,-03.4670,+01.6260,-13.0460,-00.215710,-01.331918,-00.083499
+145.326,-020.221,-007.048,-0.090,-0.061,+3.046,-04.8480,+01.2350,-10.2220,-00.292725,-00.651199,+00.006141
+145.480,-020.679,-007.512,-0.076,-0.091,+3.030,-03.9480,+01.1980,-09.6460,-00.345331,-00.281975,+00.075819
+145.538,-020.896,-007.826,-0.066,-0.086,+3.058,-03.6290,+01.6210,-08.8430,-00.213896,-00.155987,+00.005628
+145.512,-021.047,-008.027,-0.066,-0.086,+3.047,-03.4990,+01.2590,-08.8650,-00.169980,-00.110289,-00.059120
+145.470,-021.149,-008.146,-0.066,-0.086,+3.052,-03.5580,+01.1540,-08.6650,-00.095874,-00.083062,-00.035892
+145.435,-021.236,-008.166,-0.052,-0.121,+3.048,-03.4820,+01.2040,-08.7960,-00.006962,-00.060926,-00.040026
+145.405,-021.318,-008.157,-0.057,-0.106,+3.042,-03.2270,+01.0380,-08.8440,+00.002373,-00.073978,-00.024315
+145.370,-021.428,-008.130,-0.062,-0.106,+3.042,-03.3290,+01.4490,-08.7300,+00.027760,-00.104081,-00.062554
+145.248,-021.594,-007.996,-0.062,-0.136,+3.064,-03.3250,+01.2870,-08.7280,+00.092171,-00.139281,-00.152348
+145.024,-021.801,-007.802,-0.052,-0.101,+3.053,-03.5260,+01.1020,-08.7260,+00.094825,-00.164382,-00.231180
+144.772,-022.008,-007.617,-0.038,-0.101,+3.026,-03.6580,+01.0240,-08.7270,+00.064397,-00.147509,-00.215993
+144.549,-022.216,-007.470,-0.024,-0.106,+3.071,-03.6570,+01.1790,-08.6860,+00.049786,-00.162598,-00.201636
+144.311,-022.435,-007.330,-0.024,-0.096,+3.060,-03.6740,+01.0850,-08.6050,+00.041862,-00.167097,-00.224587
+144.017,-022.676,-007.143,-0.010,-0.072,+3.044,-03.6850,+01.2700,-08.6760,+00.073458,-00.180569,-00.282182
+143.677,-022.927,-006.931,-0.015,-0.081,+3.054,-03.7550,+01.0720,-08.6910,+00.068009,-00.187097,-00.294930
+143.350,-023.193,-006.732,+0.004,-0.072,+3.061,-03.7580,+01.1010,-08.6500,+00.060654,-00.205994,-00.291471
+142.993,-023.476,-006.516,+0.018,-0.112,+3.056,-03.7410,+01.0090,-08.5910,+00.066197,-00.215814,-00.322704
+142.614,-023.791,-006.273,+0.023,-0.102,+3.078,-03.6960,+01.1020,-08.6340,+00.087879,-00.266925,-00.340336
+142.205,-024.211,-005.991,+0.041,-0.057,+3.057,-04.0390,+00.7200,-08.5610,+00.110958,-00.354329,-00.367382
+141.824,-024.691,-005.671,+0.069,-0.102,+3.075,-03.8620,+00.5460,-08.6710,+00.188345,-00.429476,-00.321549
+141.594,-025.240,-005.283,+0.074,-0.067,+3.064,-03.8870,+00.6650,-08.5680,+00.297525,-00.495243,-00.174887
+141.536,-025.939,-004.825,+0.107,-0.043,+3.070,-03.8890,+00.7660,-08.5720,+00.416209,-00.684390,-00.066724
+141.574,-026.928,-004.286,+0.139,-0.038,+3.066,-04.1970,+00.7870,-08.4530,+00.517442,-00.973679,-00.023879
+141.696,-028.275,-003.719,+0.196,+0.001,+3.090,-04.3080,+00.8220,-08.7000,+00.558662,-01.307349,+00.043316
+141.791,-030.068,-002.998,+0.270,+0.050,+3.071,-04.5220,+00.7300,-08.2860,+00.723350,-01.733923,-00.040315
+141.901,-032.425,-002.178,+0.368,+0.069,+3.054,-04.6490,+00.4490,-08.3820,+00.788633,-02.296218,+00.042967
+142.372,-035.707,-001.490,+0.476,+0.113,+3.064,-02.9850,+00.7000,-08.7300,+00.945390,-03.208968,+00.248525
+142.931,-040.105,-000.752,+0.658,+0.171,+2.995,-05.8800,+00.0620,-08.9120,+00.905360,-04.239143,+00.411759
+144.236,-045.899,-000.723,+0.891,+0.168,+2.880,-04.1490,+00.9520,-11.3310,+00.909047,-05.602502,+00.807490
+145.530,-053.408,-000.727,+1.116,+0.190,+2.819,-05.7810,-01.8010,-13.0390,+00.690005,-07.029708,+00.566759
+147.031,-062.145,-002.098,+1.405,+0.186,+2.582,-12.2510,-02.9970,-08.5450,-00.797753,-08.009734,+00.693557
+151.009,-071.901,-008.399,+1.698,+0.052,+2.243,-11.8990,+01.6340,-11.3980,-02.935729,-09.066476,+00.337656
+159.510,-082.229,-020.456,+1.880,-0.021,+1.931,-10.6730,+01.8330,-18.8720,-03.272036,-08.820980,-01.163140
-105.687,-088.509,-117.418,+2.020,-0.029,+1.551,-05.2450,+03.5730,-24.5790,-00.795231,-05.270858,-01.330879
-043.811,-087.010,-179.309,+2.048,+0.015,+1.405,-03.8130,+00.3510,-33.4070,-00.277100,-00.076312,-00.804561
+006.298,-088.839,+130.319,+2.043,+0.035,+1.454,+00.0260,+02.8520,-16.2530,+00.025133,+02.659693,-00.727708
+107.893,-086.805,+029.100,+2.029,+0.076,+1.551,+01.2840,+02.9300,-08.1650,+00.461292,+03.283155,-00.452125
+122.458,-082.963,+015.384,+1.955,+0.132,+1.732,+00.4060,+02.9240,-07.4520,+00.810353,+03.634450,-00.072655
+129.674,-078.463,+009.387,+1.848,+0.109,+1.945,-02.1430,+02.6330,-10.6970,+01.066791,+04.382407,+00.302425
+135.064,-072.756,+005.334,+1.624,+0.122,+2.125,-04.4910,+01.2540,-10.9610,+00.966449,+05.496773,+00.622081
+138.405,-066.039,+003.097,+1.362,+0.130,+2.255,-07.0090,-01.0200,-06.7750,+00.647095,+06.065720,+00.502292
+139.982,-059.096,+002.095,+1.143,+0.133,+2.365,-07.8210,-00.7280,-06.9540,+00.199344,+06.063890,+00.277344
+140.673,-052.188,+001.602,+0.914,+0.150,+2.382,-10.0090,+00.4960,-08.6140,+00.037838,+06.027808,+00.060629
+140.976,-045.343,+001.382,+0.676,+0.143,+2.426,-10.4970,+02.6200,-08.5850,-00.004223,+05.921046,+00.044765
+141.446,-038.827,+000.868,+0.536,+0.174,+2.457,-10.0590,+02.4560,-05.8950,-00.351071,+05.469203,+00.297861
+142.128,-033.318,-000.402,+0.377,+0.166,+2.440,-11.0130,+01.2050,-07.0050,-01.033873,+04.418376,+00.525179
+142.771,-028.454,-002.333,+0.270,+0.102,+2.408,-13.9760,+01.7830,-14.5680,-01.519548,+04.272062,+00.626031
+143.401,-023.308,-004.291,+0.176,+0.083,+2.459,-15.8330,+01.5300,-16.1740,-01.346228,+04.569670,+00.830456
+143.989,-017.886,-005.585,+0.022,+0.040,+2.474,-16.8370,+01.1910,-13.7390,-00.683707,+04.688928,+00.907465
+144.464,-012.520,-006.091,-0.188,-0.013,+2.492,-17.7570,+01.3610,-10.4540,-00.160373,+04.549479,+00.861306
+144.964,-007.646,-006.181,-0.375,+0.014,+2.506,-17.2240,+01.7990,-02.9130,+00.037964,+03.839867,+00.911210
+145.607,-004.058,-006.224,-0.529,+0.055,+2.412,-18.1620,-00.5610,+00.0750,-00.045409,+02.621805,+00.827448
+146.042,-001.537,-006.463,-0.627,+0.056,+2.364,-19.4730,-01.4440,+01.6880,-00.264958,+01.883093,+00.508267
+146.377,-000.001,-006.765,-0.688,+0.051,+2.350,-18.5910,-00.6920,+06.1580,-00.191253,+00.861810,+00.449392
+146.998,+000.083,-006.655,-0.683,+0.071,+2.312,-18.4090,-00.3770,+05.4400,+00.279154,-00.480952,+00.609727
+147.916,-001.086,-006.104,-0.665,+0.111,+2.307,-18.4490,-00.9110,+03.1960,+00.608923,-01.452835,+00.704801
+148.786,-003.298,-005.020,-0.637,+0.126,+2.347,-07.6890,-01.3890,-04.1510,+01.465784,-02.155312,+00.369528
+148.680,-005.126,-003.879,-0.571,+0.185,+2.354,+17.3660,-03.8480,-30.8390,-00.036498,-01.287840,-01.154283
+147.353,-008.368,-003.976,-0.501,+0.184,+2.352,-06.4860,+05.2050,+08.2930,+00.164341,-03.990859,-00.573944
+148.043,-012.480,-004.496,-0.394,+0.163,+2.428,-11.5410,-05.2730,-21.0620,-00.162847,-03.027041,+00.472234
+148.120,-015.728,-005.563,-0.300,+0.133,+2.432,-06.9280,-01.9050,-24.4270,-01.593589,-02.741272,-00.523094
+148.128,-017.841,-007.372,-0.230,+0.077,+2.430,-03.1020,+04.4990,-12.4910,-01.111350,-01.633368,+00.106723
+148.345,-018.873,-008.233,-0.207,+0.047,+2.464,-04.1110,+02.0770,-10.4540,-00.533748,-00.762166,+00.046402
+148.593,-019.372,-008.793,-0.184,+0.027,+2.443,-04.5030,+01.8360,-10.1070,-00.418195,-00.303640,+00.145269
+148.893,-019.443,-009.371,-0.193,+0.027,+2.437,-03.3880,+01.3220,-08.9670,-00.430459,-00.045420,+00.288653
+149.224,-019.408,-009.895,-0.184,+0.022,+2.476,-02.5400,+01.0330,-08.5990,-00.326540,-00.030446,+00.232690
+149.425,-019.541,-010.411,-0.174,+0.007,+2.444,-03.0910,+01.2590,-08.7050,-00.438506,-00.190771,+00.103140
+149.575,-019.670,-010.959,-0.174,-0.033,+2.433,-03.3380,+01.3850,-08.9500,-00.414318,-00.102440,+00.094790
+149.675,-019.724,-011.407,-0.174,-0.023,+2.449,-03.3570,+01.5840,-08.9610,-00.328612,-00.035064,+00.076886
+149.800,-019.765,-011.832,-0.174,-0.033,+2.444,-02.7960,+01.8410,-08.5050,-00.343581,-00.085869,+00.101285
+149.936,-019.889,-012.255,-0.170,-0.058,+2.412,-03.0760,+02.0580,-08.6720,-00.309643,-00.155826,+00.071633
+150.054,-020.051,-012.604,-0.165,-0.068,+2.461,-03.2180,+01.9120,-08.7320,-00.245035,-00.159168,+00.056418
+150.130,-020.202,-012.825,-0.156,-0.063,+2.456,-03.3780,+01.9990,-08.7180,-00.135038,-00.127688,+00.016272
+150.148,-020.325,-012.928,-0.151,-0.068,+2.434,-03.3270,+02.1420,-08.6460,-00.038756,-00.094389,-00.025836
+150.073,-020.419,-012.825,-0.151,-0.043,+2.456,-03.1720,+02.0350,-08.5420,+00.137436,-00.047088,-00.116078
+149.881,-020.511,-012.547,-0.151,-0.033,+2.450,-03.1720,+02.0770,-08.5040,+00.207582,-00.044367,-00.198369
+149.593,-020.625,-012.218,-0.156,-0.053,+2.440,-03.3120,+02.1270,-08.4880,+00.207598,-00.049553,-00.277197
+149.243,-020.772,-011.777,-0.137,-0.028,+2.467,-03.3610,+01.8250,-08.6520,+00.295457,-00.082113,-00.318663
+148.882,-020.947,-011.321,-0.146,-0.018,+2.445,-03.5610,+01.6070,-08.7150,+00.275211,-00.081559,-00.313703
+148.529,-021.089,-010.845,-0.146,-0.043,+2.429,-03.5240,+01.5330,-08.7550,+00.349693,-00.058313,-00.296047
+148.126,-021.203,-010.108,-0.128,-0.003,+2.468,-03.5650,+01.7000,-08.8080,+00.609872,-00.007397,-00.383983
+147.535,-021.336,-009.171,-0.128,+0.006,+2.446,-03.4910,+02.7220,-08.3900,+00.539218,-00.100681,-00.526799
+146.881,-021.599,-008.416,-0.128,+0.021,+2.457,-02.9720,+01.5810,-08.7510,+00.404463,-00.186277,-00.598292
+146.261,-021.954,-007.837,-0.118,+0.031,+2.462,-03.4160,+00.7930,-08.6810,+00.279152,-00.274303,-00.457200
+145.968,-022.395,-007.371,-0.099,+0.046,+2.452,-03.4380,+00.9060,-08.6890,+00.327430,-00.402228,-00.189195
+145.914,-022.962,-006.970,-0.085,+0.071,+2.453,-03.3570,+01.2410,-08.7700,+00.339990,-00.552080,-00.075432
+145.968,-023.755,-006.513,-0.067,+0.056,+2.475,-03.6660,+01.0520,-08.7450,+00.451795,-00.789785,-00.020790
+146.111,-024.876,-005.965,-0.029,+0.095,+2.471,-03.8300,+01.0610,-08.5290,+00.567669,-01.111449,+00.038864
+146.429,-026.388,-005.367,+0.022,+0.130,+2.479,-03.3380,+00.8380,-08.7870,+00.685490,-01.475899,+00.169859
+147.119,-028.392,-004.857,+0.074,+0.134,+2.486,-03.8670,+00.8820,-08.8950,+00.737121,-02.015775,+00.539771
+148.364,-031.165,-004.589,+0.162,+0.173,+2.474,-04.1430,+00.8270,-08.5700,+00.810622,-02.783880,+00.780539
+150.180,-034.950,-004.794,+0.298,+0.187,+2.469,-05.4010,+00.9950,-08.3940,+00.583744,-03.834455,+01.348073
+153.031,-040.098,-006.251,+0.429,+0.195,+2.463,-06.6050,-00.1790,-09.8400,-00.040211,-05.159423,+01.567958
+156.136,-046.664,-008.769,+0.653,+0.193,+2.381,-06.0120,-01.2200,-11.3330,-00.693122,-06.416755,+00.969967
+159.620,-054.371,-012.981,+0.895,+0.130,+2.261,-09.5470,-00.6480,-08.5480,-01.822801,-07.312426,+00.468856
+165.504,-063.119,-020.853,+1.110,+0.058,+2.157,-10.1440,+02.3790,-13.7100,-02.992861,-08.464026,+00.137328
+177.746,-072.818,-036.190,+1.380,-0.001,+1.882,-12.8490,+03.4930,-17.8820,-03.246728,-09.174278,-00.801181
-151.851,-080.349,-070.274,+1.581,-0.055,+1.575,-13.4050,+03.9490,-17.5390,-04.068688,-08.063252,-01.647472
-111.001,-082.134,-113.976,+1.651,-0.071,+1.426,-15.6830,+05.8680,-32.7710,-01.267173,-03.177951,-01.700161
-116.256,-083.169,-109.048,+1.660,-0.012,+1.361,-03.8370,+05.2330,-26.8950,-00.053342,+02.408973,-00.586213
-150.187,-084.141,-074.370,+1.599,+0.019,+1.364,+01.1660,+00.9500,-08.4900,+01.103898,+03.367114,-00.804116
+177.103,-082.989,-040.616,+1.581,+0.079,+1.352,+01.5010,+00.3200,-04.0670,+00.994111,+03.045150,-00.895049
+158.715,-080.415,-021.439,+1.623,+0.158,+1.261,-01.0150,+02.0120,-09.5850,+00.827641,+03.271454,-00.764459
+149.388,-076.172,-011.207,+1.786,+0.146,+1.279,-03.5610,+03.7470,-13.2460,+01.049070,+04.509310,-00.387730
+145.798,-070.332,-006.481,+1.969,+0.111,+1.483,-04.9900,+02.9230,-08.8580,+01.103205,+05.457047,+00.041682
+144.854,-063.927,-004.582,+2.086,+0.022,+1.939,-05.3810,+02.2180,-06.1380,+00.719532,+05.612155,+00.330925
+145.006,-057.532,-004.016,+1.820,-0.133,+2.407,-06.5940,+01.5420,-07.1160,+00.573065,+05.525157,+00.519159
+145.220,-051.172,-003.572,+1.493,-0.203,+2.649,-08.5840,+01.7230,-09.4290,+00.504975,+05.566430,+00.448906
+145.481,-044.558,-003.323,+1.138,-0.229,+2.764,-10.0070,+02.8370,-11.5760,+00.333868,+05.878441,+00.563111
+145.830,-037.727,-003.305,+0.807,-0.260,+2.820,-10.4750,+01.1270,-08.5450,+00.112987,+05.872798,+00.544554
+145.837,-031.546,-003.652,+0.559,-0.312,+2.859,-10.9550,-01.5880,-06.1880,-00.589195,+04.997460,+00.146573
+145.198,-026.331,-004.541,+0.307,-0.335,+2.853,-13.6380,-00.2390,-13.1140,-01.232998,+04.488742,-00.331670
+144.174,-021.240,-005.490,+0.078,-0.442,+2.806,-15.3430,+02.6290,-15.6070,-01.183564,+04.516371,-00.410915
+143.367,-015.845,-006.448,-0.123,-0.500,+2.776,-17.8580,+04.1140,-15.8740,-01.006972,+04.902218,-00.011965
+142.994,-010.169,-007.275,-0.362,-0.498,+2.678,-19.2140,+03.8490,-08.2670,-00.675952,+04.856960,+00.432967
+143.087,-005.197,-007.886,-0.586,-0.471,+2.603,-19.9260,+02.9380,-02.5560,-00.462350,+03.895933,+00.782074
+143.598,-001.439,-008.217,-0.707,-0.466,+2.533,-20.5640,+00.8390,+02.5020,-00.146258,+02.724906,+00.932887
+144.106,+000.760,-008.435,-0.801,-0.405,+2.447,-24.5620,-02.6720,+07.6890,-00.290820,+01.302219,+00.537846
+144.530,+001.285,-008.841,-0.838,-0.415,+2.402,-25.7770,+00.0990,+09.7650,-00.343148,-00.154132,+00.456234
+145.077,-001.073,-008.132,-0.787,-0.405,+2.469,-20.1580,-00.4280,+13.5750,+01.737521,-03.381263,+00.167112
+146.037,-004.420,-006.505,-0.674,-0.342,+2.501,+16.6860,+00.0400,-38.8120,+00.773211,-03.183376,+00.164759
+145.454,-008.081,-006.382,-0.548,-0.378,+2.533,-12.0040,-07.3590,+03.7390,+00.525697,-03.447168,-00.519763
+145.574,-011.852,-006.306,-0.450,-0.378,+2.592,-09.8460,-01.5970,-25.0120,+00.008018,-02.738481,-00.170816
+145.855,-014.753,-006.847,-0.338,-0.384,+2.570,-04.5900,+04.9780,-08.7670,-00.550693,-02.630503,+00.151440
+146.412,-017.331,-007.293,-0.245,-0.395,+2.596,-07.4130,+01.2480,-15.6550,-00.233925,-02.061207,+00.049815
+146.565,-019.067,-007.711,-0.189,-0.421,+2.604,-03.9420,+01.1900,-12.3640,-00.275537,-01.303521,-00.076663
+146.539,-020.023,-008.021,-0.151,-0.416,+2.616,-05.1660,+02.5070,-10.2460,-00.311782,-00.594430,-00.130465
+146.400,-020.374,-008.254,-0.137,-0.426,+2.606,-04.1620,+01.3540,-09.3890,-00.169108,-00.168067,-00.179383
+146.167,-020.513,-008.294,-0.142,-0.471,+2.628,-03.1010,+01.1130,-08.8350,-00.082467,-00.071998,-00.233693
+145.896,-020.592,-008.244,-0.137,-0.466,+2.617,-03.5220,+00.6290,-08.9040,-00.031092,-00.038120,-00.205977
+145.735,-020.692,-008.137,-0.133,-0.456,+2.585,-03.4500,+01.2910,-08.9360,+00.087937,-00.092872,-00.113304
+145.636,-020.834,-007.948,-0.119,-0.461,+2.629,-03.5210,+01.1150,-08.9230,+00.126678,-00.094299,-00.077956
+145.576,-020.962,-007.808,-0.109,-0.431,+2.618,-03.2440,+01.2800,-08.7500,+00.073808,-00.116220,-00.073927
+145.469,-021.111,-007.677,-0.114,-0.446,+2.607,-03.3600,+01.2610,-08.7210,+00.096185,-00.121281,-00.130192
+145.289,-021.278,-007.468,-0.109,-0.451,+2.635,-03.4620,+01.3390,-08.7730,+00.139534,-00.122665,-00.181874
+145.072,-021.433,-007.217,-0.100,-0.461,+2.614,-03.5150,+01.1480,-08.8080,+00.155004,-00.100004,-00.197134
+144.844,-021.563,-006.971,-0.091,-0.471,+2.609,-03.5440,+00.9310,-08.6660,+00.119408,-00.085897,-00.193535
+144.645,-021.676,-006.790,-0.091,-0.431,+2.652,-03.4860,+00.9120,-08.7480,+00.086479,-00.080983,-00.163157
+144.454,-021.795,-006.602,-0.077,-0.412,+2.620,-03.4770,+01.0800,-08.7380,+00.122369,-00.090518,-00.168155
+144.220,-021.938,-006.360,-0.072,-0.407,+2.604,-03.4610,+01.1780,-08.7330,+00.140363,-00.115725,-00.228273
+143.915,-022.133,-006.099,-0.063,-0.427,+2.642,-03.6030,+00.8580,-08.6670,+00.112263,-00.152922,-00.280059
+143.583,-022.353,-005.881,-0.058,-0.387,+2.615,-03.6970,+00.7800,-08.6260,+00.065372,-00.171099,-00.285997
+143.273,-022.585,-005.697,-0.049,-0.422,+2.621,-03.6220,+00.8540,-08.7200,+00.058605,-00.183077,-00.261163
+142.963,-022.856,-005.488,-0.035,-0.437,+2.643,-03.5790,+01.0150,-08.6620,+00.091920,-00.236715,-00.285957
+142.585,-023.228,-005.226,-0.016,-0.437,+2.633,-03.7180,+00.9910,-08.6440,+00.107001,-00.335257,-00.366901
+142.083,-023.754,-004.893,-0.002,-0.437,+2.639,-03.8420,+00.7970,-08.6110,+00.130243,-00.470809,-00.480879
+141.542,-024.487,-004.445,+0.031,-0.428,+2.652,-03.5070,+00.6290,-08.6520,+00.240673,-00.682503,-00.467595
+141.129,-025.441,-003.943,+0.054,-0.383,+2.652,-03.6960,+00.4880,-08.6940,+00.326251,-00.893577,-00.327543
+140.950,-026.702,-003.404,+0.120,-0.389,+2.650,-04.0370,+00.3820,-08.5630,+00.448166,-01.215080,-00.134356
+140.989,-028.362,-002.832,+0.171,-0.384,+2.679,-03.7530,+00.4520,-08.7290,+00.558578,-01.612517,-00.000548
+141.260,-030.609,-002.211,+0.237,-0.320,+2.665,-04.1240,+00.7980,-08.5250,+00.730596,-02.210413,+00.194041
+141.724,-033.763,-001.552,+0.358,-0.311,+2.660,-05.0130,+00.6390,-08.1060,+00.812644,-03.141210,+00.315048
+142.524,-038.120,-001.068,+0.475,-0.282,+2.665,-04.7480,+00.8640,-08.9320,+00.958638,-04.186578,+00.482291
+143.507,-043.826,-000.579,+0.676,-0.235,+2.597,-08.2630,+02.8780,-09.6990,+00.998104,-05.549492,+00.668516
+144.162,-051.178,+000.496,+0.928,-0.178,+2.515,-05.1140,-00.2300,-13.0890,+01.241803,-06.928954,+00.216395
+143.593,-060.018,+001.469,+1.171,-0.161,+2.439,-11.3460,-00.5450,-09.7110,-00.308697,-08.217693,-00.180997
+142.287,-070.125,+000.781,+1.474,-0.155,+2.186,-11.9720,-00.8500,-11.7440,-02.419600,-09.265350,-00.527990
+134.304,-080.480,+005.538,+1.744,-0.199,+1.861,-10.8580,+02.6240,-17.8290,-02.811055,-08.823850,-01.649373
+082.074,-086.700,+055.516,+1.875,-0.187,+1.665,-06.3160,+02.8870,-24.4180,-00.850583,-05.076349,-01.777954
+041.475,-085.775,+095.726,+1.917,-0.078,+1.547,-03.8540,+04.6330,-35.3050,-00.279833,-00.040395,-00.701724
+066.772,-085.157,+070.206,+1.842,-0.062,+1.587,+00.9520,+04.7470,-14.5140,+00.084017,+02.408676,-00.072143
+095.196,-083.583,+042.191,+1.768,-0.026,+1.660,+01.7610,+02.4580,-07.0380,+00.276949,+02.876147,+00.403911
+113.834,-081.100,+024.187,+1.679,+0.020,+1.677,+00.2650,+02.5070,-07.8950,+00.536974,+03.064796,+00.764360
+126.589,-077.532,+012.708,+1.586,+0.046,+1.744,-02.8340,+02.4160,-12.6010,+01.162106,+03.998292,+01.093581
+135.203,-072.416,+005.854,+1.497,+0.077,+1.832,-04.3670,-00.5630,-10.0320,+01.230359,+05.077385,+01.229061
+139.968,-066.321,+002.323,+1.385,+0.138,+1.919,-05.8350,-02.6400,-07.3340,+00.527520,+05.531593,+00.963076
+142.177,-059.863,+000.518,+1.264,+0.150,+2.000,-06.8790,-02.5910,-08.0420,-00.011552,+05.721019,+00.574551
+142.866,-053.272,-000.007,+1.199,+0.156,+2.117,-08.1650,-01.2310,-08.9480,+00.090870,+05.775488,+00.157198
+142.986,-046.661,+000.019,+1.087,+0.193,+2.270,-08.6310,+00.6210,-08.9640,+00.059412,+05.745457,+00.075496
+143.246,-040.149,-000.363,+0.886,+0.171,+2.467,-09.2750,-00.0660,-07.8260,-00.396975,+05.619774,+00.224611
+143.548,-034.199,-001.597,+0.653,+0.144,+2.604,-10.9110,-01.3010,-08.0560,-01.189978,+04.879070,+00.324461
+143.530,-028.804,-003.208,+0.382,+0.147,+2.619,-14.2960,-01.7260,-15.1860,-01.509310,+04.744014,+00.044727
+143.029,-023.248,-004.630,+0.153,+0.109,+2.539,-15.3830,+01.3210,-15.2190,-01.359990,+04.904374,-00.024255
+142.960,-017.487,-005.706,+0.017,+0.075,+2.484,-18.2080,+04.4940,-15.5310,-00.615464,+05.082684,+00.716154
+143.636,-011.608,-005.851,-0.104,+0.126,+2.419,-19.1550,+01.9370,-09.0470,+00.320660,+04.916018,+01.232204
+144.589,-006.369,-005.402,-0.202,+0.136,+2.404,-19.0550,+01.2570,-04.4910,+00.573805,+04.170309,+01.270425
+145.623,-002.131,-004.852,-0.282,+0.132,+2.433,-18.9430,-00.0350,-00.6820,+00.483621,+03.241668,+01.165203
+146.378,+000.993,-004.716,-0.370,+0.158,+2.429,-21.0500,-02.0090,+03.5320,-00.118423,+02.301421,+00.708059
+146.891,+002.765,-005.052,-0.426,+0.134,+2.448,-21.1790,-00.7860,+07.8920,-00.314884,+00.948399,+00.557386
+147.632,+002.735,-005.064,-0.426,+0.149,+2.486,-21.3480,-00.8340,+07.3960,+00.150310,-00.684755,+00.693245
+148.174,+000.768,-004.738,-0.347,+0.198,+2.500,-05.2290,-05.7580,+00.7270,+00.014701,-02.603546,-00.043555
+147.391,-002.147,-005.526,-0.230,+0.157,+2.527,+13.0570,+03.4430,-19.5520,-01.727342,-02.764451,-01.426310
+147.139,-006.196,-007.453,-0.104,+0.082,+2.588,-12.7580,+06.1830,+03.7470,-00.795857,-04.059444,+00.697363
+148.375,-010.408,-008.823,+0.088,+0.085,+2.602,-11.6400,-10.8540,-25.8270,-01.025050,-03.166343,+00.072655
+148.395,-013.518,-010.106,+0.218,+0.044,+2.591,-06.2180,+10.1020,-13.3250,-01.078402,-02.494365,-00.290226
+148.956,-015.985,-010.777,+0.298,+0.008,+2.617,-06.4030,+01.9720,-11.8860,-00.244854,-02.031864,+00.061236
+149.257,-017.785,-011.090,+0.372,+0.002,+2.609,-05.5970,+01.6970,-10.9560,-00.231232,-01.266770,-00.012393
+149.530,-018.670,-011.505,+0.414,-0.023,+2.595,-04.1910,+00.7430,-10.5710,-00.258553,-00.531450,+00.089973
+149.725,-018.966,-011.796,+0.428,-0.033,+2.623,-03.4400,+01.9640,-09.0780,-00.142342,-00.178666,+00.107884
+149.843,-019.158,-011.955,+0.438,-0.023,+2.601,-02.3690,+01.0670,-08.7870,-00.104419,-00.202873,+00.009534
+149.830,-019.430,-012.074,+0.452,-0.043,+2.608,-03.3470,+02.2170,-08.8510,-00.087944,-00.227380,-00.076824
+149.797,-019.648,-012.130,+0.452,-0.038,+2.618,-03.3930,+01.7060,-08.9270,-00.056529,-00.161421,-00.058819
+149.777,-019.810,-012.218,+0.461,+0.006,+2.591,-03.4030,+01.7330,-08.8910,-00.110405,-00.119696,-00.034944
+149.797,-019.930,-012.409,+0.461,-0.054,+2.592,-03.0000,+01.7210,-08.6120,-00.170674,-00.107947,+00.007884
+149.827,-020.087,-012.582,+0.456,-0.058,+2.613,-03.1240,+02.0480,-08.6000,-00.116403,-00.143504,-00.023053
+149.787,-020.254,-012.649,+0.475,-0.034,+2.587,-03.2930,+01.9820,-08.6230,-00.032495,-00.124473,-00.086993
+149.667,-020.404,-012.515,+0.475,-0.039,+2.592,-03.2220,+02.2880,-08.4480,+00.155463,-00.103614,-00.148130
+149.477,-020.558,-012.157,+0.480,-0.044,+2.614,-03.2640,+02.0040,-08.5970,+00.278588,-00.092997,-00.185900
+149.252,-020.695,-011.844,+0.498,-0.034,+2.582,-03.1330,+02.0200,-08.5710,+00.202558,-00.074445,-00.214464
+148.979,-020.824,-011.481,+0.494,-0.009,+2.571,-03.5230,+01.7220,-08.8180,+00.241363,-00.052550,-00.253203
+148.647,-020.922,-011.051,+0.503,-0.014,+2.615,-03.4200,+01.8800,-08.7150,+00.314517,-00.015171,-00.305724
+148.251,-021.034,-010.543,+0.508,+0.026,+2.566,-03.8400,+01.6060,-08.8540,+00.324729,-00.030986,-00.354380
+147.836,-021.141,-009.997,+0.499,+0.036,+2.582,-03.6480,+01.5440,-08.5970,+00.330018,-00.037513,-00.341455
+147.477,-021.271,-009.574,+0.508,+0.046,+2.615,-03.3990,+01.5720,-08.5690,+00.214148,-00.085756,-00.286856
+147.213,-021.437,-009.319,+0.513,+0.066,+2.588,-03.3490,+01.1890,-08.6440,+00.099429,-00.125662,-00.206558
+147.032,-021.646,-009.174,+0.522,+0.070,+2.577,-03.4210,+01.3680,-08.6470,+00.055173,-00.173899,-00.155380
+146.916,-021.903,-009.090,+0.522,+0.046,+2.626,-03.5070,+01.4000,-08.6240,+00.033491,-00.227470,-00.115047
+146.833,-022.215,-008.995,+0.531,+0.070,+2.578,-03.5360,+01.4690,-08.6500,+00.088934,-00.280942,-00.111824
+146.707,-022.626,-008.702,+0.555,+0.075,+2.584,-03.5430,+01.5090,-08.5790,+00.275513,-00.374718,-00.193450
+146.464,-023.257,-008.237,+0.564,+0.095,+2.606,-03.7710,+01.4450,-08.5160,+00.345467,-00.594917,-00.313166
+146.207,-024.133,-007.689,+0.601,+0.114,+2.580,-03.3270,+01.3370,-08.7770,+00.418941,-00.823239,-00.295005
+146.129,-025.354,-007.082,+0.648,+0.129,+2.550,-04.1050,+00.8180,-08.5110,+00.537937,-01.167453,-00.095609
+146.435,-026.931,-006.510,+0.690,+0.144,+2.589,-03.9610,+00.8290,-08.7080,+00.654013,-01.531001,+00.185962
+147.246,-028.947,-006.165,+0.770,+0.182,+2.522,-05.0800,+00.9710,-08.6810,+00.582248,-02.053332,+00.602294
+148.607,-031.660,-006.053,+0.858,+0.196,+2.488,-04.0220,+01.1460,-08.6070,+00.746049,-02.737914,+00.822459
+150.695,-035.474,-006.446,+0.966,+0.175,+2.493,-05.6480,+00.9560,-08.0440,+00.447710,-04.051644,+01.493840
+153.651,-040.830,-007.645,+1.139,+0.223,+2.364,-06.7010,+00.6770,-09.6290,+00.357558,-05.449122,+01.566384
+156.439,-047.708,-009.309,+1.353,+0.165,+2.238,-05.7190,-00.3880,-11.7930,+00.059175,-06.730926,+00.533815
+158.949,-056.004,-011.900,+1.554,+0.143,+2.122,-10.0630,+01.3820,-09.7540,-01.050326,-07.727819,-00.166843
+163.541,-065.512,-017.948,+1.796,+0.109,+1.872,-09.8920,+02.3610,-11.8810,-02.558271,-08.910350,-00.334611
+174.663,-075.788,-031.474,+2.011,+0.051,+1.556,-11.4160,+02.1320,-18.2750,-02.941721,-09.364320,-01.161055
-145.587,-083.770,-074.825,+2.137,+0.034,+1.328,-11.7350,+03.1590,-17.7490,-03.823728,-07.996803,-01.701120
-089.952,-084.129,-133.533,+2.225,+0.042,+1.125,-24.4560,+08.1100,-37.7480,-01.709106,-02.360580,-01.273237
-107.756,-085.507,-116.247,+2.169,-0.027,+1.318,-02.6400,+08.2650,-25.6410,+00.000511,+03.241145,-00.003143
-162.048,-085.193,-060.705,+2.043,-0.004,+1.547,+02.1360,+02.0720,-06.0560,+01.596978,+03.675876,+00.190009
+173.137,-082.369,-034.371,+1.843,-0.007,+1.679,+01.9600,-00.2260,-02.0450,+01.297753,+03.111701,+00.211071
+163.341,-079.227,-023.327,+1.647,+0.015,+1.708,-01.3130,-00.1850,-09.0660,+01.163785,+03.196791,+00.045210
+156.211,-074.837,-015.150,+1.548,+0.031,+1.726,-05.3880,+00.6310,-14.6490,+00.994494,+04.724253,-00.095360
+151.325,-068.585,-009.495,+1.474,+0.077,+1.766,-06.0730,+00.6330,-09.2240,+00.806863,+05.963089,-00.169982
+148.633,-061.724,-006.318,+1.418,+0.128,+1.915,-06.1060,+01.2780,-06.0080,+00.524712,+06.048946,-00.131710
+147.336,-054.978,-004.744,+1.348,+0.115,+2.080,-07.4770,+01.8950,-06.7500,+00.296541,+05.830583,+00.039503
+146.796,-048.366,-003.985,+1.260,+0.166,+2.277,-08.7100,+02.4860,-08.4150,+00.221596,+05.739326,+00.205336
+146.744,-041.801,-003.774,+1.078,+0.189,+2.514,-09.8760,+02.4430,-09.7460,+00.048649,+05.733060,+00.450266
+146.985,-035.302,-004.492,+0.849,+0.202,+2.737,-11.4860,-00.0510,-08.1010,-00.871116,+05.502821,+00.610299
+147.111,-029.452,-005.723,+0.462,+0.197,+2.813,-12.8250,+00.7610,-10.9070,-00.939730,+04.815412,+00.458094
+146.811,-024.030,-006.499,+0.111,+0.155,+2.787,-15.7860,+00.8450,-16.9640,-00.692283,+04.811830,+00.207559
+146.325,-018.151,-006.924,-0.122,+0.157,+2.717,-16.7770,+01.6430,-15.9760,-00.381313,+05.296858,+00.225723
+145.890,-012.158,-007.018,-0.342,+0.129,+2.582,-16.3490,+02.0530,-11.6540,-00.124888,+05.134625,+00.320309
+145.784,-006.513,-007.074,-0.515,+0.110,+2.477,-17.3300,+03.8100,-08.1570,-00.013703,+04.716004,+00.658992
+146.182,-001.638,-006.997,-0.641,+0.156,+2.401,-16.6170,+02.3720,-02.8060,+00.116522,+03.800037,+00.954390
+146.756,+002.105,-007.156,-0.730,+0.171,+2.310,-17.8420,-02.0480,-01.3390,-00.348407,+02.865962,+00.785364
+147.023,+004.878,-007.640,-0.772,+0.161,+2.264,-18.6570,-01.7330,+01.9600,-00.388365,+02.035502,+00.432606
+147.312,+006.341,-007.724,-0.791,+0.156,+2.253,-18.2510,-00.6060,+06.2210,+00.108693,+00.676756,+00.459509
+148.005,+006.108,-007.165,-0.777,+0.191,+2.221,-18.0260,-00.9780,+04.3990,+00.559941,-00.809865,+00.599014
+148.724,+004.581,-006.345,-0.711,+0.205,+2.223,-16.3930,-02.1640,-01.1500,+00.685258,-01.655680,+00.308347
+148.176,+002.403,-006.305,-0.660,+0.205,+2.258,+16.7220,+02.6360,-22.3020,-00.398109,-01.825223,-01.284028
+146.558,-001.276,-007.355,-0.543,+0.164,+2.247,+00.4310,+13.6990,-00.0420,-01.185576,-03.845173,-01.700842
+147.260,-005.652,-008.353,-0.398,+0.133,+2.270,-12.7800,-00.3030,-14.2620,-00.944053,-03.701092,+00.662068
+148.080,-009.004,-009.373,-0.296,+0.077,+2.291,-07.3580,-07.0920,-17.2050,-00.775779,-02.620725,-00.132513
+148.438,-011.593,-010.364,-0.216,+0.086,+2.268,-05.0720,+07.8290,-13.1920,-00.636523,-02.069709,+00.101291
+149.217,-013.770,-010.933,-0.137,+0.055,+2.255,-03.9760,+01.5150,-10.9170,-00.208215,-01.977445,+00.278711
+149.752,-015.792,-011.211,-0.076,+0.035,+2.280,-04.7280,+03.8230,-12.9890,-00.077449,-01.738550,+00.083072
+150.171,-017.214,-011.543,-0.025,+0.069,+2.238,-03.6910,+00.7350,-10.9640,-00.132410,-01.105071,+00.076660
+150.334,-018.065,-011.677,-0.011,+0.059,+2.255,-03.3160,+02.4460,-09.6910,+00.026360,-00.616394,-00.050245
+150.294,-018.584,-011.548,-0.006,+0.059,+2.272,-02.9500,+01.0830,-09.2990,+00.103340,-00.356138,-00.180247
+150.102,-018.975,-011.331,+0.027,+0.064,+2.278,-03.4150,+01.6720,-09.0260,+00.160415,-00.264874,-00.227895
+149.906,-019.241,-011.080,+0.022,+0.049,+2.257,-03.0540,+01.6280,-08.9540,+00.139516,-00.167780,-00.197166
+149.727,-019.476,-010.894,+0.036,+0.064,+2.279,-03.0690,+01.5790,-08.8910,+00.111105,-00.179585,-00.170986
+149.556,-019.729,-010.622,+0.045,+0.054,+2.263,-02.7470,+01.7070,-08.4090,+00.242449,-00.211874,-00.204758
+149.320,-020.056,-010.290,+0.045,+0.078,+2.247,-03.4840,+01.8930,-09.1210,+00.214369,-00.225163,-00.275060
+149.043,-020.269,-009.941,+0.045,+0.064,+2.274,-03.6410,+01.3060,-08.8730,+00.228602,-00.116465,-00.242860
+148.825,-020.444,-009.633,+0.055,+0.088,+2.263,-03.4390,+01.2800,-08.7650,+00.163002,-00.114793,-00.180012
+148.660,-020.599,-009.461,+0.073,+0.088,+2.253,-03.2050,+01.4840,-08.6110,+00.067077,-00.123907,-00.142455
+148.519,-020.763,-009.361,+0.059,+0.078,+2.269,-03.2890,+01.4470,-08.6380,+00.035267,-00.120410,-00.137530
+148.347,-020.927,-009.254,+0.064,+0.123,+2.258,-03.4300,+01.4370,-08.7180,+00.042614,-00.116287,-00.174031
+148.149,-021.085,-009.143,+0.078,+0.098,+2.259,-03.4220,+01.3940,-08.6610,+00.023746,-00.111006,-00.179237
+147.951,-021.255,-009.054,+0.083,+0.073,+2.270,-03.2380,+01.3120,-08.5870,+00.016554,-00.130597,-00.189744
+147.707,-021.462,-008.935,+0.097,+0.088,+2.260,-03.3240,+01.4180,-08.5760,+00.034761,-00.160898,-00.245196
+147.412,-021.733,-008.788,+0.101,+0.083,+2.249,-03.5310,+01.4040,-08.5610,+00.024253,-00.217649,-00.282840
+147.102,-022.049,-008.633,+0.106,+0.093,+2.271,-03.6760,+01.3470,-08.6930,+00.053928,-00.243866,-00.290147
+146.766,-022.417,-008.380,+0.120,+0.118,+2.260,-03.9520,+01.3800,-08.6190,+00.135264,-00.307624,-00.343025
+146.377,-022.909,-008.050,+0.129,+0.103,+2.250,-03.5930,+01.4610,-08.5890,+00.174863,-00.437503,-00.385541
+146.003,-023.659,-007.616,+0.153,+0.097,+2.262,-03.2510,+00.9770,-08.8510,+00.295007,-00.688027,-00.370940
+145.735,-024.662,-007.047,+0.181,+0.137,+2.252,-03.7000,+01.0680,-08.7490,+00.460040,-00.946687,-00.279792
+145.704,-026.011,-006.392,+0.223,+0.136,+2.232,-03.9750,+00.9090,-08.6380,+00.618390,-01.296491,-00.077073
+146.006,-027.736,-005.782,+0.265,+0.151,+2.266,-03.8370,+00.8780,-08.7040,+00.681114,-01.669400,+00.165039
+146.770,-030.037,-005.426,+0.335,+0.175,+2.237,-04.6210,+00.9960,-08.5750,+00.623782,-02.343363,+00.535459
+147.994,-033.246,-005.229,+0.424,+0.199,+2.192,-04.0270,+01.0590,-08.6040,+00.780224,-03.230936,+00.713253
+150.094,-037.749,-005.706,+0.540,+0.213,+2.207,-01.8870,+00.2840,-09.7770,+00.610548,-04.557980,+01.304187
+153.112,-043.677,-007.163,+0.718,+0.211,+2.150,-02.7300,+00.0130,-12.1150,+00.289517,-05.849468,+01.322356
+156.432,-051.127,-009.773,+0.947,+0.183,+2.046,-06.0680,-00.4660,-13.3360,-00.430456,-07.163213,+00.723101
+160.816,-059.710,-014.835,+1.152,+0.136,+1.947,-10.9300,+00.8100,-11.2580,-01.632882,-08.199750,+00.494610
+168.783,-069.480,-025.346,+1.418,+0.112,+1.703,-13.2530,+04.7010,-12.7450,-03.231708,-09.546815,-00.428817
-171.900,-079.053,-048.313,+1.656,+0.089,+1.426,-11.6920,+02.4970,-22.6720,-04.145235,-08.806942,-01.841536
-134.936,-083.891,-087.979,+1.777,+0.066,+1.241,-07.7530,+01.8380,-26.3300,-01.190546,-03.686764,-02.069223
-133.779,-085.440,-089.307,+1.875,+0.130,+1.223,-01.5890,+03.2630,-26.5040,-00.491187,+01.215026,-01.139542
-172.137,-085.841,-050.972,+1.917,+0.200,+1.306,+02.6260,+03.9630,-09.4720,+00.458214,+02.368618,-01.084388
+160.653,-084.286,-022.898,+1.950,+0.245,+1.427,+02.4390,+03.5980,-06.8780,+00.957510,+02.246389,-00.634429
+150.616,-081.575,-011.553,+1.946,+0.276,+1.567,+00.3040,+03.8540,-10.9180,+01.352148,+02.869491,-00.160529
+147.669,-077.441,-006.942,+1.918,+0.292,+1.724,-02.0170,+02.2510,-12.9690,+01.484691,+04.152452,+00.271542
+147.272,-071.774,-005.112,+1.829,+0.284,+1.964,-03.1470,+00.6770,-09.7330,+01.109762,+05.283950,+00.465330
+147.161,-065.411,-004.002,+1.648,+0.267,+2.228,-05.4470,-00.5870,-07.4580,+00.730396,+05.644763,+00.329421
+146.849,-058.813,-003.149,+1.325,+0.231,+2.432,-06.6370,-00.2020,-08.9020,+00.409507,+05.823304,+00.178659
+146.412,-051.928,-002.414,+1.069,+0.179,+2.513,-08.8700,+00.0450,-10.4750,+00.288456,+06.126475,-00.001766
+145.871,-044.747,-001.851,+0.816,+0.172,+2.492,-10.1260,+01.8780,-10.8330,+00.059032,+06.357940,-00.078354
+145.540,-037.554,-001.794,+0.634,+0.164,+2.495,-10.4390,+00.9450,-06.8270,-00.306417,+06.101564,+00.010326
+145.221,-031.402,-002.496,+0.541,+0.145,+2.529,-11.7990,-00.8610,-07.0990,-01.049792,+04.885468,-00.116266
+144.496,-025.947,-003.671,+0.438,+0.106,+2.590,-15.6420,+00.7490,-15.4850,-01.393763,+04.898272,-00.370882
+143.651,-020.460,-005.080,+0.247,+0.044,+2.707,-16.1500,+02.1720,-14.3130,-01.568617,+04.767594,-00.213410
+143.252,-014.916,-006.676,+0.027,+0.002,+2.779,-19.6570,+04.3970,-15.2240,-01.350848,+04.929148,+00.448608
+143.465,-009.197,-007.636,-0.300,-0.035,+2.721,-20.5220,+02.2360,-09.8500,-00.446339,+04.840192,+00.925939
+143.795,-004.038,-007.746,-0.538,-0.004,+2.618,-20.0930,+00.8700,-03.7040,+00.073136,+04.113313,+00.851895
+144.242,+000.008,-007.720,-0.679,+0.028,+2.596,-19.6740,-00.4410,+01.7790,-00.052786,+03.001729,+00.861605
+144.633,+002.725,-008.035,-0.772,+0.048,+2.488,-21.8200,-01.9720,+05.3430,-00.410624,+01.861085,+00.523344
+145.008,+003.926,-008.476,-0.805,+0.043,+2.427,-21.7610,-00.3340,+08.6530,-00.332036,+00.411135,+00.516887
+145.913,+003.419,-008.385,-0.800,+0.043,+2.449,-21.7970,+00.6990,+05.1290,+00.292124,-01.073037,+00.822451
+146.590,+000.937,-007.267,-0.725,+0.077,+2.463,+00.4410,+01.5200,-15.9060,+01.222893,-02.337477,-00.054887
+146.226,-002.553,-006.848,-0.604,+0.086,+2.512,+05.0590,+01.8350,-10.2900,-00.504298,-03.505094,-01.388070
+146.143,-007.258,-006.904,-0.478,+0.050,+2.545,-15.0650,-06.5230,-08.3910,+00.160760,-04.090057,+00.056409
+146.151,-011.140,-007.016,-0.333,+0.049,+2.573,-07.9410,-04.3640,-18.7710,-00.330838,-02.903628,-00.701612
+146.142,-014.229,-007.653,-0.216,+0.048,+2.556,-06.5080,+07.5010,-13.5500,-00.383500,-02.469027,-00.016986
+146.518,-016.621,-007.825,-0.151,+0.022,+2.592,-06.3760,-00.5100,-16.0140,-00.033454,-01.933167,-00.116973
+146.574,-018.198,-007.910,-0.076,+0.017,+2.584,-04.2880,+02.7630,-13.2780,+00.053647,-01.179696,-00.099054
+146.529,-018.902,-007.801,-0.053,+0.011,+2.580,-04.5670,+01.3950,-10.5990,+00.119207,-00.372126,-00.123552
+146.386,-019.086,-007.563,-0.057,+0.011,+2.607,-03.6200,+00.9210,-09.3250,+00.166976,-00.049267,-00.144982
+146.218,-019.150,-007.374,-0.067,+0.017,+2.595,-03.0780,+01.2880,-08.7810,+00.100498,-00.051602,-00.144791
+146.058,-019.250,-007.234,-0.062,+0.021,+2.596,-03.0190,+00.7790,-08.8380,+00.066131,-00.084937,-00.134369
+145.938,-019.377,-007.147,-0.048,+0.001,+2.613,-03.3830,+00.8320,-08.9220,+00.029372,-00.086090,-00.090692
+145.879,-019.464,-007.130,-0.043,+0.066,+2.596,-02.8950,+00.8250,-08.7820,-00.029961,-00.078883,-00.043428
+145.839,-019.617,-007.162,-0.043,+0.016,+2.586,-02.6900,+01.3120,-08.6100,-00.025078,-00.166321,-00.059443
+145.770,-019.858,-007.139,-0.039,+0.001,+2.618,-03.2390,+01.5620,-08.7240,+00.027887,-00.206782,-00.084515
+145.685,-020.062,-007.060,-0.025,+0.016,+2.592,-03.4700,+01.0960,-08.9220,+00.041773,-00.145020,-00.090927
+145.594,-020.198,-007.017,-0.015,+0.016,+2.598,-03.4500,+00.8290,-08.7600,-00.010367,-00.087812,-00.081185
+145.504,-020.287,-007.038,-0.025,+0.006,+2.592,-03.2280,+00.9100,-08.7460,-00.063989,-00.064569,-00.088347
+145.397,-020.381,-007.091,-0.025,+0.026,+2.592,-03.1680,+01.0920,-08.7340,-00.079922,-00.075019,-00.101289
+145.278,-020.511,-007.148,-0.015,+0.026,+2.576,-03.1820,+01.1990,-08.6990,-00.085042,-00.115542,-00.113864
+145.129,-020.682,-007.166,-0.006,-0.014,+2.604,-03.3490,+00.9850,-08.7210,-00.052589,-00.139609,-00.154706
+144.929,-020.878,-007.147,+0.003,+0.006,+2.593,-03.3550,+01.0700,-08.7400,-00.039351,-00.151221,-00.203210
+144.672,-021.077,-007.072,+0.008,-0.009,+2.583,-03.2970,+01.1740,-08.7160,-00.006544,-00.149814,-00.246793
+144.372,-021.324,-006.974,+0.017,-0.004,+2.594,-03.3240,+01.2950,-08.7930,-00.005426,-00.207407,-00.280559
+144.018,-021.632,-006.818,+0.018,+0.021,+2.588,-03.4160,+01.1950,-08.7350,+00.052960,-00.243075,-00.339798
+143.586,-022.012,-006.559,+0.031,-0.014,+2.600,-03.6530,+01.1380,-08.7530,+00.095130,-00.318112,-00.406752
+143.099,-022.519,-006.275,+0.046,-0.015,+2.606,-03.5130,+01.0400,-08.7890,+00.093429,-00.448840,-00.454247
+142.615,-023.193,-005.958,+0.078,+0.015,+2.607,-03.4240,+00.6690,-08.7690,+00.128725,-00.605153,-00.431658
+142.328,-024.183,-005.558,+0.106,+0.030,+2.597,-03.5010,+00.6170,-08.8430,+00.313361,-00.950161,-00.228706
+142.369,-025.533,-005.102,+0.148,+0.009,+2.589,-03.7840,+00.4790,-08.5820,+00.481714,-01.333165,+00.029930
+142.832,-027.374,-004.615,+0.223,+0.053,+2.586,-03.2770,+00.5140,-08.6690,+00.665487,-01.807042,+00.322647
+143.808,-029.783,-004.237,+0.307,+0.102,+2.595,-04.7490,+00.8860,-08.5710,+00.753997,-02.444848,+00.742548
+145.293,-033.214,-004.154,+0.401,+0.107,+2.599,-04.0030,+01.2580,-08.8000,+00.794071,-03.434174,+00.862841
+147.291,-038.076,-004.591,+0.569,+0.130,+2.541,-03.5140,+00.2360,-09.2090,+00.508937,-04.982120,+01.321050
+149.580,-044.629,-005.321,+0.802,+0.127,+2.464,-03.6360,+00.4020,-12.0830,+00.694630,-06.349361,+00.772472
+151.189,-052.851,-005.922,+1.017,+0.159,+2.381,-07.2950,+00.3440,-12.9900,+00.253157,-07.737668,-00.108867
+152.682,-062.639,-008.339,+1.330,+0.165,+2.188,-11.8050,-02.2730,-13.9070,-01.860553,-09.110476,-00.458270
+155.780,-073.591,-014.699,+1.638,+0.101,+1.892,-14.1910,+02.6060,-19.8820,-03.259514,-09.606863,-01.385876
+158.425,-083.078,-021.016,+1.805,+0.113,+1.666,-13.7690,+04.5610,-22.8910,-02.451404,-06.517442,-02.222971
+143.033,-087.509,-006.180,+1.899,+0.206,+1.479,-24.0080,+05.8650,-44.6570,+00.270793,-01.208739,-01.588164
+116.250,-086.668,+020.227,+1.927,+0.255,+1.485,+01.1020,+03.9460,-17.5790,-00.224207,+01.528335,-01.179010
+114.650,-084.256,+021.940,+1.918,+0.291,+1.523,+03.7330,+03.4270,-07.0980,+00.204152,+02.007491,-00.648805
+119.425,-081.881,+017.628,+1.951,+0.375,+1.567,+02.5930,+03.3380,-07.3300,+00.472204,+02.237192,+00.029516
+126.689,-078.948,+011.323,+1.983,+0.341,+1.688,-00.3490,+03.1090,-11.9810,+00.934837,+03.153980,+00.564263
+133.712,-074.497,+005.683,+1.988,+0.331,+1.873,-02.4770,+01.1650,-12.4240,+01.008366,+04.578567,+00.955889
+139.015,-068.622,+001.537,+1.895,+0.319,+2.195,-03.8920,-00.4710,-08.9040,+00.626102,+05.469715,+01.190333
+141.929,-062.123,-000.651,+1.639,+0.328,+2.532,-06.4520,-01.9880,-07.4550,+00.301719,+05.735855,+00.887230
+143.082,-055.480,-001.324,+1.354,+0.302,+2.737,-07.7630,-01.8120,-08.7610,+00.280703,+05.812709,+00.454344
+143.239,-048.776,-001.160,+0.999,+0.386,+2.835,-09.3080,+00.0240,-09.5800,+00.232523,+05.869848,+00.101041
+143.321,-042.002,-001.060,+0.663,+0.424,+2.907,-09.7020,+02.5420,-10.7310,+00.050919,+05.944137,+00.261258
+143.861,-035.306,-001.519,+0.383,+0.417,+2.960,-10.0620,+01.0400,-08.1430,-00.280839,+05.664359,+00.619884
+144.507,-029.395,-002.527,+0.051,+0.381,+2.924,-11.8420,-00.9840,-11.1730,-00.721509,+04.834946,+00.608766
+144.624,-023.829,-003.783,-0.211,+0.238,+2.729,-14.6400,-01.3660,-16.7420,-01.241584,+04.958237,+00.223582
+144.338,-018.033,-005.036,-0.216,+0.147,+2.523,-16.1950,+01.6190,-15.8660,-01.021085,+05.069781,+00.143749
+144.073,-012.347,-005.639,-0.142,+0.007,+2.467,-18.2020,+03.7540,-13.6690,-00.394796,+04.881856,+00.356057
+144.154,-006.888,-005.957,-0.254,-0.092,+2.561,-19.2840,+03.1850,-09.6720,-00.227616,+04.625085,+00.633886
+144.340,-001.997,-006.284,-0.426,-0.079,+2.640,-19.5570,-01.1090,-03.9130,-00.358580,+03.939522,+00.519929
+144.016,+001.917,-006.988,-0.646,-0.053,+2.598,-19.9330,-02.6290,+01.9420,-00.739599,+03.065484,-00.132201
+143.317,+004.465,-007.923,-0.786,-0.106,+2.592,-20.1350,-00.4700,+05.2200,-00.734700,+01.802519,-00.345172
+142.973,+005.503,-008.447,-0.852,-0.125,+2.595,-19.5380,+01.6170,+06.9340,-00.216883,+00.390968,+00.009202
+143.497,+005.120,-008.180,-0.870,-0.050,+2.582,-19.1720,+01.9660,+02.6550,+00.465565,-00.800518,+00.647271
+144.234,+003.305,-006.939,-0.814,-0.056,+2.656,+01.6690,+00.6090,-10.4890,+00.936341,-02.204052,+00.152423
+143.490,+000.401,-006.293,-0.753,-0.031,+2.723,+10.9330,+03.4750,-14.5660,-00.133299,-03.030848,-01.632544
+142.936,-004.025,-006.731,-0.594,-0.057,+2.796,-16.2690,+02.1100,-02.2080,-00.190547,-04.003775,+00.126420
+143.895,-008.088,-007.645,-0.440,-0.078,+2.884,-06.5440,-08.3470,-18.3450,-01.105708,-03.318938,+00.200053
+144.373,-011.557,-009.572,-0.328,-0.159,+2.939,-05.6240,+03.5170,-12.7400,-01.780352,-02.935018,+00.036516
+145.171,-014.685,-011.634,-0.211,-0.200,+2.955,-06.2310,+07.2470,-13.8760,-01.396358,-02.809794,+00.207531
+145.862,-017.202,-012.417,-0.104,-0.225,+2.976,-08.3230,+02.2670,-14.8350,-00.213588,-01.817808,+00.089140
+146.172,-018.483,-012.078,-0.057,-0.201,+3.000,-04.3630,+00.8190,-11.3350,+00.498660,-00.763578,-00.027916
+146.254,-018.982,-011.681,-0.024,-0.186,+2.979,-04.2430,+01.6360,-09.6180,+00.318131,-00.256697,-00.009106
+146.288,-019.245,-011.404,-0.010,-0.177,+2.991,-02.8710,+01.3000,-09.1430,+00.222150,-00.238358,-00.035076
+146.233,-019.490,-011.216,-0.010,-0.176,+3.012,-03.1650,+01.3480,-08.9630,+00.093745,-00.179697,-00.098120
+146.186,-019.683,-011.167,+0.004,-0.122,+2.980,-03.3520,+01.4520,-08.9490,+00.003835,-00.133662,-00.053180
+146.143,-019.821,-011.175,+0.013,-0.192,+2.997,-03.3920,+01.6720,-08.8600,-00.040416,-00.092521,-00.053872
+146.137,-019.910,-011.266,-0.001,-0.162,+3.024,-03.2950,+01.5420,-08.7770,-00.096738,-00.062946,+00.003465
+146.146,-019.993,-011.345,+0.008,-0.172,+2.997,-03.2020,+01.8800,-08.6440,-00.031610,-00.076196,-00.026123
+146.086,-020.107,-011.281,+0.013,-0.192,+2.986,-03.0110,+01.8880,-08.6310,+00.079544,-00.089165,-00.099347
+145.934,-020.223,-011.066,+0.004,-0.186,+3.019,-03.2410,+01.8970,-08.7090,+00.164655,-00.067818,-00.163176
+145.696,-020.306,-010.749,+0.022,-0.147,+2.992,-03.3840,+01.6750,-08.9090,+00.233973,-00.012631,-00.239588
+145.367,-020.372,-010.407,+0.013,-0.117,+2.986,-03.6410,+01.9070,-08.6330,+00.158948,-00.013516,-00.274819
+145.065,-020.432,-010.188,+0.027,-0.172,+3.025,-03.2730,+01.3840,-08.7170,+00.071988,-00.012490,-00.228363
+144.866,-020.502,-010.073,+0.032,-0.122,+2.998,-03.3270,+01.4090,-08.6900,+00.024055,-00.045981,-00.137026
+144.746,-020.602,-010.006,+0.022,-0.157,+3.008,-03.2750,+01.5380,-08.6970,+00.025066,-00.079326,-00.105380
+144.617,-020.724,-009.911,+0.022,-0.127,+3.024,-03.3130,+01.6630,-08.6960,+00.063913,-00.085570,-00.144273
+144.394,-020.870,-009.700,+0.027,-0.117,+2.997,-03.3600,+01.8930,-08.6040,+00.141708,-00.107762,-00.233053
+144.102,-021.065,-009.447,+0.036,-0.142,+3.014,-03.2810,+01.6170,-08.6410,+00.124525,-00.137915,-00.270779
+143.807,-021.294,-009.222,+0.050,-0.137,+3.020,-03.3920,+01.2770,-08.6490,+00.088022,-00.174865,-00.259458
+143.574,-021.572,-009.035,+0.065,-0.107,+3.021,-03.3300,+01.3700,-08.6240,+00.092903,-00.240842,-00.207252
+143.404,-021.928,-008.794,+0.069,-0.098,+3.010,-03.4920,+01.4440,-08.6780,+00.206484,-00.317836,-00.176065
+143.246,-022.440,-008.385,+0.088,-0.098,+3.022,-03.5790,+01.4680,-08.6890,+00.344935,-00.491006,-00.212922
+143.025,-023.165,-007.843,+0.130,-0.038,+3.023,-03.3820,+01.0610,-08.8780,+00.435889,-00.668313,-00.276968
+142.826,-024.154,-007.168,+0.153,-0.048,+3.019,-03.4200,+01.1140,-08.7930,+00.581373,-00.964150,-00.250034
+142.796,-025.513,-006.411,+0.200,+0.006,+3.053,-03.7200,+00.9340,-08.6760,+00.688287,-01.308829,-00.113525
+143.013,-027.287,-005.659,+0.284,+0.055,+3.029,-04.1950,+00.8920,-08.7200,+00.747430,-01.714555,+00.094007
+143.654,-029.728,-005.135,+0.373,+0.064,+3.022,-03.0250,+00.9430,-08.7460,+00.761951,-02.460169,+00.361564
+144.527,-033.160,-004.640,+0.490,+0.088,+3.022,-04.6750,+01.1500,-08.4740,+00.854218,-03.408814,+00.430332
+145.967,-038.000,-004.578,+0.695,+0.135,+2.970,-03.0920,+01.6110,-09.8680,+00.852784,-04.795908,+00.680254
+147.286,-044.338,-004.472,+0.957,+0.162,+2.916,-03.7630,+01.4880,-11.4840,+00.848140,-06.021132,+00.137005
+147.393,-052.226,-003.613,+1.190,+0.219,+2.801,-06.7310,+01.4860,-11.7060,+00.679414,-07.372639,-00.651719
+146.738,-061.545,-003.655,+1.503,+0.240,+2.592,-11.7820,-01.0560,-12.8530,-01.298613,-08.572901,-00.839859
+145.447,-071.892,-005.237,+1.811,+0.191,+2.323,-13.6010,+01.3570,-15.4820,-02.663405,-09.185916,-01.495539
+136.819,-081.317,-000.132,+1.993,+0.173,+2.108,-13.2550,+04.0210,-22.7520,-02.453674,-06.815773,-02.398030
+109.733,-085.002,+027.129,+2.049,+0.276,+1.947,-19.0420,+09.4110,-37.1690,+01.463778,-01.823685,-01.497328
+111.169,-083.785,+026.727,+1.932,+0.333,+1.990,+02.3460,+04.5710,-16.8850,+00.709234,+01.977173,-00.109618
+119.645,-081.464,+019.218,+1.792,+0.314,+2.055,+03.8490,+01.2900,-04.2150,+00.647862,+02.122089,+00.180920
+125.315,-079.299,+014.155,+1.657,+0.356,+2.071,+01.9040,+00.5630,-06.5680,+00.430596,+02.116189,+00.256212
+129.637,-076.441,+010.644,+1.531,+0.342,+2.098,-00.6030,+00.9200,-11.6740,+00.768518,+03.002925,+00.222943
+133.334,-072.168,+008.102,+1.433,+0.348,+2.131,-02.2630,+00.9530,-11.3970,+00.898776,+04.282862,+00.294525
+136.361,-066.751,+005.965,+1.316,+0.379,+2.126,-04.0100,-00.1630,-08.0490,+00.394947,+05.032975,+00.352624
+138.582,-060.795,+004.164,+1.251,+0.375,+2.199,-05.5590,+00.9560,-08.6070,+00.122619,+05.357806,+00.409281
+140.203,-054.483,+003.028,+1.204,+0.361,+2.301,-08.2610,+00.8310,-10.1120,+00.239736,+05.673819,+00.393140
+141.243,-047.778,+002.380,+1.111,+0.348,+2.536,-10.0700,+00.5890,-09.6930,+00.041889,+05.961419,+00.211064
+141.742,-040.973,+001.795,+0.808,+0.293,+2.838,-10.6810,+00.6290,-07.7620,-00.372337,+05.872070,+00.019609
+141.829,-034.705,+000.813,+0.457,+0.262,+2.970,-11.2280,-00.8130,-04.1170,-01.156672,+05.106278,-00.139313
+141.420,-029.548,-000.853,+0.084,+0.236,+2.937,-13.8020,-01.6270,-10.5800,-01.871645,+04.300688,-00.448825
+140.296,-024.464,-002.686,-0.192,+0.163,+2.817,-14.7860,-00.9850,-14.4570,-02.011814,+04.588207,-00.876938
+138.618,-019.204,-004.304,-0.342,+0.100,+2.724,-14.9200,-02.7160,-13.8210,-01.949135,+04.699650,-01.197923
+136.347,-013.893,-006.133,-0.496,+0.036,+2.609,-15.3180,-06.3790,-11.6100,-02.334863,+04.813734,-01.681570
+133.165,-008.934,-008.595,-0.618,-0.093,+2.540,-15.5990,-08.7460,-08.4620,-02.880950,+04.486063,-02.454259
+129.069,-004.822,-011.569,-0.716,-0.252,+2.515,-14.6790,-06.6560,-07.1910,-03.001974,+03.932740,-03.039959
+124.825,-001.641,-014.457,-0.792,-0.376,+2.409,-13.2610,-03.9930,-07.0670,-02.475863,+03.325453,-02.844405
+121.223,+000.939,-016.565,-0.862,-0.510,+2.352,-11.9760,-02.0420,-05.4280,-01.430029,+02.803612,-02.133686
+118.544,+002.801,-017.593,-0.895,-0.565,+2.303,-11.6790,-05.4300,+00.5530,-00.570221,+01.841291,-01.606070
+116.350,+003.639,-018.176,-0.909,-0.609,+2.281,-13.2260,-07.5600,-01.6340,-00.234922,+01.034678,-01.649323
+114.041,+003.680,-018.145,-0.904,-0.624,+2.286,-12.1200,-06.6560,-03.1880,+00.460494,+00.433366,-02.059627
+111.580,+002.794,-017.333,-0.890,-0.644,+2.298,-08.9740,-03.6980,-03.5450,+00.978651,-00.417419,-02.373862
+109.258,+001.103,-016.218,-0.815,-0.620,+2.334,-06.1780,+01.4620,-07.7300,+01.041415,-00.991328,-02.281272
+107.423,-000.436,-014.725,-0.759,-0.601,+2.369,+09.7300,+10.9310,-25.3960,+01.447958,-00.532050,-01.675514
+105.015,-002.114,-013.167,-0.698,-0.581,+2.409,+04.4500,+10.9100,-03.9000,+01.707778,-01.550827,-02.668173
+103.836,-004.863,-011.317,-0.609,-0.507,+2.472,-02.0890,+11.8570,-04.5180,+01.658617,-02.326594,-00.484569
+104.532,-007.527,-009.965,-0.516,-0.492,+2.558,-05.7500,-03.0940,-15.4140,+01.090239,-02.265220,+00.258229
+104.954,-010.101,-009.271,-0.441,-0.458,+2.604,-03.5590,-04.5340,-09.8240,+00.334870,-02.358577,-00.183729
+105.357,-012.945,-009.039,-0.324,-0.389,+2.641,-02.4060,+03.0930,-09.7260,+00.329501,-02.632518,+00.069519
+105.825,-016.269,-008.898,-0.217,-0.385,+2.668,-05.3980,-05.7080,-16.1500,-00.151689,-02.955863,-00.357345
+105.846,-019.198,-008.503,-0.123,-0.386,+2.705,-06.8550,+05.1090,-13.8450,+00.564049,-01.983304,-00.190717
+105.867,-020.655,-008.418,-0.053,-0.352,+2.718,-04.6550,+00.7500,-09.1780,-00.083925,-00.955065,-00.154084
+105.872,-021.291,-008.476,-0.025,-0.372,+2.714,-04.1020,-00.2850,-08.6340,-00.043798,-00.347012,-00.074985
+105.833,-021.611,-008.422,-0.025,-0.357,+2.720,-03.7190,+01.1270,-09.0190,+00.066697,-00.266279,-00.075821
+105.744,-021.894,-008.296,-0.006,-0.352,+2.715,-03.7730,+01.2070,-08.9130,+00.082826,-00.225155,-00.121354
+105.641,-022.134,-008.167,-0.006,-0.352,+2.720,-04.0090,+01.1570,-08.8230,+00.071643,-00.178930,-00.097707
+105.575,-022.307,-008.095,+0.003,-0.352,+2.726,-03.8910,+01.3370,-08.7160,+00.028134,-00.122115,-00.072785
+105.520,-022.426,-008.062,+0.017,-0.338,+2.721,-03.7680,+01.2720,-08.7860,+00.002184,-00.076501,-00.034789
+105.526,-022.479,-008.084,+0.012,-0.357,+2.732,-03.7260,+01.3430,-08.6730,-00.029283,-00.033854,+00.012334
+105.537,-022.496,-008.116,+0.017,-0.342,+2.732,-03.7670,+01.5350,-08.6320,-00.019025,-00.005159,+00.001477
+105.506,-022.498,-008.100,+0.012,-0.333,+2.710,-03.7060,+01.6230,-08.6210,+00.017484,+00.002892,-00.043692
+105.416,-022.501,-008.037,+0.012,-0.342,+2.710,-03.5740,+01.2520,-08.6400,+00.024234,+00.006731,-00.084373
+105.306,-022.505,-007.983,+0.008,-0.332,+2.726,-03.7340,+01.1030,-08.6790,+00.001348,+00.009825,-00.084359
+105.238,-022.480,-007.982,+0.003,-0.337,+2.715,-03.8080,+00.9010,-08.6970,-00.039625,+00.043906,-00.025060
+105.253,-022.405,-008.067,+0.008,-0.333,+2.705,-03.5700,+01.0270,-08.6460,-00.080723,+00.071882,+00.040144
+105.278,-022.328,-008.175,-0.002,-0.352,+2.715,-03.2330,+01.4420,-08.5620,-00.079909,+00.042650,+00.005726
+105.242,-022.331,-008.250,+0.008,-0.318,+2.715,-03.4250,+01.3900,-08.5180,-00.067823,-00.011442,-00.048460
+105.136,-022.360,-008.267,+0.008,-0.357,+2.694,-03.7590,+01.2470,-08.5950,-00.043635,-00.007985,-00.105638
+105.000,-022.367,-008.265,+0.008,-0.327,+2.715,-03.8480,+01.2640,-08.7060,-00.044933,+00.018666,-00.102366
+104.906,-022.338,-008.295,+0.003,-0.332,+2.710,-03.9210,+01.3310,-08.6260,-00.072724,+00.046928,-00.044800
+104.881,-022.287,-008.390,+0.003,-0.357,+2.710,-03.1510,+01.7310,-08.4480,-00.089057,+00.037031,-00.011008
+104.843,-022.326,-008.435,-0.002,-0.357,+2.726,-03.4070,+01.5350,-08.6010,-00.031200,-00.063517,-00.048539
+104.762,-022.456,-008.414,+0.003,-0.347,+2.715,-03.5360,+01.2500,-08.6700,+00.007433,-00.118157,-00.092350
+104.670,-022.619,-008.366,+0.003,-0.343,+2.688,-03.6860,+01.4160,-08.5560,+00.000430,-00.137887,-00.084792
+104.622,-022.787,-008.384,+0.012,-0.342,+2.727,-03.7600,+01.3910,-08.6830,-00.049324,-00.134751,-00.048452
+104.612,-022.935,-008.461,+0.022,-0.338,+2.694,-03.6950,+01.3850,-08.5740,-00.080419,-00.133096,-00.016277
+104.634,-023.150,-008.581,+0.022,-0.373,+2.700,-03.4540,+01.4740,-08.4990,-00.101208,-00.231854,-00.010688
+104.672,-023.472,-008.680,+0.036,-0.368,+2.733,-03.5460,+01.6910,-08.4130,-00.052485,-00.317664,-00.019436
+104.654,-023.916,-008.691,+0.059,-0.353,+2.707,-03.8960,+01.3280,-08.5580,-00.001207,-00.412506,-00.099813
+104.595,-024.444,-008.654,+0.059,-0.358,+2.702,-03.8890,+01.3100,-08.6130,+00.019976,-00.458954,-00.109291
+104.609,-024.999,-008.629,+0.092,-0.353,+2.725,-03.7830,+01.2130,-08.6210,+00.056475,-00.499889,-00.026126
+104.837,-025.575,-008.605,+0.115,-0.348,+2.720,-03.8820,+01.2730,-08.5760,+00.148123,-00.557792,+00.163048
+105.255,-026.297,-008.565,+0.129,-0.349,+2.721,-03.9540,+01.3330,-08.4320,+00.204698,-00.748156,+00.271194
+105.842,-027.312,-008.604,+0.162,-0.344,+2.733,-03.8430,+01.4110,-08.6490,+00.207924,-01.082006,+00.360590
+106.694,-028.767,-008.833,+0.218,-0.310,+2.714,-04.2300,+01.1960,-08.4340,+00.079896,-01.531949,+00.512659
+108.046,-030.762,-009.696,+0.297,-0.330,+2.706,-04.0910,+00.7970,-08.8070,-00.254776,-02.064218,+00.862173
+110.155,-033.200,-011.354,+0.358,-0.361,+2.704,-05.4380,+00.3770,-08.9930,-00.710177,-02.583416,+01.322857
+113.516,-035.992,-014.747,+0.465,-0.402,+2.660,-06.5910,+00.0410,-08.8370,-01.714861,-03.088200,+02.098180
+118.397,-038.808,-020.350,+0.554,-0.508,+2.572,-05.0750,-01.4300,-09.9750,-02.722470,-03.507193,+02.695642
+124.588,-041.472,-028.722,+0.624,-0.653,+2.484,-07.2230,-00.3350,-10.4580,-04.612425,-04.040842,+02.606874
+131.387,-044.068,-040.370,+0.730,-0.860,+2.283,-08.5970,-01.5320,-12.0420,-07.198806,-04.297923,+02.036241
+138.002,-045.896,-056.635,+0.771,-1.191,+1.924,-08.0890,+03.0680,-08.8860,-11.823120,-04.219420,+01.139902
+144.672,-047.984,-075.788,+0.822,-1.427,+1.563,-11.1150,+03.5340,-10.8140,-12.616060,-04.584348,-01.094901
+150.302,-050.638,-091.812,+0.915,-1.535,+1.057,-13.8050,+19.0150,-36.6980,-07.239945,-01.493632,-01.963812
+146.613,-052.710,-091.720,+0.947,-1.526,+0.879,-08.4320,+06.5800,-29.7350,-01.002790,+03.378506,-01.865860
+137.539,-055.490,-083.472,+0.966,-1.496,+0.945,-04.9750,-06.7260,-11.4610,+01.005236,+04.835281,-03.270478
+126.012,-059.228,-073.116,+1.083,-1.452,+0.961,-03.4030,-07.0910,-04.2370,+00.290295,+04.417218,-04.822892
+112.008,-062.988,-060.384,+1.260,-1.399,+1.001,-04.7120,+00.9020,-08.9390,+00.645646,+04.064988,-05.423598
+095.222,-064.614,-043.730,+1.424,-1.341,+1.116,-04.0020,+07.7760,-12.7620,+01.800098,+04.405108,-04.727928
+079.977,-062.763,-027.231,+1.574,-1.222,+1.296,-03.1660,+09.4450,-10.8930,+02.753307,+04.911836,-03.295558
+070.291,-058.346,-015.775,+1.631,-1.136,+1.640,-03.7140,+06.0670,-06.7930,+02.330669,+05.175579,-02.045563
+065.073,-053.018,-009.745,+1.570,-1.079,+1.941,-03.9700,+06.0150,-05.6230,+01.025699,+05.018825,-01.168564
+062.648,-047.530,-006.982,+1.286,-1.025,+2.189,-05.7880,+07.6490,-08.8470,+00.768993,+04.919514,-00.342211
+061.830,-041.755,-005.402,+0.917,-1.026,+2.222,-08.1620,+05.0240,-11.3380,+00.872685,+05.201597,+00.207661
+061.466,-035.524,-004.650,+0.697,-1.000,+2.142,-09.9170,+02.0580,-11.1940,+00.156726,+05.559586,+00.172125
+060.989,-029.160,-004.542,+0.646,-1.019,+2.064,-10.3510,+04.1470,-09.5930,-00.227224,+05.492189,+00.085339
+060.806,-023.117,-004.822,+0.604,-1.038,+2.181,-12.2410,+04.7320,-09.9200,-00.407371,+05.136615,+00.455732
+061.253,-017.234,-005.630,+0.478,-1.041,+2.323,-15.6810,+03.1930,-12.5090,-00.642860,+05.085039,+01.070757
+062.172,-011.383,-006.550,+0.226,-1.049,+2.377,-15.7580,-00.6480,-10.6280,-00.578770,+04.864655,+01.382242
+063.036,-006.083,-007.061,-0.031,-1.131,+2.372,-16.6080,-01.1480,-09.5430,-00.093229,+04.263321,+01.203556
+063.561,-001.591,-006.753,-0.186,-1.105,+2.338,-16.5300,-01.1670,-07.6670,+00.469542,+03.589825,+00.728227
+063.515,+002.114,-006.289,-0.316,-1.079,+2.250,-15.3100,+00.0810,-05.6270,+00.297665,+02.992912,+00.092885
+063.008,+005.023,-006.332,-0.363,-1.093,+2.210,-14.6590,+01.9190,-01.9310,-00.188043,+02.274249,-00.255298
+062.545,+006.847,-006.829,-0.401,-1.113,+2.192,-14.0100,+02.8550,+01.1550,-00.491536,+01.199629,-00.150760
+062.407,+007.428,-007.427,-0.391,-1.084,+2.138,-14.7700,+02.4100,+00.8410,-00.464421,+00.142949,-00.018578
+062.402,+007.028,-007.889,-0.368,-1.144,+2.134,-15.3570,+01.1010,-00.6880,-00.338097,-00.591525,-00.114470
+062.128,+005.819,-008.127,-0.317,-1.144,+2.136,-14.9790,+00.4810,-01.7150,-00.059225,-01.259475,-00.568164
+061.503,+003.949,-007.564,-0.247,-1.150,+2.118,+03.0700,+08.2180,-13.8150,+01.634683,-01.554882,-00.592045
+061.198,+002.706,-006.128,-0.200,-1.125,+2.147,+23.1450,+01.3250,-14.3080,-00.185129,-01.173481,-00.259933
+060.964,-000.490,-007.028,-0.106,-1.136,+2.162,-00.4880,+02.3080,+01.5340,-00.875233,-03.897437,-00.359929
+061.572,-004.367,-007.061,+0.043,-1.128,+2.130,-09.2120,-07.0640,-17.9020,+00.157597,-03.016920,+00.020794
+061.063,-007.378,-007.272,+0.146,-1.129,+2.119,-05.4540,-01.5500,-15.0500,-00.548887,-02.376049,-01.094065
+060.506,-009.905,-007.929,+0.239,-1.160,+2.101,-04.7740,+10.8450,-12.1970,-00.282488,-01.973717,-00.371196
+060.809,-011.940,-007.715,+0.305,-1.136,+2.071,-02.8820,+00.3590,-09.7090,+00.440872,-01.709469,+00.104461
+060.990,-013.901,-007.324,+0.370,-1.111,+2.074,-02.0650,-01.9740,-09.1600,+00.263557,-01.784810,-00.219603
+060.952,-015.963,-007.025,+0.421,-1.107,+2.076,-04.5650,+03.0250,-12.7450,+00.338459,-01.705357,-00.216421
+060.884,-017.451,-006.689,+0.477,-1.097,+2.057,-03.3280,+00.7370,-10.1230,+00.308697,-01.106248,-00.206886
+060.733,-018.412,-006.429,+0.520,-1.103,+2.048,-03.4560,+01.2060,-09.6540,+00.149559,-00.686218,-00.232690
+060.526,-019.016,-006.337,+0.543,-1.088,+2.076,-03.7400,+01.1550,-09.3250,-00.094102,-00.416209,-00.213337
+060.332,-019.339,-006.402,+0.552,-1.073,+2.044,-03.4460,+00.7410,-08.9940,-00.117256,-00.189904,-00.172375
+060.213,-019.491,-006.500,+0.566,-1.113,+2.028,-03.3140,+00.6090,-09.0530,-00.102433,-00.101737,-00.082233
+060.188,-019.617,-006.642,+0.580,-1.113,+2.067,-03.3700,+01.0700,-08.6590,-00.171992,-00.115770,+00.008570
+060.280,-019.752,-006.935,+0.562,-1.099,+2.012,-03.0030,+01.1160,-08.8140,-00.253380,-00.139159,+00.074033
+060.386,-019.892,-007.252,+0.571,-1.114,+2.023,-03.0440,+01.1960,-08.7250,-00.245003,-00.129427,+00.064984
+060.442,-020.025,-007.499,+0.571,-1.123,+2.028,-03.3540,+01.6270,-08.7720,-00.167447,-00.118388,+00.005425
+060.424,-020.166,-007.652,+0.575,-1.124,+2.001,-03.3720,+01.3870,-08.7450,-00.128135,-00.124542,-00.043813
+060.375,-020.310,-007.765,+0.571,-1.129,+2.001,-03.3340,+01.3270,-08.7360,-00.106545,-00.116722,-00.061732
+060.309,-020.446,-007.854,+0.580,-1.153,+2.018,-03.4730,+01.2780,-08.7390,-00.099273,-00.111727,-00.075119
+060.229,-020.581,-007.922,+0.599,-1.114,+1.992,-03.3810,+01.2970,-08.7860,-00.071894,-00.106368,-00.081304
+060.134,-020.714,-007.928,+0.608,-1.129,+1.987,-03.2920,+01.5060,-08.6800,-00.014844,-00.105406,-00.109686
+059.973,-020.871,-007.866,+0.604,-1.124,+2.003,-03.4000,+01.3720,-08.6850,+00.015292,-00.121637,-00.164875
+059.762,-021.037,-007.737,+0.622,-1.109,+1.998,-03.3970,+01.2940,-08.6940,+00.073605,-00.121120,-00.206534
+059.517,-021.207,-007.546,+0.627,-1.109,+1.987,-03.4340,+01.2820,-08.6630,+00.086850,-00.132782,-00.219568
+059.267,-021.418,-007.357,+0.632,-1.139,+2.015,-03.4850,+01.1780,-08.6700,+00.089533,-00.168175,-00.227039
+059.010,-021.684,-007.125,+0.660,-1.095,+1.972,-03.3820,+01.3960,-08.6350,+00.149468,-00.228548,-00.250598
+058.696,-022.043,-006.822,+0.678,-1.095,+1.984,-03.7600,+01.2640,-08.6570,+00.163341,-00.318573,-00.308673
+058.362,-022.538,-006.481,+0.678,-1.095,+2.017,-03.5730,+01.2050,-08.7710,+00.206938,-00.447956,-00.318212
+058.051,-023.232,-006.049,+0.716,-1.075,+2.002,-03.4290,+01.1220,-08.7830,+00.317439,-00.656483,-00.300635
+057.887,-024.156,-005.552,+0.734,-1.070,+1.981,-03.9580,+00.7000,-08.6240,+00.400923,-00.867619,-00.148578
+057.971,-025.367,-005.059,+0.758,-1.061,+2.004,-04.0670,+00.7260,-08.5430,+00.504835,-01.183565,+00.063912
+058.458,-026.921,-004.646,+0.800,-1.031,+1.983,-03.0870,+00.4590,-08.6680,+00.598607,-01.517187,+00.369541
+059.358,-028.926,-004.287,+0.842,-1.027,+1.969,-04.3960,+01.1460,-08.7040,+00.720583,-02.010878,+00.640484
+060.635,-031.716,-004.232,+0.884,-1.037,+1.976,-03.1790,+00.8030,-08.5700,+00.594102,-02.775396,+00.818243
+062.284,-035.479,-004.619,+0.963,-1.013,+1.936,-04.8680,+01.7930,-08.7610,+00.274396,-03.812978,+01.116383
+064.773,-040.584,-006.331,+1.038,-1.034,+1.825,-07.2520,+00.0970,-10.1050,-00.368629,-05.034293,+01.265396
+067.258,-046.980,-008.592,+1.145,-1.105,+1.760,-06.4410,-01.4910,-10.9950,-00.763186,-06.160258,+00.564860
+070.389,-054.407,-012.636,+1.304,-1.113,+1.604,-09.1220,+01.7220,-10.6550,-01.920572,-07.034988,+00.481007
+075.452,-062.992,-019.678,+1.443,-1.160,+1.355,-09.7390,+00.7810,-11.2060,-02.917849,-08.288949,-00.156304
+085.632,-072.290,-032.383,+1.569,-1.173,+1.105,-08.4090,+01.2760,-16.6320,-02.841430,-08.733269,-00.916771
+105.186,-079.904,-054.321,+1.690,-1.155,+0.800,-12.7600,+05.5920,-22.0180,-01.741012,-06.204570,-01.620197
+118.143,-082.994,-067.092,+1.770,-1.092,+0.727,-22.4000,+01.8260,-50.8830,+00.863510,-00.067051,-01.317426
+096.505,-083.211,-045.961,+1.812,-1.052,+0.816,+01.2490,-00.1410,-14.1540,-00.535920,+02.633657,-01.621437
+070.752,-081.691,-020.704,+1.859,-0.977,+0.931,+02.6230,+02.2290,-04.7130,-00.025134,+02.572745,-01.761315
+056.009,-079.458,-005.733,+1.878,-0.942,+1.046,+01.3710,+04.5360,-05.8360,+00.648861,+02.311451,-01.459789
+049.727,-076.545,+001.610,+1.873,-0.896,+1.171,-00.9570,+06.5600,-10.7160,+01.229375,+02.864366,-00.741721
+049.836,-072.392,+002.934,+1.822,-0.875,+1.342,-02.8550,+05.8340,-12.3830,+01.129868,+04.119249,+00.255846
+052.968,-066.940,+000.969,+1.696,-0.898,+1.587,-05.0110,+03.2410,-08.4860,+00.682906,+05.082743,+01.004560
+055.778,-060.905,-001.062,+1.514,-0.920,+1.802,-06.4560,+00.9680,-07.7860,+00.316782,+05.340176,+01.069175
+057.302,-054.636,-002.047,+1.202,-0.896,+1.951,-08.7300,-00.6580,-09.4230,+00.274165,+05.525586,+00.666010
+057.533,-048.083,-002.020,+0.893,-0.898,+1.932,-09.8050,+00.2620,-09.6610,+00.093111,+05.806733,+00.159289
+057.281,-041.403,-002.107,+0.800,-0.902,+1.857,-10.1190,+01.0990,-08.2660,-00.460042,+05.820913,+00.016269
+057.040,-035.119,-003.019,+0.776,-0.942,+1.786,-10.0090,+01.3470,-04.3250,-01.212300,+05.114801,+00.144948
+057.086,-030.020,-004.507,+0.842,-1.028,+1.790,-11.4280,+01.8630,-10.5690,-01.267688,+04.135528,+00.413234
+057.174,-025.037,-005.929,+0.958,-1.113,+1.899,-13.6820,-00.4370,-17.6520,-01.138129,+04.556431,+00.474726
+056.820,-019.413,-007.015,+0.968,-1.211,+2.177,-14.0840,-04.3400,-15.7690,-00.996602,+05.058207,+00.059585
+055.480,-013.676,-007.652,+0.749,-1.282,+2.499,-15.0520,-05.0720,-12.7210,-00.821956,+05.077558,-00.799023
+053.291,-008.285,-008.170,+0.482,-1.369,+2.657,-15.9090,-02.3120,-09.7910,-00.857327,+04.800099,-01.408533
+050.697,-003.400,-009.044,+0.174,-1.431,+2.600,-16.5570,-01.0950,-06.4640,-01.089338,+04.351891,-01.696222
+047.703,+000.625,-010.915,-0.009,-1.514,+2.452,-17.3120,-07.6380,-01.9230,-02.145873,+03.635583,-02.186912
+043.958,+003.490,-013.930,-0.060,-1.614,+2.352,-18.4500,-06.7820,-01.5770,-02.443937,+02.858110,-02.924727
+039.852,+005.145,-016.202,-0.051,-1.660,+2.184,-17.0580,-02.5240,+01.3040,-01.174585,+01.976696,-03.058856
+036.236,+005.470,-017.333,+0.005,-1.705,+2.111,-16.0950,-02.5700,+04.0870,-00.558968,+00.692622,-02.857220
+033.170,+004.463,-018.293,+0.094,-1.751,+2.126,-15.3230,-00.9790,+01.2910,-00.613912,-00.412820,-02.797702
+030.704,+002.050,-016.782,+0.220,-1.712,+2.137,+02.3710,+05.5410,-15.7970,+02.518533,-01.485776,-02.343645
+028.412,-000.586,-015.273,+0.341,-1.693,+2.175,+09.9740,+20.0080,-10.5200,+01.621039,-02.043213,-02.426620
+028.366,-003.696,-013.307,+0.416,-1.649,+2.216,-07.7240,-01.7090,-08.0910,+01.859931,-02.920189,-00.166168
+028.561,-006.859,-010.740,+0.514,-1.570,+2.230,-04.6230,-10.4310,-08.8690,+01.997893,-02.697436,-00.540239
+028.884,-009.986,-009.483,+0.580,-1.551,+2.206,-03.2460,+02.7770,-11.9840,+00.753005,-02.705185,+00.142630
+029.936,-012.898,-008.942,+0.617,-1.566,+2.224,-06.5840,+02.4180,-14.0910,+00.846854,-02.549985,+00.544845
+030.939,-015.575,-008.087,+0.687,-1.512,+2.199,-01.2660,-00.7530,-11.1760,+00.801910,-02.580694,+00.459353
+031.471,-018.291,-007.936,+0.739,-1.533,+2.169,-03.8300,+04.4230,-12.1640,+00.198212,-02.363276,+00.104437
+031.582,-020.140,-007.970,+0.771,-1.533,+2.176,-04.7500,-00.4190,-10.5730,-00.256800,-01.233980,-00.282196
+031.365,-020.743,-008.178,+0.804,-1.534,+2.134,-04.3320,+00.4860,-09.5220,-00.023109,-00.277779,-00.256322
+031.075,-020.985,-007.969,+0.818,-1.539,+2.118,-04.2510,+01.2750,-08.9070,+00.181185,-00.139852,-00.243170
+030.854,-021.151,-007.644,+0.827,-1.529,+2.151,-03.8270,+00.8350,-08.9070,+00.226446,-00.107817,-00.167372
+030.713,-021.319,-007.289,+0.832,-1.499,+2.135,-03.7430,+01.3710,-08.6960,+00.250253,-00.144591,-00.121097
+030.614,-021.499,-007.029,+0.855,-1.514,+2.158,-03.5500,+01.0280,-08.7500,+00.157923,-00.155567,-00.085418
+030.546,-021.700,-006.840,+0.860,-1.504,+2.158,-03.6880,+01.3730,-08.7510,+00.140316,-00.162205,-00.079620
+030.461,-021.880,-006.675,+0.851,-1.494,+2.157,-03.7180,+01.3040,-08.6220,+00.091843,-00.138177,-00.089120
+030.345,-022.049,-006.557,+0.869,-1.499,+2.147,-03.6690,+01.4810,-08.7180,+00.054455,-00.134579,-00.127832
+030.180,-022.226,-006.458,+0.869,-1.504,+2.175,-03.6360,+01.2250,-08.6050,+00.018211,-00.140975,-00.161588
+030.010,-022.389,-006.409,+0.874,-1.494,+2.153,-03.7840,+00.8860,-08.6850,-00.034040,-00.112160,-00.132150
+029.934,-022.505,-006.474,+0.893,-1.495,+2.127,-03.8030,+00.7890,-08.6940,-00.106920,-00.082887,-00.031813
+029.964,-022.588,-006.650,+0.883,-1.505,+2.154,-03.6050,+01.0810,-08.6370,-00.161730,-00.075557,+00.031697
+030.034,-022.664,-006.886,+0.883,-1.480,+2.121,-03.6510,+01.0110,-08.5790,-00.192883,-00.076098,+00.056149
+030.124,-022.746,-007.152,+0.879,-1.515,+2.115,-03.7830,+01.2340,-08.5870,-00.200320,-00.083603,+00.062738
+030.207,-022.826,-007.405,+0.902,-1.520,+2.133,-03.9700,+01.2870,-08.6080,-00.195043,-00.070032,+00.053165
+030.286,-022.862,-007.646,+0.879,-1.505,+2.115,-03.9720,+01.2920,-08.6540,-00.175214,-00.014759,+00.065882
+030.366,-022.834,-007.867,+0.879,-1.530,+2.094,-03.8030,+01.3520,-08.6680,-00.154088,+00.025130,+00.059614
+030.402,-022.798,-008.031,+0.860,-1.544,+2.109,-03.7100,+01.5040,-08.5650,-00.112291,+00.021911,+00.008071
+030.365,-022.783,-008.137,+0.893,-1.525,+2.100,-03.8920,+01.3460,-08.5200,-00.098505,+00.014199,-00.041466
+030.300,-022.794,-008.203,+0.883,-1.535,+2.078,-03.8390,+01.5240,-08.5840,-00.068159,-00.007381,-00.055350
+030.237,-022.815,-008.242,+0.879,-1.550,+2.105,-03.8940,+01.3150,-08.6880,-00.056543,-00.010336,-00.046577
+030.188,-022.827,-008.270,+0.888,-1.535,+2.083,-03.4690,+01.6760,-08.6850,-00.016525,-00.013215,-00.047910
+030.110,-022.880,-008.247,+0.883,-1.535,+2.078,-03.5510,+01.7450,-08.4680,-00.008659,-00.061080,-00.090442
+029.987,-023.016,-008.206,+0.883,-1.535,+2.105,-03.7870,+01.4370,-08.5280,-00.006780,-00.122881,-00.120984
+029.849,-023.188,-008.137,+0.907,-1.535,+2.084,-03.9410,+01.4000,-08.6090,+00.019656,-00.133704,-00.131356
+029.722,-023.370,-008.066,+0.911,-1.550,+2.084,-03.8680,+01.4640,-08.5560,+00.017728,-00.147008,-00.123461
+029.592,-023.572,-008.007,+0.930,-1.550,+2.091,-03.9530,+01.5010,-08.4550,-00.005804,-00.165228,-00.127992
+029.458,-023.795,-007.953,+0.925,-1.515,+2.079,-03.6540,+01.5870,-08.5270,+00.013176,-00.191207,-00.137777
+029.322,-024.073,-007.892,+0.939,-1.530,+2.064,-03.9060,+01.4150,-08.4000,-00.007392,-00.247319,-00.142109
+029.206,-024.425,-007.861,+0.944,-1.530,+2.080,-03.8250,+01.2940,-08.5580,-00.007317,-00.324453,-00.120962
+029.200,-024.846,-007.840,+0.963,-1.506,+2.059,-04.1440,+01.1770,-08.5640,+00.030439,-00.383355,-00.002907
+029.411,-025.277,-007.871,+0.963,-1.531,+2.054,-04.1350,+01.2080,-08.4530,+00.068815,-00.392605,+00.185350
+029.766,-025.699,-007.888,+0.977,-1.526,+2.065,-04.0570,+01.4570,-08.4480,+00.153639,-00.427160,+00.234317
+030.078,-026.266,-007.797,+0.981,-1.511,+2.027,-04.0930,+01.6550,-08.4020,+00.221174,-00.591332,+00.123986
+030.235,-027.072,-007.629,+0.995,-1.506,+2.017,-04.1800,+01.3180,-08.3360,+00.195422,-00.787942,-00.016386
+030.351,-028.095,-007.489,+1.014,-1.531,+2.040,-04.2070,+01.0980,-08.4260,+00.166003,-00.962673,-00.015577
+030.683,-029.324,-007.460,+1.047,-1.482,+2.003,-04.3110,+00.8920,-08.3870,+00.147941,-01.190993,+00.211580
+031.331,-030.892,-007.739,+1.075,-1.512,+1.983,-04.9060,+00.5210,-08.2710,-00.027393,-01.568231,+00.353715
+032.481,-032.838,-008.613,+1.098,-1.527,+1.973,-03.7900,+00.5120,-08.6050,-00.378188,-01.943082,+00.753600
+034.452,-035.063,-010.712,+1.135,-1.573,+1.888,-06.0730,+00.1850,-08.7730,-01.182837,-02.250352,+01.363250
+037.685,-037.264,-014.764,+1.116,-1.663,+1.763,-05.9560,-02.1630,-10.2120,-02.446598,-02.479017,+02.127574
+042.509,-039.183,-021.808,+1.088,-1.758,+1.637,-05.1990,-02.8450,-11.2960,-04.153607,-02.775727,+02.847511
+048.556,-040.747,-032.122,+1.036,-1.889,+1.304,-08.0970,-01.6970,-10.5350,-06.557905,-03.154646,+03.000603
+054.200,-041.436,-045.905,+0.960,-2.029,+0.900,-09.5420,-02.6210,-13.6560,-10.204450,-02.336977,+02.252028
+057.952,-041.331,-063.624,+0.922,-2.051,+0.382,-10.7200,-00.0860,-08.3880,-14.341430,-01.755376,+00.903099
+060.240,-042.670,-080.549,+0.959,-1.861,-0.281,-08.7660,+11.5790,-14.4910,-11.204680,-01.267391,-01.289541
+056.964,-044.625,-082.926,+1.118,-1.709,-0.400,-07.6350,-01.7820,-29.9850,-01.080842,+03.046164,-02.469060
+049.246,-048.008,-077.400,+1.338,-1.611,-0.315,-06.4520,-09.3120,-11.4940,-00.058061,+04.461841,-04.410709
+038.668,-052.398,-070.214,+1.623,-1.424,-0.201,-06.8000,-03.8520,-07.5700,-01.077575,+04.637263,-05.771897
+024.967,-056.600,-059.378,+1.895,-1.181,-0.028,-06.3930,+03.6480,-09.8500,+00.390592,+04.779153,-06.420136
+008.602,-059.028,-043.984,+2.124,-0.959,+0.149,-04.4220,+05.0460,-07.3210,+01.644725,+04.540463,-06.195234
-007.289,-058.801,-028.642,+2.340,-0.641,+0.341,-03.7290,+06.8740,-08.2380,+01.285442,+04.345482,-05.216999
-019.273,-056.033,-017.445,+2.485,-0.417,+0.602,-02.6710,+09.0370,-08.3290,+00.783623,+04.446421,-03.610563
-026.293,-051.931,-010.963,+2.579,-0.257,+0.849,-02.2420,+07.7420,-06.3910,+00.603900,+04.266244,-02.070210
-029.814,-047.513,-008.010,+2.645,-0.122,+1.172,-03.1690,+06.4520,-07.8890,+00.009224,+04.076177,-00.896035
-031.141,-042.960,-007.122,+2.581,-0.045,+1.543,-04.1650,+06.3420,-09.9490,-00.028603,+04.031040,+00.045206
-031.208,-038.284,-007.136,+2.417,-0.047,+1.819,-05.7630,+04.3590,-10.9160,-00.096007,+04.076220,+00.669672
-030.694,-033.491,-007.736,+2.207,-0.064,+2.000,-06.8700,+03.4540,-11.6850,-00.361530,+04.106512,+01.014483
-029.978,-028.600,-008.558,+1.997,-0.146,+2.116,-08.5020,+02.8480,-13.5450,-00.363023,+04.190288,+01.182547
-029.411,-023.583,-009.136,+1.866,-0.214,+2.214,-09.8290,+01.3320,-13.6550,-00.229478,+04.287406,+01.037293
-029.206,-018.587,-009.457,+1.708,-0.242,+2.278,-10.7630,+00.7650,-13.2260,-00.236939,+04.255549,+00.771229
-029.208,-013.624,-009.798,+1.572,-0.315,+2.382,-12.6730,+02.0820,-13.9310,-00.286636,+04.306956,+00.729768
-029.209,-008.579,-010.053,+1.446,-0.318,+2.485,-13.2890,+02.2100,-10.9870,-00.177223,+04.313748,+00.755503
-029.276,-003.823,-010.216,+1.283,-0.346,+2.559,-13.1490,+02.0180,-08.2120,-00.126085,+03.939265,+00.615051
-029.533,+000.411,-010.305,+1.110,-0.369,+2.644,-13.9370,-00.7320,-06.7330,-00.059627,+03.526961,+00.267276
-030.440,+004.062,-010.592,+0.998,-0.377,+2.699,-15.8450,-01.3670,-02.2670,-00.371410,+03.051275,-00.458160
-031.619,+006.701,-011.173,+0.872,-0.351,+2.737,-16.5680,+01.9440,+02.0850,-00.298505,+02.032980,-00.530499
-032.183,+008.260,-010.797,+0.797,-0.355,+2.772,-17.0490,+02.3890,+02.4160,+00.799814,+01.077339,-00.040258
-032.140,+008.576,-009.641,+0.765,-0.285,+2.792,-15.9080,-00.5110,+03.1360,+00.930877,-00.222821,+00.117379
-031.834,+007.828,-009.126,+0.802,-0.270,+2.766,-14.6110,-00.1770,-01.4710,+00.105707,-00.888176,+00.207301
-031.616,+005.834,-008.653,+0.863,-0.276,+2.752,+03.4390,+03.2290,-07.6940,+00.706468,-02.432410,-00.268697
-032.068,+002.677,-008.553,+0.947,-0.257,+2.734,+12.9220,+06.3540,-14.0820,-00.541454,-03.214033,-01.078422
-032.543,-001.566,-009.068,+1.105,-0.239,+2.649,-15.3360,-01.6470,-09.5900,-00.227565,-03.744007,-00.588673
-032.592,-005.453,-008.759,+1.255,-0.201,+2.563,-06.9050,-02.7620,-16.9630,+00.158144,-03.044928,-00.706517
-032.344,-008.670,-008.739,+1.334,-0.207,+2.544,-04.0010,+07.3640,-10.8560,-00.006681,-02.777321,+00.237199
-031.579,-011.494,-008.804,+1.423,-0.198,+2.467,-05.6980,-01.4500,-13.3300,+00.050397,-02.417644,+00.085925
-031.129,-014.278,-008.946,+1.516,-0.219,+2.384,-05.1370,+04.8780,-14.8770,-00.038914,-02.512507,+00.047598
-030.786,-016.497,-009.493,+1.568,-0.205,+2.370,-04.0200,+00.2690,-12.3780,-00.278461,-01.684563,-00.072697
-030.542,-017.701,-009.820,+1.633,-0.206,+2.302,-03.6980,+01.3840,-10.3370,-00.225701,-00.829923,+00.035809
-030.387,-018.376,-010.333,+1.628,-0.216,+2.269,-03.9810,+01.4020,-09.3630,-00.464850,-00.479164,+00.034040
-030.242,-018.704,-010.928,+1.638,-0.256,+2.303,-03.6980,+00.9860,-09.2100,-00.509620,-00.215208,+00.081688
-030.092,-018.855,-011.516,+1.647,-0.251,+2.243,-03.2010,+02.5080,-08.7160,-00.447070,-00.142165,+00.090314
-029.978,-018.981,-012.018,+1.651,-0.281,+2.265,-03.1850,+01.6390,-08.7850,-00.382918,-00.136190,+00.054481
-029.905,-019.141,-012.460,+1.647,-0.321,+2.265,-03.5480,+02.2390,-08.7700,-00.338418,-00.141743,+00.017845
-029.882,-019.285,-012.790,+1.661,-0.296,+2.239,-03.5840,+02.4920,-08.6790,-00.238656,-00.116076,-00.023527
-029.903,-019.411,-012.923,+1.651,-0.311,+2.222,-03.2660,+02.4900,-08.5320,-00.055327,-00.101437,-00.057668
-029.978,-019.545,-012.860,+1.661,-0.321,+2.255,-03.3030,+02.2070,-08.6290,+00.087176,-00.085880,-00.107610
-030.138,-019.649,-012.580,+1.679,-0.282,+2.218,-03.5020,+02.3050,-08.4800,+00.247367,-00.048516,-00.172534
-030.421,-019.712,-012.126,+1.675,-0.301,+2.234,-03.5890,+02.4680,-08.3750,+00.338208,+00.010744,-00.271554
-030.735,-019.766,-011.731,+1.675,-0.286,+2.255,-03.7150,+01.6260,-08.7330,+00.193964,+00.008108,-00.247535
-030.986,-019.787,-011.466,+1.670,-0.262,+2.233,-03.4900,+01.5990,-08.6950,+00.148624,+00.033139,-00.183973
-031.168,-019.794,-011.227,+1.680,-0.222,+2.233,-03.0110,+01.8420,-08.5940,+00.165217,+00.006766,-00.139951
-031.347,-019.861,-010.940,+1.675,-0.237,+2.255,-03.2480,+01.9010,-08.6500,+00.223374,-00.046268,-00.175698
-031.640,-019.983,-010.473,+1.680,-0.207,+2.255,-03.4140,+01.9130,-08.5820,+00.390200,-00.064151,-00.311753
-032.050,-020.119,-009.912,+1.694,-0.192,+2.239,-03.7560,+01.7510,-08.5970,+00.315707,-00.052259,-00.344059
-032.399,-020.258,-009.525,+1.675,-0.187,+2.244,-03.5280,+01.2240,-08.6560,+00.199432,-00.089172,-00.268182
-032.636,-020.460,-009.117,+1.698,-0.147,+2.223,-03.0750,+01.5700,-08.6060,+00.347102,-00.181877,-00.202956
-032.866,-020.786,-008.567,+1.703,-0.147,+2.223,-03.3960,+01.6080,-08.6510,+00.429095,-00.287762,-00.258313
-033.211,-021.269,-007.950,+1.703,-0.137,+2.256,-03.7540,+01.1970,-08.6470,+00.423437,-00.424550,-00.369968
-033.556,-021.908,-007.319,+1.731,-0.083,+2.218,-03.5670,+00.9920,-08.6920,+00.454890,-00.576511,-00.316679
-033.675,-022.809,-006.668,+1.754,-0.068,+2.192,-03.4770,+00.7840,-08.7450,+00.573958,-00.892999,-00.105113
-033.503,-024.031,-006.036,+1.783,-0.054,+2.182,-03.7900,+01.0620,-08.6350,+00.613633,-01.201470,+00.062692
-033.189,-025.630,-005.462,+1.829,-0.024,+2.135,-04.0330,+01.0120,-08.7390,+00.614630,-01.536909,+00.154782
-032.623,-027.760,-005.013,+1.866,-0.030,+2.050,-03.9030,+01.2820,-08.7290,+00.624922,-02.154639,+00.362325
-031.852,-030.729,-004.643,+1.927,+0.004,+2.009,-04.1490,+01.0660,-08.4580,+00.687509,-02.929221,+00.394877
-030.628,-034.737,-004.513,+2.034,-0.023,+1.834,-06.4620,+01.0670,-08.2800,+00.577410,-04.017149,+00.908445
-028.807,-039.930,-005.022,+2.128,-0.065,+1.649,-05.0830,+00.3350,-11.0550,+00.384955,-04.937748,+00.799573
-026.856,-046.255,-006.463,+2.202,-0.081,+1.473,-05.2040,-00.3430,-12.1640,-00.369611,-05.998205,+00.552321
-024.828,-053.844,-009.212,+2.286,-0.064,+1.166,-10.3280,+01.1940,-09.7940,-01.572238,-07.135995,+00.177038
-021.413,-062.654,-015.180,+2.341,-0.096,+0.750,-09.6860,+00.3280,-11.6070,-03.465801,-08.255907,-00.252049
-014.382,-072.313,-025.755,+2.318,-0.067,+0.434,-09.1870,+01.3350,-17.7870,-03.721616,-08.684233,-01.143610
+000.652,-080.712,-044.195,+2.238,+0.046,+0.038,-13.4880,+04.6400,-21.3970,-02.576960,-06.610799,-01.698069
+015.949,-084.683,-059.408,+2.177,+0.101,-0.128,-24.5940,+07.0490,-46.7460,+00.749128,-01.128106,-01.189693
-003.834,-084.729,-039.272,+2.163,+0.131,-0.096,+00.4380,+00.8000,-18.1380,+00.341522,+02.228078,-01.101063
-026.558,-082.746,-016.361,+2.187,+0.206,-0.036,+02.4590,+00.1910,-06.3860,+00.247351,+02.524035,-01.108058
-038.085,-080.139,-004.399,+2.215,+0.241,+0.052,+01.0490,+00.7390,-08.4550,+00.717456,+02.551228,-01.064208
-044.305,-076.639,+003.042,+2.252,+0.251,+0.168,-01.2060,+01.6680,-12.2560,+01.351516,+03.478789,-00.992694
-045.835,-071.725,+005.883,+2.299,+0.326,+0.338,-02.0530,+01.8650,-10.6740,+01.000749,+04.661902,-00.493920
-044.542,-065.889,+005.507,+2.337,+0.307,+0.541,-03.4560,+03.6780,-09.2830,+00.643782,+05.311961,+00.145078
-042.287,-059.602,+004.238,+2.356,+0.293,+0.770,-06.2250,+02.2430,-09.0850,+00.598301,+05.674536,+00.561659
-040.245,-052.972,+003.032,+2.338,+0.284,+1.036,-07.4090,+01.1150,-08.4570,+00.350983,+05.888584,+00.596645
-039.014,-046.318,+002.315,+2.244,+0.232,+1.325,-08.7930,+00.7110,-08.6460,+00.123196,+05.778460,+00.286794
-038.546,-039.849,+001.972,+2.123,+0.219,+1.549,-09.1700,+01.9910,-08.2470,-00.171553,+05.552308,+00.009633
-038.261,-033.879,+001.088,+1.964,+0.146,+1.678,-09.9410,+03.0810,-07.8640,-00.880740,+04.948353,+00.138538
-037.776,-028.549,-000.577,+1.852,+0.104,+1.858,-12.0960,+03.4090,-14.0350,-01.455372,+04.595815,+00.435037
-037.276,-023.029,-002.519,+1.745,+0.076,+2.038,-13.0370,+01.7720,-15.9740,-01.467555,+04.926125,+00.540076
-037.115,-017.284,-004.277,+1.558,+0.028,+2.199,-14.1150,-00.7530,-14.7660,-01.535525,+05.016601,+00.345546
-037.373,-011.463,-006.181,+1.404,-0.034,+2.323,-16.2820,-01.1310,-13.5180,-01.764563,+05.108113,+00.207313
-037.841,-005.865,-007.919,+1.260,-0.082,+2.448,-16.8100,+00.4130,-08.7440,-01.363349,+04.684271,+00.220272
-038.169,-001.132,-008.840,+1.087,-0.085,+2.511,-17.2380,+01.7940,-04.8880,-00.507839,+03.754735,+00.396897
-038.358,+002.568,-009.276,+0.975,-0.128,+2.582,-19.5360,-01.6670,-02.7720,-00.455591,+02.964072,+00.220712
-039.013,+005.543,-010.208,+0.886,-0.177,+2.650,-19.5280,-02.7850,+01.5240,-00.918077,+02.418590,-00.326292
-039.957,+007.234,-011.207,+0.821,-0.186,+2.652,-18.0510,+00.2090,+06.3360,-00.567153,+00.993297,-00.569403
-040.313,+007.105,-011.347,+0.830,-0.196,+2.653,-17.3430,+02.0240,+04.8070,+00.167801,-00.623876,-00.112119
-039.753,+005.719,-010.825,+0.863,-0.207,+2.676,-16.9620,+01.2280,-01.7550,+00.501808,-01.550921,+00.420193
-038.746,+004.041,-009.151,+0.942,-0.133,+2.624,+01.8790,+05.3150,-19.3200,+02.674545,-01.440179,+00.828637
-038.429,+001.957,-007.557,+1.017,-0.069,+2.600,+19.6660,+00.3590,-09.5450,+00.182885,-02.561403,-00.541469
-038.364,-002.760,-007.614,+1.157,-0.075,+2.585,-13.3980,-06.7370,-09.3840,-00.755818,-04.494653,+00.041719
-037.418,-006.894,-008.180,+1.325,-0.093,+2.462,-09.7910,-12.4970,-15.8350,-00.573377,-03.335951,-00.039809
-037.212,-010.225,-009.102,+1.442,-0.119,+2.385,-04.8100,+07.5310,-12.9330,-00.758571,-02.749769,-00.133702
-036.494,-013.098,-009.642,+1.516,-0.165,+2.356,-06.0680,+01.8410,-14.7260,-00.064255,-02.453744,+00.198397
-036.168,-015.534,-009.773,+1.605,-0.101,+2.251,-08.5710,+02.5000,-15.0570,-00.186914,-01.850930,-00.121272
-036.008,-017.125,-009.602,+1.652,-0.097,+2.226,-04.4260,+02.0430,-10.9440,+00.288085,-01.078692,-00.131042
-036.072,-017.919,-009.373,+1.680,-0.137,+2.222,-03.4120,+01.2530,-09.4720,+00.091957,-00.500519,-00.181996
-036.320,-018.442,-009.278,+1.694,-0.103,+2.179,-02.8930,+01.7900,-08.8720,-00.022489,-00.408672,-00.336253
-036.644,-018.903,-009.281,+1.708,-0.093,+2.152,-03.6420,+00.4730,-09.2730,-00.080977,-00.305545,-00.290848
-036.837,-019.125,-009.268,+1.703,-0.123,+2.190,-03.7330,+01.6060,-09.1580,-00.021147,-00.121732,-00.134392
-036.906,-019.260,-009.255,+1.717,-0.088,+2.153,-03.4640,+01.5250,-08.7730,-00.018230,-00.114845,-00.043594
-036.868,-019.416,-009.361,+1.736,-0.073,+2.170,-03.1500,+01.3770,-08.7530,-00.109545,-00.146805,+00.029623
-036.814,-019.593,-009.510,+1.740,-0.128,+2.170,-03.3360,+01.7230,-08.7700,-00.106550,-00.165017,+00.007489
-036.797,-019.780,-009.613,+1.731,-0.113,+2.153,-03.5020,+01.7490,-08.6620,-00.070591,-00.155494,-00.029836
-036.829,-019.949,-009.681,+1.745,-0.118,+2.143,-03.3600,+01.5570,-08.6970,-00.062553,-00.131816,-00.056730
-036.900,-020.095,-009.695,+1.736,-0.118,+2.137,-03.5240,+01.5890,-08.7000,-00.015584,-00.103898,-00.097654
-037.049,-020.220,-009.622,+1.745,-0.103,+2.132,-03.5750,+01.6790,-08.6190,+00.036195,-00.081683,-00.163826
-037.256,-020.347,-009.492,+1.745,-0.093,+2.132,-03.5860,+01.6140,-08.6900,+00.058018,-00.080314,-00.195901
-037.483,-020.469,-009.336,+1.750,-0.063,+2.148,-03.4930,+01.5790,-08.7030,+00.076126,-00.074759,-00.198369
-037.712,-020.596,-009.156,+1.754,-0.084,+2.105,-03.6020,+01.5310,-08.5660,+00.090162,-00.084771,-00.202554
-037.923,-020.735,-008.978,+1.759,-0.059,+2.116,-03.5580,+01.4130,-08.6510,+00.094670,-00.096468,-00.187974
-038.122,-020.875,-008.799,+1.759,-0.069,+2.138,-03.5990,+01.4500,-08.6580,+00.090618,-00.102107,-00.170807
-038.311,-021.057,-008.653,+1.764,-0.029,+2.116,-03.5600,+01.4440,-08.5850,+00.054399,-00.154214,-00.178595
-038.486,-021.302,-008.535,+1.787,-0.054,+2.117,-03.4800,+01.3610,-08.5950,+00.052671,-00.216762,-00.168941
-038.641,-021.644,-008.364,+1.796,-0.049,+2.123,-03.6580,+01.3360,-08.4990,+00.147289,-00.347799,-00.179931
-038.802,-022.173,-007.989,+1.797,+0.016,+2.096,-03.4530,+01.4590,-08.7450,+00.349841,-00.486651,-00.210951
-038.978,-022.872,-007.424,+1.829,-0.025,+2.075,-03.4880,+01.3860,-08.7210,+00.479448,-00.658806,-00.211464
-038.995,-023.869,-006.789,+1.829,+0.000,+2.075,-03.9490,+00.9990,-08.5260,+00.583508,-00.970192,-00.030414
-038.697,-025.171,-006.167,+1.881,+0.049,+2.001,-03.7780,+00.9470,-08.6780,+00.689247,-01.260570,+00.175620
-038.094,-026.817,-005.607,+1.913,+0.029,+1.948,-04.1770,+00.8220,-08.6020,+00.715909,-01.629335,+00.412259
-037.146,-028.973,-005.282,+1.950,+0.023,+1.923,-03.8540,+01.0080,-08.3410,+00.671196,-02.119617,+00.603553
-035.733,-031.754,-005.194,+2.016,+0.027,+1.801,-05.1250,+01.3610,-08.1560,+00.702417,-02.825767,+01.068782
-033.525,-035.737,-005.847,+2.104,+0.011,+1.669,-05.3330,+00.9290,-08.4220,+00.378389,-04.126955,+01.376971
-030.751,-041.127,-007.360,+2.165,-0.056,+1.520,-04.3410,+00.0740,-11.1640,+00.017485,-05.349562,+01.353162
-027.642,-047.949,-009.973,+2.258,-0.093,+1.252,-05.5330,-00.5160,-12.0690,-00.654940,-06.680420,+00.802498
-023.773,-056.108,-014.579,+2.313,-0.170,+0.913,-10.7960,-00.8880,-09.2730,-01.817665,-07.899815,+00.476034
-016.965,-065.287,-023.835,+2.332,-0.176,+0.626,-11.5590,+03.6090,-09.5410,-03.544719,-09.167670,-00.313744
-002.272,-075.264,-042.162,+2.303,-0.084,+0.118,-10.1830,+00.0140,-20.2610,-04.163490,-09.419785,-01.487879
+028.435,-081.717,-076.569,+2.210,+0.030,-0.191,-12.4830,+06.9350,-26.6390,-02.727359,-05.425411,-01.813655
+039.927,-083.689,-088.436,+2.186,+0.090,-0.220,-08.7280,+01.2450,-40.1240,+00.309111,+00.560450,-00.985714
+012.643,-084.492,-060.957,+2.201,+0.156,-0.046,+02.2850,+02.2530,-12.5290,+00.850479,+02.660730,-01.431507
-018.724,-083.578,-028.268,+2.173,+0.211,+0.099,+02.7000,+02.4520,-05.9930,+01.486836,+02.421392,-01.407648
-035.382,-081.197,-009.638,+2.122,+0.248,+0.249,+00.5880,+04.5450,-09.3620,+02.068876,+02.779367,-00.978512
-041.510,-077.492,-000.827,+2.019,+0.324,+0.364,-00.4700,+05.0970,-10.4290,+02.570411,+03.648003,-00.494901
-041.696,-072.610,+001.885,+1.949,+0.420,+0.436,-02.3130,+03.5010,-10.2420,+01.828050,+04.660309,+00.163839
-039.494,-066.662,+001.211,+1.940,+0.465,+0.549,-05.3410,+03.3240,-08.1760,+00.941181,+05.462780,+00.662796
-037.426,-060.260,+000.263,+1.922,+0.571,+0.695,-06.2380,+03.8520,-07.1670,+00.759652,+05.590683,+00.755802
-035.959,-053.896,+000.055,+1.931,+0.571,+0.836,-08.6590,+02.8210,-09.0060,+00.927415,+05.567514,+00.587813
-035.214,-047.399,+000.365,+2.025,+0.542,+1.112,-09.9240,+03.3180,-09.6320,+00.632705,+05.718523,+00.291113
-034.720,-040.823,+000.416,+1.993,+0.420,+1.596,-10.0110,+04.5790,-08.9910,+00.135088,+05.720644,+00.284083
-034.212,-034.505,-000.332,+1.652,+0.216,+1.968,-10.5870,+03.5440,-07.9740,-00.712269,+05.337233,+00.378690
-033.799,-028.758,-001.729,+1.320,+0.060,+2.042,-12.3870,+03.3830,-11.6220,-01.222058,+04.864355,+00.365424
-033.591,-023.131,-003.656,+1.100,-0.093,+1.908,-15.2160,+03.2730,-14.4470,-01.784693,+04.966025,+00.467362
-033.289,-017.269,-005.665,+1.077,-0.198,+1.810,-18.8450,+03.0750,-15.8610,-01.447283,+05.152552,+00.758717
-033.016,-011.152,-006.816,+1.091,-0.252,+1.914,-20.7050,+00.7220,-11.7410,-00.665749,+05.275175,+00.821837
-032.815,-005.528,-007.328,+1.081,-0.232,+2.050,-19.9100,+00.3480,-04.7960,-00.321084,+04.480227,+00.775093
-032.460,-001.099,-007.557,+1.025,-0.265,+2.178,-21.0790,+00.2630,-01.7900,-00.122833,+03.402590,+00.798496
-032.305,+002.211,-007.798,+0.970,-0.289,+2.284,-23.7150,-02.6200,+02.4210,-00.378705,+02.531669,+00.295969
-032.493,+004.227,-008.534,+0.932,-0.299,+2.337,-22.9290,-00.6770,+08.5760,-00.651824,+01.191634,+00.053632
-032.346,+004.027,-008.730,+0.946,-0.314,+2.349,-23.5000,+03.1680,+16.7940,+00.371715,-01.487604,-00.122762
-031.915,+000.674,-006.914,+1.058,-0.275,+2.321,-01.1970,-02.3730,-10.0890,+01.458155,-02.912646,+00.045879
-031.932,-002.931,-007.179,+1.189,-0.237,+2.228,+00.2560,-02.9660,-19.4340,-00.749004,-02.890250,-01.177467
-032.124,-007.300,-007.347,+1.348,-0.274,+2.143,-10.7500,-06.4220,-03.5320,-00.082794,-04.126703,-00.305420
-031.875,-011.371,-007.951,+1.450,-0.280,+2.055,-06.1880,+02.9580,-13.8780,-00.617901,-03.282296,-00.231124
-031.260,-015.125,-008.752,+1.562,-0.277,+1.935,-07.6870,+01.8860,-19.6920,-00.431880,-03.248602,+00.110101
-031.045,-017.366,-008.781,+1.637,-0.278,+1.857,-03.8670,+04.0790,-06.8730,+00.647107,-01.489095,-00.081401
-031.008,-018.383,-008.465,+1.660,-0.293,+1.874,-03.9210,-01.1980,-09.4630,+00.176042,-00.659488,-00.175243
-031.075,-018.778,-008.456,+1.665,-0.268,+1.825,-04.3450,+02.0540,-09.6060,+00.046965,-00.159635,-00.090487
-031.222,-018.773,-008.310,+1.674,-0.273,+1.831,-03.3130,+01.4840,-09.1440,+00.128694,+00.051695,-00.133866
-031.488,-018.751,-008.044,+1.665,-0.273,+1.847,-02.6500,+01.3180,-08.7520,+00.171590,+00.044939,-00.267183
-031.892,-018.826,-007.714,+1.679,-0.229,+1.842,-03.3950,+02.0020,-08.4370,+00.198851,-00.053766,-00.363778
-032.234,-018.916,-007.330,+1.684,-0.214,+1.858,-03.5410,+00.7510,-08.7940,+00.235785,-00.027047,-00.231957
-032.425,-018.987,-007.086,+1.679,-0.219,+1.847,-03.3550,+00.8240,-08.9140,+00.108285,-00.047882,-00.122924
-032.486,-019.084,-007.031,+1.684,-0.189,+1.831,-03.2700,+00.9710,-08.8050,-00.008282,-00.092196,-00.029110
-032.495,-019.212,-007.074,+1.684,-0.224,+1.804,-03.1090,+01.4800,-08.7290,-00.045490,-00.128195,-00.029644
-032.550,-019.378,-007.083,+1.693,-0.204,+1.853,-03.4290,+01.3170,-08.7430,-00.011152,-00.132682,-00.079787
-032.662,-019.525,-007.033,+1.707,-0.194,+1.800,-03.4530,+01.1710,-08.7800,+00.022648,-00.100237,-00.122749
-032.807,-019.624,-006.952,+1.698,-0.179,+1.788,-03.5120,+01.1360,-08.8300,+00.030781,-00.061791,-00.126149
-032.940,-019.703,-006.867,+1.698,-0.204,+1.816,-03.4480,+01.0740,-08.7500,+00.038455,-00.048834,-00.117746
-033.074,-019.772,-006.771,+1.707,-0.189,+1.810,-03.3780,+01.1600,-08.7780,+00.045111,-00.050592,-00.117939
-033.225,-019.864,-006.689,+1.698,-0.174,+1.794,-03.3130,+01.0550,-08.6510,+00.011531,-00.075095,-00.142792
-033.408,-019.995,-006.630,+1.712,-0.194,+1.822,-03.3090,+01.0210,-08.6010,-00.014606,-00.110429,-00.174217
-033.589,-020.167,-006.605,+1.721,-0.160,+1.778,-03.3450,+01.0990,-08.6510,-00.042126,-00.149855,-00.155602
-033.746,-020.399,-006.589,+1.721,-0.180,+1.778,-03.4720,+01.0840,-08.7430,-00.020341,-00.206343,-00.149891
-033.891,-020.666,-006.509,+1.726,-0.159,+1.811,-03.5350,+01.2510,-08.6850,+00.051676,-00.229722,-00.145374
-034.062,-020.980,-006.361,+1.730,-0.175,+1.790,-03.5640,+01.2600,-08.7080,+00.083682,-00.280114,-00.190863
-034.303,-021.410,-006.169,+1.740,-0.165,+1.763,-03.5540,+01.3220,-08.7310,+00.102632,-00.403622,-00.266506
-034.636,-022.001,-005.879,+1.749,-0.150,+1.763,-03.4350,+00.9340,-08.7500,+00.169187,-00.541041,-00.349390
-034.947,-022.873,-005.443,+1.782,-0.111,+1.710,-03.7890,+01.0230,-08.6860,+00.337544,-00.837544,-00.305816
-035.125,-024.071,-004.921,+1.801,-0.111,+1.689,-03.8520,+00.6950,-08.6320,+00.437048,-01.157917,-00.176234
-035.004,-025.642,-004.391,+1.833,-0.101,+1.685,-03.8100,+00.6540,-08.5560,+00.523079,-01.506886,+00.088253
-034.410,-027.619,-004.012,+1.856,-0.082,+1.604,-03.8530,+00.8400,-08.6620,+00.623262,-01.939195,+00.491681
-033.219,-030.318,-003.875,+1.903,-0.113,+1.520,-07.3630,+01.3770,-08.2100,+00.508073,-02.769997,+00.930196
-031.518,-033.981,-004.126,+1.954,-0.134,+1.451,-04.4000,+01.0420,-08.5890,+00.573818,-03.596844,+01.138008
-028.821,-038.836,-005.294,+2.010,-0.200,+1.280,-04.2580,-00.5100,-10.5000,+00.283889,-04.798018,+01.601258
-025.645,-044.919,-007.547,+2.066,-0.251,+1.055,-04.8130,-00.5940,-11.9410,-00.432493,-05.957007,+01.327450
-022.359,-052.193,-011.249,+2.112,-0.292,+0.867,-08.2890,-01.4470,-10.2660,-01.639671,-06.931987,+00.668202
-017.259,-060.654,-018.160,+2.126,-0.309,+0.536,-10.5400,+01.7330,-14.9230,-02.667723,-08.236737,+00.229445
-008.042,-070.466,-030.146,+2.069,-0.276,+0.153,-13.2950,+05.4990,-17.6440,-02.923034,-09.209495,-00.814518
+013.514,-079.311,-054.702,+2.022,-0.202,-0.138,-11.4310,+04.4790,-17.1170,-03.024371,-08.437018,-01.872365
+056.996,-083.197,-099.964,+1.943,-0.053,-0.414,-10.3980,+01.8560,-26.4020,-01.221672,-04.528447,-02.072533
+063.452,-084.354,-106.336,+1.999,-0.014,-0.417,-05.8190,+05.1170,-33.0580,-00.158141,+01.529147,-00.900076
+022.804,-085.032,-065.188,+2.097,-0.034,-0.272,+00.3300,+03.1830,-12.9200,+00.883879,+03.577874,-00.762256
-011.759,-082.748,-029.357,+2.214,+0.006,-0.136,+01.5150,+01.9730,-05.1410,+01.385725,+03.551867,-00.705534
-025.098,-079.295,-014.493,+2.313,+0.016,+0.102,+00.0040,+02.0620,-07.4530,+01.429418,+03.481410,-00.467834
-030.318,-074.775,-007.971,+2.378,+0.016,+0.300,-03.3800,+02.7660,-12.9050,+01.137022,+04.554837,-00.082938
-032.058,-068.724,-005.177,+2.411,+0.012,+0.633,-05.1980,+01.6890,-08.8520,+00.912080,+05.625051,+00.208934
-032.525,-062.153,-003.916,+2.365,-0.030,+0.958,-05.0120,+01.7290,-05.9210,+00.635894,+05.707526,+00.325862
-032.511,-055.723,-003.280,+2.267,-0.028,+1.198,-06.6250,+01.0680,-07.6380,+00.545655,+05.569008,+00.354559
-032.580,-049.188,-002.713,+2.169,-0.041,+1.411,-08.4940,+01.1170,-10.0720,+00.361528,+05.804982,+00.191960
-032.854,-042.340,-002.369,+2.067,-0.059,+1.624,-09.2560,+00.9240,-09.8640,-00.037720,+06.074539,+00.035510
-033.285,-035.485,-002.822,+1.978,-0.072,+1.800,-10.1720,-00.1170,-06.7250,-01.071069,+05.807161,-00.057844
-033.753,-029.412,-004.352,+1.876,-0.145,+2.024,-13.1670,+01.5390,-11.0500,-01.672821,+05.073871,+00.017360
-034.094,-023.516,-006.102,+1.745,-0.212,+2.225,-16.5630,+04.1990,-15.4310,-01.542935,+05.245661,+00.419601
-033.710,-017.460,-007.607,+1.582,-0.255,+2.409,-19.5290,+04.0560,-13.1060,-00.965285,+05.140534,+01.281803
-032.560,-011.571,-008.378,+1.353,-0.267,+2.573,-22.4250,+01.8100,-09.5410,-00.077779,+04.792288,+01.825277
-031.390,-006.307,-008.064,+1.077,-0.293,+2.670,-22.4680,+00.2880,-04.8300,+00.714226,+04.134835,+01.479163
-030.683,-002.071,-007.184,+0.923,-0.262,+2.722,-21.3100,+01.6250,-00.2500,+00.753451,+03.218441,+00.907564
-030.384,+000.971,-007.110,+0.797,-0.216,+2.716,-22.7580,-02.3100,+02.0460,-00.441672,+02.290111,+00.360066
-030.601,+002.889,-008.031,+0.704,-0.270,+2.707,-21.1750,-00.0920,+05.6980,-00.758060,+01.227597,-00.113327
-030.734,+003.125,-008.326,+0.685,-0.284,+2.685,-19.6220,+01.9320,+06.2060,+00.043635,-00.393616,+00.006553
-030.782,+000.879,-007.909,+0.760,-0.226,+2.666,-06.2120,+02.6590,-00.9160,+00.709678,-02.638703,-00.355407
-030.953,-002.076,-007.596,+0.853,-0.222,+2.637,+09.8120,+06.5560,-24.0650,-00.714076,-02.788889,-00.667779
-031.279,-005.662,-008.624,+0.951,-0.278,+2.593,-09.2710,-00.7020,-02.9380,-00.481717,-03.367660,-00.220407
-030.788,-009.292,-009.440,+1.068,-0.264,+2.495,-08.8380,-03.1240,-17.9600,-00.804414,-02.847439,-00.137518
-030.289,-012.225,-010.696,+1.152,-0.320,+2.428,-05.2470,+04.8670,-11.8570,-01.066947,-02.540872,+00.109049
-029.595,-014.676,-011.680,+1.212,-0.326,+2.388,-07.4410,+02.3980,-13.8070,-00.505990,-01.948052,+00.059889
-029.075,-016.565,-011.963,+1.273,-0.332,+2.320,-05.1060,+03.3620,-12.4230,+00.124834,-01.413515,+00.122821
-028.814,-017.481,-011.677,+1.296,-0.337,+2.294,-04.6670,+01.5610,-10.4690,+00.331531,-00.539836,+00.006334
-028.742,-017.817,-011.373,+1.315,-0.332,+2.316,-03.4420,+01.4320,-09.3070,+00.261324,-00.203064,-00.010745
-028.785,-018.032,-011.162,+1.310,-0.308,+2.283,-02.8900,+02.0610,-08.7420,+00.146167,-00.177127,-00.118490
-028.953,-018.265,-010.995,+1.320,-0.273,+2.300,-03.5060,+01.3470,-09.0540,+00.039850,-00.154154,-00.187358
-029.115,-018.427,-010.961,+1.324,-0.303,+2.316,-03.3260,+01.5130,-08.8970,-00.006041,-00.091478,-00.144484
-029.270,-018.545,-010.867,+1.315,-0.283,+2.283,-03.2460,+02.1660,-08.7950,+00.061289,-00.065170,-00.137471
-029.390,-018.673,-010.759,+1.320,-0.273,+2.289,-03.2640,+01.9430,-08.7200,+00.048700,-00.099686,-00.103425
-029.460,-018.792,-010.696,+1.329,-0.278,+2.295,-03.3730,+01.7190,-08.7740,+00.041071,-00.086178,-00.062291
-029.512,-018.908,-010.609,+1.339,-0.248,+2.284,-03.3260,+01.7180,-08.5780,+00.074746,-00.097334,-00.062691
-029.572,-019.037,-010.501,+1.343,-0.278,+2.311,-03.2630,+01.6970,-08.7270,+00.085353,-00.103193,-00.076898
-029.676,-019.167,-010.359,+1.338,-0.298,+2.279,-03.3800,+01.7170,-08.6940,+00.103329,-00.089813,-00.132188
-029.882,-019.266,-010.120,+1.353,-0.258,+2.274,-03.3520,+01.5870,-08.7100,+00.190867,-00.036803,-00.211052
-030.176,-019.299,-009.804,+1.353,-0.228,+2.257,-03.5240,+01.6180,-08.8500,+00.194718,+00.044701,-00.263700
-030.523,-019.288,-009.440,+1.348,-0.233,+2.295,-03.3420,+01.8210,-08.6110,+00.225839,+00.049486,-00.281768
-030.843,-019.317,-009.128,+1.348,-0.238,+2.273,-03.0470,+01.7420,-08.6020,+00.153104,-00.012252,-00.262833
-031.145,-019.437,-008.856,+1.348,-0.223,+2.279,-03.2340,+01.3660,-08.6470,+00.157337,-00.084448,-00.249227
-031.393,-019.618,-008.604,+1.339,-0.213,+2.305,-03.3450,+01.3570,-08.6610,+00.145511,-00.145743,-00.212965
-031.600,-019.859,-008.366,+1.357,-0.198,+2.268,-03.3220,+01.4660,-08.7730,+00.142006,-00.206798,-00.197859
-031.798,-020.158,-008.119,+1.357,-0.194,+2.263,-03.4510,+01.3610,-08.6680,+00.165575,-00.252475,-00.196609
-031.995,-020.500,-007.839,+1.357,-0.179,+2.262,-03.4910,+01.3720,-08.6220,+00.191800,-00.295898,-00.208711
-032.204,-020.990,-007.530,+1.399,-0.154,+2.259,-03.5250,+01.1990,-08.6340,+00.208539,-00.458234,-00.232099
-032.366,-021.628,-007.225,+1.399,-0.149,+2.231,-03.4730,+01.0180,-08.7350,+00.230700,-00.579832,-00.180408
-032.381,-022.408,-006.885,+1.423,-0.130,+2.238,-03.6540,+01.0780,-08.7510,+00.341328,-00.755345,-00.039703
-032.122,-023.416,-006.536,+1.441,-0.100,+2.200,-03.6930,+00.8210,-08.6100,+00.426005,-00.968736,+00.186392
-031.549,-024.650,-006.248,+1.488,-0.125,+2.175,-03.7180,+00.8660,-08.6510,+00.479723,-01.215876,+00.411736
-030.723,-026.205,-006.024,+1.521,-0.111,+2.160,-04.1210,+01.0550,-08.6260,+00.509205,-01.551647,+00.563664
-029.577,-028.233,-005.993,+1.577,-0.087,+2.092,-03.5390,+01.1380,-08.6550,+00.531171,-02.042786,+00.779552
-028.065,-030.917,-006.050,+1.637,-0.148,+2.014,-04.1350,+01.5510,-08.2740,+00.621513,-02.732270,+00.998684
-025.935,-034.604,-006.713,+1.698,-0.154,+1.946,-06.6590,+01.0650,-08.1260,+00.286492,-03.773898,+01.315281
-023.144,-039.354,-008.286,+1.800,-0.165,+1.771,-04.4040,+00.0830,-09.7360,-00.104816,-04.774983,+01.460025
-019.993,-045.237,-011.099,+1.912,-0.242,+1.548,-06.1220,+00.4470,-10.1500,-00.940431,-05.819214,+00.977108
-016.282,-052.166,-015.768,+1.991,-0.279,+1.351,-08.1160,+01.7020,-09.7270,-02.024126,-06.736781,+00.550800
-010.221,-060.019,-024.114,+2.080,-0.321,+0.985,-10.1840,+01.4910,-14.4290,-03.194766,-07.686731,+00.386898
+001.165,-068.824,-038.667,+2.116,-0.334,+0.558,-12.2010,+04.3780,-13.0590,-03.845002,-09.318074,-00.733792
+025.138,-076.223,-065.668,+2.083,-0.285,+0.197,-12.2600,+03.5550,-15.4500,-03.673318,-08.612465,-01.517625
+060.589,-078.767,-103.640,+2.022,-0.167,-0.171,-07.4750,+04.2290,-26.4510,-02.057478,-04.989769,-01.530562
+066.068,-079.448,-109.009,+2.022,-0.133,-0.258,-06.7300,+03.8620,-39.2880,+00.211925,+01.532047,-00.470958
+042.923,-080.692,-085.258,+2.102,-0.133,-0.113,-00.8320,+00.8960,-13.3410,+01.133195,+04.103456,-00.790678
+013.671,-080.271,-054.803,+2.196,-0.103,+0.027,+00.6210,-00.8150,-03.9370,+01.444023,+03.931863,-01.254346
-008.778,-078.280,-030.860,+2.285,-0.063,+0.204,-00.6250,+00.8060,-06.3640,+01.744630,+03.654943,-01.627073
-023.788,-074.665,-014.401,+2.336,-0.028,+0.386,-03.1930,+02.6770,-11.0740,+01.458569,+04.443352,-01.543673
-031.513,-069.138,-005.714,+2.425,+0.057,+0.655,-04.7840,+03.9220,-08.4290,+00.993393,+05.418212,-01.018722
-034.504,-062.821,-002.087,+2.388,+0.039,+1.012,-04.9980,+04.8180,-06.4170,+00.686374,+05.594593,-00.490915
-035.070,-056.477,-000.803,+2.295,+0.057,+1.280,-06.0220,+05.0530,-06.5760,+00.691608,+05.496054,+00.131093
-034.449,-050.224,-000.531,+2.113,+0.059,+1.495,-07.8790,+02.5660,-08.3530,+00.617934,+05.456374,+00.457116
-033.900,-043.927,-000.471,+1.922,+0.022,+1.628,-09.3260,+01.0630,-09.7970,+00.216912,+05.520330,+00.288305
-033.780,-037.574,-000.789,+1.796,+0.024,+1.747,-10.5490,+00.1370,-08.6220,-00.504424,+05.505672,+00.038720
-034.056,-031.597,-001.701,+1.684,+0.020,+1.781,-11.6360,+01.6750,-08.5460,-01.088208,+04.993937,-00.137889
-034.448,-026.064,-002.755,+1.628,+0.011,+1.800,-13.7380,+03.4320,-14.5930,-01.050464,+04.869120,-00.046272
-034.622,-020.299,-003.807,+1.633,-0.028,+1.936,-14.7250,+02.2600,-15.4600,-00.977709,+05.115494,+00.255185
-034.641,-014.322,-005.009,+1.596,-0.072,+2.152,-17.4820,+01.1660,-15.1600,-01.107285,+05.256631,+00.466233
-034.605,-008.315,-006.249,+1.451,-0.124,+2.364,-20.6570,-00.5180,-09.2820,-01.004174,+05.084027,+00.534479
-034.848,-003.109,-007.015,+1.339,-0.152,+2.560,-21.4350,+00.5460,-02.7970,-00.493052,+04.127315,+00.185984
-035.197,+000.754,-007.574,+1.176,-0.130,+2.678,-21.1590,+00.8000,+01.4710,-00.577442,+02.923249,+00.133073
-035.320,+003.223,-008.549,+1.050,-0.213,+2.776,-22.1530,-03.6280,+03.1040,-00.974873,+01.716856,+00.160716
-035.552,+004.371,-009.449,+0.998,-0.237,+2.834,-22.0180,-01.1800,+06.5420,-00.469900,+00.515812,-00.135654
-035.622,+003.563,-009.368,+1.040,-0.212,+2.847,-20.1710,+02.4980,+13.1880,+00.345690,-01.758142,-00.461181
-035.183,+000.499,-007.014,+1.190,-0.139,+2.820,+04.4940,+01.6500,-17.9390,+02.071815,-02.377135,+00.265674
-034.827,-002.863,-006.669,+1.293,-0.145,+2.808,+00.7560,-02.9200,-09.0410,-00.176898,-03.203374,-00.704932
-034.438,-007.095,-006.870,+1.479,-0.123,+2.729,-11.5440,-09.3610,-10.3200,-00.505854,-03.715055,+00.280330
-034.123,-010.602,-007.672,+1.638,-0.174,+2.671,-06.2670,-01.7500,-14.1800,-00.916643,-02.801689,-00.293905
-033.605,-013.658,-008.830,+1.745,-0.191,+2.595,-06.8920,+07.9100,-13.9450,-00.654076,-02.562438,+00.249674
-033.038,-016.210,-009.049,+1.853,-0.207,+2.518,-09.6370,+01.2030,-19.5510,+00.117704,-01.964945,-00.082595
-032.923,-017.672,-008.926,+1.913,-0.188,+2.472,-04.8020,+01.6070,-13.2340,+00.168062,-01.000026,-00.146221
-033.044,-018.395,-008.631,+1.941,-0.208,+2.473,-04.9020,+01.6700,-10.0790,+00.196854,-00.413195,-00.216416
-033.248,-018.602,-008.437,+1.955,-0.154,+2.446,-03.1170,+01.4180,-08.8580,+00.142602,-00.063311,-00.184849
-033.521,-018.642,-008.117,+1.960,-0.169,+2.463,-03.5060,+01.2040,-09.1610,+00.226604,+00.017594,-00.245457
-033.823,-018.666,-007.711,+1.955,-0.149,+2.462,-03.4230,+00.9480,-08.8490,+00.278651,+00.007140,-00.241462
-034.076,-018.682,-007.287,+1.960,-0.119,+2.468,-03.3770,+00.8940,-08.8010,+00.332727,+00.018069,-00.197045
-034.300,-018.725,-006.829,+1.960,-0.124,+2.451,-03.3010,+01.1920,-08.8440,+00.322182,-00.036466,-00.174930
-034.447,-018.814,-006.527,+1.965,-0.109,+2.457,-03.2120,+00.9500,-08.7090,+00.143933,-00.071707,-00.098259
-034.517,-018.914,-006.416,+1.965,-0.109,+2.462,-03.1920,+00.8490,-08.7700,+00.052329,-00.089642,-00.057969
-034.589,-019.035,-006.319,+1.965,-0.084,+2.435,-03.2890,+01.0980,-08.7820,+00.074078,-00.093210,-00.083820
-034.711,-019.146,-006.178,+1.974,-0.094,+2.468,-03.2680,+00.9740,-08.7420,+00.103504,-00.076345,-00.124960
-034.904,-019.262,-005.954,+1.998,-0.064,+2.458,-03.2950,+01.2160,-08.7750,+00.169417,-00.095700,-00.201539
-035.206,-019.382,-005.652,+1.974,-0.039,+2.468,-03.3520,+01.0210,-08.7990,+00.174675,-00.067570,-00.286620
-035.551,-019.497,-005.359,+1.988,-0.034,+2.463,-03.3380,+00.8540,-08.7330,+00.141277,-00.068572,-00.289525
-035.916,-019.632,-005.087,+1.984,-0.009,+2.452,-03.2650,+00.8800,-08.6720,+00.127171,-00.103235,-00.323462
-036.307,-019.821,-004.831,+2.002,-0.020,+2.442,-03.2720,+00.5860,-08.7040,+00.092251,-00.158476,-00.333637
-036.681,-020.070,-004.621,+2.007,-0.010,+2.431,-03.3330,+00.7960,-08.7420,+00.073993,-00.210451,-00.323216
-037.062,-020.372,-004.401,+2.035,+0.055,+2.437,-03.6530,+00.8390,-08.6900,+00.071575,-00.256154,-00.340183
-037.485,-020.739,-004.188,+2.035,+0.050,+2.421,-03.5530,+00.8630,-08.7510,+00.039873,-00.315790,-00.387392
-037.948,-021.193,-003.996,+2.054,+0.050,+2.427,-03.5830,+00.6520,-08.7470,+00.017950,-00.408119,-00.415519
-038.466,-021.797,-003.735,+2.063,+0.069,+2.389,-03.6530,+00.8480,-08.7640,+00.094157,-00.553930,-00.478951
-038.997,-022.561,-003.375,+2.087,+0.099,+2.358,-03.4800,+00.5260,-08.8580,+00.167462,-00.687863,-00.453200
-039.411,-023.479,-002.944,+2.105,+0.109,+2.353,-03.8460,+00.6000,-08.6930,+00.283525,-00.878016,-00.326581
-039.657,-024.713,-002.441,+2.152,+0.163,+2.311,-03.8000,+00.3460,-08.6380,+00.408549,-01.192537,-00.194615
-039.673,-026.343,-001.906,+2.194,+0.147,+2.242,-04.0730,+00.2400,-08.5860,+00.483920,-01.561939,+00.015428
-039.359,-028.403,-001.465,+2.255,+0.161,+2.207,-03.8470,+00.4500,-08.5050,+00.558034,-01.963571,+00.314889
-038.628,-031.108,-001.053,+2.329,+0.180,+2.096,-04.3880,+00.3520,-08.1010,+00.756741,-02.653500,+00.579483
-037.463,-034.850,-000.760,+2.413,+0.148,+1.926,-02.6820,+00.6720,-09.3970,+00.952001,-03.664566,+00.860227
-036.310,-039.742,-000.164,+2.483,+0.142,+1.793,-06.5380,+00.7200,-11.1350,+01.033741,-04.693644,+00.789991
-035.396,-046.221,+000.571,+2.599,+0.149,+1.505,-05.4740,+01.0330,-11.5560,+01.262837,-06.169945,+00.407293
-035.894,-054.317,+001.651,+2.697,+0.182,+1.155,-10.5270,-00.6170,-10.4850,-00.147193,-07.630682,-00.335596
-037.290,-063.886,+001.450,+2.734,+0.160,+0.842,-11.0420,+00.3530,-13.1540,-01.942502,-08.637139,-00.374880
-041.121,-074.153,+002.018,+2.710,+0.247,+0.373,-10.9490,+02.4220,-14.9930,-03.011544,-08.918572,-01.191942
-056.364,-083.029,+013.841,+2.607,+0.341,-0.008,-10.9110,+01.8480,-19.0690,-02.362756,-06.978487,-01.629231
-104.882,-086.057,+061.193,+2.528,+0.461,-0.115,-27.2040,+08.6220,-42.4700,-00.166897,-02.199444,-01.150012
-097.368,-085.003,+053.430,+2.495,+0.462,-0.024,-01.7730,+04.8180,-23.2200,-00.223359,+02.320217,-00.219613
-074.335,-082.506,+030.539,+2.449,+0.453,+0.197,+02.1920,+01.6870,-07.0940,+00.059917,+03.252778,+00.368663
-061.178,-079.423,+017.688,+2.426,+0.415,+0.370,+01.5600,+00.2270,-04.3720,+00.191514,+03.089552,+00.616352
-053.447,-075.946,+010.565,+2.384,+0.441,+0.515,-01.8350,+00.5480,-10.9110,+00.496963,+03.576302,+00.700028
-047.590,-071.102,+005.716,+2.347,+0.382,+0.677,-03.6310,+00.2040,-11.1710,+00.763060,+04.838338,+00.921434
-043.600,-065.222,+002.788,+2.319,+0.333,+0.850,-04.9140,-01.7710,-06.4190,+00.617867,+05.326738,+00.858873
-041.361,-059.165,+001.314,+2.281,+0.290,+1.022,-05.9210,-02.3750,-07.1990,+00.349718,+05.308214,+00.617093
-040.479,-053.009,+000.839,+2.268,+0.266,+1.207,-07.8370,-02.9660,-08.7070,+00.171463,+05.433683,+00.121226
-040.633,-046.667,+000.996,+2.291,+0.267,+1.425,-08.7000,-01.6020,-09.8380,-00.085100,+05.579255,-00.310015
-041.080,-040.168,+000.898,+2.273,+0.313,+1.723,-09.6740,+00.5650,-09.5090,-00.478692,+05.689789,-00.366325
-041.280,-033.975,+000.237,+2.110,+0.277,+2.102,-09.7440,+01.5270,-06.6560,-00.751586,+05.120070,-00.054174
-041.073,-028.746,-000.825,+1.876,+0.240,+2.309,-11.3310,+01.7010,-12.1040,-00.850488,+04.336953,+00.293647
-040.744,-023.570,-001.942,+1.606,+0.223,+2.395,-12.8000,+00.0760,-15.8660,-00.821265,+04.665992,+00.370958
-040.689,-018.149,-002.978,+1.400,+0.191,+2.430,-12.3890,-01.0500,-13.7230,-00.939201,+04.709362,+00.165181
-040.919,-012.832,-004.081,+1.274,+0.152,+2.490,-12.6200,+00.0670,-13.6630,-01.060916,+04.594412,+00.081009
-041.156,-007.678,-005.310,+1.111,+0.114,+2.559,-13.2580,+00.9950,-13.2840,-01.151457,+04.441854,+00.235222
-041.220,-002.652,-006.577,+0.919,+0.037,+2.644,-14.1950,+01.3590,-11.5470,-01.049830,+04.322769,+00.487304
-041.260,+002.018,-007.445,+0.751,+0.034,+2.707,-13.9550,+01.6140,-05.0210,-00.572596,+03.798820,+00.382690
-041.579,+005.706,-008.304,+0.597,-0.019,+2.712,-15.3140,-00.8050,+00.7930,-00.998724,+02.853654,+00.051476
-042.003,+008.114,-009.954,+0.494,-0.078,+2.686,-17.4970,+01.5410,+05.9890,-01.460789,+01.641416,-00.027264
-041.855,+008.965,-011.125,+0.447,-0.103,+2.706,-18.7730,+03.8950,+07.5940,-00.656441,+00.130969,+00.510272
-040.592,+008.297,-010.787,+0.466,-0.108,+2.679,-18.8530,+02.6680,+04.9910,+00.546666,-01.272418,+01.171185
-038.729,+006.386,-009.640,+0.522,-0.089,+2.649,-17.8800,+00.4710,+01.0690,+00.788567,-02.271878,+01.301336
-036.813,+003.773,-007.596,+0.597,-0.065,+2.652,+19.4410,+09.6130,-29.7310,+01.942669,-02.579339,+01.133563
-036.221,-000.207,-007.120,+0.732,-0.021,+2.636,+00.8960,-03.3660,-02.2240,-00.571188,-04.280288,-00.687984
-035.176,-005.031,-006.666,+0.886,-0.028,+2.550,-19.4270,-16.9150,-07.7800,+00.758361,-04.096815,+00.633199
-035.702,-009.168,-006.156,+0.998,+0.006,+2.522,-05.8570,-06.9320,-19.2380,-00.037680,-03.221260,-01.462537
-035.907,-012.844,-006.631,+1.110,+0.034,+2.440,-05.5340,+14.6050,-11.4930,-00.402184,-03.145883,+00.320131
-035.275,-016.038,-006.653,+1.208,+0.003,+2.385,-08.6790,-05.1420,-17.9320,+00.139612,-02.647807,-00.188492
-035.180,-018.148,-006.877,+1.269,+0.007,+2.371,-03.8480,+05.0520,-11.7860,+00.082691,-01.551363,+00.058162
-035.124,-019.085,-007.145,+1.311,+0.046,+2.324,-05.4860,+01.9150,-10.9860,-00.331019,-00.576081,-00.061151
-035.139,-019.349,-007.367,+1.302,-0.003,+2.318,-03.8220,+00.5870,-09.2910,-00.066408,-00.116137,-00.066919
-035.285,-019.466,-007.302,+1.311,-0.008,+2.324,-03.2790,+01.5770,-08.9370,+00.069273,-00.064623,-00.182428
-035.541,-019.536,-007.089,+1.320,+0.016,+2.303,-03.3730,+00.7930,-08.5360,+00.112369,-00.037460,-00.206052
-035.725,-019.629,-006.934,+1.311,+0.021,+2.308,-03.2950,+01.0250,-08.7690,+00.067707,-00.078759,-00.136304
-035.856,-019.753,-006.821,+1.325,+0.007,+2.336,-03.6270,+01.0940,-08.8340,+00.054731,-00.089811,-00.097631
-035.916,-019.886,-006.769,+1.320,+0.031,+2.308,-03.3710,+01.0790,-08.7770,+00.009750,-00.120298,-00.051021
-035.972,-020.027,-006.748,+1.320,+0.026,+2.292,-03.5290,+01.2570,-08.7010,-00.002502,-00.110361,-00.071260
-036.073,-020.160,-006.714,+1.330,+0.031,+2.314,-03.4470,+01.1850,-08.7130,+00.005770,-00.104349,-00.112275
-036.222,-020.269,-006.642,+1.339,+0.046,+2.314,-03.6610,+00.9810,-08.8400,+00.025314,-00.067000,-00.133258
-036.348,-020.346,-006.563,+1.339,+0.041,+2.282,-03.5700,+01.0150,-08.7770,+00.036412,-00.048556,-00.097813
-036.458,-020.413,-006.475,+1.320,+0.046,+2.313,-03.5080,+01.1240,-08.6910,+00.045976,-00.049158,-00.099149
-036.595,-020.484,-006.363,+1.334,+0.056,+2.287,-03.4410,+01.0650,-08.7030,+00.056423,-00.048367,-00.131990
-036.770,-020.572,-006.245,+1.344,+0.051,+2.298,-03.5100,+01.0390,-08.6910,+00.048281,-00.069563,-00.157351
-036.965,-020.691,-006.101,+1.344,+0.061,+2.298,-03.4830,+00.9560,-08.6790,+00.078949,-00.097959,-00.177909
-037.192,-020.848,-005.911,+1.348,+0.086,+2.293,-03.5370,+01.0280,-08.6560,+00.104285,-00.123736,-00.219888
-037.493,-021.047,-005.685,+1.367,+0.076,+2.288,-03.4940,+01.1000,-08.6360,+00.098239,-00.162332,-00.283971
-037.885,-021.308,-005.440,+1.348,+0.081,+2.282,-03.5590,+01.0790,-08.6880,+00.090157,-00.216196,-00.371250
-038.348,-021.644,-005.169,+1.362,+0.120,+2.250,-03.7790,+00.8630,-08.6310,+00.090130,-00.280707,-00.411000
-038.838,-022.075,-004.876,+1.376,+0.125,+2.250,-03.7130,+00.8710,-08.6680,+00.096637,-00.383450,-00.444034
-039.373,-022.667,-004.536,+1.386,+0.150,+2.283,-03.6740,+00.8070,-08.7130,+00.137223,-00.536103,-00.484850
-039.899,-023.440,-004.128,+1.423,+0.155,+2.236,-03.3980,+00.4220,-08.6960,+00.201425,-00.713739,-00.450274
-040.290,-024.466,-003.643,+1.442,+0.144,+2.231,-03.7560,+00.4480,-08.6620,+00.342874,-00.973113,-00.315782
-040.440,-025.807,-003.104,+1.465,+0.164,+2.216,-04.1320,+00.4010,-08.3500,+00.463154,-01.274043,-00.114063
-040.349,-027.564,-002.565,+1.517,+0.218,+2.158,-04.0430,+00.5450,-08.6240,+00.518985,-01.704255,+00.051401
-040.013,-029.888,-002.020,+1.577,+0.202,+2.084,-04.3410,+00.6340,-08.2810,+00.678405,-02.266014,+00.259015
-039.387,-033.025,-001.487,+1.638,+0.221,+2.038,-05.1240,+00.2600,-07.9300,+00.772452,-03.078392,+00.501733
-038.187,-037.304,-001.410,+1.745,+0.234,+1.890,-04.7150,+01.3030,-08.6810,+00.723200,-04.145387,+00.783424
-036.450,-042.988,-001.801,+1.866,+0.197,+1.700,-04.8980,+02.4100,-12.3840,+00.794712,-05.445282,+00.947075
-034.971,-050.312,-001.807,+1.955,+0.206,+1.530,-04.5620,-01.2470,-13.4710,+00.838753,-06.900967,+00.397542
-034.343,-059.066,-002.384,+2.076,+0.233,+1.188,-11.6440,-00.4550,-09.7610,-00.748667,-08.150274,-00.027548
-033.395,-069.034,-005.674,+2.132,+0.220,+0.837,-11.3170,+01.1400,-11.3380,-02.549978,-08.954383,-00.453238
-033.365,-079.436,-009.146,+2.136,+0.229,+0.538,-10.8360,+01.9960,-17.0660,-03.216318,-08.793483,-01.591018
-043.722,-087.629,-001.667,+2.066,+0.328,+0.208,-08.1740,+04.8710,-23.3490,-01.699896,-05.424165,-01.621921
-125.661,-088.784,+079.774,+2.033,+0.377,+0.092,-06.0890,+05.8750,-39.2850,+00.109765,+00.417143,-00.485104
-071.197,-086.773,+025.453,+2.014,+0.398,+0.189,+00.6760,+04.4160,-13.7630,+00.499788,+03.023757,+00.010478
-055.785,-083.349,+010.813,+2.014,+0.398,+0.298,+02.2450,+01.5550,-04.0820,+00.585872,+03.156556,+00.265432
-049.062,-079.975,+004.640,+1.996,+0.374,+0.411,+00.5260,+01.6240,-05.5300,+00.337404,+03.018822,+00.552787
-044.290,-076.175,+000.518,+1.987,+0.335,+0.520,-02.2710,+02.6900,-10.8670,+00.634448,+03.649852,+00.818135
-040.447,-071.188,-002.164,+1.963,+0.316,+0.628,-04.0160,+01.3980,-10.9490,+00.956689,+04.716777,+01.102584
-037.951,-065.250,-003.635,+1.935,+0.282,+0.806,-05.5860,-02.1590,-07.1980,+00.539030,+05.300457,+00.973520
-037.062,-059.022,-004.244,+1.922,+0.278,+0.920,-06.6300,-02.7320,-08.1430,+00.014280,+05.448053,+00.557372
-037.481,-052.634,-003.893,+1.912,+0.303,+1.066,-08.3810,-02.2750,-09.9080,+00.042871,+05.661482,-00.034942
-038.642,-046.042,-003.009,+1.894,+0.310,+1.261,-09.0960,-00.7330,-10.0670,-00.072420,+05.840879,-00.416083
