sep=,
DeviceTag:,B,,,,,,,,,,,,,,,,,
FirmwareVersion:,2.2.1,,,,,,,,,,,,,,,,,
AppVersion:,2022.0.1,,,,,,,,,,,,,,,,,
SyncStatus:,Synced,,,,,,,,,,,,,,,,,
OutputRate:,60Hz,,,,,,,,,,,,,,,,,
FilterProfile:,General,,,,,,,,,,,,,,,,,
Measurement Mode:,Inertial Mode - Rate quantities (with mag),,,,,,,,,,,,,,,,,
StartTime:,2022-08-03 15:41:28.501 +0300,,,,,,,,,,,,,,,,,
© Xsens Technologies B. V. 2005-2022,,,,,,,,,,,,,,,,,,,

PacketCounter,SampleTimeFine,Acc_X,Acc_Y,Acc_Z,Gyr_X,Gyr_Y,Gyr_Z,Mag_X,Mag_Y,Mag_Z
1, 1272803939, -5.276625633239746, -1.6343845129013062, 7.937513828277588, 0.7349628210067749, -1.1935646533966064, -0.2593157887458801, -0.185791015625, 0.376708984375, -1.380126953125
2, 1272820606, -5.397713661193848, -1.6129679679870605, 7.976302146911621, 0.33595535159111023, -0.8189275860786438, -0.28769463300704956, -0.187255859375, 0.375244140625, -1.38037109375
3, 1272837273, -5.294353008270264, -1.6153398752212524, 7.961312294006348, 0.11485373973846436, -0.8162127137184143, -0.46403804421424866, -0.184326171875, 0.374755859375, -1.381103515625
4, 1272853940, -5.310466766357422, -1.6122431755065918, 7.929637908935547, 0.08469479531049728, -0.7715569138526917, -0.6012837290763855, -0.186767578125, 0.37744140625, -1.38232421875
5, 1272870607, -5.341335296630859, -1.61253821849823, 7.942595481872559, 0.045148786157369614, -0.7246345281600952, -0.5764778256416321, -0.183349609375, 0.3759765625, -1.3828125
6, 1272887274, -5.3349223136901855, -1.6412614583969116, 7.934839248657227, 0.02693815529346466, -0.7371974587440491, -0.47206762433052063, -0.187744140625, 0.374267578125, -1.384765625
7, 1272903941, -5.315759181976318, -1.6247260570526123, 7.933095455169678, -0.0012550223618745804, -0.7345850467681885, -0.47191399335861206, -0.184326171875, 0.373779296875, -1.38330078125
8, 1272920608, -5.326588153839111, -1.5893710851669312, 7.958706855773926, -0.08776190876960754, -0.825804591178894, -0.48427215218544006, -0.187744140625, 0.376220703125, -1.380859375
9, 1272937275, -5.321699142456055, -1.6029415130615234, 7.963079452514648, -0.09479259699583054, -0.7203443050384521, -0.657016932964325, -0.185302734375, 0.374267578125, -1.38232421875
10, 1272953942, -5.307281970977783, -1.5999668836593628, 7.9611592292785645, -0.25871384143829346, -0.7735034823417664, -0.7374023795127869, -0.184814453125, 0.373779296875, -1.3828125
11, 1272970609, -5.315902233123779, -1.621407389640808, 7.9304375648498535, -0.26861315965652466, -0.649986207485199, -0.8853157162666321, -0.187744140625, 0.376953125, -1.38427734375
12, 1272987276, -5.3237223625183105, -1.6292587518692017, 7.9320855140686035, -0.12796105444431305, -0.7403990626335144, -0.7602489590644836, -0.188720703125, 0.376220703125, -1.3828125
13, 1273003943, -5.326997756958008, -1.6147879362106323, 7.941893577575684, -0.17448650300502777, -0.7864634990692139, -0.833283543586731, -0.186767578125, 0.373291015625, -1.3837890625
14, 1273020610, -5.34543514251709, -1.6138046979904175, 7.943831920623779, -0.2187964916229248, -0.722124457359314, -0.9487584233283997, -0.185791015625, 0.376220703125, -1.3818359375
15, 1273037277, -5.332378387451172, -1.6239769458770752, 7.9381866455078125, -0.14836154878139496, -0.7654866576194763, -0.885712742805481, -0.187255859375, 0.375732421875, -1.3828125
16, 1273053944, -5.321362018585205, -1.6276538372039795, 7.941575527191162, -0.027725744992494583, -0.8768636584281921, -0.8721892237663269, -0.184814453125, 0.374267578125, -1.3828125
17, 1273070611, -5.324063777923584, -1.6160753965377808, 7.929177284240723, 0.06033711135387421, -0.9334803819656372, -0.7271189093589783, -0.187744140625, 0.375732421875, -1.3818359375
18, 1273087278, -5.320671081542969, -1.620244026184082, 7.94147253036499, 0.07555105537176132, -0.896277904510498, -0.5933949947357178, -0.186767578125, 0.376708984375, -1.38037109375
19, 1273103945, -5.316808223724365, -1.6221606731414795, 7.932563304901123, 0.027053412050008774, -0.8547213673591614, -0.5893353819847107, -0.184814453125, 0.373779296875, -1.381103515625
20, 1273120612, -5.3189191818237305, -1.617235541343689, 7.924035549163818, 0.08968926966190338, -0.7723252773284912, -0.5890792608261108, -0.185302734375, 0.374755859375, -1.379638671875
21, 1273137279, -5.328260898590088, -1.6129707098007202, 7.949464797973633, -0.10020968317985535, -0.7029533386230469, -0.6925162076950073, -0.186767578125, 0.375244140625, -1.38330078125
22, 1273153946, -5.308496475219727, -1.6225172281265259, 7.954690456390381, 0.04016711935400963, -0.6532391309738159, -0.6856263875961304, -0.185791015625, 0.373779296875, -1.3828125
23, 1273170613, -5.3279337882995605, -1.597604751586914, 7.936202049255371, -0.006275111809372902, -0.6544429659843445, -0.6417646408081055, -0.181884765625, 0.374755859375, -1.38427734375
24, 1273187280, -5.338720321655273, -1.6195528507232666, 7.914416313171387, -0.08776190876960754, -0.6926954388618469, -0.6805165410041809, -0.186279296875, 0.373291015625, -1.38134765625
25, 1273203947, -5.32796049118042, -1.6129335165023804, 7.937870502471924, 0.0025294057559221983, -0.7559913396835327, -0.7688496708869934, -0.183837890625, 0.373291015625, -1.382080078125
26, 1273220614, -5.31458854675293, -1.6384328603744507, 7.937765598297119, 0.09280120581388474, -0.7845681309700012, -0.6271909475326538, -0.186767578125, 0.373291015625, -1.3828125
27, 1273237281, -5.328665733337402, -1.62565016746521, 7.923981189727783, 0.2881748378276825, -0.7894730567932129, -0.5171204209327698, -0.184814453125, 0.372314453125, -1.38232421875
28, 1273253948, -5.333231449127197, -1.5960791110992432, 7.9487786293029785, 0.24520958960056305, -0.8010627627372742, -0.5574347376823425, -0.185302734375, 0.372802734375, -1.384765625
29, 1273270615, -5.316298484802246, -1.5593483448028564, 7.961267948150635, 0.2726151645183563, -0.8295440673828125, -0.5647984147071838, -0.184814453125, 0.374755859375, -1.381103515625
30, 1273287282, -5.330571174621582, -1.61906099319458, 7.926206111907959, 0.2482062727212906, -0.7176935076713562, -0.6573500037193298, -0.184814453125, 0.373291015625, -1.3828125
31, 1273303949, -5.32309103012085, -1.6037466526031494, 7.950677871704102, 0.32773375511169434, -0.9607964158058167, -0.5372776389122009, -0.187744140625, 0.372314453125, -1.38330078125
32, 1273320616, -5.321720123291016, -1.5906965732574463, 7.941237449645996, 0.37789615988731384, -1.0527586936950684, -0.5232418179512024, -0.185791015625, 0.372314453125, -1.38134765625
33, 1273337283, -5.326903820037842, -1.6001214981079102, 7.943253517150879, 0.2956281900405884, -1.015056848526001, -0.4959002435207367, -0.187255859375, 0.371337890625, -1.3818359375
34, 1273353950, -5.340057373046875, -1.5906883478164673, 7.939503192901611, 0.1867101788520813, -1.0230480432510376, -0.5349212288856506, -0.185302734375, 0.372802734375, -1.380126953125
35, 1273370617, -5.32999324798584, -1.5730953216552734, 7.973634243011475, 0.16727013885974884, -0.948937714099884, -0.5653491020202637, -0.186767578125, 0.372802734375, -1.38037109375
36, 1273387284, -5.323282718658447, -1.5905457735061646, 7.965579032897949, 0.03185579180717468, -0.8029837608337402, -0.5586897730827332, -0.186767578125, 0.371337890625, -1.38427734375
37, 1273403951, -5.317911624908447, -1.6000750064849854, 7.9341325759887695, -0.02289775386452675, -0.8317723870277405, -0.6239253282546997, -0.187255859375, 0.373291015625, -1.38134765625
38, 1273420618, -5.315811634063721, -1.5844478607177734, 7.947481632232666, -0.011141523718833923, -0.7700713872909546, -0.6422896385192871, -0.184814453125, 0.370849609375, -1.381591796875
39, 1273437285, -5.322969436645508, -1.5952142477035522, 7.970951080322266, -0.2039155215024948, -0.7311273813247681, -0.6824632287025452, -0.185302734375, 0.371826171875, -1.380615234375
40, 1273453952, -5.324732303619385, -1.5869810581207275, 7.931877613067627, -0.14441721141338348, -0.7757958769798279, -0.7224574685096741, -0.187255859375, 0.371826171875, -1.38134765625
41, 1273470619, -5.323548316955566, -1.5914095640182495, 7.944099426269531, -0.21982097625732422, -0.6337093710899353, -0.7250058650970459, -0.187255859375, 0.370361328125, -1.3828125
42, 1273487286, -5.337890625, -1.5809657573699951, 7.957085609436035, -0.1759592443704605, -0.5362146496772766, -0.7204595804214478, -0.185791015625, 0.371826171875, -1.380615234375
43, 1273503953, -5.322988510131836, -1.5833423137664795, 7.944873332977295, -0.2752212882041931, -0.4975395202636719, -0.7263121604919434, -0.187255859375, 0.372802734375, -1.384765625
44, 1273520620, -5.327610969543457, -1.6013530492782593, 7.934408187866211, -0.23620031774044037, -0.5054538249969482, -0.7283099293708801, -0.186767578125, 0.374267578125, -1.380859375
45, 1273537287, -5.321040630340576, -1.5913761854171753, 7.948713302612305, -0.19090424478054047, -0.5734042525291443, -0.7104962468147278, -0.188232421875, 0.373291015625, -1.38330078125
46, 1273553954, -5.318409442901611, -1.585900902748108, 7.930325508117676, -0.17388463020324707, -0.4692118167877197, -0.6734219193458557, -0.184326171875, 0.373779296875, -1.380126953125
47, 1273570621, -5.355149745941162, -1.5767232179641724, 7.958618640899658, -0.2117529809474945, -0.46850743889808655, -0.6865611672401428, -0.186279296875, 0.373291015625, -1.3837890625
48, 1273587288, -5.348757266998291, -1.5794928073883057, 7.924381732940674, -0.1715666502714157, -0.686791718006134, -0.8241270184516907, -0.184326171875, 0.371337890625, -1.382080078125
49, 1273603955, -5.332273960113525, -1.582305669784546, 7.939901351928711, -0.3261905312538147, -0.722034752368927, -0.8601768612861633, -0.185302734375, 0.373291015625, -1.3818359375
50, 1273620622, -5.331577301025391, -1.5891587734222412, 7.929675579071045, -0.2793448567390442, -0.6548782587051392, -0.7992185950279236, -0.183837890625, 0.371826171875, -1.381103515625
51, 1273637289, -5.31756067276001, -1.596859335899353, 7.9431047439575195, -0.20969119668006897, -0.7322799563407898, -0.7985784411430359, -0.182861328125, 0.371337890625, -1.382568359375
52, 1273653956, -5.312937259674072, -1.6061232089996338, 7.936647415161133, -0.12633463740348816, -0.7130062580108643, -0.7774094343185425, -0.188232421875, 0.371826171875, -1.38232421875
53, 1273670623, -5.334178447723389, -1.5807455778121948, 7.948053359985352, -0.22566068172454834, -0.5681792497634888, -0.7883332371711731, -0.185302734375, 0.372314453125, -1.3828125
54, 1273687290, -5.335058212280273, -1.5749114751815796, 7.937229156494141, -0.2950967252254486, -0.4690069556236267, -0.8886454105377197, -0.186767578125, 0.373291015625, -1.38134765625
55, 1273703957, -5.328035354614258, -1.6050153970718384, 7.928813934326172, -0.47578147053718567, -0.49578502774238586, -0.9410360455513, -0.184814453125, 0.372314453125, -1.3828125
56, 1273720624, -5.326176166534424, -1.6086045503616333, 7.946289539337158, -0.3891337215900421, -0.4580062925815582, -0.7875776290893555, -0.187744140625, 0.373291015625, -1.380859375
57, 1273737291, -5.315708160400391, -1.6162855625152588, 7.94711446762085, -0.29870811104774475, -0.438617467880249, -0.7589555382728577, -0.185302734375, 0.371826171875, -1.38330078125
58, 1273753958, -5.327579975128174, -1.5546317100524902, 7.932212829589844, -0.4814547002315521, -0.28914177417755127, -0.8362545371055603, -0.185791015625, 0.373291015625, -1.3818359375
59, 1273770625, -5.346811771392822, -1.5818558931350708, 7.954707145690918, -0.7256333827972412, -0.23539350926876068, -1.0416043996810913, -0.185302734375, 0.369873046875, -1.3818359375
60, 1273787292, -5.322933673858643, -1.6028642654418945, 7.940975666046143, -0.8078758716583252, -0.26790884137153625, -0.8801292777061462, -0.187255859375, 0.372314453125, -1.38134765625
61, 1273803959, -5.332303047180176, -1.6030412912368774, 7.9215521812438965, -0.6002848148345947, -0.2381596863269806, -0.7633480429649353, -0.184814453125, 0.371826171875, -1.382080078125
62, 1273820626, -5.355631351470947, -1.5819510221481323, 7.928298473358154, -0.5296066403388977, -0.3650321960449219, -0.7851317524909973, -0.184326171875, 0.371826171875, -1.38232421875
63, 1273837293, -5.347356796264648, -1.5928161144256592, 7.936509609222412, -0.5409274101257324, -0.42935848236083984, -0.7672796845436096, -0.184326171875, 0.370361328125, -1.3828125
64, 1273853960, -5.326536178588867, -1.6069616079330444, 7.9650678634643555, -0.37508514523506165, -0.5040578842163086, -0.6587714552879333, -0.186279296875, 0.374267578125, -1.38134765625
65, 1273870627, -5.33727502822876, -1.6068471670150757, 7.9512104988098145, -0.2687924802303314, -0.44648057222366333, -0.5880419611930847, -0.186279296875, 0.370361328125, -1.380126953125
66, 1273887294, -5.349502086639404, -1.5906541347503662, 7.922010898590088, -0.2432694137096405, -0.3785044550895691, -0.678864598274231, -0.184326171875, 0.374267578125, -1.3828125
67, 1273903961, -5.3579840660095215, -1.5848089456558228, 7.959867000579834, -0.24709850549697876, -0.4451230764389038, -0.7141717076301575, -0.184814453125, 0.370849609375, -1.381591796875
68, 1273920628, -5.3614420890808105, -1.5986274480819702, 7.938543319702148, -0.25383466482162476, -0.5772846341133118, -0.8440025448799133, -0.183837890625, 0.373779296875, -1.380615234375
69, 1273937295, -5.345222473144531, -1.6185885667800903, 7.920499324798584, -0.1701195389032364, -0.7419870495796204, -0.800524890422821, -0.183837890625, 0.372802734375, -1.378662109375
70, 1273953962, -5.348949909210205, -1.6025023460388184, 7.933679580688477, -0.18211908638477325, -0.7456880807876587, -0.705578625202179, -0.184814453125, 0.374267578125, -1.379150390625
71, 1273970629, -5.353058815002441, -1.580407738685608, 7.929793834686279, -0.036472488194704056, -0.7820581793785095, -0.7308583855628967, -0.181884765625, 0.372802734375, -1.378662109375
72, 1273987296, -5.317636489868164, -1.605907917022705, 7.927314281463623, -0.023435618728399277, -0.7063214182853699, -0.6507546305656433, -0.183837890625, 0.374267578125, -1.379150390625
73, 1274003963, -5.351452827453613, -1.5687116384506226, 7.938479900360107, -0.17754721641540527, -0.6090187430381775, -0.7317803502082825, -0.185791015625, 0.371826171875, -1.38134765625
74, 1274020630, -5.34376335144043, -1.5807000398635864, 7.944434642791748, -0.25811198353767395, -0.5789365768432617, -0.7638346552848816, -0.182861328125, 0.373779296875, -1.378662109375
75, 1274037297, -5.339081764221191, -1.5884751081466675, 7.9251508712768555, -0.2607244551181793, -0.6851397156715393, -0.823025643825531, -0.184814453125, 0.372802734375, -1.381103515625
76, 1274053964, -5.323504447937012, -1.6076953411102295, 7.922373294830322, -0.2629142999649048, -0.6958457827568054, -0.897315263748169, -0.183349609375, 0.372314453125, -1.381103515625
77, 1274070631, -5.360103607177734, -1.6045548915863037, 7.9248480796813965, -0.19427230954170227, -0.587888240814209, -0.7868348956108093, -0.182861328125, 0.370849609375, -1.381103515625
78, 1274087298, -5.335420608520508, -1.610034704208374, 7.915782928466797, -0.2538858950138092, -0.5175942778587341, -0.7126477360725403, -0.183349609375, 0.368896484375, -1.381591796875
79, 1274103965, -5.338046073913574, -1.5787231922149658, 7.939655780792236, -0.3969072103500366, -0.375379741191864, -0.7874752283096313, -0.184814453125, 0.372802734375, -1.3818359375
80, 1274120632, -5.348480224609375, -1.5782811641693115, 7.9446611404418945, -0.42068856954574585, -0.21677307784557343, -0.8397379517555237, -0.184326171875, 0.372314453125, -1.38232421875
81, 1274137299, -5.368740558624268, -1.5860507488250732, 7.917974948883057, -0.5766698718070984, -0.3038434684276581, -0.875249981880188, -0.182861328125, 0.372314453125, -1.380126953125
82, 1274153966, -5.370250225067139, -1.568630337715149, 7.917481422424316, -0.9332499504089355, -0.24682959914207458, -1.2090730667114258, -0.183349609375, 0.373779296875, -1.382080078125
83, 1274170633, -5.340679168701172, -1.597845435142517, 7.943097114562988, -1.0284011363983154, -0.27552860975265503, -1.1659284830093384, -0.183837890625, 0.372802734375, -1.382568359375
84, 1274187300, -5.344043254852295, -1.5787545442581177, 7.943232536315918, -0.9738717675209045, -0.18713919818401337, -1.1816675662994385, -0.183837890625, 0.374267578125, -1.382080078125
85, 1274203967, -5.353333950042725, -1.592638373374939, 7.918406963348389, -0.892589807510376, -0.23319081962108612, -1.16843843460083, -0.181396484375, 0.373779296875, -1.381591796875
86, 1274220634, -5.360174179077148, -1.6061369180679321, 7.937871932983398, -0.8453472256660461, -0.5055819153785706, -1.2371702194213867, -0.181396484375, 0.372802734375, -1.382080078125
87, 1274237301, -5.394697189331055, -1.6054843664169312, 7.920979022979736, -0.6521890759468079, -0.5906289219856262, -1.1491011381149292, -0.180419921875, 0.372314453125, -1.382080078125
88, 1274253968, -5.339824676513672, -1.6196706295013428, 7.894427299499512, -0.5198409557342529, -0.743773341178894, -1.0644252300262451, -0.183837890625, 0.372802734375, -1.379638671875
89, 1274270635, -5.33797550201416, -1.6235634088516235, 7.911416053771973, -0.46579259634017944, -0.851904034614563, -1.1018840074539185, -0.185302734375, 0.374267578125, -1.380615234375
90, 1274287302, -5.36475944519043, -1.6226071119308472, 7.935363292694092, -0.3487553596496582, -0.817608654499054, -0.9269877076148987, -0.183837890625, 0.375732421875, -1.380615234375
91, 1274303969, -5.366196632385254, -1.6088582277297974, 7.936468124389648, -0.1775728464126587, -0.9049736261367798, -0.8269316554069519, -0.185302734375, 0.375244140625, -1.378173828125
92, 1274320636, -5.346336841583252, -1.6033254861831665, 7.926428318023682, -0.11293920874595642, -0.9997405409812927, -0.918509840965271, -0.184326171875, 0.374267578125, -1.382080078125
93, 1274337303, -5.380609512329102, -1.6058400869369507, 7.932398319244385, -0.20762938261032104, -0.95596843957901, -0.9006962180137634, -0.183349609375, 0.373779296875, -1.380126953125
94, 1274353970, -5.3189616203308105, -1.6128038167953491, 7.890618324279785, -0.08398403972387314, -1.044268250465393, -0.8913219571113586, -0.181884765625, 0.3759765625, -1.380615234375
95, 1274370637, -5.358747482299805, -1.6299395561218262, 7.923989772796631, -0.1719636768102646, -0.8346282243728638, -0.9223388433456421, -0.182861328125, 0.374755859375, -1.382568359375
96, 1274387304, -5.37382173538208, -1.6062233448028564, 7.908518314361572, -0.18790756165981293, -0.8108339905738831, -0.8438231348991394, -0.183349609375, 0.375732421875, -1.378173828125
97, 1274403971, -5.360773086547852, -1.6023855209350586, 7.910148620605469, -0.207462877035141, -0.8722789883613586, -0.9002352952957153, -0.183349609375, 0.371337890625, -1.382080078125
98, 1274420638, -5.348692893981934, -1.6124621629714966, 7.929622650146484, -0.2626710534095764, -1.0284267663955688, -0.8626613616943359, -0.185302734375, 0.373779296875, -1.378662109375
99, 1274437305, -5.361718654632568, -1.6159495115280151, 7.946783065795898, -0.11976499110460281, -0.9817731976509094, -0.7697256803512573, -0.184326171875, 0.374755859375, -1.380126953125
100, 1274453972, -5.335145950317383, -1.6108845472335815, 7.913868427276611, -0.09939008206129074, -0.876748263835907, -0.8067743182182312, -0.185302734375, 0.373779296875, -1.381591796875
101, 1274470639, -5.360260009765625, -1.6111950874328613, 7.937594890594482, -0.07444331049919128, -0.721420168876648, -0.7483262419700623, -0.183349609375, 0.372802734375, -1.380126953125
102, 1274487306, -5.359195232391357, -1.6092571020126343, 7.907948970794678, -0.03178535774350166, -0.7516942620277405, -0.7920086979866028, -0.183837890625, 0.372802734375, -1.382080078125
103, 1274503973, -5.3604936599731445, -1.6217995882034302, 7.90855598449707, 0.19307492673397064, -0.898749589920044, -0.6676461696624756, -0.184326171875, 0.374267578125, -1.381103515625
104, 1274520640, -5.3380303382873535, -1.6089822053909302, 7.9182658195495605, 0.22328512370586395, -1.075093150138855, -0.6436728239059448, -0.183837890625, 0.371337890625, -1.382568359375
105, 1274537307, -5.361121654510498, -1.59369957447052, 7.917511463165283, 0.13691909611225128, -0.9701322317123413, -0.7506697773933411, -0.183837890625, 0.374755859375, -1.381103515625
106, 1274553974, -5.374445915222168, -1.5872161388397217, 7.946061134338379, 0.06999310106039047, -0.7884741425514221, -0.7775119543075562, -0.185791015625, 0.373291015625, -1.381103515625
107, 1274570641, -5.346986293792725, -1.6031502485275269, 7.931892395019531, -0.04128767549991608, -0.7110854387283325, -0.7503881454467773, -0.182373046875, 0.371337890625, -1.380615234375
108, 1274587308, -5.355137825012207, -1.598841667175293, 7.894893169403076, 0.06507546454668045, -0.7732473611831665, -0.7824167013168335, -0.182373046875, 0.373291015625, -1.382080078125
109, 1274603975, -5.350246906280518, -1.619369626045227, 7.945004940032959, -0.001062926952727139, -0.9131823182106018, -0.7956072092056274, -0.183837890625, 0.373291015625, -1.382568359375
110, 1274620642, -5.368350982666016, -1.5852725505828857, 7.9252729415893555, -0.011794649064540863, -0.8475627303123474, -0.8133697509765625, -0.184326171875, 0.373779296875, -1.38232421875
111, 1274637309, -5.342131614685059, -1.5766578912734985, 7.942137718200684, -0.10922536253929138, -0.7576364278793335, -0.8706139922142029, -0.182373046875, 0.370849609375, -1.381591796875
112, 1274653976, -5.365655899047852, -1.5968948602676392, 7.944385051727295, -0.15846577286720276, -0.9016183018684387, -0.9529333710670471, -0.184814453125, 0.371337890625, -1.380126953125
113, 1274670643, -5.359183311462402, -1.5845292806625366, 7.928136825561523, -0.18509018421173096, -0.86879563331604, -0.9899949431419373, -0.181884765625, 0.373291015625, -1.381591796875
114, 1274687310, -5.334660530090332, -1.6126965284347534, 7.922715187072754, -0.10613901913166046, -1.0467525720596313, -0.9054985642433167, -0.186767578125, 0.373291015625, -1.38232421875
115, 1274703977, -5.3484296798706055, -1.5852181911468506, 7.927364349365234, -0.044322773814201355, -1.006912112236023, -0.8284811973571777, -0.183837890625, 0.372802734375, -1.382568359375
116, 1274720644, -5.329717636108398, -1.5909560918807983, 7.928290367126465, -0.05714192986488342, -0.9597205519676208, -0.8902974128723145, -0.182861328125, 0.372314453125, -1.382080078125
117, 1274737311, -5.346308708190918, -1.5934263467788696, 7.914299964904785, -0.1801213026046753, -0.8076708912849426, -0.9774957895278931, -0.183837890625, 0.373779296875, -1.382080078125
118, 1274753978, -5.344326972961426, -1.608548641204834, 7.911462783813477, -0.2468423992395401, -0.8064287304878235, -0.9781106114387512, -0.186279296875, 0.374267578125, -1.380126953125
119, 1274770645, -5.367801666259766, -1.6240123510360718, 7.935531139373779, -0.10642077028751373, -0.7504392862319946, -0.9240933656692505, -0.182373046875, 0.371337890625, -1.381591796875
120, 1274787312, -5.328721523284912, -1.6077479124069214, 7.91798210144043, -0.14889943599700928, -0.8659653067588806, -0.7961195111274719, -0.185791015625, 0.371826171875, -1.379638671875
121, 1274803979, -5.3541412353515625, -1.5876137018203735, 7.923630714416504, -0.10095245391130447, -0.8764024972915649, -0.8660165667533875, -0.183837890625, 0.372314453125, -1.381103515625
122, 1274820646, -5.3552045822143555, -1.5748087167739868, 7.936037540435791, -0.13353180885314941, -0.8614192008972168, -0.8655556440353394, -0.183837890625, 0.374267578125, -1.380615234375
123, 1274837313, -5.3534836769104, -1.5740805864334106, 7.9562554359436035, -0.18496209383010864, -0.8823191523551941, -0.9388077855110168, -0.184326171875, 0.373779296875, -1.380126953125
124, 1274853980, -5.345592975616455, -1.6012383699417114, 7.905996322631836, -0.23094967007637024, -0.9921334385871887, -1.0209349393844604, -0.183349609375, 0.371337890625, -1.381103515625
125, 1274870647, -5.341309070587158, -1.630678653717041, 7.9318695068359375, -0.07647951692342758, -0.9014900922775269, -0.8795656561851501, -0.185791015625, 0.374755859375, -1.3818359375
126, 1274887314, -5.318517208099365, -1.5725154876708984, 7.948032379150391, -0.09211607277393341, -0.8473066091537476, -0.8037136793136597, -0.184814453125, 0.372802734375, -1.38232421875
127, 1274903981, -5.363353729248047, -1.5532935857772827, 7.954653263092041, -0.09582991153001785, -0.8274950385093689, -0.7986295223236084, -0.185791015625, 0.372314453125, -1.380615234375
128, 1274920648, -5.34745979309082, -1.6121041774749756, 7.926446437835693, -0.11264464259147644, -0.858063817024231, -0.8117305040359497, -0.184326171875, 0.373291015625, -1.382080078125
129, 1274937315, -5.342353820800781, -1.5955535173416138, 7.9315924644470215, 0.03405848518013954, -0.9086360931396484, -0.7498757243156433, -0.184814453125, 0.374755859375, -1.3818359375
130, 1274953982, -5.345514297485352, -1.5937997102737427, 7.954392433166504, 0.0559445358812809, -0.8817171454429626, -0.6983045935630798, -0.182373046875, 0.373779296875, -1.380126953125
131, 1274970649, -5.366725921630859, -1.5780600309371948, 7.942447662353516, -0.021988503634929657, -1.0625427961349487, -0.7929179668426514, -0.184814453125, 0.372314453125, -1.380615234375
132, 1274987316, -5.333148002624512, -1.595547080039978, 7.92453670501709, -0.09511275589466095, -1.052131175994873, -0.8942033052444458, -0.186279296875, 0.373779296875, -1.380859375
133, 1275003983, -5.3333587646484375, -1.5939065217971802, 7.929971694946289, -0.13191819190979004, -0.8550541996955872, -0.8891960382461548, -0.185791015625, 0.370849609375, -1.3818359375
134, 1275020650, -5.32386589050293, -1.6008952856063843, 7.961390495300293, -0.17958343029022217, -0.7139027714729309, -0.8918085098266602, -0.185791015625, 0.371337890625, -1.3818359375
135, 1275037317, -5.344805717468262, -1.5922439098358154, 7.93985652923584, -0.27952414751052856, -0.6410601735115051, -0.9076628088951111, -0.183349609375, 0.372802734375, -1.381103515625
136, 1275053984, -5.352982044219971, -1.5768615007400513, 7.943414211273193, -0.3875713646411896, -0.5497637391090393, -0.9192908406257629, -0.185791015625, 0.373291015625, -1.38134765625
137, 1275070651, -5.3299665451049805, -1.5978947877883911, 7.9303059577941895, -0.38234642148017883, -0.6822839379310608, -0.9638699889183044, -0.185791015625, 0.370361328125, -1.379638671875
138, 1275087318, -5.3341827392578125, -1.5956978797912598, 7.93502950668335, -0.3756742775440216, -0.5852758288383484, -1.0481997728347778, -0.185302734375, 0.372314453125, -1.380615234375
139, 1275103985, -5.334018230438232, -1.588944911956787, 7.929954528808594, -0.4113270938396454, -0.721394419670105, -0.948066771030426, -0.184326171875, 0.373291015625, -1.382080078125
140, 1275120652, -5.344996452331543, -1.597078800201416, 7.914097785949707, -0.39303967356681824, -0.6345930099487305, -0.9305861592292786, -0.183349609375, 0.374267578125, -1.380126953125
141, 1275137319, -5.347815036773682, -1.5901484489440918, 7.9344964027404785, -0.28362223505973816, -0.7191405892372131, -0.8993130922317505, -0.186279296875, 0.372802734375, -1.378662109375
142, 1275153986, -5.341418266296387, -1.6071816682815552, 7.920143127441406, -0.3138324022293091, -0.6677358746528625, -0.9657140374183655, -0.184326171875, 0.370849609375, -1.382080078125
143, 1275170653, -5.326095104217529, -1.602121353149414, 7.961248874664307, -0.3389968276023865, -0.6471303701400757, -0.8257149457931519, -0.184326171875, 0.373779296875, -1.381103515625
144, 1275187320, -5.339999675750732, -1.59366774559021, 7.906903266906738, -0.2945460379123688, -0.5935742855072021, -0.7992314696311951, -0.183349609375, 0.371826171875, -1.379150390625
145, 1275203987, -5.336511611938477, -1.5803312063217163, 7.938726425170898, -0.26961207389831543, -0.4883444905281067, -0.8393409252166748, -0.183349609375, 0.374267578125, -1.380126953125
146, 1275220654, -5.343197822570801, -1.582623839378357, 7.915163040161133, -0.3439657390117645, -0.5990169644355774, -0.843349277973175, -0.185791015625, 0.372314453125, -1.380615234375
147, 1275237321, -5.345111846923828, -1.6124763488769531, 7.905830383300781, -0.3340536057949066, -0.614896833896637, -0.948143720626831, -0.184814453125, 0.374267578125, -1.3818359375
148, 1275253988, -5.348737716674805, -1.5887290239334106, 7.950329780578613, -0.33532142639160156, -0.5360864996910095, -0.9776238799095154, -0.184326171875, 0.373291015625, -1.381591796875
149, 1275270655, -5.363900184631348, -1.5940961837768555, 7.952193737030029, -0.22489233314990997, -0.5188493132591248, -0.8663368225097656, -0.182861328125, 0.372802734375, -1.382568359375
150, 1275287322, -5.356657028198242, -1.589877724647522, 7.9248046875, -0.23512457311153412, -0.6240790486335754, -0.9173955917358398, -0.184326171875, 0.373779296875, -1.382080078125
151, 1275303989, -5.3559088706970215, -1.5836528539657593, 7.922301769256592, -0.28281956911087036, -0.7564651966094971, -0.8916058540344238, -0.184814453125, 0.372802734375, -1.379638671875
152, 1275320656, -5.35922908782959, -1.5950167179107666, 7.959514617919922, -0.21182984113693237, -0.8010884523391724, -0.9240806102752686, -0.184326171875, 0.373291015625, -1.381103515625
153, 1275337323, -5.3474321365356445, -1.5936554670333862, 7.9398884773254395, -0.1833101063966751, -0.8570009469985962, -0.8391233086585999, -0.184814453125, 0.374755859375, -1.381103515625
154, 1275353990, -5.332769870758057, -1.612667441368103, 7.945444107055664, -0.17601047456264496, -0.8376377820968628, -0.8511356711387634, -0.183349609375, 0.373779296875, -1.380126953125
155, 1275370657, -5.335055828094482, -1.5903037786483765, 7.922173976898193, -0.2162480354309082, -0.9027580618858337, -0.7781779170036316, -0.184326171875, 0.373291015625, -1.382080078125
156, 1275387324, -5.342351913452148, -1.5920549631118774, 7.939731597900391, -0.14357198774814606, -0.7053609490394592, -0.7518223524093628, -0.184326171875, 0.370849609375, -1.380615234375
157, 1275403991, -5.336919784545898, -1.5862623453140259, 7.944829940795898, -0.1277945637702942, -0.7116745114326477, -0.7498245239257812, -0.184814453125, 0.372802734375, -1.38330078125
158, 1275420658, -5.342558860778809, -1.6020780801773071, 7.938784599304199, -0.0992492139339447, -0.9011316299438477, -0.7901646494865417, -0.181884765625, 0.374267578125, -1.380126953125
159, 1275437325, -5.360172748565674, -1.605384349822998, 7.945542812347412, -0.060561228543519974, -0.8655298948287964, -0.826970100402832, -0.183837890625, 0.371337890625, -1.382568359375
160, 1275453992, -5.3357391357421875, -1.5898452997207642, 7.929737567901611, -0.014880979433655739, -0.9817476272583008, -0.7776656150817871, -0.185302734375, 0.371826171875, -1.3818359375
161, 1275470659, -5.347008228302002, -1.592368245124817, 7.93285608291626, 0.041908785700798035, -0.9621283411979675, -0.6584897637367249, -0.187255859375, 0.372802734375, -1.38037109375
162, 1275487326, -5.341980457305908, -1.5995675325393677, 7.942253112792969, 0.035134218633174896, -0.929036557674408, -0.7006738185882568, -0.183349609375, 0.373779296875, -1.380615234375
163, 1275503993, -5.354012489318848, -1.5836864709854126, 7.926350116729736, 0.0499255545437336, -0.9120681285858154, -0.6836157441139221, -0.184814453125, 0.371826171875, -1.380615234375
164, 1275520660, -5.336463928222656, -1.5998371839523315, 7.906727313995361, 0.16351789236068726, -1.0480972528457642, -0.6082119941711426, -0.185791015625, 0.372314453125, -1.3828125
165, 1275537327, -5.353911876678467, -1.591056227684021, 7.935314178466797, 0.24410821497440338, -1.141929268836975, -0.6278440952301025, -0.186279296875, 0.372802734375, -1.378662109375
166, 1275553994, -5.337551116943359, -1.5723711252212524, 7.934597015380859, 0.16356909275054932, -1.0908063650131226, -0.744586706161499, -0.184326171875, 0.370849609375, -1.379638671875
167, 1275570661, -5.335974216461182, -1.5777647495269775, 7.967905044555664, 0.06881492584943771, -1.032499074935913, -0.9051656126976013, -0.182861328125, 0.372314453125, -1.381103515625
168, 1275587328, -5.361355781555176, -1.5912889242172241, 7.942315101623535, 0.23906251788139343, -1.1223996877670288, -0.6522273421287537, -0.187255859375, 0.368408203125, -1.380859375
169, 1275603995, -5.339177131652832, -1.5914151668548584, 7.923694610595703, 0.2683250308036804, -1.2130557298660278, -0.8279432654380798, -0.185791015625, 0.371826171875, -1.379638671875
170, 1275620662, -5.331399917602539, -1.5951881408691406, 7.927621364593506, 0.5268083214759827, -0.9808639287948608, -0.9269492030143738, -0.185791015625, 0.371337890625, -1.379150390625
171, 1275637329, -5.3474812507629395, -1.5745439529418945, 7.933618068695068, 0.6329602003097534, -1.0732872486114502, -1.0065534114837646, -0.183837890625, 0.369873046875, -1.381103515625
172, 1275653996, -5.316690921783447, -1.5801154375076294, 7.938915729522705, 0.4990057945251465, -1.1032670736312866, -0.8777856230735779, -0.183837890625, 0.371337890625, -1.3837890625
173, 1275670663, -5.318443775177002, -1.5750800371170044, 7.925114631652832, 0.1920120120048523, -1.054449200630188, -0.9239780902862549, -0.184326171875, 0.373291015625, -1.380126953125
174, 1275687330, -5.3500447273254395, -1.5591336488723755, 7.939305305480957, -0.06458242237567902, -0.7797530293464661, -1.0042738914489746, -0.184814453125, 0.369384765625, -1.38232421875
175, 1275703997, -5.340887069702148, -1.5702199935913086, 7.946533679962158, -0.2720452845096588, -0.7604794502258301, -1.0467910766601562, -0.184814453125, 0.369873046875, -1.379638671875
176, 1275720664, -5.347140312194824, -1.5841052532196045, 7.909252643585205, -0.296095609664917, -0.7950950264930725, -1.0532582998275757, -0.183837890625, 0.371337890625, -1.379150390625
177, 1275737331, -5.32853364944458, -1.593142032623291, 7.946091175079346, -0.37498271465301514, -0.839776337146759, -1.0885268449783325, -0.185302734375, 0.369384765625, -1.38232421875
178, 1275753998, -5.34211540222168, -1.5879912376403809, 7.942864418029785, -0.34183984994888306, -0.8293263912200928, -1.0300915241241455, -0.185791015625, 0.370361328125, -1.38134765625
179, 1275770665, -5.347855091094971, -1.5560343265533447, 7.959354877471924, -0.42200762033462524, -0.7652050256729126, -0.9487327933311462, -0.183349609375, 0.372314453125, -1.38330078125
180, 1275787332, -5.3414435386657715, -1.5785694122314453, 7.9550461769104, -0.4949398338794708, -0.7669082880020142, -1.0079237222671509, -0.183349609375, 0.371337890625, -1.382568359375
181, 1275803999, -5.334018230438232, -1.5896962881088257, 7.948447227478027, -0.3789142668247223, -0.7980276942253113, -1.003159761428833, -0.184814453125, 0.371337890625, -1.382080078125
182, 1275820666, -5.328925609588623, -1.5791248083114624, 7.929093837738037, -0.4974242150783539, -0.6811953783035278, -0.9378858208656311, -0.185791015625, 0.370361328125, -1.380615234375
183, 1275837333, -5.327762603759766, -1.5877689123153687, 7.951392650604248, -0.43016526103019714, -0.5956873893737793, -0.8645439147949219, -0.185302734375, 0.372802734375, -1.380126953125
184, 1275854000, -5.348141193389893, -1.575920820236206, 7.938546180725098, -0.3899405300617218, -0.5327185392379761, -0.8876336812973022, -0.185791015625, 0.370849609375, -1.380126953125
185, 1275870667, -5.345227241516113, -1.5725057125091553, 7.9692487716674805, -0.42674604058265686, -0.5947781205177307, -0.9650993347167969, -0.182861328125, 0.372314453125, -1.381103515625
186, 1275887334, -5.344521999359131, -1.5813723802566528, 7.935021877288818, -0.4858216941356659, -0.4887159466743469, -0.8993260264396667, -0.186767578125, 0.372802734375, -1.3818359375
187, 1275904001, -5.344544887542725, -1.5840092897415161, 7.916147708892822, -0.4024779796600342, -0.6056890487670898, -0.9399476051330566, -0.186279296875, 0.369384765625, -1.381103515625
188, 1275920668, -5.343312740325928, -1.580065369606018, 7.945311546325684, -0.35380104184150696, -0.7620673775672913, -0.8711519241333008, -0.185791015625, 0.373291015625, -1.3828125
189, 1275937335, -5.355555057525635, -1.592891812324524, 7.897913455963135, -0.14775966107845306, -0.841415524482727, -0.9006834030151367, -0.186767578125, 0.369384765625, -1.379638671875
190, 1275954002, -5.3408284187316895, -1.5877755880355835, 7.943297386169434, -0.21231648325920105, -0.9448012113571167, -0.9379370808601379, -0.185302734375, 0.372802734375, -1.3818359375
191, 1275970669, -5.330264091491699, -1.591314435005188, 7.955159664154053, -0.2843009829521179, -0.8788869380950928, -0.9307527542114258, -0.184814453125, 0.373291015625, -1.380126953125
192, 1275987336, -5.339402675628662, -1.577831745147705, 7.9432172775268555, -0.34939563274383545, -0.7093309760093689, -0.9669050574302673, -0.183837890625, 0.372802734375, -1.381103515625
193, 1276004003, -5.358033657073975, -1.588597297668457, 7.927797794342041, -0.4288718104362488, -0.7218043208122253, -1.120337963104248, -0.183837890625, 0.372314453125, -1.382080078125
194, 1276020670, -5.33707332611084, -1.5969551801681519, 7.948760032653809, -0.3349756896495819, -0.7922008633613586, -1.035559892654419, -0.184814453125, 0.371337890625, -1.380615234375
195, 1276037337, -5.333371639251709, -1.5940485000610352, 7.934008598327637, -0.2627350389957428, -0.8246905207633972, -0.9391536712646484, -0.186279296875, 0.371826171875, -1.379638671875
196, 1276054004, -5.328651428222656, -1.5927934646606445, 7.945048809051514, -0.3555555045604706, -0.761375904083252, -0.8625075817108154, -0.182861328125, 0.372314453125, -1.379638671875
197, 1276070671, -5.33894157409668, -1.572311282157898, 7.942732334136963, -0.35091960430145264, -0.7576492428779602, -0.8842785358428955, -0.185791015625, 0.372314453125, -1.38134765625
198, 1276087338, -5.361079692840576, -1.5888203382492065, 7.925537586212158, -0.3857528269290924, -0.7321005463600159, -0.8921030759811401, -0.186767578125, 0.372314453125, -1.380859375
199, 1276104005, -5.347235202789307, -1.5824806690216064, 7.94181489944458, -0.3419167101383209, -0.8322975039482117, -0.9170882105827332, -0.184814453125, 0.373291015625, -1.378662109375
200, 1276120672, -5.341048240661621, -1.5855416059494019, 7.914290428161621, -0.30175602436065674, -0.9171139597892761, -0.9710798859596252, -0.185302734375, 0.372802734375, -1.3818359375
201, 1276137339, -5.343358516693115, -1.6021445989608765, 7.9446916580200195, -0.33112096786499023, -0.9425472021102905, -0.9401140809059143, -0.186279296875, 0.372314453125, -1.380615234375
202, 1276154006, -5.335222244262695, -1.592193365097046, 7.94674825668335, -0.26883092522621155, -0.9261425137519836, -0.9644591212272644, -0.183349609375, 0.373779296875, -1.380615234375
203, 1276170673, -5.3264360427856445, -1.5828266143798828, 7.926384449005127, -0.3018328547477722, -0.9575180411338806, -0.9543163776397705, -0.184326171875, 0.371826171875, -1.3828125
204, 1276187340, -5.344093322753906, -1.5906003713607788, 7.950361251831055, -0.32041484117507935, -0.9632809162139893, -0.9654195308685303, -0.186279296875, 0.371826171875, -1.3818359375
205, 1276204007, -5.325366497039795, -1.5902222394943237, 7.953047275543213, -0.28309711813926697, -1.045395016670227, -1.0677932500839233, -0.184326171875, 0.371826171875, -1.381591796875
206, 1276220674, -5.3385233879089355, -1.5974023342132568, 7.926164150238037, -0.3018072545528412, -0.9466582536697388, -1.0804589986801147, -0.187255859375, 0.372802734375, -1.380126953125
207, 1276237341, -5.31983757019043, -1.6046862602233887, 7.936987400054932, -0.27331310510635376, -1.0136865377426147, -0.986204206943512, -0.184814453125, 0.371337890625, -1.382080078125
208, 1276254008, -5.327838897705078, -1.5916093587875366, 7.909923076629639, -0.3632393181324005, -0.9797625541687012, -0.9775726795196533, -0.186767578125, 0.372314453125, -1.3818359375
209, 1276270675, -5.333230972290039, -1.5926969051361084, 7.958218097686768, -0.25607573986053467, -0.9965004920959473, -0.9780594110488892, -0.185791015625, 0.372802734375, -1.381103515625
210, 1276287342, -5.336531639099121, -1.5787383317947388, 7.938879013061523, -0.2558196783065796, -0.9539834260940552, -0.9937599897384644, -0.184814453125, 0.371826171875, -1.381103515625
211, 1276304009, -5.32630729675293, -1.6059191226959229, 7.937790870666504, -0.2297075092792511, -0.9201235175132751, -0.9873183965682983, -0.183837890625, 0.370849609375, -1.381103515625
212, 1276320676, -5.329949378967285, -1.6162270307540894, 7.977207660675049, -0.11356671899557114, -0.8422735929489136, -0.8874545097351074, -0.184326171875, 0.370849609375, -1.381591796875
213, 1276337343, -5.327301025390625, -1.5820515155792236, 7.941585063934326, -0.2022762894630432, -0.8482541441917419, -0.8716385364532471, -0.184326171875, 0.373779296875, -1.380615234375
214, 1276354010, -5.339685440063477, -1.5712746381759644, 7.936130523681641, -0.26586294174194336, -0.7418394684791565, -0.9677954316139221, -0.186279296875, 0.372314453125, -1.3828125
215, 1276370677, -5.319413661956787, -1.5882741212844849, 7.935608386993408, -0.3993147909641266, -0.8805133700370789, -1.087796926498413, -0.185302734375, 0.372314453125, -1.3828125
216, 1276387344, -5.329124450683594, -1.5993448495864868, 7.942606449127197, -0.46069562435150146, -0.8559508919715881, -1.0312825441360474, -0.184326171875, 0.372314453125, -1.380126953125
217, 1276404011, -5.3344197273254395, -1.6220989227294922, 7.94606351852417, -0.258278489112854, -0.7619010210037231, -1.0406184196472168, -0.184326171875, 0.372802734375, -1.381103515625
218, 1276420678, -5.341740608215332, -1.5935781002044678, 7.92791748046875, -0.2554098665714264, -0.7573419809341431, -0.912708580493927, -0.187744140625, 0.371337890625, -1.3828125
219, 1276437345, -5.308588027954102, -1.6099406480789185, 7.956936836242676, -0.29380327463150024, -0.7797402143478394, -0.9394866824150085, -0.185302734375, 0.372802734375, -1.380126953125
220, 1276454012, -5.320742130279541, -1.5869269371032715, 7.969393730163574, -0.16540679335594177, -0.6383068561553955, -0.7448556423187256, -0.186767578125, 0.373291015625, -1.3818359375
221, 1276470679, -5.337162017822266, -1.5708081722259521, 7.910905838012695, -0.31147605180740356, -0.6556596159934998, -0.8785796761512756, -0.186279296875, 0.372314453125, -1.3837890625
222, 1276487346, -5.347078323364258, -1.581333875656128, 7.9216203689575195, -0.3995325267314911, -0.595853865146637, -1.055742621421814, -0.185302734375, 0.373291015625, -1.38427734375
223, 1276504013, -5.321338176727295, -1.5970195531845093, 7.954229354858398, -0.4356336295604706, -0.6933102011680603, -1.111578345298767, -0.185302734375, 0.373291015625, -1.381591796875
224, 1276520680, -5.341416835784912, -1.6081397533416748, 7.913645267486572, -0.35010001063346863, -0.6923241019248962, -1.0634264945983887, -0.185302734375, 0.372314453125, -1.38330078125
225, 1276537347, -5.333220958709717, -1.6062618494033813, 7.944885730743408, -0.2848644554615021, -0.795312762260437, -1.0051960945129395, -0.186279296875, 0.373779296875, -1.384765625
226, 1276554014, -5.345322608947754, -1.5999172925949097, 7.945833683013916, -0.2638748288154602, -0.8330658674240112, -0.9136945605278015, -0.184326171875, 0.372802734375, -1.3828125
227, 1276570681, -5.337442398071289, -1.608330249786377, 7.937960624694824, -0.2358289361000061, -0.84279865026474, -0.946453332901001, -0.184326171875, 0.374755859375, -1.379638671875
228, 1276587348, -5.343430042266846, -1.6012561321258545, 7.961598873138428, -0.24192476272583008, -0.7296802401542664, -0.9439815878868103, -0.187744140625, 0.373291015625, -1.38232421875
229, 1276604015, -5.340956211090088, -1.5983078479766846, 7.922082901000977, -0.266308069229126, -0.8831899166107178, -0.9050759673118591, -0.184814453125, 0.372802734375, -1.38232421875
230, 1276620682, -5.322220325469971, -1.6080272197723389, 7.902996063232422, -0.0031759750563651323, -1.0350604057312012, -0.813446581363678, -0.184326171875, 0.372314453125, -1.380615234375
231, 1276637349, -5.333279609680176, -1.6070482730865479, 7.935369968414307, -0.0022026917431503534, -1.0239828824996948, -0.8214248418807983, -0.185302734375, 0.373291015625, -1.38525390625
232, 1276654016, -5.3134565353393555, -1.607519507408142, 7.950215816497803, -0.0014855365734547377, -1.0126750469207764, -0.8358960747718811, -0.184326171875, 0.373291015625, -1.379638671875
233, 1276670683, -5.34841251373291, -1.5895544290542603, 7.952691078186035, -0.16755828261375427, -0.9033727645874023, -0.9472985863685608, -0.185791015625, 0.373291015625, -1.378662109375
234, 1276687350, -5.332357883453369, -1.5999228954315186, 7.951083183288574, -0.1976788341999054, -1.0080903768539429, -0.9326224327087402, -0.185302734375, 0.372802734375, -1.378662109375
235, 1276704017, -5.331975936889648, -1.6027847528457642, 7.947271347045898, -0.2843778133392334, -1.0226000547409058, -1.0108565092086792, -0.187744140625, 0.373291015625, -1.3818359375
236, 1276720684, -5.316708087921143, -1.6066256761550903, 7.9542646408081055, -0.18612748384475708, -0.9638058543205261, -0.9846161603927612, -0.187744140625, 0.372314453125, -1.38037109375
237, 1276737351, -5.316258430480957, -1.6056773662567139, 7.92488431930542, -0.11017301678657532, -1.064066767692566, -0.9221980571746826, -0.185791015625, 0.373291015625, -1.38134765625
238, 1276754018, -5.321266174316406, -1.5918723344802856, 7.940821170806885, -0.04799819365143776, -1.1540954113006592, -0.9276534914970398, -0.187744140625, 0.373291015625, -1.380859375
239, 1276770685, -5.338399410247803, -1.5951714515686035, 7.95637321472168, -0.09882660210132599, -1.1912338733673096, -0.8998382687568665, -0.183837890625, 0.374267578125, -1.379150390625
240, 1276787352, -5.333585739135742, -1.5869059562683105, 7.943722248077393, -0.12182682007551193, -1.086221694946289, -0.9277944564819336, -0.188232421875, 0.371337890625, -1.3828125
241, 1276804019, -5.32871150970459, -1.5939072370529175, 7.913365364074707, -0.09033599495887756, -0.9592852592468262, -0.895714521408081, -0.185791015625, 0.372802734375, -1.3818359375
242, 1276820686, -5.3283162117004395, -1.6005709171295166, 7.925528526306152, 0.004091628361493349, -1.1655313968658447, -0.9184969663619995, -0.186279296875, 0.373779296875, -1.3818359375
243, 1276837353, -5.327034950256348, -1.617262363433838, 7.959645748138428, 0.23620669543743134, -1.3498661518096924, -0.7499654293060303, -0.186279296875, 0.371826171875, -1.38232421875
244, 1276854020, -5.322815895080566, -1.6083600521087646, 7.930669784545898, 0.31139278411865234, -1.2918148040771484, -0.7931612730026245, -0.187255859375, 0.372802734375, -1.3818359375
245, 1276870687, -5.314685821533203, -1.6026843786239624, 7.931461334228516, 0.39719536900520325, -1.390078067779541, -0.5649265646934509, -0.188720703125, 0.373291015625, -1.38134765625
246, 1276887354, -5.315164089202881, -1.5646060705184937, 7.9578070640563965, 0.4534280300140381, -1.493937611579895, -0.6294833421707153, -0.187255859375, 0.373779296875, -1.3828125
247, 1276904021, -5.3169426918029785, -1.607430100440979, 7.9562788009643555, 0.5826441645622253, -1.4618961811065674, -0.648910641670227, -0.186767578125, 0.372802734375, -1.38134765625
248, 1276920688, -5.31122350692749, -1.5823719501495361, 7.9855804443359375, 0.4780418574810028, -1.3259310722351074, -0.7311145067214966, -0.186279296875, 0.370849609375, -1.38134765625
249, 1276937355, -5.334146976470947, -1.5763936042785645, 7.967885971069336, 0.5098527669906616, -1.3753379583358765, -0.7545117139816284, -0.189208984375, 0.371337890625, -1.380859375
250, 1276954022, -5.3246026039123535, -1.5856342315673828, 7.963589668273926, 0.5862042307853699, -1.4267553091049194, -0.6155884861946106, -0.188720703125, 0.370849609375, -1.3828125
251, 1276970689, -5.32769775390625, -1.5628052949905396, 7.9412150382995605, 0.5113639235496521, -1.6038799285888672, -0.7387470602989197, -0.189208984375, 0.371337890625, -1.38134765625
252, 1276987356, -5.32315731048584, -1.5569963455200195, 7.948987007141113, 0.4944339990615845, -1.8538857698440552, -0.9665848016738892, -0.190185546875, 0.370849609375, -1.38037109375
253, 1277004023, -5.275132179260254, -1.57960844039917, 7.946309566497803, 0.40615981817245483, -1.9063022136688232, -1.0176823139190674, -0.187744140625, 0.372314453125, -1.3837890625
254, 1277020690, -5.271853446960449, -1.5692623853683472, 7.979071140289307, 0.13862231373786926, -1.5772171020507812, -1.1568742990493774, -0.190185546875, 0.370361328125, -1.3837890625
255, 1277037357, -5.3131794929504395, -1.5623775720596313, 7.98179817199707, -0.0028686225414276123, -1.3615199327468872, -1.1178278923034668, -0.190185546875, 0.368896484375, -1.3857421875
256, 1277054024, -5.326477527618408, -1.5513473749160767, 7.963720321655273, -0.12312024086713791, -1.4736521244049072, -1.220470666885376, -0.189208984375, 0.370849609375, -1.38134765625
257, 1277070691, -5.349809646606445, -1.5433368682861328, 7.997507572174072, -0.3914773166179657, -1.8508250713348389, -1.3039041757583618, -0.187744140625, 0.373291015625, -1.3837890625
258, 1277087358, -5.308200359344482, -1.6194742918014526, 7.914579391479492, 0.03562086448073387, -1.876809000968933, -1.2444956302642822, -0.188232421875, 0.370849609375, -1.384765625
259, 1277104025, -5.329338550567627, -1.5642589330673218, 7.9681806564331055, 0.11610877513885498, -2.0159244537353516, -1.268904447555542, -0.189697265625, 0.371337890625, -1.384765625
260, 1277120692, -5.3131632804870605, -1.5498356819152832, 7.990170478820801, -0.15171682834625244, -2.159419298171997, -1.599948525428772, -0.189697265625, 0.369873046875, -1.38427734375
261, 1277137359, -5.30732536315918, -1.5421689748764038, 7.9962477684021, -0.34642454981803894, -2.1719183921813965, -1.705370306968689, -0.190673828125, 0.371826171875, -1.3828125
262, 1277154026, -5.2703537940979, -1.6039621829986572, 7.972621440887451, -0.4037458598613739, -2.4433233737945557, -1.6415948867797852, -0.193115234375, 0.371826171875, -1.38330078125
263, 1277170693, -5.256661415100098, -1.6016699075698853, 7.962978839874268, -0.21617119014263153, -2.143385887145996, -1.5727734565734863, -0.192626953125, 0.371826171875, -1.3837890625
264, 1277187360, -5.259482383728027, -1.614454746246338, 7.981508255004883, 0.03670939803123474, -2.1029305458068848, -1.389796257019043, -0.193359375, 0.372314453125, -1.384765625
265, 1277204027, -5.249817848205566, -1.587597131729126, 7.949412822723389, 0.1970321089029312, -2.125636339187622, -1.275205135345459, -0.192626953125, 0.369384765625, -1.384765625
266, 1277220694, -5.239871025085449, -1.586686134338379, 7.981027126312256, -0.03693351522088051, -1.9346425533294678, -1.308719277381897, -0.191650390625, 0.370849609375, -1.38525390625
267, 1277237361, -5.259964942932129, -1.5569688081741333, 7.971175670623779, -0.2279530018568039, -1.5922263860702515, -1.5073457956314087, -0.190673828125, 0.372802734375, -1.38330078125
268, 1277254028, -5.238131999969482, -1.5678397417068481, 7.976527690887451, -0.658886730670929, -1.3475995063781738, -1.7318412065505981, -0.192138671875, 0.368896484375, -1.38671875
269, 1277270695, -5.250058650970459, -1.5831458568572998, 8.00683879852295, -0.694667637348175, -1.161318302154541, -1.7165504693984985, -0.1943359375, 0.371337890625, -1.386474609375
270, 1277287362, -5.236733436584473, -1.6048238277435303, 7.980456352233887, -0.837074339389801, -1.191361904144287, -1.7482587099075317, -0.19482421875, 0.373779296875, -1.385498046875
271, 1277304029, -5.286008834838867, -1.5939245223999023, 7.995693206787109, -0.6817461252212524, -1.227053165435791, -1.624587893486023, -0.191650390625, 0.373291015625, -1.38427734375
272, 1277320696, -5.2740278244018555, -1.5735255479812622, 7.971658229827881, -0.6931564807891846, -1.465994119644165, -1.7804282903671265, -0.192138671875, 0.371826171875, -1.3857421875
273, 1277337363, -5.271572113037109, -1.5888514518737793, 7.985983848571777, -0.8666697144508362, -1.5218424797058105, -1.915317416191101, -0.19384765625, 0.373291015625, -1.385498046875
274, 1277354030, -5.240629196166992, -1.5915186405181885, 7.975332260131836, -0.9411001801490784, -1.3001518249511719, -2.0195484161376953, -0.1943359375, 0.375244140625, -1.385986328125
275, 1277370697, -5.252456188201904, -1.6081937551498413, 7.9899444580078125, -1.0364562273025513, -1.1911953687667847, -2.02275013923645, -0.19287109375, 0.374755859375, -1.384765625
276, 1277387364, -5.287694931030273, -1.59339439868927, 7.987616062164307, -0.9111077785491943, -1.5946850776672363, -2.2857158184051514, -0.191650390625, 0.370849609375, -1.38427734375
277, 1277404031, -5.238442420959473, -1.592482566833496, 7.961331367492676, -1.150886058807373, -1.9263696670532227, -2.650458812713623, -0.1943359375, 0.374755859375, -1.385009765625
278, 1277420698, -5.266477584838867, -1.5354409217834473, 8.013545036315918, -0.8778753280639648, -2.328937530517578, -2.8393213748931885, -0.19384765625, 0.375244140625, -1.386962890625
279, 1277437365, -5.218419075012207, -1.685774803161621, 8.018186569213867, -0.6515999436378479, -2.655486583709717, -2.896937608718872, -0.19482421875, 0.375732421875, -1.386474609375
280, 1277454032, -5.197619915008545, -1.7163645029067993, 7.946098804473877, -0.07989882677793503, -2.4896187782287598, -2.476351022720337, -0.19482421875, 0.375244140625, -1.38427734375
281, 1277470699, -5.196651458740234, -1.6805243492126465, 7.9790496826171875, 0.27436965703964233, -2.5375654697418213, -1.9977904558181763, -0.193359375, 0.376220703125, -1.38427734375
282, 1277487366, -5.196412563323975, -1.635195016860962, 7.969981670379639, 0.13618911802768707, -2.621318817138672, -1.6999404430389404, -0.19287109375, 0.377685546875, -1.385986328125
283, 1277504033, -5.230635643005371, -1.5950062274932861, 7.996700763702393, 0.9494178891181946, -2.9420411586761475, -1.3789876699447632, -0.19677734375, 0.376220703125, -1.387939453125
284, 1277520700, -5.260969161987305, -1.525539517402649, 7.9576945304870605, 0.4671820104122162, -3.672809600830078, -1.7557761669158936, -0.19384765625, 0.373779296875, -1.387939453125
285, 1277537367, -5.262032508850098, -1.5533136129379272, 7.987648010253906, 0.005922937765717506, -4.185013294219971, -2.3897290229797363, -0.19677734375, 0.376708984375, -1.389404296875
286, 1277554034, -5.227560520172119, -1.626461148262024, 7.924166679382324, 0.5872159004211426, -4.984065055847168, -2.471996784210205, -0.19775390625, 0.374267578125, -1.390380859375
287, 1277570701, -5.161975383758545, -1.7003453969955444, 7.927029609680176, 1.0222861766815186, -6.293950080871582, -2.2303669452667236, -0.19873046875, 0.374755859375, -1.388916015625
288, 1277587368, -5.188323020935059, -1.6831177473068237, 8.003619194030762, 2.3573355674743652, -8.061522483825684, -1.600140929222107, -0.2021484375, 0.375732421875, -1.3896484375
289, 1277604035, -5.1933183670043945, -1.610545039176941, 7.955705642700195, 3.261298179626465, -9.791379928588867, -1.2633851766586304, -0.20263671875, 0.372802734375, -1.39111328125
290, 1277620702, -5.194179534912109, -1.6134281158447266, 7.989133834838867, 3.510932683944702, -11.202576637268066, -1.3031362295150757, -0.205322265625, 0.374267578125, -1.39111328125
291, 1277637369, -5.059396743774414, -1.756396770477295, 8.050268173217773, 4.04103946685791, -11.658753395080566, -1.1531867980957031, -0.207763671875, 0.372314453125, -1.39404296875
292, 1277654036, -4.751885890960693, -1.8310067653656006, 8.242227554321289, 4.313072204589844, -9.791009902954102, -0.552197277545929, -0.210693359375, 0.37060546875, -1.395751953125
293, 1277670703, -4.872884750366211, -1.6368528604507446, 8.275755882263184, 3.62972354888916, -6.729469299316406, 0.1758248209953308, -0.209716796875, 0.369140625, -1.396240234375
294, 1277687370, -5.046847343444824, -1.4864344596862793, 8.228825569152832, 2.8535046577453613, -4.396752834320068, 0.4187612533569336, -0.214599609375, 0.36962890625, -1.394287109375
295, 1277704037, -5.0083537101745605, -1.479081392288208, 8.284096717834473, 1.8594112396240234, -2.646559953689575, 0.09765481948852539, -0.211669921875, 0.36767578125, -1.397216796875
296, 1277720704, -5.023128032684326, -1.4891316890716553, 8.135295867919922, 0.9510828256607056, -1.3292864561080933, -0.4764602780342102, -0.213134765625, 0.3681640625, -1.394287109375
297, 1277737371, -5.028239727020264, -1.523337960243225, 8.215941429138184, -0.23554721474647522, -0.5604571104049683, -0.939537763595581, -0.213623046875, 0.3681640625, -1.397216796875
298, 1277754038, -5.029626369476318, -1.5288300514221191, 8.191967964172363, -0.42446643114089966, 0.8358383178710938, -0.8138818740844727, -0.213623046875, 0.36865234375, -1.397216796875
299, 1277770705, -5.074484825134277, -1.6817128658294678, 8.12394905090332, -0.409623920917511, 1.3604377508163452, -0.23047587275505066, -0.213623046875, 0.36962890625, -1.397705078125
300, 1277787372, -5.068487644195557, -1.6393089294433594, 8.065169334411621, 0.24865448474884033, 0.9850067496299744, 0.5529333353042603, -0.212646484375, 0.3701171875, -1.397216796875
301, 1277804039, -5.052912712097168, -1.5755335092544556, 8.114154815673828, 0.8724774122238159, 0.539909303188324, 0.9765034317970276, -0.213134765625, 0.369140625, -1.395751953125
302, 1277820706, -5.015115261077881, -1.5564360618591309, 8.11845874786377, 1.5196077823638916, -0.057551734149456024, 1.185272455215454, -0.2109375, 0.36572265625, -1.396728515625
303, 1277837373, -5.010775089263916, -1.5697325468063354, 8.046008110046387, 2.191826105117798, -0.9299202561378479, 1.5632518529891968, -0.214111328125, 0.36279296875, -1.394287109375
304, 1277854040, -4.961145877838135, -1.6663262844085693, 8.059783935546875, 3.12430739402771, -1.6570262908935547, 2.244511127471924, -0.21484375, 0.361083984375, -1.395751953125
305, 1277870707, -5.077764511108398, -1.5467365980148315, 8.09948444366455, 3.8165292739868164, -2.2806320190429688, 2.711418390274048, -0.21435546875, 0.362060546875, -1.395751953125
306, 1277887374, -5.073680400848389, -1.4736847877502441, 8.162617683410645, 3.9636361598968506, -2.534658432006836, 3.1235907077789307, -0.2138671875, 0.360107421875, -1.397216796875
307, 1277904041, -4.99232292175293, -1.4305731058120728, 8.161921501159668, 4.1010613441467285, -2.5251688957214355, 2.7674973011016846, -0.212890625, 0.360107421875, -1.395751953125
308, 1277920708, -4.875218868255615, -1.5028892755508423, 8.137953758239746, 3.8867592811584473, -2.158459186553955, 2.723264217376709, -0.21533203125, 0.358154296875, -1.396240234375
309, 1277937375, -4.942084312438965, -1.4727520942687988, 8.176294326782227, 4.08790922164917, -1.5450478792190552, 3.4178037643432617, -0.21435546875, 0.357177734375, -1.397705078125
310, 1277954042, -4.970449447631836, -1.359175205230713, 8.171036720275879, 4.145178318023682, -1.1529171466827393, 4.266863822937012, -0.21484375, 0.355224609375, -1.395751953125
311, 1277970709, -4.888211250305176, -1.3417840003967285, 8.235352516174316, 3.948883295059204, 0.1436936855316162, 4.990885257720947, -0.21533203125, 0.35205078125, -1.395263671875
312, 1277987376, -4.980473041534424, -1.290795087814331, 8.288765907287598, 2.9676730632781982, 2.730858325958252, 4.51895809173584, -0.21728515625, 0.35205078125, -1.396240234375
313, 1278004043, -4.9628424644470215, -1.4091356992721558, 8.209489822387695, 1.8972417116165161, 5.182762622833252, 4.039577960968018, -0.2138671875, 0.3486328125, -1.396240234375
314, 1278020710, -5.034915924072266, -1.3120054006576538, 8.222652435302734, 0.5055244565010071, 7.838532447814941, 3.7902772426605225, -0.211181640625, 0.34814453125, -1.392578125
315, 1278037377, -4.961922645568848, -1.2533303499221802, 8.294577598571777, -0.9776884317398071, 11.57517147064209, 3.174074649810791, -0.209716796875, 0.34814453125, -1.39404296875
316, 1278054044, -5.057534217834473, -1.2115989923477173, 8.276899337768555, -3.0009148120880127, 15.852630615234375, 3.7301025390625, -0.205810546875, 0.34912109375, -1.389404296875
317, 1278070711, -5.162380695343018, -1.2945853471755981, 8.172261238098145, -4.917568683624268, 19.37568473815918, 3.7996556758880615, -0.201904296875, 0.34619140625, -1.387939453125
318, 1278087378, -5.127554893493652, -1.3489315509796143, 8.18292236328125, -5.032137870788574, 24.007274627685547, 2.528228521347046, -0.196533203125, 0.35107421875, -1.38232421875
319, 1278104045, -4.976037502288818, -1.5161452293395996, 8.298285484313965, -2.9731061458587646, 30.211292266845703, 2.6208341121673584, -0.18798828125, 0.34912109375, -1.377685546875
320, 1278120712, -5.06223726272583, -1.348746657371521, 8.39263916015625, -0.8607065081596375, 38.02824401855469, 4.120561122894287, -0.178466796875, 0.349365234375, -1.37646484375
321, 1278137379, -4.926779270172119, -1.9048316478729248, 8.495796203613281, -3.977748155593872, 46.40407943725586, 10.09886646270752, -0.17041015625, 0.34765625, -1.369384765625
322, 1278154046, -5.082381248474121, -1.6426944732666016, 8.376023292541504, -6.409647464752197, 57.940277099609375, 15.928916931152344, -0.156982421875, 0.34521484375, -1.359619140625
323, 1278170713, -5.292943000793457, -1.396012306213379, 8.348712921142578, -8.254514694213867, 70.47749328613281, 18.005125045776367, -0.14208984375, 0.345947265625, -1.348388671875
324, 1278187380, -5.399727821350098, -1.3977389335632324, 8.43844985961914, -10.749592781066895, 88.41372680664062, 18.807703018188477, -0.124267578125, 0.344970703125, -1.338623046875
325, 1278204047, -5.518784999847412, -1.1863104104995728, 8.526286125183105, -13.986611366271973, 109.49581909179688, 19.033260345458984, -0.100830078125, 0.344482421875, -1.320068359375
326, 1278220714, -5.766847133636475, -1.5739498138427734, 8.651910781860352, -14.492698669433594, 131.8623046875, 20.42685317993164, -0.072021484375, 0.344970703125, -1.299072265625
327, 1278237381, -5.693791389465332, -1.6954602003097534, 8.738813400268555, -8.771183013916016, 154.03700256347656, 24.844646453857422, -0.039306640625, 0.344482421875, -1.2705078125
328, 1278254048, -6.274561405181885, -1.7971305847167969, 8.109091758728027, -3.239298105239868, 182.72303771972656, 31.540300369262695, -0.00439453125, 0.339111328125, -1.240234375
329, 1278270715, -6.837891578674316, -2.4699513912200928, 8.079634666442871, 7.244564056396484, 209.431396484375, 43.96113967895508, 0.0361328125, 0.3291015625, -1.197998046875
330, 1278287382, -7.881755828857422, -3.433889150619507, 9.134145736694336, 16.090106964111328, 222.55625915527344, 62.225040435791016, 0.071044921875, 0.31640625, -1.15087890625
331, 1278304049, -8.69286823272705, -2.739298105239868, 7.867650032043457, 19.87788963317871, 242.6975555419922, 82.57171630859375, 0.1083984375, 0.29638671875, -1.09716796875
332, 1278320716, -11.329289436340332, -4.223740577697754, 10.71240234375, 28.2698974609375, 238.93417358398438, 99.35670471191406, 0.140625, 0.27001953125, -1.0390625
333, 1278337383, -11.97843074798584, -1.365942120552063, 9.504226684570312, 12.349059104919434, 231.66624450683594, 101.3670883178711, 0.1669921875, 0.2421875, -0.98193359375
334, 1278354050, -12.404788970947266, -4.878207206726074, 10.505130767822266, 16.097387313842773, 221.92727661132812, 108.13145446777344, 0.186767578125, 0.216064453125, -0.925048828125
335, 1278370717, -10.083030700683594, -2.3408713340759277, 10.81344223022461, 27.3541316986084, 198.29147338867188, 111.58014678955078, 0.19970703125, 0.18603515625, -0.871337890625
336, 1278387384, -6.249110221862793, -2.1449286937713623, 9.264753341674805, 3.45284104347229, 193.5846710205078, 109.00232696533203, 0.207275390625, 0.154296875, -0.821044921875
337, 1278404051, -14.906976699829102, -9.03754997253418, 18.204004287719727, -33.107364654541016, 141.48170471191406, 62.713260650634766, 0.2119140625, 0.136474609375, -0.779296875
338, 1278420718, -6.860942363739014, -10.64567756652832, 15.539721488952637, -1.2114055156707764, 17.630495071411133, 9.873894691467285, 0.213623046875, 0.1318359375, -0.770263671875
339, 1278437385, 1.3768800497055054, -6.016246318817139, 10.772591590881348, 23.65742301940918, -23.797273635864258, -27.07402992248535, 0.213623046875, 0.135498046875, -0.77392578125
340, 1278454052, 3.4282913208007812, -2.9096035957336426, 9.341997146606445, 4.861672401428223, -15.956665992736816, -48.95005798339844, 0.21826171875, 0.1435546875, -0.77978515625
341, 1278470719, 1.3506693840026855, -2.654797315597534, 10.446427345275879, -17.71339225769043, -16.26344871520996, -58.67741775512695, 0.22119140625, 0.16015625, -0.77978515625
342, 1278487386, -1.181883692741394, -3.0158743858337402, 11.648185729980469, -19.612342834472656, -42.1543083190918, -60.47338104248047, 0.224365234375, 0.1787109375, -0.790771484375
343, 1278504053, -2.5915563106536865, -2.5997278690338135, 11.77374267578125, -11.323732376098633, -82.00711822509766, -58.48463439941406, 0.223388671875, 0.19580078125, -0.810791015625
344, 1278520720, -3.005805253982544, -1.7320822477340698, 11.146483421325684, -9.95567512512207, -117.39533996582031, -58.55010986328125, 0.2216796875, 0.20849609375, -0.84130859375
345, 1278537387, -3.741309881210327, -1.2220607995986938, 10.64366626739502, -17.87696075439453, -142.37734985351562, -59.906455993652344, 0.21044921875, 0.226806640625, -0.874267578125
346, 1278554054, -5.305477619171143, -1.278436303138733, 10.734749794006348, -28.22469139099121, -164.38230895996094, -61.9344367980957, 0.201171875, 0.24609375, -0.92041015625
347, 1278570721, -6.689037322998047, -1.5013023614883423, 10.792037963867188, -33.41341781616211, -187.48797607421875, -63.27920913696289, 0.18212890625, 0.262939453125, -0.96484375
348, 1278587388, -7.3330793380737305, -1.4001245498657227, 10.473658561706543, -35.067596435546875, -206.47866821289062, -62.9426383972168, 0.160400390625, 0.28369140625, -1.01611328125
349, 1278604055, -7.783252239227295, -1.2695941925048828, 10.08784294128418, -38.75408172607422, -217.32620239257812, -63.27590560913086, 0.131103515625, 0.30224609375, -1.0693359375
350, 1278620722, -8.319008827209473, -1.538641333580017, 9.994154930114746, -42.95991897583008, -219.67478942871094, -66.4269790649414, 0.100830078125, 0.326416015625, -1.122314453125
351, 1278637389, -9.222921371459961, -1.8236215114593506, 10.521740913391113, -45.797691345214844, -218.8790283203125, -73.51936340332031, 0.062744140625, 0.3486328125, -1.173095703125
352, 1278654056, -10.285944938659668, -2.178664445877075, 11.242729187011719, -45.27688217163086, -220.58795166015625, -83.90045928955078, 0.026123046875, 0.372802734375, -1.219970703125
353, 1278670723, -10.894782066345215, -2.2774345874786377, 11.59664535522461, -39.77601623535156, -224.7244873046875, -93.36930847167969, -0.01806640625, 0.400390625, -1.2646484375
354, 1278687390, -11.441044807434082, -1.9410767555236816, 11.744572639465332, -33.289573669433594, -225.73046875, -99.33425903320312, -0.064697265625, 0.423828125, -1.30712890625
355, 1278704057, -12.633262634277344, -1.6726441383361816, 11.881784439086914, -29.32756233215332, -224.9334259033203, -101.50818634033203, -0.1171875, 0.4482421875, -1.34619140625
356, 1278720724, -14.95697021484375, -1.5653200149536133, 11.8659029006958, -29.946008682250977, -228.8818817138672, -102.14655303955078, -0.165283203125, 0.470703125, -1.382568359375
357, 1278737391, -17.365203857421875, -2.0858445167541504, 10.124119758605957, -23.534568786621094, -238.39224243164062, -100.5364990234375, -0.223876953125, 0.4912109375, -1.416748046875
358, 1278754058, -19.67418098449707, -3.0552961826324463, 7.483746528625488, -6.034997463226318, -249.70701599121094, -94.27096557617188, -0.28955078125, 0.50439453125, -1.444091796875
359, 1278770725, -20.41396141052246, -2.1526777744293213, 3.6135506629943848, 5.713145732879639, -247.7974853515625, -87.6539535522461, -0.356201171875, 0.513671875, -1.470703125
360, 1278787392, -21.488115310668945, 1.7528088092803955, -1.4222294092178345, -5.527135372161865, -217.53370666503906, -82.49610137939453, -0.42041015625, 0.519775390625, -1.490478515625
361, 1278804059, -23.87966537475586, 7.4581804275512695, -7.305776596069336, -29.90526580810547, -169.25050354003906, -76.78295135498047, -0.47412109375, 0.531494140625, -1.5009765625
362, 1278820726, -20.456159591674805, 10.428654670715332, -12.820900917053223, -24.300935745239258, -96.57583618164062, -45.94957733154297, -0.504150390625, 0.54541015625, -1.505615234375
363, 1278837393, -16.35365867614746, 8.69455623626709, -10.337992668151855, 26.439050674438477, -7.056014060974121, 35.0329704284668, -0.51416015625, 0.538818359375, -1.5107421875
364, 1278854060, -18.199068069458008, 5.228024482727051, -1.7131224870681763, 25.39979362487793, 42.46077346801758, 77.95307159423828, -0.50390625, 0.5263671875, -1.506591796875
365, 1278870727, -17.159542083740234, -0.3332473635673523, 2.0086188316345215, -7.81631326675415, 35.38533401489258, 71.20820617675781, -0.492431640625, 0.521240234375, -1.5048828125
366, 1278887394, -1.5852046012878418, -6.095358371734619, -3.071465015411377, -2.447840929031372, 82.37930297851562, 68.66574096679688, -0.4755859375, 0.52294921875, -1.50390625
367, 1278904061, 5.372931003570557, -12.00710391998291, 8.213592529296875, 13.032078742980957, 231.79000854492188, 84.27977752685547, -0.42041015625, 0.5126953125, -1.487060546875
368, 1278920728, -11.064350128173828, 0.34805789589881897, 9.186881065368652, 16.0319881439209, 252.9682159423828, 36.697296142578125, -0.3505859375, 0.5009765625, -1.465576171875
369, 1278937395, -21.482574462890625, 3.486956834793091, 17.809852600097656, -0.6058876514434814, 221.21697998046875, 45.564361572265625, -0.286376953125, 0.497802734375, -1.44140625
370, 1278954062, -16.745113372802734, -3.949955940246582, 13.097280502319336, -12.588467597961426, 124.23188018798828, 52.09895706176758, -0.24609375, 0.49462890625, -1.425048828125
371, 1278970729, -16.206026077270508, -12.209526062011719, 10.05897045135498, 56.433349609375, 66.73815155029297, 25.827993392944336, -0.22265625, 0.482177734375, -1.414794921875
372, 1278987396, -7.282444477081299, 2.629891872406006, 10.33751106262207, 43.15180969238281, 31.069664001464844, 19.084156036376953, -0.21484375, 0.465576171875, -1.406005859375
373, 1279004063, -5.127499103546143, -3.149893283843994, 7.424097537994385, 28.745622634887695, 19.51029396057129, 14.087789535522461, -0.2099609375, 0.45654296875, -1.4052734375
374, 1279020730, -5.956510543823242, -1.8303347826004028, 8.666851997375488, 34.136192321777344, 15.367024421691895, 15.529345512390137, -0.204345703125, 0.445068359375, -1.40087890625
375, 1279037397, -5.7078776359558105, -1.7387032508850098, 8.678611755371094, 29.46369743347168, 6.541143417358398, 13.823322296142578, -0.20263671875, 0.435546875, -1.400146484375
376, 1279054064, -4.983980655670166, -1.625978946685791, 8.78136157989502, 20.498249053955078, 5.468981742858887, 10.630756378173828, -0.201904296875, 0.427001953125, -1.399658203125
377, 1279070731, -5.87421178817749, -1.905769944190979, 8.595309257507324, 10.868419647216797, 10.516463279724121, 4.36287784576416, -0.200927734375, 0.42236328125, -1.395751953125
378, 1279087398, -5.851921081542969, -2.0576024055480957, 8.280858039855957, 4.018360614776611, 13.368321418762207, 1.1297833919525146, -0.19580078125, 0.41943359375, -1.39404296875
379, 1279104065, -5.620930194854736, -2.1034631729125977, 8.237861633300781, -0.8082091808319092, 13.998955726623535, 0.7030882239341736, -0.193359375, 0.42138671875, -1.39208984375
380, 1279120732, -5.650026798248291, -1.8342503309249878, 8.138874053955078, -4.5311970710754395, 13.774051666259766, 0.5124528408050537, -0.1884765625, 0.42138671875, -1.391357421875
381, 1279137399, -5.620741844177246, -1.7207326889038086, 8.057580947875977, -7.508791446685791, 13.976085662841797, 0.1846356838941574, -0.18505859375, 0.4208984375, -1.389892578125
382, 1279154066, -5.551098823547363, -2.0346128940582275, 7.764461040496826, -8.348759651184082, 12.463141441345215, -0.8001412749290466, -0.18115234375, 0.426025390625, -1.3857421875
383, 1279170733, -5.443278789520264, -2.194323778152466, 7.668090343475342, -7.2516255378723145, 10.600199699401855, -0.04420754685997963, -0.17919921875, 0.427001953125, -1.3837890625
384, 1279187400, -5.374342441558838, -2.2907447814941406, 7.581784248352051, -4.833847999572754, 9.325093269348145, 1.5130642652511597, -0.17578125, 0.428466796875, -1.38427734375
385, 1279204067, -5.450263977050781, -2.275148868560791, 7.517024517059326, -1.3089755773544312, 7.157937526702881, 3.3661048412323, -0.174072265625, 0.43017578125, -1.381103515625
386, 1279220734, -5.456851959228516, -2.1036617755889893, 7.602499961853027, 0.42802029848098755, 5.16333532333374, 3.9441452026367188, -0.172119140625, 0.426513671875, -1.379150390625
387, 1279237401, -5.408838748931885, -2.0626747608184814, 7.661296844482422, 0.5487329363822937, 5.085472106933594, 3.474125623703003, -0.171630859375, 0.427490234375, -1.380126953125
388, 1279254068, -5.470495223999023, -2.0706207752227783, 7.634365081787109, 0.9809345006942749, 5.133547782897949, 3.281198740005493, -0.170166015625, 0.426025390625, -1.382568359375
389, 1279270735, -5.481280326843262, -2.172646999359131, 7.5879316329956055, 1.9290270805358887, 4.837119102478027, 2.9652016162872314, -0.172119140625, 0.424560546875, -1.380126953125
390, 1279287402, -5.418089389801025, -2.228947639465332, 7.655882835388184, 2.968813180923462, 3.890153408050537, 4.2508955001831055, -0.170654296875, 0.424560546875, -1.381591796875
391, 1279304069, -5.4209747314453125, -2.1385130882263184, 7.692092418670654, 3.9239749908447266, 4.042203426361084, 6.293943881988525, -0.168212890625, 0.422607421875, -1.380126953125
392, 1279320736, -5.257772445678711, -2.0971052646636963, 7.869870662689209, 3.145644187927246, 6.5191969871521, 8.430520057678223, -0.16552734375, 0.419189453125, -1.37744140625
393, 1279337403, -5.21148681640625, -1.8717191219329834, 8.144298553466797, -1.6900941133499146, 11.975287437438965, 11.90157413482666, -0.16259765625, 0.41748046875, -1.376953125
394, 1279354070, -4.889702796936035, -2.288132667541504, 8.230789184570312, -11.696178436279297, 20.146926879882812, 18.611825942993164, -0.15869140625, 0.418701171875, -1.371826171875
395, 1279370737, -4.88681697845459, -2.30263090133667, 8.332879066467285, -7.369162082672119, 33.48059844970703, 21.846817016601562, -0.154052734375, 0.4140625, -1.370361328125
396, 1279387404, -5.022859573364258, -1.82961106300354, 8.50533390045166, -6.44918155670166, 51.6712646484375, 20.234567642211914, -0.1396484375, 0.4150390625, -1.361572265625
397, 1279404071, -5.064302921295166, -1.7845901250839233, 8.57944393157959, -6.912606239318848, 72.02960968017578, 19.182899475097656, -0.124267578125, 0.4130859375, -1.351806640625
398, 1279420738, -5.4741997718811035, -1.4049714803695679, 8.450698852539062, -11.071426391601562, 96.10142517089844, 16.62896156311035, -0.104248046875, 0.414306640625, -1.33544921875
399, 1279437405, -5.690571308135986, -1.0769104957580566, 8.321470260620117, -15.725329399108887, 123.15497589111328, 12.5157470703125, -0.0791015625, 0.414306640625, -1.31884765625
400, 1279454072, -5.6204047203063965, -1.6879185438156128, 8.331771850585938, -24.57387351989746, 158.20004272460938, 9.633444786071777, -0.047119140625, 0.417236328125, -1.291259765625
401, 1279470739, -5.240833282470703, -2.5904734134674072, 8.659756660461426, -31.977828979492188, 201.76235961914062, 17.419967651367188, -0.00244140625, 0.419921875, -1.256103515625
402, 1279487406, -5.24594259262085, -3.086760997772217, 8.636922836303711, -35.0898551940918, 250.32151794433594, 31.20977020263672, 0.042236328125, 0.41943359375, -1.207763671875
403, 1279504073, -5.308928489685059, -3.3388619422912598, 8.501232147216797, -24.98169708251953, 312.6880187988281, 49.507808685302734, 0.095703125, 0.4169921875, -1.144287109375
404, 1279520740, -7.854121685028076, -4.734019756317139, 10.9083890914917, -22.469053268432617, 387.6394348144531, 78.1085205078125, 0.154052734375, 0.40576171875, -1.05712890625
405, 1279537407, -11.126333236694336, -7.272689342498779, 11.659784317016602, 6.214258193969727, 422.2862854003906, 124.76580810546875, 0.212158203125, 0.38037109375, -0.952392578125
406, 1279554074, -18.797100067138672, -4.957764625549316, 14.905378341674805, -5.683249473571777, 436.025634765625, 156.41282653808594, 0.254150390625, 0.338134765625, -0.837158203125
407, 1279570741, -21.633007049560547, -4.433932304382324, 13.365205764770508, -27.449647903442383, 388.3784484863281, 148.3404998779297, 0.27490234375, 0.298583984375, -0.728759765625
408, 1279587408, -16.139318466186523, -8.664668083190918, 15.77584457397461, -24.242990493774414, 318.7640075683594, 148.77435302734375, 0.281494140625, 0.26123046875, -0.639892578125
409, 1279604075, -3.5666351318359375, -9.541330337524414, 12.74087905883789, 38.98046112060547, 270.5449523925781, 184.9121551513672, 0.27587890625, 0.212158203125, -0.56298828125
410, 1279620742, -15.021699905395508, -11.509576797485352, 17.85889434814453, 95.3206558227539, 279.1484069824219, 144.90536499023438, 0.261962890625, 0.166748046875, -0.47265625
411, 1279637409, -18.058704376220703, -9.873271942138672, 26.37384605407715, 70.92066192626953, 54.48752212524414, 35.363216400146484, 0.249755859375, 0.150390625, -0.4375
412, 1279654076, -6.0176472663879395, -7.036556243896484, 18.570085525512695, 45.29435348510742, -113.00475311279297, -34.33903503417969, 0.255126953125, 0.1591796875, -0.454833984375
413, 1279670743, 1.0036851167678833, -4.1849517822265625, 10.512266159057617, 39.698883056640625, -170.15179443359375, -49.14140701293945, 0.26220703125, 0.173828125, -0.49560546875
414, 1279687410, 2.693657398223877, -1.8498704433441162, 6.575747489929199, 32.71229934692383, -173.34844970703125, -42.94626998901367, 0.265625, 0.181640625, -0.5380859375
415, 1279704077, 1.8489103317260742, -0.7269560098648071, 5.37154483795166, 13.724661827087402, -163.98690795898438, -35.634639739990234, 0.268310546875, 0.194091796875, -0.58056640625
416, 1279720744, -0.2805469334125519, -0.996833860874176, 5.44717264175415, -9.463644027709961, -157.64822387695312, -31.351057052612305, 0.26904296875, 0.2041015625, -0.628173828125
417, 1279737411, -4.011350154876709, -1.9939918518066406, 6.993074417114258, -25.250246047973633, -166.12107849121094, -33.917842864990234, 0.263916015625, 0.209716796875, -0.671630859375
418, 1279754078, -7.99525260925293, -2.8670034408569336, 8.593408584594727, -31.68675994873047, -202.91893005371094, -45.077491760253906, 0.257568359375, 0.22265625, -0.725830078125
419, 1279770745, -9.321669578552246, -3.1060352325439453, 8.365011215209961, -28.669452667236328, -253.57142639160156, -60.730648040771484, 0.247802734375, 0.239501953125, -0.79248046875
420, 1279787412, -8.582061767578125, -2.6288866996765137, 7.159249305725098, -22.294063568115234, -287.98309326171875, -71.1275405883789, 0.22998046875, 0.260009765625, -0.870849609375
421, 1279804079, -8.488311767578125, -1.8803963661193848, 6.812379360198975, -22.52474594116211, -297.8137512207031, -74.5970687866211, 0.20263671875, 0.27978515625, -0.9453125
422, 1279820746, -10.190205574035645, -1.2385627031326294, 8.044811248779297, -38.167457580566406, -299.44873046875, -79.23450469970703, 0.16845703125, 0.30322265625, -1.023193359375
423, 1279837413, -11.890117645263672, -1.717960000038147, 9.440995216369629, -60.06413650512695, -303.91131591796875, -88.00160217285156, 0.125244140625, 0.3330078125, -1.096435546875
424, 1279854080, -12.841039657592773, -2.736257791519165, 9.699573516845703, -71.29844665527344, -309.8895263671875, -95.30366516113281, 0.074951171875, 0.36376953125, -1.16748046875
425, 1279870747, -13.330986022949219, -3.1387593746185303, 9.596779823303223, -72.41232299804688, -305.5169372558594, -97.8514175415039, 0.021728515625, 0.3974609375, -1.236572265625
426, 1279887414, -15.08533763885498, -2.846715211868286, 9.59640121459961, -72.47791290283203, -287.28875732421875, -98.00534057617188, -0.04248046875, 0.431884765625, -1.293701171875
427, 1279904081, -19.205516815185547, -2.2612087726593018, 9.660548210144043, -78.26350402832031, -274.02471923828125, -102.0062026977539, -0.1025390625, 0.4658203125, -1.344482421875
428, 1279920748, -22.831403732299805, -2.207801580429077, 8.331170082092285, -83.15858459472656, -280.89031982421875, -115.17841339111328, -0.168701171875, 0.5029296875, -1.38818359375
429, 1279937415, -24.073156356811523, -2.0986924171447754, 4.736453056335449, -69.01229095458984, -294.08392333984375, -120.80696105957031, -0.242431640625, 0.53857421875, -1.43017578125
430, 1279954082, -23.75264549255371, -0.5543711185455322, 0.4541105628013611, -44.925209045410156, -289.9156799316406, -103.92882537841797, -0.319580078125, 0.5625, -1.460693359375
431, 1279970749, -22.763444900512695, 2.564521074295044, -2.580735683441162, -48.55634307861328, -258.5333251953125, -71.46602630615234, -0.396484375, 0.5810546875, -1.485595703125
432, 1279987416, -22.27993392944336, 6.576633930206299, -5.819004535675049, -98.82770538330078, -202.95069885253906, -46.484100341796875, -0.45849609375, 0.607177734375, -1.494873046875
433, 1280004083, -21.942827224731445, 7.706305503845215, -9.198376655578613, -137.01063537597656, -128.0000762939453, -27.316669464111328, -0.500732421875, 0.6455078125, -1.502685546875
434, 1280020750, -23.459514617919922, 6.552480697631836, -10.009132385253906, -121.67151641845703, -57.61602020263672, -3.8363876342773438, -0.52392578125, 0.68408203125, -1.497802734375
435, 1280037417, -24.127281188964844, 3.913703680038452, -9.298474311828613, -55.737464904785156, -11.291709899902344, 28.440401077270508, -0.5283203125, 0.705078125, -1.494873046875
436, 1280054084, -20.47126007080078, -3.8523151874542236, -8.330904960632324, 31.03074073791504, 48.43828201293945, 40.39591598510742, -0.521240234375, 0.70263671875, -1.496826171875
437, 1280070751, 2.066077470779419, -5.295203685760498, 6.934090614318848, 181.43284606933594, 161.8898162841797, 86.79751586914062, -0.476318359375, 0.650146484375, -1.493896484375
438, 1280087418, 2.524362564086914, -8.941752433776855, 10.387043952941895, 166.46160888671875, 166.5444793701172, 60.510318756103516, -0.428955078125, 0.6025390625, -1.491455078125
439, 1280104085, -14.461788177490234, 7.906195640563965, 11.578450202941895, 119.49662017822266, 240.1182861328125, 13.172700881958008, -0.36474609375, 0.55859375, -1.4736328125
440, 1280120752, -21.169597625732422, 13.370617866516113, 23.447654724121094, 65.96031188964844, 167.02584838867188, 17.2333984375, -0.308837890625, 0.537353515625, -1.455810546875
441, 1280137419, -7.825381755828857, 5.3963799476623535, 12.799703598022461, 7.048557758331299, 101.21358489990234, 68.49178314208984, -0.280029296875, 0.525390625, -1.443359375
442, 1280154086, -10.241575241088867, -12.006043434143066, 8.915693283081055, 33.87276840209961, 99.64293670654297, 58.900123596191406, -0.251953125, 0.51708984375, -1.431396484375
443, 1280170753, -14.394793510437012, -3.438659191131592, 8.703420639038086, 70.08338928222656, 39.2110595703125, 38.286502838134766, -0.236083984375, 0.488525390625, -1.425537109375
444, 1280187420, -4.749418258666992, -3.3001866340637207, 7.958291053771973, 53.737266540527344, 13.5772066116333, 34.02529525756836, -0.23193359375, 0.471435546875, -1.42431640625
445, 1280204087, -6.338499069213867, -2.1001739501953125, 8.758071899414062, 59.28237533569336, 10.23516845703125, 34.46073532104492, -0.228759765625, 0.451904296875, -1.421142578125
446, 1280220754, -6.001885414123535, -1.8337061405181885, 8.794829368591309, 52.637271881103516, 1.6965876817703247, 28.76125717163086, -0.22802734375, 0.432861328125, -1.418212890625
447, 1280237421, -5.7561821937561035, -0.8890696167945862, 9.11201286315918, 41.058677673339844, -3.096214771270752, 21.509803771972656, -0.230224609375, 0.41845703125, -1.417236328125
448, 1280254088, -5.718839645385742, -0.5342538356781006, 9.322376251220703, 23.854387283325195, 1.1769895553588867, 11.540655136108398, -0.23095703125, 0.4072265625, -1.41552734375
449, 1280270755, -5.452136516571045, -1.0876226425170898, 8.687967300415039, 6.9230570793151855, 6.9554443359375, 3.3200535774230957, -0.2275390625, 0.4052734375, -1.41650390625
450, 1280287422, -5.423437595367432, -1.7098132371902466, 8.213666915893555, -0.13290435075759888, 9.05881118774414, 0.411961168050766, -0.224609375, 0.40625, -1.4150390625
451, 1280304089, -5.28112268447876, -2.151885747909546, 8.02865982055664, -1.8087435960769653, 8.957025527954102, 0.6854920387268066, -0.22216796875, 0.40625, -1.410888671875
452, 1280320756, -5.155454635620117, -2.0692315101623535, 7.941681861877441, -1.3613665103912354, 8.259156227111816, 1.801604151725769, -0.22265625, 0.40478515625, -1.412109375
453, 1280337423, -5.1689910888671875, -1.9472001791000366, 8.036680221557617, -0.45052745938301086, 7.82990026473999, 2.4060769081115723, -0.216552734375, 0.40380859375, -1.409423828125
454, 1280354090, -5.122295379638672, -1.984115719795227, 7.9942426681518555, -0.17274487018585205, 7.8845696449279785, 2.8271877765655518, -0.217529296875, 0.40380859375, -1.407470703125
455, 1280370757, -5.209390640258789, -2.1055095195770264, 7.907545566558838, 1.682402491569519, 7.238950252532959, 4.118977069854736, -0.211669921875, 0.405517578125, -1.4072265625
456, 1280387424, -5.25942850112915, -2.0339620113372803, 7.847772598266602, 3.4842817783355713, 5.489193439483643, 6.094601154327393, -0.212646484375, 0.40283203125, -1.40673828125
457, 1280404091, -5.173390865325928, -2.0034382343292236, 7.892514228820801, 5.509901523590088, 4.305015563964844, 8.045854568481445, -0.211669921875, 0.39990234375, -1.4072265625
458, 1280420758, -5.307399749755859, -1.8544297218322754, 7.9086198806762695, 6.596354961395264, 4.136087417602539, 8.483999252319336, -0.21142578125, 0.39794921875, -1.40478515625
459, 1280437425, -5.171942710876465, -1.9157564640045166, 7.91418981552124, 7.508693218231201, 4.401243686676025, 9.856853485107422, -0.208984375, 0.395263671875, -1.401611328125
460, 1280454092, -5.083210468292236, -1.7813892364501953, 8.02270221710205, 9.291470527648926, 6.066815376281738, 12.007622718811035, -0.21044921875, 0.388916015625, -1.401611328125
461, 1280470759, -5.008909225463867, -1.6614606380462646, 8.223791122436523, 7.587201118469238, 10.138012886047363, 14.767833709716797, -0.206298828125, 0.38623046875, -1.401123046875
462, 1280487426, -5.050261497497559, -1.5287071466445923, 8.344571113586426, 2.2869436740875244, 17.66600799560547, 18.217975616455078, -0.203857421875, 0.3818359375, -1.3974609375
463, 1280504093, -4.926994800567627, -1.34397292137146, 8.516886711120605, 3.4005026817321777, 28.30957794189453, 17.767322540283203, -0.1982421875, 0.3779296875, -1.39404296875
464, 1280520760, -5.078348159790039, -1.3959987163543701, 8.46450138092041, 1.3689639568328857, 42.54452133178711, 14.690007209777832, -0.187744140625, 0.37548828125, -1.391357421875
465, 1280537427, -5.123880863189697, -1.4961161613464355, 8.441943168640137, -1.7546366453170776, 59.32818603515625, 13.496707916259766, -0.17578125, 0.372802734375, -1.381103515625
466, 1280554094, -5.152690887451172, -1.569719910621643, 8.694506645202637, -4.097806930541992, 80.11510467529297, 13.735136032104492, -0.158447265625, 0.37255859375, -1.3701171875
467, 1280570761, -5.220389366149902, -1.5859110355377197, 8.600224494934082, -5.597848415374756, 103.87173461914062, 16.122129440307617, -0.133056640625, 0.3720703125, -1.355224609375
468, 1280587428, -5.360229015350342, -1.3792427778244019, 8.466638565063477, -6.67185115814209, 130.5473175048828, 18.03536033630371, -0.108154296875, 0.3720703125, -1.335693359375
469, 1280604095, -5.602631568908691, -1.0465883016586304, 8.508950233459473, -8.182229995727539, 160.41424560546875, 17.171072006225586, -0.07177734375, 0.369140625, -1.30810546875
470, 1280620762, -5.497310161590576, -1.938948392868042, 8.609084129333496, -6.249979019165039, 198.4249725341797, 20.043027877807617, -0.030517578125, 0.3681640625, -1.2734375
471, 1280637429, -5.686252593994141, -2.4477739334106445, 8.469346046447754, -1.1064866781234741, 250.12254333496094, 34.24357223510742, 0.017822265625, 0.36279296875, -1.22802734375
472, 1280654096, -6.076387882232666, -4.071942329406738, 10.402376174926758, 2.4582254886627197, 310.6650695800781, 64.54782104492188, 0.0732421875, 0.3515625, -1.163330078125
473, 1280670763, -7.736823558807373, -6.684799671173096, 11.888487815856934, 22.501585006713867, 367.1353454589844, 111.78732299804688, 0.131103515625, 0.327880859375, -1.084716796875
474, 1280687430, -9.740198135375977, -5.127246379852295, 11.4345064163208, 19.78523826599121, 430.3033142089844, 168.30650329589844, 0.18115234375, 0.28857421875, -0.98388671875
475, 1280704097, -18.272686004638672, -3.834152936935425, 14.40400505065918, -3.110783576965332, 422.056396484375, 183.89532470703125, 0.2197265625, 0.23828125, -0.873046875
476, 1280720764, -22.133928298950195, -5.46389627456665, 17.768308639526367, -54.6805305480957, 411.2364501953125, 156.57452392578125, 0.243896484375, 0.19970703125, -0.7666015625
477, 1280737431, -16.49506378173828, -4.922119617462158, 19.06842613220215, -57.941650390625, 310.257568359375, 163.6129150390625, 0.2490234375, 0.158203125, -0.684326171875
478, 1280754098, -0.1768297553062439, -10.04866886138916, 8.074597358703613, -14.34607982635498, 287.3808288574219, 181.38174438476562, 0.238525390625, 0.11279296875, -0.613037109375
479, 1280770765, -22.342313766479492, -14.58639144897461, 23.359821319580078, 7.074863910675049, 245.5471649169922, 105.53286743164062, 0.224365234375, 0.07861328125, -0.537109375
480, 1280787432, -14.940574645996094, -14.86127758026123, 23.183917999267578, 31.98007583618164, 20.92085075378418, -6.3117451667785645, 0.226318359375, 0.072998046875, -0.515625
481, 1280804099, -4.296836853027344, -10.124972343444824, 15.213851928710938, 76.27129364013672, -106.08909606933594, -71.76840209960938, 0.232421875, 0.089111328125, -0.533447265625
482, 1280820766, 0.9544842839241028, -4.253026485443115, 9.788826942443848, 89.70759582519531, -147.34300231933594, -94.2890396118164, 0.24560546875, 0.112548828125, -0.560302734375
483, 1280837433, 1.9794256687164307, -1.184856653213501, 7.506345272064209, 65.2899169921875, -153.43588256835938, -101.06088256835938, 0.252685546875, 0.136474609375, -0.591796875
484, 1280854100, 0.9173141717910767, -0.02388322725892067, 6.794069290161133, 30.881433486938477, -153.22145080566406, -102.68024444580078, 0.261474609375, 0.162841796875, -0.628173828125
485, 1280870767, -1.4208459854125977, 0.1313149482011795, 7.094588279724121, 2.433311700820923, -159.966796875, -99.05278778076172, 0.26416015625, 0.189208984375, -0.671142578125
486, 1280887434, -4.664657115936279, -0.5395832061767578, 8.178858757019043, -11.080978393554688, -183.1162567138672, -90.53945922851562, 0.26611328125, 0.214111328125, -0.71875
487, 1280904101, -7.937671184539795, -0.9909738302230835, 9.257567405700684, -14.980454444885254, -227.18873596191406, -84.89913940429688, 0.2578125, 0.238525390625, -0.77685546875
488, 1280920768, -8.801857948303223, -1.1567071676254272, 8.695119857788086, -15.680838584899902, -276.3551940917969, -86.5744400024414, 0.241455078125, 0.264404296875, -0.852783203125
489, 1280937435, -7.993102073669434, -1.05913245677948, 7.402520656585693, -15.282849311828613, -303.1830139160156, -87.27208709716797, 0.218505859375, 0.286376953125, -0.93115234375
490, 1280954102, -8.471702575683594, -1.0382959842681885, 7.337884902954102, -17.44016456604004, -307.8266906738281, -84.41323852539062, 0.184814453125, 0.30615234375, -1.00732421875
491, 1280970769, -10.363418579101562, -1.1809667348861694, 8.369477272033691, -28.11233901977539, -311.8023376464844, -85.86846923828125, 0.14208984375, 0.3310546875, -1.084716796875
492, 1280987436, -11.56671142578125, -1.4802685976028442, 8.873510360717773, -44.73731231689453, -320.5478210449219, -92.53961944580078, 0.093994140625, 0.356689453125, -1.16015625
493, 1281004103, -11.205979347229004, -1.7817202806472778, 8.573151588439941, -60.573272705078125, -317.5640563964844, -97.14250183105469, 0.03662109375, 0.388427734375, -1.229736328125
494, 1281020770, -12.58564567565918, -1.4186110496520996, 9.777176856994629, -76.25970458984375, -294.43951416015625, -95.8390884399414, -0.02294921875, 0.422119140625, -1.290771484375
495, 1281037437, -15.436592102050781, -1.293813705444336, 12.594069480895996, -103.1900405883789, -277.246337890625, -98.5664291381836, -0.084228515625, 0.461669921875, -1.34521484375
496, 1281054104, -19.11867904663086, -3.165348529815674, 13.954591751098633, -122.39756774902344, -277.18121337890625, -107.88260650634766, -0.14892578125, 0.507080078125, -1.390869140625
497, 1281070771, -23.835002899169922, -7.3932600021362305, 12.295804977416992, -94.63223266601562, -299.38214111328125, -112.95637512207031, -0.22607421875, 0.548828125, -1.43505859375
498, 1281087438, -25.471786499023438, -7.066778182983398, 7.73498010635376, -38.28776168823242, -329.62774658203125, -120.4477767944336, -0.31396484375, 0.575927734375, -1.470703125
499, 1281104105, -24.167980194091797, -3.4154698848724365, 1.585204839706421, -22.31025505065918, -324.0319519042969, -126.77855682373047, -0.408447265625, 0.591552734375, -1.5009765625
500, 1281120772, -22.99102783203125, 1.0524945259094238, -3.3933379650115967, -45.83481979370117, -261.9288635253906, -123.70028686523438, -0.494140625, 0.608642578125, -1.51953125
501, 1281137439, -27.048391342163086, 7.165125370025635, -8.939269065856934, -85.88306427001953, -177.56263732910156, -129.37509155273438, -0.55810546875, 0.6376953125, -1.525390625
502, 1281154106, -31.27792739868164, 8.807076454162598, -17.224151611328125, -54.89462661743164, -89.71363830566406, -118.50471496582031, -0.59619140625, 0.66259765625, -1.525634765625
503, 1281170773, -23.892091751098633, 10.656307220458984, -13.929829597473145, 57.43125534057617, 6.207226276397705, -24.254011154174805, -0.604736328125, 0.655517578125, -1.52685546875
504, 1281187440, -21.41988754272461, 10.311285018920898, -2.811119318008423, 50.90311050415039, 55.491275787353516, 66.77642059326172, -0.58837890625, 0.634521484375, -1.529296875
505, 1281204107, -5.331799507141113, -3.2030904293060303, -1.233918309211731, 148.55496215820312, 135.49899291992188, 155.11065673828125, -0.5546875, 0.59716796875, -1.53173828125
506, 1281220774, -1.8864357471466064, -5.854974269866943, 16.976091384887695, 129.04598999023438, 163.6090850830078, 141.4010009765625, -0.50439453125, 0.553466796875, -1.529541015625
507, 1281237441, -6.557343006134033, 3.752514362335205, 8.923517227172852, 64.33816528320312, 234.6914825439453, 52.91440200805664, -0.44189453125, 0.518798828125, -1.512939453125
508, 1281254108, -19.044816970825195, 5.2064385414123535, 17.74164581298828, 10.545156478881836, 234.35191345214844, 14.39737606048584, -0.3701171875, 0.5126953125, -1.493896484375
509, 1281270775, -13.270503044128418, 0.7078146934509277, 13.937844276428223, -3.307363271713257, 138.6295623779297, 67.14915466308594, -0.323974609375, 0.5078125, -1.480712890625
510, 1281287442, -8.415518760681152, -9.783595085144043, 6.4603776931762695, 5.723702907562256, 114.01509094238281, 46.960113525390625, -0.2919921875, 0.5009765625, -1.467041015625
511, 1281304109, -7.7423787117004395, -6.130564212799072, 9.132845878601074, 41.47910690307617, 115.03123474121094, 24.198183059692383, -0.260498046875, 0.49169921875, -1.455810546875
512, 1281320776, -15.470855712890625, -1.110067367553711, 10.632343292236328, 76.68778991699219, 33.32229995727539, 51.34345626831055, -0.244384765625, 0.463134765625, -1.448974609375
513, 1281337443, -6.309933662414551, -2.415722608566284, 9.799485206604004, 64.57725524902344, 15.618791580200195, 32.68647766113281, -0.236572265625, 0.443115234375, -1.44189453125
514, 1281354110, -6.804039478302002, -1.1424380540847778, 9.143572807312012, 49.00582504272461, -0.46619483828544617, 28.585662841796875, -0.24072265625, 0.424072265625, -1.439453125
515, 1281370777, -5.419782638549805, -1.1795283555984497, 8.9552640914917, 39.159786224365234, -2.7993078231811523, 20.584768295288086, -0.238525390625, 0.410400390625, -1.44287109375
516, 1281387444, -5.541764736175537, -1.3469910621643066, 8.806375503540039, 33.41858673095703, -5.186827659606934, 17.378461837768555, -0.238037109375, 0.3984375, -1.440185546875
517, 1281404111, -5.18817138671875, -1.355485200881958, 8.713730812072754, 27.102222442626953, -2.944201946258545, 13.371479034423828, -0.2431640625, 0.389892578125, -1.44140625
518, 1281420778, -5.26613187789917, -1.2660585641860962, 8.478996276855469, 20.026329040527344, -0.5675783753395081, 8.681675910949707, -0.2412109375, 0.380859375, -1.441162109375
519, 1281437445, -5.250977039337158, -1.156086802482605, 8.43072509765625, 12.8334379196167, 0.9003958106040955, 5.5852179527282715, -0.244140625, 0.376708984375, -1.439697265625
520, 1281454112, -5.106517314910889, -1.4982657432556152, 8.307607650756836, 7.501711368560791, 2.136029005050659, 4.035031795501709, -0.242431640625, 0.373291015625, -1.437744140625
521, 1281470779, -5.155086040496826, -1.565048336982727, 8.114830017089844, 5.521747589111328, 2.3584883213043213, 3.540642738342285, -0.240966796875, 0.372314453125, -1.437255859375
522, 1281487446, -5.147119998931885, -1.555241584777832, 8.077873229980469, 4.633831024169922, 1.1301285028457642, 2.805224657058716, -0.240478515625, 0.370361328125, -1.437744140625
523, 1281504113, -4.986680507659912, -1.5033918619155884, 8.13868236541748, 4.914072513580322, 0.2701563835144043, 1.9129810333251953, -0.240966796875, 0.36767578125, -1.435791015625
524, 1281520780, -5.050121307373047, -1.6873317956924438, 8.059481620788574, 5.611403465270996, -1.0902045965194702, 1.8576825857162476, -0.242431640625, 0.3671875, -1.436767578125
525, 1281537447, -4.946803569793701, -1.668747901916504, 8.013927459716797, 6.680849075317383, -2.685748338699341, 2.8733034133911133, -0.239990234375, 0.36474609375, -1.434814453125
526, 1281554114, -4.921819686889648, -1.7943427562713623, 8.09546947479248, 8.541319847106934, -4.118010997772217, 4.675414085388184, -0.243408203125, 0.361328125, -1.436767578125
527, 1281570781, -4.916733264923096, -1.6319580078125, 8.200789451599121, 9.542598724365234, -4.3250651359558105, 6.3267693519592285, -0.24267578125, 0.357177734375, -1.436767578125
528, 1281587448, -4.915792465209961, -1.5630685091018677, 8.243576049804688, 9.875541687011719, -3.4722676277160645, 6.801998615264893, -0.2451171875, 0.354248046875, -1.436279296875
529, 1281604115, -4.711363315582275, -1.7247951030731201, 8.21640682220459, 11.107778549194336, -2.147894859313965, 8.43337631225586, -0.24755859375, 0.3515625, -1.434814453125
530, 1281620782, -4.740476608276367, -1.7650011777877808, 8.187054634094238, 12.440300941467285, 0.3315119743347168, 12.119155883789062, -0.24560546875, 0.3466796875, -1.434326171875
531, 1281637449, -4.68605899810791, -1.55655837059021, 8.355643272399902, 12.86232852935791, 4.932943820953369, 15.63585376739502, -0.2431640625, 0.341552734375, -1.43359375
532, 1281654116, -4.815633773803711, -1.2328293323516846, 8.461705207824707, 10.418224334716797, 13.13357162475586, 18.207164764404297, -0.244384765625, 0.334716796875, -1.43212890625
533, 1281670783, -4.536210536956787, -1.2940844297409058, 8.69140338897705, 6.634614944458008, 23.26471519470215, 19.619760513305664, -0.237548828125, 0.32958984375, -1.43017578125
534, 1281687450, -4.5534138679504395, -1.2964798212051392, 8.84621810913086, 7.923821449279785, 38.4918098449707, 19.4674015045166, -0.2294921875, 0.32568359375, -1.423828125
535, 1281704117, -4.066351890563965, -0.980564534664154, 9.505815505981445, 5.77199649810791, 58.94377517700195, 18.070728302001953, -0.218505859375, 0.320068359375, -1.417724609375
536, 1281720784, -4.528975963592529, -0.7077834010124207, 9.194849967956543, 2.6104965209960938, 84.72876739501953, 18.313932418823242, -0.200927734375, 0.318115234375, -1.4033203125
537, 1281737451, -4.748055458068848, -0.8431218266487122, 9.178415298461914, -0.07260262966156006, 114.67704772949219, 17.3045597076416, -0.171630859375, 0.313232421875, -1.390869140625
538, 1281754118, -5.017359733581543, -1.2921268939971924, 9.48046588897705, -0.017533281818032265, 148.36355590820312, 20.434165954589844, -0.13818359375, 0.31201171875, -1.36865234375
539, 1281770785, -4.8610100746154785, -2.2104175090789795, 9.965326309204102, 3.3955814838409424, 187.2594451904297, 32.4057731628418, -0.100830078125, 0.308349609375, -1.339111328125
540, 1281787452, -4.949611186981201, -2.4403107166290283, 9.962129592895508, 4.776821613311768, 240.1438751220703, 53.789649963378906, -0.048583984375, 0.300048828125, -1.301513671875
541, 1281804119, -5.396912574768066, -2.8136887550354004, 10.340784072875977, 26.266468048095703, 304.41729736328125, 83.1333999633789, 0.005859375, 0.281494140625, -1.243408203125
542, 1281820786, -6.779734134674072, -3.413923740386963, 11.137798309326172, 45.03985595703125, 375.5755920410156, 121.68984985351562, 0.067626953125, 0.25146484375, -1.166748046875
543, 1281837453, -7.254611015319824, -4.788266181945801, 12.798063278198242, 41.37552261352539, 436.16485595703125, 164.36126708984375, 0.1318359375, 0.2080078125, -1.06689453125
544, 1281854120, -16.309986114501953, -2.2681448459625244, 15.873809814453125, 26.19994354248047, 461.3598937988281, 189.760986328125, 0.178466796875, 0.159423828125, -0.9541015625
545, 1281870787, -20.18777847290039, -4.606297492980957, 17.441667556762695, -1.9426486492156982, 432.5729675292969, 168.162841796875, 0.206787109375, 0.1123046875, -0.84130859375
546, 1281887454, -16.118852615356445, -4.62204647064209, 18.887052536010742, -16.861440658569336, 355.6706848144531, 156.3651580810547, 0.21826171875, 0.07470703125, -0.7470703125
547, 1281904121, -1.6482775211334229, -8.022050857543945, 14.356013298034668, -26.90631675720215, 306.29345703125, 165.40626525878906, 0.215576171875, 0.034423828125, -0.673095703125
548, 1281920788, -21.063411712646484, -15.017991065979004, 22.022506713867188, -16.774555206298828, 278.3641357421875, 89.84576416015625, 0.205322265625, 0.004638671875, -0.59521484375
549, 1281937455, -17.81439781188965, -18.39626693725586, 26.345684051513672, 7.362072944641113, 2.8299825191497803, -40.04108810424805, 0.209228515625, 0.003662109375, -0.5810546875
550, 1281954122, -2.216245174407959, -11.872876167297363, 15.217594146728516, 72.77200317382812, -141.62454223632812, -118.9021987915039, 0.22216796875, 0.034912109375, -0.60595703125
551, 1281970789, 3.0343852043151855, -3.958761692047119, 9.604288101196289, 87.51966857910156, -159.19825744628906, -143.2200164794922, 0.233642578125, 0.06689453125, -0.6328125
552, 1281987456, 2.74884295463562, -0.270452082157135, 8.409831047058105, 50.89406967163086, -148.20431518554688, -151.1466064453125, 0.248291015625, 0.105224609375, -0.667236328125
553, 1282004123, 0.1516869217157364, 1.0297129154205322, 8.735625267028809, 9.628544807434082, -147.71144104003906, -148.7159423828125, 0.25634765625, 0.141357421875, -0.70654296875
554, 1282020790, -2.5307717323303223, 1.152402400970459, 9.286054611206055, -12.642049789428711, -165.72398376464844, -131.71083068847656, 0.262451171875, 0.1806640625, -0.752197265625
555, 1282037457, -5.706943035125732, 1.602116346359253, 10.374080657958984, -22.26264190673828, -201.63772583007812, -104.67222595214844, 0.257568359375, 0.212646484375, -0.8046875
556, 1282054124, -8.604063987731934, 2.158496141433716, 10.78510570526123, -37.2241096496582, -252.71058654785156, -85.54981231689453, 0.2431640625, 0.239501953125, -0.875
557, 1282070791, -8.870019912719727, 1.8588513135910034, 9.979731559753418, -55.10152816772461, -299.5419616699219, -71.92213439941406, 0.21435546875, 0.265380859375, -0.951171875
558, 1282087458, -8.479310989379883, 1.393958568572998, 8.831318855285645, -70.3671875, -322.4969177246094, -63.9989013671875, 0.175537109375, 0.291259765625, -1.038818359375
559, 1282104125, -8.896844863891602, 0.5309680700302124, 8.606653213500977, -79.958740234375, -326.5530700683594, -62.926273345947266, 0.122802734375, 0.319091796875, -1.119384765625
560, 1282120792, -10.192770957946777, -0.29805147647857666, 9.201231956481934, -83.26616668701172, -326.9714050292969, -68.36640930175781, 0.066650390625, 0.346435546875, -1.195556640625
561, 1282137459, -10.984723091125488, -0.9063165187835693, 9.705697059631348, -83.65593719482422, -325.3621520996094, -76.80892181396484, 0.006103515625, 0.3779296875, -1.267822265625
562, 1282154126, -11.879308700561523, -0.9198832511901855, 10.47702407836914, -87.83293914794922, -313.3013610839844, -83.34667205810547, -0.06396484375, 0.411376953125, -1.32763671875
563, 1282170793, -14.16914176940918, -0.8678986430168152, 12.388571739196777, -103.89891052246094, -295.3664855957031, -89.07357788085938, -0.1318359375, 0.448974609375, -1.37890625
564, 1282187460, -17.513381958007812, -2.190016031265259, 13.302550315856934, -122.80036926269531, -284.3743896484375, -96.53094482421875, -0.20751953125, 0.49365234375, -1.419921875
565, 1282204127, -22.295015335083008, -4.719783782958984, 12.715713500976562, -117.37480926513672, -280.2425231933594, -108.71615600585938, -0.278564453125, 0.5380859375, -1.453369140625
566, 1282220794, -26.103166580200195, -5.96613883972168, 9.591828346252441, -82.93985748291016, -286.5113830566406, -133.75656127929688, -0.360107421875, 0.576171875, -1.48046875
567, 1282237461, -27.167091369628906, -3.6333959102630615, 3.719306230545044, -37.33723449707031, -287.7003479003906, -151.96517944335938, -0.4423828125, 0.598388671875, -1.502685546875
568, 1282254128, -25.874807357788086, 2.7874338626861572, -3.162266969680786, -26.926597595214844, -251.26919555664062, -151.18272399902344, -0.521728515625, 0.614990234375, -1.51318359375
569, 1282270795, -34.04792404174805, 11.823190689086914, -12.169729232788086, -56.24971389770508, -188.8475799560547, -146.3199462890625, -0.58349609375, 0.634521484375, -1.521240234375
570, 1282287462, -29.726318359375, 14.805716514587402, -23.06379508972168, -36.93329620361328, -93.16944885253906, -108.52247619628906, -0.6279296875, 0.65087890625, -1.521728515625
571, 1282304129, -20.702924728393555, 10.973899841308594, -14.944816589355469, 60.372562408447266, 45.927406311035156, 23.44858169555664, -0.624267578125, 0.640869140625, -1.521484375
572, 1282320796, -25.806180953979492, 6.536502361297607, 1.149688959121704, 77.23381805419922, 76.40453338623047, 83.54802703857422, -0.59814453125, 0.616455078125, -1.5224609375
573, 1282337463, -19.379981994628906, 1.5825092792510986, 3.4508659839630127, 45.70765686035156, 40.970062255859375, 68.70524597167969, -0.58349609375, 0.599365234375, -1.523193359375
574, 1282354130, 9.155070304870605, -13.577341079711914, 15.299918174743652, 46.455257415771484, 98.03575897216797, 49.75253677368164, -0.55908203125, 0.587158203125, -1.522705078125
575, 1282370797, 14.352643966674805, -7.987208843231201, 5.0614519119262695, 75.23760223388672, 139.21060180664062, 53.78774642944336, -0.52490234375, 0.564697265625, -1.51806640625
576, 1282387464, -14.467499732971191, 6.474714279174805, 10.660839080810547, 72.1344985961914, 289.357421875, 55.73051452636719, -0.448974609375, 0.53515625, -1.50390625
577, 1282404131, -23.832273483276367, 5.701686382293701, 22.360652923583984, 33.81782150268555, 189.0383758544922, 59.2681884765625, -0.38330078125, 0.52197265625, -1.48974609375
578, 1282420798, -13.82861042022705, -3.9324615001678467, 12.69005012512207, 9.6475830078125, 117.66231536865234, 61.94274139404297, -0.345703125, 0.5107421875, -1.47314453125
579, 1282437465, -8.134603500366211, -4.590028285980225, 8.761643409729004, 10.073094367980957, 96.80058288574219, 22.79574203491211, -0.31884765625, 0.5078125, -1.464599609375
580, 1282454132, -4.9123334884643555, 0.5727660059928894, 10.274489402770996, 0.20390236377716064, 88.91764831542969, 22.981042861938477, -0.2958984375, 0.50244140625, -1.453125
581, 1282470799, -12.491057395935059, -9.45734691619873, 7.074405670166016, 46.82671356201172, 44.193756103515625, 32.866844177246094, -0.27685546875, 0.490966796875, -1.44970703125
582, 1282487466, -5.1441450119018555, -1.2205016613006592, 9.082967758178711, 50.28496551513672, 37.02836608886719, 25.186283111572266, -0.268310546875, 0.475830078125, -1.443603515625
583, 1282504133, -5.875987529754639, -3.2871315479278564, 7.880638122558594, 50.8221435546875, 25.09918975830078, 30.111988067626953, -0.261962890625, 0.454833984375, -1.436767578125
584, 1282520800, -6.103836536407471, -0.32472968101501465, 9.858678817749023, 46.6843147277832, 21.226240158081055, 25.80661392211914, -0.25537109375, 0.44140625, -1.435791015625
585, 1282537467, -6.14971399307251, -1.2626227140426636, 9.292342185974121, 27.313352584838867, 13.824251174926758, 15.545853614807129, -0.251708984375, 0.430419921875, -1.43212890625
586, 1282554134, -5.870464324951172, -1.4715863466262817, 8.844257354736328, 14.638318061828613, 13.996732711791992, 9.142719268798828, -0.247314453125, 0.42529296875, -1.4326171875
587, 1282570801, -5.903952121734619, -1.2115658521652222, 8.51706600189209, 0.7946537137031555, 12.536688804626465, 3.315918207168579, -0.24267578125, 0.42138671875, -1.429443359375
588, 1282587468, -5.244475841522217, -2.011680841445923, 8.094237327575684, -5.044616222381592, 11.550867080688477, 2.0841002464294434, -0.23876953125, 0.42333984375, -1.4287109375
589, 1282604135, -5.3480939865112305, -1.945332407951355, 7.935153484344482, -3.9966464042663574, 11.329765319824219, 3.379873275756836, -0.23876953125, 0.42431640625, -1.42822265625
590, 1282620802, -5.356411457061768, -2.107937812805176, 7.7529425621032715, -2.226807117462158, 9.354817390441895, 3.295964479446411, -0.234130859375, 0.42333984375, -1.42333984375
591, 1282637469, -5.443410873413086, -2.1160805225372314, 7.66136360168457, 1.0410075187683105, 6.805056571960449, 3.8498523235321045, -0.233154296875, 0.423828125, -1.4228515625
592, 1282654136, -5.296696186065674, -2.3690779209136963, 7.549230575561523, 5.0408172607421875, 3.5998716354370117, 4.635213851928711, -0.231689453125, 0.421875, -1.423095703125
593, 1282670803, -5.128428936004639, -2.2772586345672607, 7.758153915405273, 7.588027000427246, 1.893310546875, 6.555169105529785, -0.233154296875, 0.4189453125, -1.42333984375
594, 1282687470, -5.149384021759033, -2.0001628398895264, 7.990269184112549, 7.819336414337158, 2.729949951171875, 8.284923553466797, -0.229736328125, 0.41650390625, -1.422119140625
595, 1282704137, -5.306349277496338, -2.041179895401001, 7.960926532745361, 7.10946798324585, 4.8381452560424805, 9.657625198364258, -0.230224609375, 0.412841796875, -1.418701171875
596, 1282720804, -5.4851603507995605, -1.7097994089126587, 7.950901508331299, 7.568127155303955, 6.5602545738220215, 8.775638580322266, -0.22705078125, 0.410400390625, -1.420654296875
597, 1282737471, -5.326733112335205, -1.7990291118621826, 7.956436634063721, 5.851294994354248, 7.515173435211182, 9.07005786895752, -0.22705078125, 0.406982421875, -1.420166015625
598, 1282754138, -5.174229621887207, -1.9448802471160889, 7.9450788497924805, 4.27734375, 9.571224212646484, 11.953592300415039, -0.22314453125, 0.4052734375, -1.41650390625
599, 1282770805, -5.282128810882568, -1.6610420942306519, 8.092949867248535, 3.4739513397216797, 14.466373443603516, 13.842435836791992, -0.219482421875, 0.4013671875, -1.4150390625
600, 1282787472, -5.042092323303223, -2.0070886611938477, 8.257158279418945, -1.6936956644058228, 21.991554260253906, 16.81316375732422, -0.214111328125, 0.3984375, -1.410888671875
601, 1282804139, -4.833660125732422, -1.716522216796875, 8.634878158569336, -0.17465396225452423, 35.22039031982422, 18.763690948486328, -0.2080078125, 0.39599609375, -1.4072265625
602, 1282820806, -4.887256622314453, -1.5475327968597412, 8.674867630004883, -1.381589651107788, 52.70909881591797, 17.46828842163086, -0.196533203125, 0.3935546875, -1.40185546875
603, 1282837473, -5.095333576202393, -1.5658849477767944, 8.641321182250977, -4.340328216552734, 74.6427993774414, 17.387264251708984, -0.1806640625, 0.39306640625, -1.39208984375
604, 1282854140, -5.207840442657471, -1.5909761190414429, 8.638395309448242, -6.86283540725708, 101.41410827636719, 18.924531936645508, -0.1572265625, 0.39208984375, -1.379638671875
605, 1282870807, -5.6073479652404785, -1.0505108833312988, 8.364799499511719, -8.517786979675293, 129.57955932617188, 18.07103729248047, -0.12939453125, 0.38818359375, -1.357177734375
606, 1282887474, -5.548177719116211, -1.4215672016143799, 8.834312438964844, -13.224597930908203, 161.49490356445312, 17.038434982299805, -0.092041015625, 0.3896484375, -1.33447265625
607, 1282904141, -5.321867942810059, -2.2856645584106445, 8.741686820983887, -12.61464786529541, 203.22845458984375, 22.91398048400879, -0.05029296875, 0.391357421875, -1.30029296875
608, 1282920808, -5.441709041595459, -2.9388644695281982, 8.50536060333252, -11.635905265808105, 254.48150634765625, 41.67266082763672, 0.001953125, 0.3857421875, -1.25341796875
609, 1282937475, -5.534239768981934, -3.507246732711792, 9.502957344055176, -8.520486831665039, 321.81842041015625, 65.27616119384766, 0.057861328125, 0.376708984375, -1.191162109375
610, 1282954142, -8.367788314819336, -6.007526397705078, 12.05817985534668, 16.21981430053711, 380.91070556640625, 107.1503677368164, 0.121337890625, 0.353515625, -1.10595703125
611, 1282970809, -9.238458633422852, -3.9191956520080566, 9.673025131225586, 24.304872512817383, 447.2786560058594, 157.4783935546875, 0.18359375, 0.315185546875, -1.00244140625
612, 1282987476, -21.230125427246094, -6.8896098136901855, 17.836822509765625, 2.447955369949341, 457.2814636230469, 169.17645263671875, 0.226806640625, 0.272216796875, -0.883056640625
613, 1283004143, -23.488847732543945, -4.715489387512207, 18.6298885345459, -10.769526481628418, 401.4789123535156, 170.2121124267578, 0.2548828125, 0.22802734375, -0.77197265625
614, 1283020810, -16.19365119934082, -8.767556190490723, 18.69414710998535, -15.787696838378906, 317.58795166015625, 172.30654907226562, 0.26025390625, 0.18212890625, -0.68359375
615, 1283037477, -3.281759023666382, -13.069522857666016, 11.982303619384766, 59.33018493652344, 301.29718017578125, 189.59744262695312, 0.250732421875, 0.1298828125, -0.599853515625
616, 1283054144, -23.450592041015625, -15.860589981079102, 28.774240493774414, 88.72076416015625, 202.6412353515625, 87.50667572021484, 0.239990234375, 0.09521484375, -0.520751953125
617, 1283070811, -11.658020973205566, -13.265990257263184, 25.351318359375, 87.22674560546875, -41.23381423950195, -37.385948181152344, 0.241943359375, 0.099609375, -0.512939453125
618, 1283087478, 0.658800482749939, -7.938760280609131, 14.167119979858398, 105.96881866455078, -139.55355834960938, -87.71131896972656, 0.24853515625, 0.121826171875, -0.53125
619, 1283104145, 3.199708938598633, -3.250004291534424, 9.635899543762207, 102.28794860839844, -152.9576416015625, -91.94200134277344, 0.256591796875, 0.144775390625, -0.560302734375
620, 1283120812, 1.9793692827224731, -1.1751097440719604, 8.374051094055176, 74.46721649169922, -155.648193359375, -92.05723571777344, 0.2685546875, 0.169189453125, -0.591552734375
621, 1283137479, -0.5089318156242371, -0.5692095756530762, 8.241769790649414, 42.721561431884766, -170.26304626464844, -86.19209289550781, 0.271728515625, 0.19140625, -0.634033203125
622, 1283154146, -3.008012056350708, -0.6288391351699829, 8.34775447845459, 20.012788772583008, -195.95831298828125, -74.7401351928711, 0.268310546875, 0.2099609375, -0.68359375
623, 1283170813, -6.175229072570801, -0.7535161375999451, 9.091360092163086, 3.3419761657714844, -233.7283935546875, -62.97004318237305, 0.260986328125, 0.230712890625, -0.7421875
624, 1283187480, -8.648465156555176, -0.8380811810493469, 9.389575958251953, -13.904373168945312, -282.7196044921875, -57.88121795654297, 0.24755859375, 0.24462890625, -0.817138671875
625, 1283204147, -9.082345962524414, -0.9793487191200256, 8.55220890045166, -30.715831756591797, -325.074462890625, -57.11205291748047, 0.224853515625, 0.2607421875, -0.8994140625
626, 1283220814, -8.91746997833252, -1.3363789319992065, 7.341623306274414, -44.406105041503906, -347.2526550292969, -57.885040283203125, 0.187255859375, 0.279052734375, -0.9892578125
627, 1283237481, -9.278841018676758, -2.1103765964508057, 7.077386856079102, -51.02504348754883, -350.9696960449219, -59.2598762512207, 0.138427734375, 0.302490234375, -1.0751953125
628, 1283254148, -10.671778678894043, -2.5009350776672363, 7.641972064971924, -58.789222717285156, -348.76690673828125, -65.11548614501953, 0.08251953125, 0.3271484375, -1.15966796875
629, 1283270815, -11.205561637878418, -2.41182017326355, 8.00393295288086, -75.82034301757812, -342.81591796875, -75.57423400878906, 0.019287109375, 0.352294921875, -1.23291015625
630, 1283287482, -12.101346015930176, -2.5349984169006348, 9.093057632446289, -96.90116882324219, -319.13470458984375, -83.71906280517578, -0.04638671875, 0.387939453125, -1.29931640625
631, 1283304149, -14.837424278259277, -3.474961519241333, 11.92414665222168, -114.32830810546875, -295.9759521484375, -89.3689956665039, -0.113525390625, 0.42529296875, -1.35498046875
632, 1283320816, -20.259387969970703, -5.600718975067139, 14.624271392822266, -127.42900848388672, -292.9134826660156, -105.1564712524414, -0.184814453125, 0.47412109375, -1.402099609375
633, 1283337483, -24.406944274902344, -8.495208740234375, 13.248021125793457, -110.96636199951172, -312.3205871582031, -136.1073455810547, -0.261474609375, 0.5166015625, -1.44140625
634, 1283354150, -24.013172149658203, -5.190668106079102, 8.942891120910645, -74.09454345703125, -318.97216796875, -169.50389099121094, -0.348876953125, 0.559326171875, -1.474609375
635, 1283370817, -23.32931900024414, -1.100504755973816, 3.51011323928833, -63.7994384765625, -291.3678894042969, -173.96627807617188, -0.436767578125, 0.58984375, -1.49853515625
636, 1283387484, -23.785985946655273, 2.499800682067871, -0.7991463541984558, -62.09177017211914, -240.20362854003906, -145.6177520751953, -0.5126953125, 0.616943359375, -1.508544921875
637, 1283404151, -32.1389045715332, 10.409992218017578, -8.311594009399414, -91.84813690185547, -183.01153564453125, -114.22618103027344, -0.57470703125, 0.6435546875, -1.51171875
638, 1283420818, -32.236297607421875, 14.958779335021973, -20.67146873474121, -107.00045776367188, -101.21050262451172, -57.82097244262695, -0.617431640625, 0.679443359375, -1.513427734375
639, 1283437485, -21.742116928100586, 11.190852165222168, -16.71534538269043, -41.24053955078125, 36.90913391113281, 64.27954864501953, -0.614990234375, 0.69482421875, -1.507080078125
640, 1283454152, -25.748464584350586, 5.387160778045654, -1.9746136665344238, -22.006410598754883, 89.2579116821289, 126.76811981201172, -0.585693359375, 0.69921875, -1.5048828125
641, 1283470819, -17.974260330200195, -11.362414360046387, 1.3939883708953857, 28.606388092041016, 79.54692077636719, 115.41029357910156, -0.55810546875, 0.69775390625, -1.5029296875
642, 1283487486, 6.953701019287109, -5.330669403076172, 11.017399787902832, 185.07778930664062, 129.00314331054688, 133.36216735839844, -0.5166015625, 0.640380859375, -1.507568359375
643, 1283504153, 0.08427669107913971, -1.5238019227981567, 6.489814281463623, 118.3274154663086, 192.83352661132812, 78.55079650878906, -0.46630859375, 0.59912109375, -1.50048828125
644, 1283520820, -18.713579177856445, 8.05752944946289, 18.02336311340332, 63.85100555419922, 265.8766784667969, 28.34197425842285, -0.391357421875, 0.57568359375, -1.484619140625
645, 1283537487, -18.66443634033203, 6.815285682678223, 18.803272247314453, 45.70001220703125, 174.72540283203125, 82.50289916992188, -0.33642578125, 0.555908203125, -1.467529296875
646, 1283554154, -10.027787208557129, -7.6823649406433105, 9.242837905883789, 8.08462905883789, 131.09715270996094, 69.37337493896484, -0.295654296875, 0.54296875, -1.44921875
647, 1283570821, -20.078256607055664, -7.956021785736084, 12.02416706085205, 78.02018737792969, 73.8418197631836, 35.545413970947266, -0.268310546875, 0.51953125, -1.439697265625
648, 1283587488, -5.935871124267578, 0.03132568672299385, 9.61159610748291, 43.26897430419922, 22.188396453857422, 28.00727081298828, -0.26220703125, 0.505126953125, -1.4384765625
