sep=,
DeviceTag:,B,,,,,,,,,,,,,,,,,
FirmwareVersion:,2.2.1,,,,,,,,,,,,,,,,,
AppVersion:,2022.0.1,,,,,,,,,,,,,,,,,
SyncStatus:,Synced,,,,,,,,,,,,,,,,,
OutputRate:,60Hz,,,,,,,,,,,,,,,,,
FilterProfile:,General,,,,,,,,,,,,,,,,,
Measurement Mode:,Inertial Mode - Rate quantities (with mag),,,,,,,,,,,,,,,,,
StartTime:,2022-08-03 15:35:26.650 +0300,,,,,,,,,,,,,,,,,
© Xsens Technologies B. V. 2005-2022,,,,,,,,,,,,,,,,,,,

PacketCounter,SampleTimeFine,Acc_X,Acc_Y,Acc_Z,Gyr_X,Gyr_Y,Gyr_Z,Mag_X,Mag_Y,Mag_Z
1, 910930035, -5.032966613769531, -1.2963769435882568, 8.168802261352539, -0.09378089010715485, -0.7852597236633301, -0.8823574781417847, -0.21923828125, 0.344970703125, -1.395751953125
2, 910946702, -5.027535915374756, -1.2973917722702026, 8.199112892150879, -0.15837612748146057, -0.9173188805580139, -0.8394691348075867, -0.22119140625, 0.343505859375, -1.397705078125
3, 910963369, -5.022132396697998, -1.3023587465286255, 8.162064552307129, -0.12446492165327072, -1.0052217245101929, -0.8119994401931763, -0.220703125, 0.343994140625, -1.395751953125
4, 910980036, -5.009669780731201, -1.3155992031097412, 8.203802108764648, -0.03256654739379883, -0.9455184936523438, -0.7997181415557861, -0.21826171875, 0.342529296875, -1.396728515625
5, 910996703, -5.006572246551514, -1.3064260482788086, 8.207747459411621, -0.07240709662437439, -0.722675085067749, -0.7696999907493591, -0.220703125, 0.343994140625, -1.398193359375
6, 911013370, -5.020074844360352, -1.299091100692749, 8.172713279724121, -0.1156669482588768, -0.6768156290054321, -0.7458289861679077, -0.21875, 0.343505859375, -1.399658203125
7, 911030037, -5.035595893859863, -1.2959688901901245, 8.181133270263672, -0.23372870683670044, -0.7977074980735779, -0.8561813831329346, -0.22119140625, 0.343994140625, -1.396728515625
8, 911046704, -5.01458215713501, -1.301356554031372, 8.187212944030762, -0.10861065983772278, -0.8946772813796997, -0.8648256659507751, -0.21923828125, 0.341064453125, -1.398681640625
9, 911063371, -5.024830341339111, -1.3038524389266968, 8.201065063476562, -0.12032847106456757, -0.9270005226135254, -0.8431188464164734, -0.21923828125, 0.344482421875, -1.397705078125
10, 911080038, -5.011107921600342, -1.30182683467865, 8.19723892211914, -0.03918743133544922, -0.9545981287956238, -0.8433622121810913, -0.21826171875, 0.343994140625, -1.396728515625
11, 911096705, -5.017973899841309, -1.310470461845398, 8.204582214355469, -0.0926155298948288, -0.9401013851165771, -0.8370999097824097, -0.22119140625, 0.341552734375, -1.398681640625
12, 911113372, -5.02772331237793, -1.3026938438415527, 8.212544441223145, -0.0439641997218132, -1.0030701160430908, -0.884060800075531, -0.22021484375, 0.342529296875, -1.395751953125
13, 911130039, -5.0092926025390625, -1.304339051246643, 8.17513370513916, -3.9699688204564154E-4, -0.978456437587738, -0.8772094249725342, -0.22119140625, 0.343017578125, -1.396728515625
14, 911146706, -5.025518417358398, -1.3000304698944092, 8.18394660949707, -0.004699930548667908, -0.9570313692092896, -0.8733418583869934, -0.21923828125, 0.342041015625, -1.396240234375
15, 911163373, -5.007635593414307, -1.3041023015975952, 8.206571578979492, -0.023678939789533615, -0.8870574831962585, -0.8076196908950806, -0.22119140625, 0.342041015625, -1.395751953125
16, 911180040, -5.0193190574646, -1.289446234703064, 8.214223861694336, -0.1311754286289215, -0.8165328502655029, -0.8178390860557556, -0.220703125, 0.341552734375, -1.395751953125
17, 911196707, -5.01828670501709, -1.3116650581359863, 8.220749855041504, -0.22596803307533264, -0.6967166066169739, -0.8174293041229248, -0.220703125, 0.343505859375, -1.394287109375
18, 911213374, -5.027245998382568, -1.3125147819519043, 8.218194961547852, -0.23881278932094574, -0.8165584802627563, -0.8033550977706909, -0.22119140625, 0.342529296875, -1.397216796875
19, 911230041, -5.0056962966918945, -1.301201343536377, 8.198197364807129, -0.26566773653030396, -0.7117641568183899, -0.9297154545783997, -0.21826171875, 0.343017578125, -1.396728515625
20, 911246708, -5.009469032287598, -1.3071303367614746, 8.187753677368164, -0.1893034726381302, -0.8264449834823608, -0.8285836577415466, -0.22119140625, 0.341552734375, -1.397705078125
21, 911263375, -5.026974678039551, -1.2969846725463867, 8.182365417480469, -0.15673691034317017, -0.7438312768936157, -0.8220651149749756, -0.21875, 0.344970703125, -1.395263671875
22, 911280042, -5.010802268981934, -1.2931503057479858, 8.192723274230957, -0.24779006838798523, -0.7471224069595337, -0.8833435773849487, -0.22021484375, 0.342529296875, -1.398681640625
23, 911296709, -5.016963005065918, -1.3090745210647583, 8.167649269104004, -0.19224892556667328, -0.730346143245697, -0.8621619343757629, -0.21875, 0.343017578125, -1.393798828125
24, 911313376, -5.015007019042969, -1.3005115985870361, 8.214962005615234, -0.13299395143985748, -0.8701913952827454, -0.8006272912025452, -0.21923828125, 0.340087890625, -1.397705078125
25, 911330043, -5.019305229187012, -1.2966761589050293, 8.203373908996582, -0.10752212256193161, -0.8326177000999451, -0.8135234713554382, -0.22119140625, 0.34521484375, -1.397705078125
26, 911346710, -5.022900104522705, -1.3004862070083618, 8.209234237670898, -0.0879155844449997, -0.8026763796806335, -0.7915861010551453, -0.22265625, 0.344482421875, -1.3994140625
27, 911363377, -5.004765033721924, -1.3005238771438599, 8.193464279174805, -0.12901116907596588, -0.7866172194480896, -0.8193373680114746, -0.2216796875, 0.342529296875, -1.397216796875
28, 911380044, -5.007599830627441, -1.3063768148422241, 8.210200309753418, -0.1522674709558487, -0.7570857405662537, -0.8102961182594299, -0.2197265625, 0.34423828125, -1.398681640625
29, 911396711, -5.028616905212402, -1.3049598932266235, 8.199580192565918, -0.16326817870140076, -0.728207528591156, -0.8848035931587219, -0.2197265625, 0.343994140625, -1.399169921875
30, 911413378, -5.013488292694092, -1.2998840808868408, 8.198075294494629, -0.14404582977294922, -0.8280969858169556, -0.8666697144508362, -0.22021484375, 0.343505859375, -1.397705078125
31, 911430045, -5.0091047286987305, -1.3195371627807617, 8.199858665466309, -0.13181577622890472, -0.7857592105865479, -0.8994412422180176, -0.22119140625, 0.343017578125, -1.396728515625
32, 911446712, -5.0201616287231445, -1.2984856367111206, 8.19141960144043, -0.13169558346271515, -0.7843334674835205, -0.7997276186943054, -0.22216796875, 0.344970703125, -1.397705078125
33, 911463379, -5.016083717346191, -1.3006356954574585, 8.19002914428711, -0.197678804397583, -0.8755316734313965, -0.8168274164199829, -0.220703125, 0.341552734375, -1.395263671875
34, 911480046, -5.017875671386719, -1.3019932508468628, 8.189745903015137, -0.1902255266904831, -0.8574876189231873, -0.822667121887207, -0.220703125, 0.343017578125, -1.400390625
35, 911496713, -5.014936447143555, -1.2894991636276245, 8.192813873291016, -0.10064510256052017, -0.9009265899658203, -0.8683601021766663, -0.21875, 0.342041015625, -1.397216796875
36, 911513380, -5.020552635192871, -1.3033487796783447, 8.20624828338623, -0.07811232656240463, -0.9338966012001038, -0.9527732133865356, -0.2216796875, 0.342529296875, -1.397216796875
37, 911530047, -5.035909652709961, -1.2842968702316284, 8.18510913848877, -0.1830027550458908, -0.9682497382164001, -0.8413131833076477, -0.22021484375, 0.343505859375, -1.397705078125
38, 911546714, -4.998448848724365, -1.3253955841064453, 8.202984809875488, -0.18092811107635498, -0.832476794719696, -0.8766843676567078, -0.2197265625, 0.342041015625, -1.397705078125
39, 911563381, -5.013009071350098, -1.297926902770996, 8.215333938598633, -0.146043598651886, -0.8167760968208313, -0.8147399425506592, -0.21875, 0.343017578125, -1.396240234375
40, 911580048, -5.028867244720459, -1.298880934715271, 8.191449165344238, -0.18223437666893005, -0.8965725898742676, -0.8346923589706421, -0.21923828125, 0.343505859375, -1.398193359375
41, 911596715, -5.0287981033325195, -1.2903051376342773, 8.191518783569336, -0.16376759111881256, -0.8850467205047607, -0.9156027436256409, -0.22119140625, 0.343505859375, -1.395263671875
42, 911613382, -5.021653175354004, -1.3014551401138306, 8.221389770507812, -0.17131055891513824, -0.8338983654975891, -0.9228640198707581, -0.21826171875, 0.343505859375, -1.397216796875
43, 911630049, -5.019473552703857, -1.2922312021255493, 8.189399719238281, -0.23513740301132202, -0.8603050112724304, -0.8429780006408691, -0.2197265625, 0.344482421875, -1.398193359375
44, 911646716, -5.030395030975342, -1.2927310466766357, 8.219083786010742, -0.1297539323568344, -0.8343080282211304, -0.8905792236328125, -0.22119140625, 0.343505859375, -1.396728515625
45, 911663383, -5.015267848968506, -1.302474021911621, 8.220843315124512, -0.2188989222049713, -0.8310040235519409, -0.8789253234863281, -0.22265625, 0.341552734375, -1.3994140625
46, 911680050, -5.005307674407959, -1.2930822372436523, 8.211564064025879, -0.2290927916765213, -0.862213134765625, -0.810488224029541, -0.21923828125, 0.343994140625, -1.398193359375
47, 911696717, -5.014175891876221, -1.303035855293274, 8.223946571350098, -0.22923363745212555, -0.7345337867736816, -0.8458849787712097, -0.21826171875, 0.343505859375, -1.396240234375
48, 911713384, -5.019211292266846, -1.2856837511062622, 8.203761100769043, -0.31411415338516235, -0.7109572291374207, -0.8447452187538147, -0.2216796875, 0.344482421875, -1.398681640625
49, 911730051, -5.026821136474609, -1.2839617729187012, 8.201435089111328, -0.2673197388648987, -0.6010019779205322, -0.8132672905921936, -0.2197265625, 0.341552734375, -1.396240234375
50, 911746718, -5.033605098724365, -1.2942755222320557, 8.143497467041016, -0.21340501308441162, -0.6951926946640015, -0.8404551148414612, -0.21875, 0.343505859375, -1.396728515625
51, 911763385, -5.0211615562438965, -1.2993099689483643, 8.2015380859375, -0.19080179929733276, -0.7308583855628967, -0.8479083776473999, -0.21923828125, 0.343017578125, -1.399658203125
52, 911780052, -5.013802528381348, -1.2814202308654785, 8.19887638092041, -0.2283628135919571, -0.8832667469978333, -0.7951334118843079, -0.21923828125, 0.343017578125, -1.395751953125
53, 911796719, -5.023464679718018, -1.2931890487670898, 8.189165115356445, -0.201546311378479, -0.8223212361335754, -0.8322590589523315, -0.2216796875, 0.343505859375, -1.395263671875
54, 911813386, -5.009927749633789, -1.2909618616104126, 8.205655097961426, -0.2141861766576767, -0.9467605948448181, -0.9127597212791443, -0.21923828125, 0.340087890625, -1.396240234375
55, 911830053, -5.012562274932861, -1.3162474632263184, 8.176100730895996, -0.18409126996994019, -0.8062237501144409, -0.8257790207862854, -0.2197265625, 0.343017578125, -1.396728515625
56, 911846720, -5.016994953155518, -1.2957881689071655, 8.207526206970215, -0.17802105844020844, -0.8321694135665894, -0.8175445199012756, -0.2216796875, 0.342041015625, -1.396240234375
57, 911863387, -5.023403167724609, -1.2996327877044678, 8.203733444213867, -0.1394227296113968, -0.8203491568565369, -0.8863018751144409, -0.2197265625, 0.341552734375, -1.397216796875
58, 911880054, -5.018368721008301, -1.3051795959472656, 8.196263313293457, -0.1328914910554886, -0.8086953163146973, -0.8340390920639038, -0.22119140625, 0.343505859375, -1.396240234375
59, 911896721, -5.01712703704834, -1.3095672130584717, 8.196974754333496, -0.22078146040439606, -0.732843279838562, -0.8831130266189575, -0.22265625, 0.341064453125, -1.397216796875
60, 911913388, -5.022186279296875, -1.3043264150619507, 8.189647674560547, -0.2714049816131592, -0.8249978423118591, -0.9158462285995483, -0.22021484375, 0.343017578125, -1.397705078125
61, 911930055, -5.0329060554504395, -1.2954976558685303, 8.216362953186035, -0.051852911710739136, -0.9014004468917847, -0.9060364365577698, -0.220703125, 0.343994140625, -1.399169921875
62, 911946722, -5.012270450592041, -1.3024194240570068, 8.192322731018066, -0.10110613703727722, -0.910365104675293, -0.8761208653450012, -0.21875, 0.341552734375, -1.396240234375
63, 911963389, -5.028250694274902, -1.2969253063201904, 8.215644836425781, -0.18172210454940796, -0.8505721092224121, -0.8601385354995728, -0.220703125, 0.3447265625, -1.398193359375
64, 911980056, -5.018597602844238, -1.29922354221344, 8.204384803771973, -0.2293873131275177, -0.9109413623809814, -0.8853285312652588, -0.22119140625, 0.343017578125, -1.396728515625
65, 911996723, -5.0068039894104, -1.289198875427246, 8.200034141540527, -0.18170928955078125, -0.8985960483551025, -1.0293487310409546, -0.21923828125, 0.341552734375, -1.397216796875
66, 912013390, -5.0281291007995605, -1.2965397834777832, 8.209681510925293, -0.21968011558055878, -0.9037312865257263, -0.8909889459609985, -0.2197265625, 0.342529296875, -1.397216796875
67, 912030057, -5.010514736175537, -1.3102216720581055, 8.19694995880127, -0.234317809343338, -0.9693511128425598, -0.8606380224227905, -0.22216796875, 0.342041015625, -1.397705078125
68, 912046724, -5.0174241065979, -1.3053982257843018, 8.177040100097656, -0.22312504053115845, -1.009498953819275, -0.8374456763267517, -0.220703125, 0.342041015625, -1.395263671875
69, 912063391, -4.999481678009033, -1.2892134189605713, 8.207666397094727, -0.0755830779671669, -0.9738204479217529, -0.8727271556854248, -0.2216796875, 0.343505859375, -1.395751953125
70, 912080058, -5.015854835510254, -1.2903943061828613, 8.212241172790527, -0.16978657245635986, -0.952459454536438, -0.8788613080978394, -0.22119140625, 0.342041015625, -1.394287109375
71, 912096725, -5.02483606338501, -1.287845253944397, 8.202733039855957, -0.14224013686180115, -0.9774957895278931, -1.0203970670700073, -0.2197265625, 0.343017578125, -1.395263671875
72, 912113392, -5.017343521118164, -1.3079248666763306, 8.176040649414062, -0.129638671875, -0.9010418653488159, -0.9127981066703796, -0.22216796875, 0.344970703125, -1.397216796875
73, 912130059, -5.006740093231201, -1.2949140071868896, 8.195079803466797, -0.15785107016563416, -0.9952198266983032, -0.9902766942977905, -0.22216796875, 0.343505859375, -1.396240234375
74, 912146726, -5.008874893188477, -1.315980315208435, 8.19713306427002, -0.22553260624408722, -0.8249081969261169, -0.832220733165741, -0.2197265625, 0.343017578125, -1.397705078125
75, 912163393, -4.999423980712891, -1.2896121740341187, 8.200654029846191, -0.1390257477760315, -0.8114103078842163, -0.875237226486206, -0.22119140625, 0.341552734375, -1.396240234375
76, 912180060, -5.0098876953125, -1.2932391166687012, 8.21176528930664, -0.2620691955089569, -0.734149694442749, -0.8503544926643372, -0.2236328125, 0.343017578125, -1.3984375
77, 912196727, -5.01222562789917, -1.2947098016738892, 8.193531036376953, -0.23513740301132202, -0.6053818464279175, -0.9104547500610352, -0.22119140625, 0.343505859375, -1.395751953125
78, 912213394, -5.009660243988037, -1.2896310091018677, 8.19014835357666, -0.22416232526302338, -0.7560099959373474, -0.9643693566322327, -0.2197265625, 0.342041015625, -1.399169921875
79, 912230061, -5.018657684326172, -1.2989870309829712, 8.203229904174805, -0.31114304065704346, -0.7222909331321716, -0.9003504514694214, -0.2216796875, 0.343017578125, -1.396728515625
80, 912246728, -5.014815807342529, -1.3037428855895996, 8.209586143493652, -0.2759896218776703, -0.7334708571434021, -1.0298610925674438, -0.22119140625, 0.342041015625, -1.396728515625
81, 912263395, -5.004561901092529, -1.3272968530654907, 8.195566177368164, -0.25482073426246643, -0.7461107969284058, -0.785208523273468, -0.2197265625, 0.344970703125, -1.395263671875
82, 912280062, -5.014267444610596, -1.2976442575454712, 8.166196823120117, -0.14276517927646637, -0.7857463955879211, -0.788781464099884, -0.220703125, 0.343017578125, -1.400390625
83, 912296729, -5.012753009796143, -1.3081663846969604, 8.204792976379395, -0.21293115615844727, -0.7625412940979004, -0.8682320713996887, -0.22119140625, 0.342041015625, -1.396728515625
84, 912313396, -5.015065670013428, -1.3078746795654297, 8.207754135131836, -0.21476249396800995, -0.7079222202301025, -0.8818965554237366, -0.22265625, 0.343505859375, -1.39892578125
85, 912330063, -5.011247634887695, -1.2909424304962158, 8.183005332946777, -0.17804667353630066, -0.7426274418830872, -0.8786948323249817, -0.21923828125, 0.341064453125, -1.399658203125
86, 912346730, -5.007906436920166, -1.2946679592132568, 8.1949462890625, -0.23821090161800385, -0.7990137934684753, -0.8629815578460693, -0.21875, 0.342529296875, -1.396728515625
87, 912363397, -5.013168811798096, -1.2994152307510376, 8.191513061523438, -0.19222331047058105, -0.8244727849960327, -0.866669774055481, -0.22216796875, 0.342041015625, -1.396728515625
88, 912380064, -5.014555931091309, -1.298520565032959, 8.191142082214355, -0.19121159613132477, -0.8078885674476624, -0.8338214159011841, -0.22216796875, 0.341552734375, -1.397216796875
89, 912396731, -5.028552055358887, -1.3228222131729126, 8.195927619934082, -0.14426353573799133, -0.8600744009017944, -0.8622899055480957, -0.22119140625, 0.344482421875, -1.395751953125
90, 912413398, -5.020431041717529, -1.3064661026000977, 8.190378189086914, -0.0384574718773365, -0.9173572659492493, -0.8630327582359314, -0.2216796875, 0.342529296875, -1.396240234375
91, 912430065, -5.024026393890381, -1.2925477027893066, 8.214865684509277, 0.2539435029029846, -1.1219899654388428, -0.6078022122383118, -0.22314453125, 0.343017578125, -1.39892578125
92, 912446732, -4.987246990203857, -1.3207985162734985, 8.202960014343262, -0.14918117225170135, -0.9309576749801636, -0.8479853272438049, -0.22265625, 0.342041015625, -1.398193359375
93, 912463399, -5.020938873291016, -1.2719438076019287, 8.223341941833496, -0.17712463438510895, -0.8910914063453674, -0.9511403441429138, -0.2216796875, 0.343505859375, -1.396240234375
94, 912480066, -5.006590366363525, -1.2902917861938477, 8.194594383239746, -0.2609294056892395, -0.9353758692741394, -0.9668538570404053, -0.22119140625, 0.343017578125, -1.397705078125
95, 912496733, -4.987327575683594, -1.3182165622711182, 8.202167510986328, -0.1962178647518158, -0.8993158936500549, -0.9080118536949158, -0.22119140625, 0.343017578125, -1.397705078125
96, 912513400, -5.012404918670654, -1.3015644550323486, 8.197925567626953, -0.1907377690076828, -0.82574063539505, -0.7513356804847717, -0.21923828125, 0.342529296875, -1.397705078125
97, 912530067, -5.005034446716309, -1.2901071310043335, 8.196534156799316, -0.19463089108467102, -0.7555617094039917, -0.7960681915283203, -0.22314453125, 0.343505859375, -1.39892578125
98, 912546734, -4.999754905700684, -1.2935470342636108, 8.204026222229004, -0.23926104605197906, -0.76845782995224, -0.9745376706123352, -0.22265625, 0.344482421875, -1.3984375
99, 912563401, -5.021914958953857, -1.3084076642990112, 8.186314582824707, -0.30891475081443787, -0.7639243602752686, -0.9858968257904053, -0.2216796875, 0.343505859375, -1.397705078125
100, 912580068, -5.013824939727783, -1.2872142791748047, 8.208860397338867, -0.2393762767314911, -0.8183257579803467, -0.9432260990142822, -0.2216796875, 0.343994140625, -1.398681640625
101, 912596735, -4.993989944458008, -1.3121201992034912, 8.188923835754395, -0.19642379879951477, -0.9194191098213196, -0.9129518866539001, -0.2216796875, 0.343017578125, -1.39892578125
102, 912613402, -5.014223098754883, -1.2905994653701782, 8.21099853515625, -0.21601752936840057, -0.877964973449707, -0.875365138053894, -0.2216796875, 0.343994140625, -1.398193359375
103, 912630069, -5.005514144897461, -1.296764850616455, 8.196822166442871, -0.2551921308040619, -0.7042211890220642, -0.8726630806922913, -0.22119140625, 0.343017578125, -1.397705078125
104, 912646736, -5.009486198425293, -1.3002039194107056, 8.211410522460938, -0.3103106617927551, -0.7271189093589783, -0.861483097076416, -0.22021484375, 0.343017578125, -1.396728515625
105, 912663403, -5.022065162658691, -1.2876331806182861, 8.181195259094238, -0.3097599744796753, -0.6956409811973572, -0.9312393069267273, -0.2216796875, 0.343017578125, -1.397216796875
106, 912680070, -5.032664775848389, -1.306706190109253, 8.20259952545166, -0.37235745787620544, -0.8050327897071838, -0.9015414118766785, -0.22119140625, 0.343505859375, -1.397705078125
107, 912696737, -5.011330604553223, -1.291178584098816, 8.19359302520752, -0.2573307752609253, -0.8151625394821167, -0.9317003488540649, -0.22119140625, 0.341552734375, -1.396728515625
108, 912713404, -5.0154595375061035, -1.3145463466644287, 8.211982727050781, -0.20105968415737152, -0.8935245871543884, -0.9639723300933838, -0.21826171875, 0.343017578125, -1.395263671875
109, 912730071, -4.99908971786499, -1.3118468523025513, 8.214484214782715, -0.19423390924930573, -0.8201698660850525, -0.9164864420890808, -0.22314453125, 0.342041015625, -1.39892578125
110, 912746738, -5.0029802322387695, -1.3229846954345703, 8.193352699279785, -0.10882836580276489, -0.7817124128341675, -0.8857511878013611, -0.21923828125, 0.343994140625, -1.397705078125
111, 912763405, -5.021256923675537, -1.2870697975158691, 8.191902160644531, -0.10275173932313919, -0.7440937161445618, -0.8032462000846863, -0.2216796875, 0.344482421875, -1.396240234375
112, 912780072, -5.020872592926025, -1.2795716524124146, 8.204931259155273, -0.25506407022476196, -0.8613295555114746, -0.9218266606330872, -0.21923828125, 0.343017578125, -1.399169921875
113, 912796739, -5.010838508605957, -1.3062185049057007, 8.223970413208008, -0.11411739140748978, -0.8589732050895691, -0.9111717939376831, -0.2236328125, 0.343505859375, -1.3974609375
114, 912813406, -4.99574613571167, -1.3171664476394653, 8.235513687133789, -0.12928009033203125, -0.8972511291503906, -0.8250234127044678, -0.22265625, 0.344482421875, -1.396240234375
115, 912830073, -5.025301456451416, -1.3242769241333008, 8.187191009521484, -0.1346331536769867, -0.8778752684593201, -0.840916097164154, -0.21923828125, 0.342529296875, -1.400146484375
116, 912846740, -5.012943267822266, -1.302164912223816, 8.207833290100098, -0.20401795208454132, -0.8882611989974976, -0.8679503202438354, -0.2216796875, 0.343505859375, -1.39892578125
117, 912863407, -5.008172988891602, -1.3082565069198608, 8.183171272277832, -0.19210806488990784, -0.9067023992538452, -0.9589906930923462, -0.2216796875, 0.344970703125, -1.398193359375
118, 912880074, -5.000545501708984, -1.314591407775879, 8.21049690246582, -0.26482251286506653, -0.8751347661018372, -0.9675580859184265, -0.2216796875, 0.343505859375, -1.397705078125
119, 912896741, -5.022491455078125, -1.307219386100769, 8.192048072814941, -0.2916902005672455, -0.8763383626937866, -0.9084696173667908, -0.21826171875, 0.343505859375, -1.398193359375
120, 912913408, -5.012403964996338, -1.3036363124847412, 8.208313941955566, -0.26871564984321594, -0.9417790174484253, -0.8845217227935791, -0.220703125, 0.342529296875, -1.397216796875
121, 912930075, -5.001149654388428, -1.3088146448135376, 8.21104907989502, -0.26968249678611755, -0.9128173589706421, -1.0316346883773804, -0.22314453125, 0.344482421875, -1.39794921875
122, 912946742, -4.999871253967285, -1.321984887123108, 8.217156410217285, -0.201456680893898, -0.8213480114936829, -0.9244263172149658, -0.22265625, 0.343994140625, -1.39794921875
123, 912963409, -5.013319969177246, -1.2933170795440674, 8.206836700439453, -0.34939563274383545, -0.7261712551116943, -0.9363619685173035, -0.2216796875, 0.343505859375, -1.398193359375
124, 912980076, -5.005352973937988, -1.303774356842041, 8.209878921508789, -0.5786932706832886, -0.6445819735527039, -0.8754420280456543, -0.22021484375, 0.341552734375, -1.396728515625
125, 912996743, -5.0130743980407715, -1.312261700630188, 8.197758674621582, -0.508732259273529, -0.7409753799438477, -0.9557250142097473, -0.2216796875, 0.342529296875, -1.398681640625
126, 913013410, -5.012165069580078, -1.2898709774017334, 8.195741653442383, -0.5156860947608948, -0.8069921731948853, -0.8896698951721191, -0.22216796875, 0.343017578125, -1.3984375
127, 913030077, -4.996394157409668, -1.3523590564727783, 8.204814910888672, -0.2855175733566284, -0.796836793422699, -0.8495604991912842, -0.21923828125, 0.345703125, -1.397216796875
128, 913046744, -4.996194362640381, -1.3014885187149048, 8.195289611816406, -0.2538602948188782, -0.7562277913093567, -0.7999230623245239, -0.2236328125, 0.343994140625, -1.3994140625
129, 913063411, -5.002262115478516, -1.3120412826538086, 8.220239639282227, -0.3566568195819855, -0.6265122294425964, -0.8579869866371155, -0.22119140625, 0.343505859375, -1.398193359375
130, 913080078, -4.999397277832031, -1.3236583471298218, 8.207066535949707, -0.3221949636936188, -0.5849684476852417, -0.9121578931808472, -0.22265625, 0.34716796875, -1.396240234375
131, 913096745, -5.010049343109131, -1.3137643337249756, 8.217350959777832, -0.22554542124271393, -0.5413244366645813, -0.8457697629928589, -0.220703125, 0.344482421875, -1.398193359375
132, 913113412, -5.007686614990234, -1.3004486560821533, 8.221034049987793, -0.23312678933143616, -0.7938272953033447, -0.9020920991897583, -0.2216796875, 0.344482421875, -1.3994140625
133, 913130079, -5.012154579162598, -1.304384708404541, 8.189855575561523, -0.1268981248140335, -0.733073890209198, -0.8954968452453613, -0.22216796875, 0.34521484375, -1.398193359375
134, 913146746, -5.000438690185547, -1.2935892343521118, 8.213181495666504, -0.2953912913799286, -0.7855159640312195, -0.9895467162132263, -0.22265625, 0.342041015625, -1.39892578125
135, 913163413, -5.018100261688232, -1.3032983541488647, 8.184207916259766, -0.251516729593277, -0.800268828868866, -0.9092252850532532, -0.2216796875, 0.343994140625, -1.395751953125
136, 913180080, -5.011911392211914, -1.3271992206573486, 8.186347007751465, -0.2001248449087143, -0.7929051518440247, -0.9092381000518799, -0.2216796875, 0.343994140625, -1.396728515625
137, 913196747, -5.0152130126953125, -1.298017144203186, 8.199615478515625, -0.1768684983253479, -0.8609069585800171, -0.8968799114227295, -0.2216796875, 0.343994140625, -1.39892578125
138, 913213414, -5.005014419555664, -1.3139485120773315, 8.201406478881836, -0.21728534996509552, -0.8732266426086426, -0.8293392658233643, -0.220703125, 0.343017578125, -1.39990234375
139, 913230081, -4.99948263168335, -1.312437891960144, 8.202201843261719, -0.1696329116821289, -0.9105954766273499, -0.895317554473877, -0.22216796875, 0.344970703125, -1.398193359375
140, 913246748, -5.0050859451293945, -1.3145936727523804, 8.215126991271973, -0.16908222436904907, -0.7721332311630249, -0.8460642695426941, -0.2216796875, 0.343505859375, -1.395751953125
141, 913263415, -5.0120134353637695, -1.3189688920974731, 8.208091735839844, -0.27920404076576233, -0.7364547252655029, -0.9399989247322083, -0.2236328125, 0.344970703125, -1.396240234375
142, 913280082, -5.008325099945068, -1.301885724067688, 8.220685958862305, -0.2763866186141968, -0.8161103129386902, -0.941638171672821, -0.22216796875, 0.344970703125, -1.398193359375
143, 913296749, -5.0119547843933105, -1.3164175748825073, 8.172956466674805, -0.19816544651985168, -0.8734314441680908, -0.965406596660614, -0.220703125, 0.343505859375, -1.395263671875
144, 913313416, -5.002530574798584, -1.312955379486084, 8.204200744628906, -0.06185467541217804, -0.8892601728439331, -0.9259247779846191, -0.220703125, 0.345703125, -1.397216796875
145, 913330083, -4.997840404510498, -1.3111153841018677, 8.223752975463867, -0.09584272652864456, -0.9670843482017517, -0.8876593112945557, -0.220703125, 0.3447265625, -1.398681640625
146, 913346750, -5.013370037078857, -1.3021517992019653, 8.179594039916992, -0.16438229382038116, -0.9336468577384949, -0.8720227479934692, -0.22119140625, 0.344970703125, -1.397216796875
147, 913363417, -5.012670040130615, -1.3087918758392334, 8.216598510742188, -0.10612622648477554, -1.0397602319717407, -0.9249643087387085, -0.220703125, 0.3447265625, -1.400390625
148, 913380084, -5.014532566070557, -1.2968356609344482, 8.205201148986816, -0.17804667353630066, -1.0119577646255493, -0.961679995059967, -0.22314453125, 0.344482421875, -1.39892578125
149, 913396751, -4.989011287689209, -1.3316981792449951, 8.198741912841797, -0.11839470267295837, -1.013597011566162, -0.8742894530296326, -0.22216796875, 0.344482421875, -1.398193359375
150, 913413418, -5.03578519821167, -1.3063944578170776, 8.232234001159668, -0.20688655972480774, -1.0566518306732178, -0.8824599385261536, -0.2216796875, 0.34521484375, -1.39892578125
151, 913430085, -4.980410575866699, -1.317656397819519, 8.193662643432617, -0.021463444456458092, -1.0744783878326416, -0.8256125450134277, -0.2197265625, 0.34423828125, -1.400146484375
152, 913446752, -5.011410713195801, -1.2852444648742676, 8.204055786132812, -0.07656916975975037, -0.9040899276733398, -0.8848035931587219, -0.22216796875, 0.343994140625, -1.398193359375
153, 913463419, -5.006507396697998, -1.2940905094146729, 8.206235885620117, -0.19830632209777832, -0.8987239599227905, -0.9793015718460083, -0.2216796875, 0.344970703125, -1.398193359375
154, 913480086, -5.015073776245117, -1.3166879415512085, 8.21710205078125, -0.22954101860523224, -0.9162816405296326, -1.0425138473510742, -0.21875, 0.342041015625, -1.397705078125
155, 913496753, -5.006208896636963, -1.3153812885284424, 8.211021423339844, -0.20959512889385223, -0.996711790561676, -1.0605387687683105, -0.220703125, 0.344482421875, -1.398193359375
156, 913513420, -5.006047248840332, -1.3262193202972412, 8.215468406677246, -0.22892633080482483, -0.9908913969993591, -0.8474602699279785, -0.2236328125, 0.343994140625, -1.396728515625
157, 913530087, -5.006187438964844, -1.3002864122390747, 8.215330123901367, -0.21381480991840363, -0.9425729513168335, -0.9004272818565369, -0.22314453125, 0.343994140625, -1.396240234375
158, 913546754, -5.008617877960205, -1.3096561431884766, 8.199063301086426, -0.07548514753580093, -0.9173098802566528, -0.9216130375862122, -0.2216796875, 0.343505859375, -1.398681640625
159, 913563421, -4.998156547546387, -1.3152849674224854, 8.21177864074707, -0.20505528151988983, -0.8925513029098511, -0.8671179413795471, -0.22265625, 0.344482421875, -1.397705078125
160, 913580088, -5.001708030700684, -1.3071764707565308, 8.224550247192383, -0.14212487637996674, -0.9635882377624512, -0.8748018145561218, -0.22216796875, 0.344970703125, -1.398193359375
161, 913596755, -4.990199565887451, -1.3089115619659424, 8.220870018005371, -0.016776317730545998, -0.8905150890350342, -0.8846753835678101, -0.22216796875, 0.343505859375, -1.397705078125
162, 913613422, -4.991286754608154, -1.3154432773590088, 8.215094566345215, 0.026515549048781395, -1.0080645084381104, -0.8325408101081848, -0.22314453125, 0.345947265625, -1.395263671875
163, 913630089, -4.9996819496154785, -1.2970291376113892, 8.20516300201416, -0.06938480585813522, -0.908636212348938, -0.8243703842163086, -0.22265625, 0.342041015625, -1.3984375
164, 913646756, -4.980407238006592, -1.315678596496582, 8.180267333984375, -0.08426578342914581, -1.1078262329101562, -0.8842912316322327, -0.22119140625, 0.34521484375, -1.39892578125
165, 913663423, -4.997518062591553, -1.303606390953064, 8.219998359680176, -0.1066896989941597, -0.8517246246337891, -0.8271621465682983, -0.2216796875, 0.344970703125, -1.398193359375
166, 913680090, -5.0043721199035645, -1.3118348121643066, 8.196916580200195, -0.1450575292110443, -0.9608604311943054, -0.9616288542747498, -0.2236328125, 0.343505859375, -1.396728515625
167, 913696757, -4.994837284088135, -1.3012982606887817, 8.225027084350586, -0.15366338193416595, -0.8979300856590271, -0.971092700958252, -0.22412109375, 0.344482421875, -1.396728515625
168, 913713424, -4.988316535949707, -1.3140112161636353, 8.202301979064941, -0.11360512673854828, -0.8586785197257996, -0.868155300617218, -0.2216796875, 0.343505859375, -1.397216796875
169, 913730091, -4.999782562255859, -1.299828052520752, 8.211955070495605, -0.11569257080554962, -0.7661783695220947, -0.8982246518135071, -0.22021484375, 0.343017578125, -1.39990234375
170, 913746758, -5.002889633178711, -1.3181769847869873, 8.196127891540527, -0.23914578557014465, -0.8451679348945618, -0.9543035626411438, -0.22119140625, 0.343505859375, -1.397216796875
171, 913763425, -4.991593837738037, -1.3098547458648682, 8.208739280700684, -0.15990009903907776, -0.743037223815918, -0.8946388363838196, -0.2197265625, 0.344482421875, -1.397705078125
172, 913780092, -5.008124828338623, -1.309156894683838, 8.223082542419434, -0.17425599694252014, -0.7652049660682678, -0.885994553565979, -0.2197265625, 0.343017578125, -1.396240234375
173, 913796759, -4.9897541999816895, -1.311905860900879, 8.209002494812012, -0.2258143573999405, -0.7610557079315186, -0.8442457318305969, -0.22265625, 0.343994140625, -1.3984375
174, 913813426, -4.991033554077148, -1.3058756589889526, 8.231608390808105, -0.3332340121269226, -0.7045284509658813, -0.8519936203956604, -0.22314453125, 0.345458984375, -1.3974609375
175, 913830093, -5.001789569854736, -1.3092880249023438, 8.208133697509766, -0.26870283484458923, -0.6673517227172852, -0.8588578104972839, -0.2197265625, 0.342041015625, -1.399169921875
176, 913846760, -5.004856109619141, -1.2941936254501343, 8.207529067993164, -0.36044755578041077, -0.8693335056304932, -0.9219675660133362, -0.22021484375, 0.343994140625, -1.400390625
177, 913863427, -4.9833855628967285, -1.3205101490020752, 8.214821815490723, -0.18740811944007874, -0.8122428059577942, -0.9189324975013733, -0.22216796875, 0.345458984375, -1.397216796875
178, 913880094, -5.006165504455566, -1.3193373680114746, 8.210856437683105, -0.27675801515579224, -0.7860793471336365, -0.8423760533332825, -0.22265625, 0.34619140625, -1.397705078125
179, 913896761, -5.005216598510742, -1.3153877258300781, 8.214143753051758, -0.13205906748771667, -0.7032223343849182, -0.8900413513183594, -0.2216796875, 0.34521484375, -1.39892578125
180, 913913428, -5.016366958618164, -1.3046791553497314, 8.199915885925293, -0.2527717649936676, -0.7482622265815735, -0.9323279857635498, -0.22216796875, 0.345703125, -1.396728515625
181, 913930095, -4.994718551635742, -1.3150122165679932, 8.211712837219238, -0.20235314965248108, -0.8013830184936523, -0.9614623785018921, -0.22119140625, 0.34619140625, -1.397705078125
182, 913946762, -4.994065284729004, -1.319411277770996, 8.19249439239502, -0.23789073526859283, -0.751463770866394, -0.8553104400634766, -0.22314453125, 0.343505859375, -1.3974609375
183, 913963429, -5.00563907623291, -1.2970234155654907, 8.198546409606934, -0.3207094371318817, -0.7178856134414673, -0.8933197259902954, -0.22021484375, 0.3447265625, -1.398193359375
184, 913980096, -4.985162734985352, -1.3044047355651855, 8.211181640625, -0.2486736923456192, -0.7208182215690613, -0.7673820853233337, -0.22265625, 0.343017578125, -1.39794921875
185, 913996763, -4.988589763641357, -1.306639552116394, 8.194368362426758, -0.20417161285877228, -0.6369622349739075, -0.841069757938385, -0.21875, 0.34375, -1.399658203125
186, 914013430, -5.002748966217041, -1.2948166131973267, 8.190770149230957, -0.43444257974624634, -0.5742238759994507, -0.9061132073402405, -0.22216796875, 0.344970703125, -1.396728515625
187, 914030097, -5.011109352111816, -1.3092294931411743, 8.19986629486084, -0.49444034695625305, -0.6208390593528748, -1.029528021812439, -0.22216796875, 0.34521484375, -1.3994140625
188, 914046764, -5.011387348175049, -1.3140236139297485, 8.205492973327637, -0.36809292435646057, -0.7094846367835999, -1.0593796968460083, -0.22119140625, 0.3466796875, -1.39990234375
189, 914063431, -5.005134105682373, -1.3218623399734497, 8.207137107849121, -0.47446244955062866, -0.7442795038223267, -0.9919670820236206, -0.220703125, 0.34521484375, -1.398681640625
190, 914080098, -5.006415843963623, -1.3070906400680542, 8.215689659118652, -0.4796105921268463, -0.7556771039962769, -1.0466501712799072, -0.22216796875, 0.344970703125, -1.397216796875
191, 914096765, -5.013454437255859, -1.3190202713012695, 8.216115951538086, -0.3049960434436798, -0.8685266971588135, -1.0621330738067627, -0.22119140625, 0.34521484375, -1.4013671875
192, 914113432, -4.994128704071045, -1.3306845426559448, 8.206228256225586, -0.39999353885650635, -0.8970848321914673, -1.0454847812652588, -0.22021484375, 0.34619140625, -1.397705078125
193, 914130099, -4.987843990325928, -1.3480948209762573, 8.193683624267578, -0.3784276247024536, -1.0081926584243774, -0.9757030010223389, -0.22265625, 0.343505859375, -1.39990234375
194, 914146766, -4.999168395996094, -1.2953135967254639, 8.23150634765625, -0.27883264422416687, -0.7949029207229614, -0.9603096842765808, -0.22216796875, 0.34619140625, -1.39794921875
195, 914163433, -5.006842613220215, -1.3465397357940674, 8.212198257446289, -0.3728184700012207, -0.7859513759613037, -1.0504024028778076, -0.220703125, 0.3466796875, -1.398681640625
196, 914180100, -5.0043253898620605, -1.3330293893814087, 8.207831382751465, -0.2145063728094101, -0.7781522274017334, -0.939422607421875, -0.2216796875, 0.34716796875, -1.398193359375
197, 914196767, -5.000856399536133, -1.3189512491226196, 8.17982292175293, -0.28350698947906494, -0.7801756858825684, -0.906612753868103, -0.2236328125, 0.345703125, -1.3984375
198, 914213434, -5.009098052978516, -1.3159340620040894, 8.196913719177246, -0.22015397250652313, -0.8201955556869507, -1.006604790687561, -0.2216796875, 0.34521484375, -1.397216796875
199, 914230101, -4.994147300720215, -1.3288012742996216, 8.193548202514648, -0.1656373143196106, -0.9529460668563843, -0.9962315559387207, -0.220703125, 0.344482421875, -1.399169921875
200, 914246768, -5.013128757476807, -1.3137478828430176, 8.201285362243652, -0.19153177738189697, -0.9675582051277161, -0.8891961574554443, -0.22119140625, 0.34521484375, -1.40087890625
201, 914263435, -4.998782634735107, -1.3456616401672363, 8.192420959472656, -0.12246712297201157, -0.8775935173034668, -0.919073224067688, -0.22119140625, 0.34521484375, -1.398681640625
202, 914280102, -4.984487056732178, -1.3274565935134888, 8.218424797058105, -0.10574203729629517, -0.8510460257530212, -0.8836637735366821, -0.22119140625, 0.344970703125, -1.397216796875
203, 914296769, -4.98247766494751, -1.3196393251419067, 8.198017120361328, -0.08634041249752045, -0.8356399536132812, -0.850969135761261, -0.22265625, 0.344970703125, -1.3984375
204, 914313436, -4.999945640563965, -1.313461184501648, 8.222250938415527, -0.1732058823108673, -0.7978867888450623, -0.9345818161964417, -0.22216796875, 0.344970703125, -1.39892578125
205, 914330103, -4.995722770690918, -1.3271540403366089, 8.199603080749512, -0.23318442702293396, -0.8063710331916809, -1.0344135761260986, -0.220703125, 0.34521484375, -1.400390625
206, 914346770, -4.99714994430542, -1.3448244333267212, 8.19251823425293, -0.23041187226772308, -0.846602201461792, -0.8483054041862488, -0.2197265625, 0.343017578125, -1.397216796875
207, 914363437, -5.014115333557129, -1.3227965831756592, 8.211908340454102, -0.12921607494354248, -0.878976583480835, -0.9360288977622986, -0.22119140625, 0.344482421875, -1.398681640625
208, 914380104, -5.002674579620361, -1.3386260271072388, 8.208662033081055, -0.15030813217163086, -0.8381115794181824, -0.8638523817062378, -0.22216796875, 0.34716796875, -1.39892578125
209, 914396771, -4.988308906555176, -1.3262304067611694, 8.208675384521484, -0.1391409933567047, -0.7368260622024536, -0.8256765604019165, -0.22021484375, 0.3447265625, -1.398193359375
210, 914413438, -5.002205848693848, -1.3185008764266968, 8.182063102722168, -0.14212484657764435, -0.8481773138046265, -0.8149448037147522, -0.22119140625, 0.344482421875, -1.398681640625
211, 914430105, -5.000987529754639, -1.3150182962417603, 8.196032524108887, -0.042773205786943436, -0.8768379092216492, -0.8860328793525696, -0.22265625, 0.345703125, -1.397705078125
212, 914446772, -4.994980812072754, -1.3233249187469482, 8.219280242919922, -0.11514189094305038, -0.8834331631660461, -0.888991117477417, -0.22314453125, 0.344482421875, -1.3984375
213, 914463439, -4.998132228851318, -1.337096929550171, 8.184850692749023, -0.06555569916963577, -0.8557330369949341, -0.7879618406295776, -0.2216796875, 0.343017578125, -1.398193359375
214, 914480106, -5.015089988708496, -1.3384922742843628, 8.20694637298584, -0.13200783729553223, -0.9113767147064209, -0.8507642149925232, -0.2236328125, 0.344970703125, -1.39697265625
215, 914496773, -4.995482444763184, -1.3135312795639038, 8.227734565734863, -0.018428336828947067, -0.7881155610084534, -0.8033807873725891, -0.22021484375, 0.34423828125, -1.399658203125
216, 914513440, -5.0075249671936035, -1.3235160112380981, 8.210518836975098, -0.12002111226320267, -0.8548879623413086, -0.9200978875160217, -0.22216796875, 0.3447265625, -1.3994140625
217, 914530107, -4.993948459625244, -1.3256462812423706, 8.185806274414062, -0.14733704924583435, -0.9192909598350525, -0.7886790037155151, -0.22119140625, 0.34521484375, -1.3994140625
218, 914546774, -4.998399257659912, -1.317760944366455, 8.21359634399414, -0.18144036829471588, -0.8921543955802917, -0.8686931729316711, -0.21923828125, 0.34619140625, -1.398681640625
219, 914563441, -4.9897260665893555, -1.3016741275787354, 8.218090057373047, -0.11004497110843658, -0.9961420297622681, -0.8296082019805908, -0.22314453125, 0.343994140625, -1.3984375
220, 914580108, -5.006300926208496, -1.3108282089233398, 8.182951927185059, -0.17375655472278595, -0.8019337058067322, -0.9742431640625, -0.22265625, 0.345458984375, -1.397705078125
221, 914596775, -4.987281799316406, -1.3309108018875122, 8.181902885437012, -0.2050163447856903, -0.8598315119743347, -0.8889548778533936, -0.22021484375, 0.3466796875, -1.397216796875
222, 914613442, -4.983678340911865, -1.3296244144439697, 8.187334060668945, -0.2715586721897125, -0.8629047274589539, -0.9438023567199707, -0.22265625, 0.345703125, -1.396240234375
223, 914630109, -4.990675926208496, -1.3136953115463257, 8.189090728759766, -0.1903407722711563, -0.9438279867172241, -0.8288525938987732, -0.2216796875, 0.345703125, -1.396240234375
224, 914646776, -5.007234573364258, -1.3025403022766113, 8.189972877502441, -0.23055268824100494, -0.7691365480422974, -0.9586705565452576, -0.220703125, 0.34423828125, -1.4013671875
225, 914663443, -4.9940667152404785, -1.3420662879943848, 8.212331771850586, -0.2561013996601105, -0.8583456873893738, -1.0234450101852417, -0.22265625, 0.34716796875, -1.3974609375
226, 914680110, -4.982475280761719, -1.3330291509628296, 8.194647789001465, -0.17108003795146942, -0.8479724526405334, -0.8685522079467773, -0.2216796875, 0.34619140625, -1.397216796875
227, 914696777, -4.991112232208252, -1.3289146423339844, 8.221323013305664, -0.1958218812942505, -0.7981684803962708, -0.8147527575492859, -0.22216796875, 0.344482421875, -1.397705078125
228, 914713444, -4.992001533508301, -1.3363313674926758, 8.182124137878418, -0.18220874667167664, -0.7600569128990173, -0.84596186876297, -0.22314453125, 0.344482421875, -1.39794921875
229, 914730111, -4.989964485168457, -1.3167355060577393, 8.229223251342773, -0.18456512689590454, -0.7479292750358582, -0.8837022185325623, -0.22412109375, 0.345703125, -1.3984375
230, 914746778, -4.999172210693359, -1.325803279876709, 8.186829566955566, -0.11521872878074646, -0.7145175337791443, -0.8894265294075012, -0.22119140625, 0.343994140625, -1.397705078125
231, 914763445, -4.999505043029785, -1.3068978786468506, 8.209978103637695, -0.12788420915603638, -0.5261872410774231, -0.9234530329704285, -0.2216796875, 0.345703125, -1.397216796875
232, 914780112, -5.016868591308594, -1.3341163396835327, 8.218914031982422, -0.2971329391002655, -0.7155932784080505, -0.9911859631538391, -0.22265625, 0.344482421875, -1.39794921875
233, 914796779, -5.000761032104492, -1.3368098735809326, 8.212800979614258, -0.20810319483280182, -0.8014086484909058, -0.9136306643486023, -0.22412109375, 0.345458984375, -1.396728515625
234, 914813446, -5.010230541229248, -1.336312174797058, 8.19553279876709, -0.23301152884960175, -0.8385981917381287, -0.8772093057632446, -0.22021484375, 0.344482421875, -1.396728515625
235, 914830113, -4.988879680633545, -1.3149439096450806, 8.205492973327637, -0.17403829097747803, -0.8975970149040222, -0.8278409242630005, -0.22314453125, 0.344482421875, -1.39990234375
236, 914846780, -4.997146129608154, -1.3271726369857788, 8.207478523254395, -0.22147302329540253, -0.8697689175605774, -0.9163712859153748, -0.2197265625, 0.3447265625, -1.398193359375
237, 914863447, -4.980042457580566, -1.346145749092102, 8.222309112548828, -0.31200751662254333, -0.7915669083595276, -0.8762809634208679, -0.2216796875, 0.34619140625, -1.398193359375
238, 914880114, -5.001993656158447, -1.330506682395935, 8.218905448913574, -0.21004974842071533, -0.8124476671218872, -0.9600664377212524, -0.22119140625, 0.343505859375, -1.397216796875
239, 914896781, -4.9923248291015625, -1.3284578323364258, 8.211130142211914, -0.23303714394569397, -0.8075684309005737, -0.9091611504554749, -0.2216796875, 0.344970703125, -1.396728515625
240, 914913448, -4.987808704376221, -1.3303967714309692, 8.219600677490234, -0.28554317355155945, -0.7662679553031921, -0.9031293392181396, -0.2216796875, 0.345703125, -1.400390625
241, 914930115, -4.995129108428955, -1.3257594108581543, 8.19808578491211, -0.3016279637813568, -0.7539354562759399, -0.9224798083305359, -0.2216796875, 0.34619140625, -1.397705078125
242, 914946782, -4.9924421310424805, -1.3230352401733398, 8.187277793884277, -0.2942642867565155, -0.7040290832519531, -0.900619387626648, -0.22265625, 0.34521484375, -1.39990234375
243, 914963449, -5.010824680328369, -1.3140381574630737, 8.207907676696777, -0.3688485026359558, -0.7724790573120117, -0.9841424226760864, -0.22412109375, 0.345703125, -1.3974609375
244, 914980116, -4.996666431427002, -1.3368299007415771, 8.20205020904541, -0.2705213725566864, -0.8627254366874695, -0.9814530611038208, -0.22119140625, 0.345703125, -1.397216796875
245, 914996783, -4.981728553771973, -1.3145376443862915, 8.171812057495117, -0.23534227907657623, -0.8460001945495605, -0.843592643737793, -0.220703125, 0.34716796875, -1.396240234375
246, 915013450, -5.024115085601807, -1.2882966995239258, 8.205533981323242, -0.17178437113761902, -0.8907840251922607, -0.8986088037490845, -0.22119140625, 0.345703125, -1.396728515625
247, 915030117, -5.004002094268799, -1.3538990020751953, 8.188037872314453, -0.2705085575580597, -0.7718899250030518, -0.9341848492622375, -0.22265625, 0.34619140625, -1.397705078125
248, 915046784, -5.005111217498779, -1.3212296962738037, 8.182125091552734, -0.250581830739975, -0.6640732884407043, -0.8943057656288147, -0.22119140625, 0.3466796875, -1.3994140625
249, 915063451, -4.99300479888916, -1.3425313234329224, 8.178773880004883, -0.23191018402576447, -0.7343161106109619, -0.874174177646637, -0.220703125, 0.345703125, -1.400390625
250, 915080118, -5.009134292602539, -1.3181514739990234, 8.214421272277832, -0.17219418287277222, -0.7949286103248596, -0.9156413078308105, -0.22119140625, 0.344970703125, -1.396240234375
251, 915096785, -4.996955394744873, -1.330670714378357, 8.214865684509277, -0.25953349471092224, -0.8439128994941711, -0.9432516694068909, -0.22216796875, 0.343994140625, -1.395751953125
252, 915113452, -4.99229097366333, -1.3542560338974, 8.189225196838379, -0.22642910480499268, -0.8165072798728943, -0.867169201374054, -0.22216796875, 0.345703125, -1.39892578125
253, 915130119, -5.000190734863281, -1.3167649507522583, 8.229079246520996, -0.20902523398399353, -0.8682576417922974, -0.873969316482544, -0.22119140625, 0.34619140625, -1.39892578125
254, 915146786, -4.982995510101318, -1.3269474506378174, 8.232805252075195, -0.32880300283432007, -0.8705499768257141, -0.9633064270019531, -0.21923828125, 0.345703125, -1.399658203125
255, 915163453, -4.99307918548584, -1.3337712287902832, 8.205594062805176, -0.35551705956459045, -0.8842400908470154, -0.9445962905883789, -0.22314453125, 0.343505859375, -1.39794921875
256, 915180120, -4.993271350860596, -1.3257230520248413, 8.202987670898438, -0.2197185605764389, -0.8439128994941711, -0.9743198752403259, -0.22216796875, 0.345703125, -1.3984375
257, 915196787, -4.997395038604736, -1.3335076570510864, 8.180980682373047, -0.18970046937465668, -0.9850133061408997, -0.9196112155914307, -0.2197265625, 0.34716796875, -1.399169921875
258, 915213454, -4.987500190734863, -1.3190785646438599, 8.20820426940918, -0.1467863768339157, -0.9272565841674805, -0.8885045647621155, -0.22216796875, 0.344970703125, -1.397705078125
259, 915230121, -4.999505996704102, -1.327641487121582, 8.202383041381836, -0.09732826054096222, -0.9521650075912476, -0.9818500280380249, -0.22265625, 0.343994140625, -1.39990234375
260, 915246788, -4.996434211730957, -1.3361295461654663, 8.207237243652344, -0.1701323390007019, -0.8893496990203857, -0.8962907195091248, -0.22021484375, 0.345703125, -1.397216796875
261, 915263455, -5.059967517852783, -1.304019570350647, 8.205291748046875, -0.2052217572927475, -1.0367636680603027, -0.9684162735939026, -0.220703125, 0.34619140625, -1.39990234375
262, 915280122, -4.9456586837768555, -1.374992847442627, 8.183034896850586, -0.1509612500667572, -1.1055978536605835, -0.9036545157432556, -0.22265625, 0.344970703125, -1.397216796875
263, 915296789, -4.957122802734375, -1.3158341646194458, 8.176054000854492, -0.056770551949739456, -1.0002912282943726, -0.8386878967285156, -0.2216796875, 0.344482421875, -1.397705078125
264, 915313456, -4.99680757522583, -1.3107095956802368, 8.215059280395508, -0.03373191878199577, -0.8539530038833618, -0.8625844120979309, -0.22119140625, 0.344970703125, -1.398193359375
265, 915330123, -5.0087504386901855, -1.3100625276565552, 8.227620124816895, -0.0966879352927208, -0.9074707627296448, -0.9487840533256531, -0.22021484375, 0.344482421875, -1.397705078125
266, 915346790, -4.967983245849609, -1.335874080657959, 8.20725154876709, -0.10681776702404022, -0.9858713150024414, -0.8944211006164551, -0.22119140625, 0.3447265625, -1.39892578125
267, 915363457, -4.99817419052124, -1.3457236289978027, 8.193256378173828, -0.1244521215558052, -0.9945411682128906, -0.9084311723709106, -0.2216796875, 0.34521484375, -1.3994140625
268, 915380124, -5.004185199737549, -1.334572434425354, 8.19697093963623, -0.2553201913833618, -1.2308950424194336, -0.8583327531814575, -0.22314453125, 0.345703125, -1.3994140625
269, 915396791, -4.983219623565674, -1.3141599893569946, 8.225654602050781, 0.09509354084730148, -1.198085069656372, -0.8147399425506592, -0.22119140625, 0.3447265625, -1.400390625
270, 915413458, -4.998312473297119, -1.3172481060028076, 8.218603134155273, -0.060023363679647446, -1.0999244451522827, -0.9183433651924133, -0.22314453125, 0.344482421875, -1.397216796875
271, 915430125, -4.984443187713623, -1.3400801420211792, 8.235791206359863, -0.296415776014328, -0.9413564205169678, -0.9653042554855347, -0.22216796875, 0.3466796875, -1.39892578125
272, 915446792, -4.981149673461914, -1.3281819820404053, 8.211606979370117, -0.31348660588264465, -0.798194169998169, -0.9711182117462158, -0.220703125, 0.34619140625, -1.40087890625
273, 915463459, -4.9813151359558105, -1.3363866806030273, 8.222807884216309, -0.34569457173347473, -0.8074531555175781, -0.9093788862228394, -0.2216796875, 0.3466796875, -1.3984375
274, 915480126, -4.986502170562744, -1.3189302682876587, 8.191746711730957, -0.38460028171539307, -0.7321774363517761, -0.9991386532783508, -0.22216796875, 0.345703125, -1.39892578125
275, 915496793, -4.973814487457275, -1.325688362121582, 8.216703414916992, -0.2733643054962158, -0.7553569078445435, -1.0052343606948853, -0.22265625, 0.345703125, -1.3994140625
276, 915513460, -4.972465515136719, -1.3247579336166382, 8.208630561828613, -0.3026140630245209, -0.7916757464408875, -0.9762793183326721, -0.22314453125, 0.345703125, -1.39794921875
277, 915530127, -4.97240686416626, -1.3583407402038574, 8.20121955871582, -0.2537706792354584, -0.767548680305481, -1.0587266683578491, -0.22265625, 0.343505859375, -1.39892578125
278, 915546794, -4.984348297119141, -1.3326971530914307, 8.211928367614746, -0.33319559693336487, -0.7575980424880981, -1.0137505531311035, -0.22412109375, 0.345703125, -1.3984375
279, 915563461, -4.989740371704102, -1.327502727508545, 8.231164932250977, -0.24371767044067383, -0.7489922046661377, -0.9556354880332947, -0.22216796875, 0.34521484375, -1.397705078125
280, 915580128, -4.983985900878906, -1.3380248546600342, 8.209794044494629, -0.2798827886581421, -0.8218987584114075, -0.8614576458930969, -0.22265625, 0.3447265625, -1.400390625
281, 915596795, -4.987814426422119, -1.3371351957321167, 8.201406478881836, -0.19455407559871674, -0.8143173456192017, -0.9360033869743347, -0.22265625, 0.344970703125, -1.39892578125
282, 915613462, -4.97825813293457, -1.3509371280670166, 8.197102546691895, -0.1559557318687439, -0.834909975528717, -0.9906992316246033, -0.2216796875, 0.345703125, -1.39892578125
283, 915630129, -4.967189311981201, -1.3561846017837524, 8.210155487060547, -0.07421280443668365, -0.8284556269645691, -0.8614832162857056, -0.2236328125, 0.343994140625, -1.39892578125
284, 915646796, -5.001511573791504, -1.331766963005066, 8.201212882995605, -0.09102018177509308, -0.8509305119514465, -0.8394296765327454, -0.22412109375, 0.34619140625, -1.39697265625
285, 915663463, -4.995333671569824, -1.3303693532943726, 8.188414573669434, -0.21793845295906067, -0.8935502171516418, -0.8925129175186157, -0.2236328125, 0.343994140625, -1.3994140625
286, 915680130, -4.983240604400635, -1.3319859504699707, 8.188262939453125, -0.22731269896030426, -0.7845041751861572, -0.8760823607444763, -0.2216796875, 0.3486328125, -1.398193359375
287, 915696797, -5.006677150726318, -1.3451964855194092, 8.205571174621582, -0.2538730800151825, -0.85504150390625, -0.9507817625999451, -0.224609375, 0.34765625, -1.3974609375
288, 915713464, -5.008810997009277, -1.354498028755188, 8.235197067260742, -0.535548746585846, -1.1973296403884888, -1.0256092548370361, -0.22412109375, 0.34765625, -1.400390625
289, 915730131, -4.9543890953063965, -1.344077229499817, 8.186846733093262, -0.13519664108753204, -1.0534758567810059, -0.9673019647598267, -0.22314453125, 0.34716796875, -1.39990234375
290, 915746798, -4.997684478759766, -1.3316363096237183, 8.242154121398926, -0.12593764066696167, -1.130109190940857, -0.9377578496932983, -0.22412109375, 0.3466796875, -1.3974609375
291, 915763465, -4.956390380859375, -1.3532826900482178, 8.234293937683105, -0.22090955078601837, -1.0728135108947754, -1.0605707168579102, -0.22119140625, 0.34521484375, -1.398681640625
292, 915780132, -4.979450225830078, -1.3344683647155762, 8.217508316040039, -0.26588544249534607, -1.2280648946762085, -0.9189963936805725, -0.22314453125, 0.34716796875, -1.3984375
293, 915796799, -4.97995138168335, -1.3454227447509766, 8.20995044708252, -0.09507433325052261, -0.972936749458313, -1.0278247594833374, -0.22509765625, 0.34619140625, -1.3994140625
294, 915813466, -5.001915454864502, -1.3480349779129028, 8.225812911987305, -0.12218538671731949, -1.067217230796814, -0.9457489848136902, -0.2236328125, 0.34619140625, -1.39990234375
295, 915830133, -4.9872517585754395, -1.3295559883117676, 8.229896545410156, -0.10284779220819473, -1.1464627981185913, -1.1028059720993042, -0.2236328125, 0.3466796875, -1.39794921875
296, 915846800, -4.986313819885254, -1.3371411561965942, 8.195892333984375, -0.1397557109594345, -1.22234046459198, -0.9624741077423096, -0.2216796875, 0.345703125, -1.39990234375
297, 915863467, -5.001715183258057, -1.3151535987854004, 8.200421333312988, -0.19436198472976685, -1.3533879518508911, -1.1265106201171875, -0.22412109375, 0.344970703125, -1.39794921875
298, 915880134, -5.029599189758301, -1.3517042398452759, 8.21468448638916, -0.31981295347213745, -1.6061466932296753, -1.0897436141967773, -0.22509765625, 0.34619140625, -1.400390625
299, 915896801, -5.007373332977295, -1.294260859489441, 8.253969192504883, -0.22943857312202454, -1.7783666849136353, -1.2658436298370361, -0.224609375, 0.34716796875, -1.40185546875
300, 915913468, -5.076224327087402, -1.2892768383026123, 8.2228364944458, -0.2719428241252899, -2.1408629417419434, -1.5503751039505005, -0.224609375, 0.34814453125, -1.40185546875
301, 915930135, -5.080447673797607, -1.263380765914917, 8.248995780944824, -0.27985715866088867, -2.800774097442627, -1.8641434907913208, -0.2236328125, 0.345703125, -1.39990234375
302, 915946802, -5.038027286529541, -1.3307636976242065, 8.248003005981445, -0.5836365818977356, -3.4372498989105225, -2.192075490951538, -0.22509765625, 0.34765625, -1.400390625
303, 915963469, -4.9152655601501465, -1.3998889923095703, 8.174728393554688, -0.2851974666118622, -3.4015464782714844, -2.18115234375, -0.225830078125, 0.34765625, -1.40087890625
304, 915980136, -4.784828186035156, -1.4520708322525024, 8.219773292541504, -0.18283624947071075, -3.149657964706421, -1.8833916187286377, -0.225830078125, 0.3486328125, -1.400390625
305, 915996803, -4.807888031005859, -1.4112138748168945, 8.268394470214844, 0.2346443235874176, -2.258002758026123, -1.2516285181045532, -0.2265625, 0.34619140625, -1.40087890625
306, 916013470, -4.958924293518066, -1.3103870153427124, 8.21835994720459, 0.05535544455051422, -1.9382156133651733, -1.3597270250320435, -0.2265625, 0.34619140625, -1.40087890625
307, 916030137, -4.944633960723877, -1.3434914350509644, 8.24563217163086, -0.08147399872541428, -1.935577392578125, -1.6598438024520874, -0.228759765625, 0.3505859375, -1.403076171875
308, 916046804, -4.967031002044678, -1.3285616636276245, 8.236820220947266, -0.22330434620380402, -2.058530807495117, -1.8058106899261475, -0.228759765625, 0.34814453125, -1.403564453125
309, 916063471, -4.965511322021484, -1.3430571556091309, 8.221410751342773, -0.3577069640159607, -2.1593940258026123, -1.8534504175186157, -0.228271484375, 0.3486328125, -1.4013671875
310, 916080138, -4.544073104858398, -1.5724575519561768, 8.126052856445312, 0.20361457765102386, -2.0284361839294434, -1.3284155130386353, -0.228271484375, 0.3486328125, -1.4013671875
311, 916096805, -4.864258766174316, -1.3407953977584839, 8.2965726852417, 1.319559931755066, -0.34979259967803955, 0.10234194993972778, -0.227294921875, 0.34716796875, -1.40185546875
312, 916113472, -5.00961971282959, -1.2191411256790161, 8.286715507507324, 0.3233795166015625, -0.1951303482055664, -0.7495428323745728, -0.228271484375, 0.3466796875, -1.39990234375
313, 916130139, -4.99832820892334, -1.2919540405273438, 8.25087833404541, -0.2691766619682312, -0.5328338146209717, -1.1967661380767822, -0.227783203125, 0.34619140625, -1.404541015625
314, 916146806, -4.985308647155762, -1.329811692237854, 8.258896827697754, -0.5738781094551086, -0.8917573094367981, -1.4907615184783936, -0.226318359375, 0.34716796875, -1.40185546875
315, 916163473, -4.945838451385498, -1.3268555402755737, 8.252866744995117, -0.8416973948478699, -1.044012188911438, -1.625753402709961, -0.2255859375, 0.34814453125, -1.400390625
316, 916180140, -4.932555198669434, -1.3421642780303955, 8.27853012084961, -1.1553890705108643, -1.0270309448242188, -1.6704730987548828, -0.22705078125, 0.34619140625, -1.400390625
317, 916196807, -4.930500507354736, -1.3430784940719604, 8.230113983154297, -1.2652418613433838, -1.0722885131835938, -1.7629094123840332, -0.226318359375, 0.34716796875, -1.40478515625
318, 916213474, -4.918956279754639, -1.3882813453674316, 8.264551162719727, -1.2589539289474487, -0.983463704586029, -1.842334508895874, -0.228271484375, 0.34716796875, -1.3984375
319, 916230141, -4.921454906463623, -1.3706008195877075, 8.24073314666748, -1.171781063079834, -1.048148512840271, -1.710979700088501, -0.228759765625, 0.349609375, -1.403076171875
320, 916246808, -4.965191841125488, -1.3616870641708374, 8.239646911621094, -1.2241973876953125, -1.3111399412155151, -1.6567447185516357, -0.229248046875, 0.35009765625, -1.40087890625
321, 916263475, -4.951877117156982, -1.3394261598587036, 8.242868423461914, -1.1538392305374146, -1.620579481124878, -1.7830920219421387, -0.228759765625, 0.35205078125, -1.40185546875
322, 916280142, -4.888322353363037, -1.4288467168807983, 8.210506439208984, -0.7642829418182373, -1.6486766338348389, -1.7296638488769531, -0.226806640625, 0.3505859375, -1.4033203125
323, 916296809, -4.9255547523498535, -1.3823474645614624, 8.196309089660645, -0.6709375381469727, -1.795770287513733, -1.5689572095870972, -0.229736328125, 0.3505859375, -1.4013671875
324, 916313476, -4.878394603729248, -1.418497085571289, 8.214634895324707, -0.4056667685508728, -1.8482508659362793, -1.4008355140686035, -0.229736328125, 0.3486328125, -1.400390625
325, 916330143, -4.903342247009277, -1.3557451963424683, 8.264299392700195, -0.4896380305290222, -1.8173105716705322, -1.4688242673873901, -0.230224609375, 0.35205078125, -1.401611328125
326, 916346810, -4.9308929443359375, -1.3359876871109009, 8.217391014099121, 0.0746162012219429, -1.5290141105651855, -1.4074307680130005, -0.228271484375, 0.3515625, -1.403564453125
327, 916363477, -4.905661106109619, -1.387089490890503, 8.239489555358887, -0.7006610631942749, -1.9372036457061768, -1.9551581144332886, -0.231201171875, 0.3505859375, -1.402587890625
328, 916380144, -4.959750175476074, -1.3693866729736328, 8.20872688293457, -0.6362578272819519, -2.523747205734253, -2.152811288833618, -0.229248046875, 0.35107421875, -1.403076171875
329, 916396811, -4.920578479766846, -1.4308615922927856, 8.195951461791992, -0.6286380290985107, -3.2575125694274902, -2.4237165451049805, -0.230224609375, 0.35205078125, -1.401611328125
330, 916413478, -4.8493499755859375, -1.4014641046524048, 8.208735466003418, 0.7397396564483643, -4.1362714767456055, -1.8962491750717163, -0.230712890625, 0.35205078125, -1.406005859375
331, 916430145, -4.858103275299072, -1.4749089479446411, 8.273720741271973, 0.8042515516281128, -4.3601393699646, -1.9724851846694946, -0.233154296875, 0.349609375, -1.405029296875
332, 916446812, -4.81366491317749, -1.499216079711914, 8.262131690979004, 1.1508300304412842, -3.82269549369812, -1.7232866287231445, -0.232666015625, 0.349609375, -1.405517578125
333, 916463479, -4.876331329345703, -1.4065507650375366, 8.211010932922363, 1.5245765447616577, -3.701329469680786, -1.460256814956665, -0.233154296875, 0.3505859375, -1.404541015625
334, 916480146, -4.923246383666992, -1.2469536066055298, 8.284289360046387, 1.0076357126235962, -3.9158878326416016, -2.050412178039551, -0.233642578125, 0.34814453125, -1.405029296875
335, 916496813, -4.86692476272583, -1.2569353580474854, 8.315316200256348, -0.186370849609375, -3.865892171859741, -2.7080185413360596, -0.234619140625, 0.3486328125, -1.406005859375
336, 916513480, -4.843946933746338, -1.3225255012512207, 8.347265243530273, -0.7792664170265198, -3.8137319087982178, -2.687899589538574, -0.234619140625, 0.34912109375, -1.406005859375
337, 916530147, -4.810004711151123, -1.415075659751892, 8.326722145080566, -1.3390319347381592, -3.1066410541534424, -2.541023015975952, -0.236083984375, 0.3515625, -1.405029296875
338, 916546814, -4.708431243896484, -1.4379855394363403, 8.317854881286621, -1.5239812135696411, -2.0784835815429688, -2.0238771438598633, -0.23486328125, 0.3544921875, -1.404541015625
339, 916563481, -4.669059753417969, -1.3736406564712524, 8.371697425842285, -2.145172595977783, -0.17994841933250427, -1.8173553943634033, -0.2373046875, 0.35302734375, -1.40673828125
340, 916580148, -4.7473368644714355, -1.2925420999526978, 8.378756523132324, -3.920996904373169, 1.9827110767364502, -2.3831334114074707, -0.23583984375, 0.35400390625, -1.406494140625
341, 916596815, -4.781787395477295, -1.3212568759918213, 8.409882545471191, -4.765397548675537, 3.4784293174743652, -2.6379804611206055, -0.2373046875, 0.35546875, -1.4072265625
342, 916613482, -4.786375999450684, -1.555036187171936, 8.234700202941895, -5.125728607177734, 4.250613212585449, -2.783076047897339, -0.23486328125, 0.356689453125, -1.406494140625
343, 916630149, -4.776881694793701, -1.6261576414108276, 8.209490776062012, -4.406986236572266, 4.585448741912842, -2.040743589401245, -0.2333984375, 0.358642578125, -1.406005859375
344, 916646816, -4.821009159088135, -1.6070280075073242, 8.181520462036133, -3.1210806369781494, 4.254321098327637, -1.1715058088302612, -0.23193359375, 0.359130859375, -1.406982421875
345, 916663483, -4.869831085205078, -1.5894970893859863, 8.102011680603027, -1.5860601663589478, 3.3879714012145996, -0.3598008453845978, -0.230224609375, 0.356689453125, -1.405029296875
346, 916680150, -4.794556140899658, -1.5656129121780396, 8.180389404296875, -0.03664116561412811, 2.6542813777923584, 0.028386976569890976, -0.23095703125, 0.359619140625, -1.405029296875
347, 916696817, -4.919466018676758, -1.4539223909378052, 8.191340446472168, 0.5985047817230225, 2.05621337890625, 0.4682898223400116, -0.226806640625, 0.358154296875, -1.404052734375
348, 916713484, -4.9149394035339355, -1.4767245054244995, 8.24653434753418, 0.8217258453369141, 1.6416523456573486, 0.7891720533370972, -0.227783203125, 0.357666015625, -1.403564453125
349, 916730151, -4.849976062774658, -1.445617437362671, 8.180998802185059, 0.9979284405708313, 1.5485246181488037, 1.4618383646011353, -0.225341796875, 0.356201171875, -1.407470703125
350, 916746818, -4.8547492027282715, -1.4764807224273682, 8.273561477661133, 1.4276968240737915, 2.191967010498047, 2.1331729888916016, -0.223876953125, 0.356201171875, -1.404296875
351, 916763485, -4.869755744934082, -1.4273842573165894, 8.261563301086426, 1.4013733863830566, 3.114248752593994, 1.8937777280807495, -0.224853515625, 0.355712890625, -1.40234375
352, 916780152, -4.738439559936523, -1.614884614944458, 8.2097749710083, 1.3127727508544922, 4.603403091430664, 2.1326093673706055, -0.223876953125, 0.353515625, -1.4013671875
353, 916796819, -4.647320747375488, -1.565577507019043, 8.25813102722168, 1.5565030574798584, 7.632411956787109, 3.116905450820923, -0.22021484375, 0.353759765625, -1.39990234375
354, 916813486, -4.863893032073975, -1.3103961944580078, 8.376774787902832, 0.3830445408821106, 11.925066947937012, 3.099452257156372, -0.2197265625, 0.354248046875, -1.40087890625
355, 916830153, -4.986119747161865, -1.276306390762329, 8.30467414855957, -0.6840773224830627, 15.360620498657227, 1.1517847776412964, -0.21533203125, 0.352783203125, -1.401123046875
356, 916846820, -4.903567314147949, -1.416058897972107, 8.342484474182129, -1.5043381452560425, 18.78614044189453, 0.29115912318229675, -0.21044921875, 0.353271484375, -1.3955078125
357, 916863487, -5.141057014465332, -1.3230067491531372, 8.218921661376953, -2.8060803413391113, 20.96660804748535, 1.1669868230819702, -0.206298828125, 0.353271484375, -1.390625
358, 916880154, -5.271103858947754, -1.3672780990600586, 8.084968566894531, -3.938087224960327, 21.936323165893555, 1.4840600490570068, -0.199462890625, 0.353759765625, -1.389404296875
359, 916896821, -5.198341369628906, -1.5249969959259033, 8.104281425476074, -4.685403823852539, 23.00060272216797, 2.945190906524658, -0.194091796875, 0.357177734375, -1.38671875
360, 916913488, -5.1413960456848145, -1.5166099071502686, 8.208395957946777, -6.8935089111328125, 25.078935623168945, 5.790181636810303, -0.18798828125, 0.355224609375, -1.3818359375
361, 916930155, -4.954459190368652, -1.673812747001648, 8.362308502197266, -8.223241806030273, 28.64301300048828, 9.2919282913208, -0.1806640625, 0.356689453125, -1.377197265625
362, 916946822, -5.151777267456055, -1.24958074092865, 8.335893630981445, -6.309092998504639, 36.25518035888672, 8.751398086547852, -0.173095703125, 0.356201171875, -1.37255859375
363, 916963489, -5.15399169921875, -1.3201310634613037, 8.304778099060059, -7.613098621368408, 44.62955093383789, 8.512661933898926, -0.16357421875, 0.355712890625, -1.36474609375
364, 916980156, -5.392009735107422, -1.3346432447433472, 8.147123336791992, -9.21927547454834, 53.67206954956055, 8.514809608459473, -0.15087890625, 0.3583984375, -1.361572265625
365, 916996823, -5.441133499145508, -1.465657353401184, 8.091986656188965, -10.739712715148926, 62.58734130859375, 9.189332962036133, -0.138916015625, 0.359375, -1.351318359375
366, 917013490, -5.5858659744262695, -1.4093486070632935, 7.992909908294678, -12.92671012878418, 72.13430786132812, 10.039801597595215, -0.12109375, 0.359375, -1.341064453125
367, 917030157, -5.838154315948486, -1.3011658191680908, 7.854063034057617, -16.208370208740234, 85.23535919189453, 10.437154769897461, -0.10400390625, 0.361572265625, -1.328125
368, 917046824, -5.869082450866699, -1.5261141061782837, 7.858119487762451, -19.93760108947754, 98.4012222290039, 11.502249717712402, -0.081787109375, 0.364501953125, -1.312255859375
369, 917063491, -6.154265880584717, -1.7655563354492188, 7.500438213348389, -20.598613739013672, 111.38027954101562, 14.04434871673584, -0.060791015625, 0.3671875, -1.29296875
370, 917080158, -6.226250648498535, -1.8815261125564575, 7.528769016265869, -19.88615608215332, 123.02049255371094, 18.08306312561035, -0.032470703125, 0.3681640625, -1.27294921875
371, 917096825, -6.402479648590088, -1.5495319366455078, 7.361701965332031, -14.311163902282715, 137.1206817626953, 19.386301040649414, -0.004150390625, 0.36669921875, -1.245849609375
372, 917113492, -6.545076847076416, -1.6144402027130127, 7.168153762817383, -12.670156478881836, 155.4604034423828, 19.29409408569336, 0.026123046875, 0.36669921875, -1.21728515625
373, 917130159, -6.816518783569336, -1.504299521446228, 6.814886093139648, -14.349655151367188, 177.8600616455078, 24.14025115966797, 0.0576171875, 0.365234375, -1.181640625
374, 917146826, -7.330032825469971, -1.7537317276000977, 7.197846412658691, -11.736109733581543, 203.3127899169922, 30.065994262695312, 0.091552734375, 0.360595703125, -1.13818359375
375, 917163493, -8.388297080993652, -2.653956651687622, 8.175078392028809, -6.562602996826172, 226.02685546875, 39.08332443237305, 0.12890625, 0.35498046875, -1.08740234375
376, 917180160, -8.769729614257812, -3.4928977489471436, 8.066404342651367, 6.272569179534912, 252.63992309570312, 59.858665466308594, 0.162841796875, 0.3408203125, -1.02880859375
377, 917196827, -11.827630996704102, -3.743429660797119, 8.384820938110352, 10.669844627380371, 279.38763427734375, 80.99697875976562, 0.197021484375, 0.320556640625, -0.959228515625
378, 917213494, -14.559431076049805, -3.847705364227295, 10.102994918823242, 6.1435980796813965, 254.59962463378906, 92.42709350585938, 0.223388671875, 0.297119140625, -0.89208984375
379, 917230161, -17.63875961303711, -2.9312033653259277, 12.324357032775879, -18.169498443603516, 223.52291870117188, 87.11207580566406, 0.2421875, 0.2734375, -0.832275390625
380, 917246828, -11.086993217468262, -5.995652198791504, 9.231637001037598, 2.513627052307129, 185.704833984375, 103.35726928710938, 0.247802734375, 0.24658203125, -0.781005859375
381, 917263495, -8.401972770690918, -1.89652681350708, 9.33592700958252, 22.220947265625, 170.59141540527344, 113.93856048583984, 0.248779296875, 0.217041015625, -0.73291015625
382, 917280162, -5.5646185874938965, -2.8230926990509033, 8.620302200317383, 9.002365112304688, 181.51686096191406, 103.91413116455078, 0.253662109375, 0.184814453125, -0.682373046875
383, 917296829, -14.568799018859863, -6.223796844482422, 19.4622802734375, -42.24916458129883, 103.22883605957031, 55.03070831298828, 0.24951171875, 0.16748046875, -0.65087890625
384, 917313496, -6.164244651794434, -8.01577091217041, 14.968880653381348, -33.84922790527344, -15.721027374267578, 23.16892433166504, 0.249267578125, 0.160888671875, -0.65234375
385, 917330163, -0.05596793442964554, -6.269774913787842, 10.253579139709473, 5.202902317047119, -67.00039672851562, 12.933223724365234, 0.24365234375, 0.157958984375, -0.66845703125
386, 917346830, 1.8110030889511108, -3.3595855236053467, 8.503077507019043, 15.30759334564209, -74.28733825683594, 2.3298487663269043, 0.24267578125, 0.155517578125, -0.685546875
387, 917363497, 1.041852355003357, -2.170642375946045, 8.528937339782715, -7.317490100860596, -73.55073547363281, -16.122352600097656, 0.239013671875, 0.1611328125, -0.7041015625
388, 917380164, -0.9873685240745544, -2.815430164337158, 9.015533447265625, -26.456693649291992, -81.5062026977539, -33.02473068237305, 0.235595703125, 0.168212890625, -0.7275390625
389, 917396831, -3.354633092880249, -3.7772538661956787, 9.71501636505127, -20.458072662353516, -103.64031982421875, -43.4278450012207, 0.23486328125, 0.178955078125, -0.752685546875
390, 917413498, -5.577916145324707, -3.879392147064209, 10.226000785827637, -2.3388898372650146, -138.56521606445312, -53.45823669433594, 0.23046875, 0.19384765625, -0.7861328125
391, 917430165, -6.641955852508545, -3.323655128479004, 9.887643814086914, 8.851150512695312, -174.75503540039062, -67.54642486572266, 0.222900390625, 0.20654296875, -0.830810546875
392, 917446832, -7.2516655921936035, -2.6267600059509277, 9.00068187713623, 11.138818740844727, -202.48663330078125, -81.98171997070312, 0.21044921875, 0.227294921875, -0.880126953125
393, 917463499, -7.210984706878662, -2.009361982345581, 8.22964096069336, 12.222951889038086, -219.1143035888672, -88.20812225341797, 0.19482421875, 0.249267578125, -0.93408203125
394, 917480166, -7.513089179992676, -1.2627216577529907, 8.199127197265625, 7.158777236938477, -226.65139770507812, -86.85264587402344, 0.171875, 0.27001953125, -0.990966796875
395, 917496833, -8.082805633544922, -1.009183645248413, 8.538369178771973, -5.746017932891846, -229.01422119140625, -83.6281967163086, 0.145751953125, 0.289794921875, -1.046875
396, 917513500, -8.826043128967285, -1.308698296546936, 8.909844398498535, -19.489360809326172, -230.40692138671875, -77.94068908691406, 0.117919921875, 0.309326171875, -1.10009765625
397, 917530167, -9.77668285369873, -1.6612521409988403, 9.630904197692871, -31.2353572845459, -231.5705108642578, -72.29956817626953, 0.078857421875, 0.33154296875, -1.15185546875
398, 917546834, -11.316710472106934, -1.9309847354888916, 10.791147232055664, -46.8297004699707, -234.54312133789062, -69.93536376953125, 0.041259765625, 0.351806640625, -1.202392578125
399, 917563501, -12.811375617980957, -2.414271593093872, 11.233144760131836, -65.39458465576172, -242.11375427246094, -71.1362533569336, -0.00537109375, 0.376708984375, -1.25341796875
400, 917580168, -14.405747413635254, -3.1017532348632812, 10.820357322692871, -74.96393585205078, -249.84864807128906, -75.83663940429688, -0.056640625, 0.408203125, -1.300537109375
401, 917596835, -16.30380630493164, -3.644596576690674, 9.455610275268555, -69.67487335205078, -255.50234985351562, -84.97076416015625, -0.111083984375, 0.438720703125, -1.347412109375
402, 917613502, -17.55520248413086, -2.9901130199432373, 7.833276271820068, -53.45450973510742, -255.1099395751953, -95.41167449951172, -0.17333984375, 0.4677734375, -1.38818359375
403, 917630169, -18.224620819091797, -1.7861108779907227, 6.165606498718262, -40.1114501953125, -244.8473663330078, -102.876953125, -0.234619140625, 0.49267578125, -1.424072265625
404, 917646836, -17.952360153198242, -1.3386963605880737, 4.162793159484863, -27.219881057739258, -229.7339630126953, -99.35179138183594, -0.297119140625, 0.512939453125, -1.44970703125
405, 917663503, -16.97267723083496, 0.1004294604063034, 2.2738373279571533, -21.967121124267578, -207.57997131347656, -89.38229370117188, -0.353515625, 0.529052734375, -1.47412109375
406, 917680170, -18.032894134521484, 2.000262498855591, -0.28159594535827637, -32.075069427490234, -176.93795776367188, -77.45523071289062, -0.40625, 0.541015625, -1.4892578125
407, 917696837, -19.677627563476562, 4.497890472412109, -3.3093652725219727, -45.72491455078125, -141.57174682617188, -61.75736999511719, -0.45068359375, 0.55712890625, -1.4970703125
408, 917713504, -19.637054443359375, 6.099867343902588, -5.979789733886719, -43.79056930541992, -99.96086120605469, -40.06270217895508, -0.484375, 0.572509765625, -1.503173828125
409, 917730171, -16.643396377563477, 5.390187740325928, -8.1925687789917, -6.327749729156494, -38.46018981933594, 8.594090461730957, -0.501708984375, 0.575927734375, -1.507080078125
410, 917746838, -13.955543518066406, 7.5988688468933105, -12.233871459960938, 76.58936309814453, 78.52702331542969, 97.85726928710938, -0.487548828125, 0.5595703125, -1.5068359375
411, 917763505, -15.332796096801758, 5.939262390136719, -6.6189703941345215, 87.16314697265625, 181.4737091064453, 146.638427734375, -0.4423828125, 0.523681640625, -1.496826171875
412, 917780172, -14.660736083984375, -6.894017219543457, 22.696237564086914, 54.55732727050781, 173.55096435546875, 93.52327728271484, -0.386474609375, 0.5, -1.482177734375
413, 917796839, -5.516184329986572, -6.540019512176514, 7.108063220977783, 59.5407600402832, 131.53860473632812, 52.1127815246582, -0.351806640625, 0.478515625, -1.468994140625
414, 917813506, -10.686300277709961, 0.7916185259819031, 11.357627868652344, 38.3704833984375, 177.32371520996094, 11.178459167480469, -0.303955078125, 0.466064453125, -1.44921875
415, 917830173, -10.710631370544434, 2.162531852722168, 11.741170883178711, 40.56449890136719, 123.01814270019531, 43.314552307128906, -0.267822265625, 0.451416015625, -1.43505859375
416, 917846840, -7.210598945617676, -2.3879032135009766, 8.358965873718262, 29.454801559448242, 109.15386962890625, 47.00114822387695, -0.240234375, 0.433349609375, -1.41943359375
417, 917863507, -18.64129066467285, -5.129683971405029, 14.052287101745605, 79.06924438476562, 45.80561065673828, 37.56559371948242, -0.2216796875, 0.410400390625, -1.410400390625
418, 917880174, -6.4945173263549805, 1.6625229120254517, 10.56245231628418, 42.31267547607422, 0.791675865650177, 23.66891098022461, -0.219970703125, 0.39794921875, -1.410400390625
419, 917896841, -6.149111747741699, -1.76094651222229, 9.004327774047852, 25.398649215698242, -2.6736013889312744, 11.37436580657959, -0.21875, 0.38720703125, -1.406982421875
420, 917913508, -5.96718168258667, -0.9883161783218384, 8.761003494262695, 14.949474334716797, -2.5549583435058594, 4.620323657989502, -0.2197265625, 0.3818359375, -1.40625
421, 917930175, -5.340427398681641, -1.0278595685958862, 8.657122611999512, 8.803284645080566, -2.043163776397705, 1.2174806594848633, -0.2236328125, 0.380126953125, -1.406005859375
422, 917946842, -5.006719589233398, -1.34681236743927, 8.418157577514648, 4.123907089233398, -0.5166465640068054, -0.24821265041828156, -0.22021484375, 0.375244140625, -1.40576171875
423, 917963509, -5.067984580993652, -1.843124508857727, 8.148460388183594, 3.045241355895996, -0.1211865171790123, 0.8833244442939758, -0.2216796875, 0.373779296875, -1.406982421875
424, 917980176, -5.1085052490234375, -2.18377685546875, 8.040562629699707, 4.775981426239014, -0.4619891345500946, 2.9514222145080566, -0.22314453125, 0.373779296875, -1.406982421875
425, 917996843, -5.162476539611816, -1.8692675828933716, 8.001579284667969, 6.653110980987549, -1.259581446647644, 4.959714412689209, -0.2216796875, 0.37060546875, -1.406982421875
426, 918013510, -5.0694260597229, -1.3231154680252075, 8.149691581726074, 6.644172668457031, -1.504310965538025, 5.175796031951904, -0.221435546875, 0.36767578125, -1.40673828125
427, 918030177, -4.971014022827148, -1.1753036975860596, 8.229166984558105, 4.446397304534912, -0.5793977379798889, 3.9716529846191406, -0.221923828125, 0.36865234375, -1.40625
428, 918046844, -5.032820224761963, -1.4402780532836914, 8.136838912963867, 3.232687473297119, 0.4486127495765686, 2.717500925064087, -0.224365234375, 0.36572265625, -1.406005859375
429, 918063511, -4.996605396270752, -1.7719589471817017, 7.967768669128418, 4.659546375274658, 0.28652289509773254, 3.34256649017334, -0.224853515625, 0.36474609375, -1.405517578125
430, 918080178, -5.388687610626221, -1.5750788450241089, 8.091673851013184, 6.799103736877441, -1.6935632228851318, 4.784767150878906, -0.224365234375, 0.362060546875, -1.405029296875
431, 918096845, -5.050332546234131, -1.6695477962493896, 8.121506690979004, 7.786268711090088, -2.9904372692108154, 5.457113742828369, -0.223388671875, 0.359619140625, -1.40478515625
432, 918113512, -5.057382583618164, -1.3417147397994995, 8.187363624572754, 8.292646408081055, -2.057917356491089, 6.8819499015808105, -0.224365234375, 0.355712890625, -1.4052734375
433, 918130179, -4.981507778167725, -1.2612237930297852, 8.193255424499512, 7.126127243041992, 0.8525509834289551, 6.642572402954102, -0.225341796875, 0.356689453125, -1.406005859375
434, 918146846, -4.89189338684082, -1.3501989841461182, 8.226799011230469, 6.172700881958008, 4.365314483642578, 6.079431533813477, -0.224365234375, 0.3515625, -1.4052734375
435, 918163513, -4.84841775894165, -1.6253750324249268, 8.220931053161621, 6.675332546234131, 8.631656646728516, 7.267806529998779, -0.22119140625, 0.34716796875, -1.40234375
436, 918180180, -4.800806522369385, -1.4815131425857544, 8.346431732177734, 5.703449726104736, 13.943166732788086, 10.382768630981445, -0.21875, 0.34375, -1.40087890625
437, 918196847, -4.807851314544678, -1.5871493816375732, 8.32819938659668, 4.687012672424316, 19.971885681152344, 16.13097381591797, -0.214599609375, 0.340576171875, -1.397705078125
438, 918213514, -4.916792869567871, -1.2564735412597656, 8.421590805053711, 4.109899997711182, 26.325481414794922, 19.39943504333496, -0.207763671875, 0.338134765625, -1.39453125
439, 918230181, -5.314669609069824, -1.2779529094696045, 8.29481029510498, 0.6446435451507568, 34.874664306640625, 21.90593719482422, -0.203125, 0.333251953125, -1.388916015625
440, 918246848, -4.625047206878662, -1.5180989503860474, 8.922013282775879, -2.1340081691741943, 47.66613006591797, 24.949081420898438, -0.192626953125, 0.3310546875, -1.38330078125
441, 918263515, -4.676264762878418, -0.9351513385772705, 9.025739669799805, -1.448616623878479, 67.68519592285156, 24.051654815673828, -0.1796875, 0.328125, -1.3720703125
442, 918280182, -4.682446002960205, -0.7725595831871033, 9.210797309875488, -5.049145221710205, 93.40145111083984, 22.901044845581055, -0.1591796875, 0.32666015625, -1.357666015625
443, 918296849, -5.134101867675781, -0.8192679286003113, 9.026094436645508, -7.408397197723389, 121.38904571533203, 20.554262161254883, -0.1328125, 0.3251953125, -1.343505859375
444, 918313516, -5.353559970855713, -0.7158564329147339, 8.955810546875, -4.027441501617432, 151.61273193359375, 18.09128189086914, -0.099609375, 0.323486328125, -1.319091796875
445, 918330183, -5.2402167320251465, -1.5272839069366455, 9.142179489135742, 0.9145644903182983, 187.1064453125, 21.53523826599121, -0.064208984375, 0.31982421875, -1.289794921875
446, 918346850, -5.500149726867676, -2.6647961139678955, 8.94124984741211, 3.2659964561462402, 232.7108917236328, 37.81560134887695, -0.017333984375, 0.3125, -1.248046875
447, 918363517, -5.913056373596191, -1.8423330783843994, 8.965144157409668, 19.329782485961914, 292.1553039550781, 65.22112274169922, 0.0341796875, 0.29931640625, -1.19091796875
448, 918380184, -7.269542217254639, -3.6057968139648438, 12.350852966308594, 32.2106819152832, 351.0370178222656, 87.9417495727539, 0.089599609375, 0.2783203125, -1.114501953125
449, 918396851, -7.785963535308838, -5.0881266593933105, 11.061585426330566, 31.27814483642578, 417.62738037109375, 138.0841522216797, 0.1455078125, 0.242919921875, -1.02197265625
450, 918413518, -17.405162811279297, -6.013350486755371, 15.458112716674805, 23.90089988708496, 438.9217224121094, 180.99649047851562, 0.18701171875, 0.19775390625, -0.910888671875
451, 918430185, -17.968421936035156, -3.1142985820770264, 16.745342254638672, -24.5340576171875, 421.96435546875, 171.8639373779297, 0.212158203125, 0.154052734375, -0.803955078125
452, 918446852, -19.586172103881836, -6.9181227684021, 19.2310848236084, -44.2161865234375, 345.0450134277344, 161.08680725097656, 0.222412109375, 0.114990234375, -0.712158203125
453, 918463519, -1.3233779668807983, -9.699281692504883, 12.086186408996582, 8.312090873718262, 288.0832824707031, 201.11724853515625, 0.210205078125, 0.06982421875, -0.638427734375
454, 918480186, -19.30494499206543, -12.736600875854492, 16.65492057800293, 40.07025146484375, 309.01116943359375, 151.08200073242188, 0.191162109375, 0.0205078125, -0.55517578125
455, 918496853, -20.275094985961914, -16.89219856262207, 26.315595626831055, 26.642261505126953, 73.83470916748047, 3.965207099914551, 0.185546875, 0.010986328125, -0.517578125
456, 918513520, -6.430553436279297, -13.658239364624023, 16.718847274780273, 73.0307846069336, -97.19270324707031, -91.22230529785156, 0.197265625, 0.02587890625, -0.52685546875
457, 918530187, 1.3751027584075928, -5.981269359588623, 9.775838851928711, 107.1712646484375, -147.68035888671875, -112.56129455566406, 0.210205078125, 0.0576171875, -0.54931640625
458, 918546854, 2.7247962951660156, -0.8178063035011292, 7.608621120452881, 80.2306900024414, -150.2063751220703, -118.56246948242188, 0.22412109375, 0.08544921875, -0.5771484375
459, 918563521, 1.7733687162399292, 1.342301845550537, 7.2680344581604, 25.960363388061523, -145.220947265625, -124.01948547363281, 0.238525390625, 0.117919921875, -0.607421875
460, 918580188, -0.6240618824958801, 1.4947048425674438, 7.701813220977783, -19.015684127807617, -149.79296875, -118.24811553955078, 0.246337890625, 0.147705078125, -0.6474609375
461, 918596855, -3.6230170726776123, 0.6052547693252563, 8.776451110839844, -32.7273063659668, -170.70904541015625, -100.9471664428711, 0.25146484375, 0.17578125, -0.697265625
462, 918613522, -7.501570701599121, 0.3831694424152374, 10.090250968933105, -30.896852493286133, -212.61358642578125, -88.84335327148438, 0.246826171875, 0.20166015625, -0.74951171875
463, 918630189, -9.01373291015625, 0.05830799415707588, 9.743962287902832, -28.64093589782715, -264.3963928222656, -89.49370574951172, 0.23681640625, 0.230712890625, -0.819091796875
464, 918646856, -8.32392692565918, 0.0901137962937355, 8.391744613647461, -23.439002990722656, -297.4496765136719, -92.184814453125, 0.216064453125, 0.255126953125, -0.897705078125
465, 918663523, -8.42553424835205, 0.2347322404384613, 8.211526870727539, -24.694734573364258, -306.2613830566406, -95.72941589355469, 0.187255859375, 0.279541015625, -0.976806640625
466, 918680190, -10.314510345458984, 0.30449849367141724, 9.111310958862305, -37.659637451171875, -313.7892150878906, -103.54237365722656, 0.1494140625, 0.305419921875, -1.054443359375
467, 918696857, -10.924453735351562, -0.07584839314222336, 9.191165924072266, -52.79940414428711, -326.30743408203125, -110.09900665283203, 0.1015625, 0.340087890625, -1.1328125
468, 918713524, -11.356619834899902, 0.29233455657958984, 9.599960327148438, -67.61561584472656, -324.55340576171875, -107.477783203125, 0.0478515625, 0.374755859375, -1.2060546875
469, 918730191, -12.965753555297852, 0.3323996067047119, 10.729534149169922, -85.76359558105469, -314.94952392578125, -102.80587768554688, -0.013916015625, 0.410400390625, -1.272705078125
470, 918746858, -15.493183135986328, -1.4473817348480225, 12.54838752746582, -97.0831298828125, -309.86285400390625, -97.73292541503906, -0.07958984375, 0.447998046875, -1.3291015625
471, 918763525, -19.919240951538086, -4.36475133895874, 13.421201705932617, -88.79102325439453, -320.266845703125, -102.16255187988281, -0.154541015625, 0.4873046875, -1.382568359375
472, 918780192, -21.61891746520996, -4.320305824279785, 11.35239028930664, -62.16770553588867, -333.7135314941406, -122.17666625976562, -0.238037109375, 0.521728515625, -1.4296875
473, 918796859, -21.737560272216797, -1.558683156967163, 7.538244724273682, -46.52609634399414, -324.1207580566406, -131.15370178222656, -0.327392578125, 0.5478515625, -1.4658203125
474, 918813526, -22.477439880371094, -0.43109288811683655, 2.907426118850708, -38.285369873046875, -292.4277648925781, -114.29823303222656, -0.4111328125, 0.569580078125, -1.493896484375
475, 918830193, -22.790353775024414, 1.6813445091247559, -1.6576083898544312, -34.29938888549805, -240.46246337890625, -83.67733764648438, -0.4833984375, 0.58349609375, -1.50830078125
476, 918846860, -26.381441116333008, 6.6455230712890625, -6.2658257484436035, -57.66596221923828, -174.80810546875, -56.96927261352539, -0.540771484375, 0.599853515625, -1.512939453125
477, 918863527, -28.365032196044922, 9.898554801940918, -12.032705307006836, -76.91900634765625, -102.68805694580078, -34.18094253540039, -0.578369140625, 0.62158203125, -1.517578125
478, 918880194, -24.041736602783203, 8.179810523986816, -12.598371505737305, -29.453590393066406, -15.7254638671875, 13.711136817932129, -0.58984375, 0.635986328125, -1.517822265625
479, 918896861, -23.279605865478516, 3.6528494358062744, -7.816248416900635, 26.367372512817383, 55.745853424072266, 63.88032150268555, -0.576904296875, 0.633544921875, -1.519287109375
480, 918913528, -6.837917327880859, 2.3179614543914795, -10.887287139892578, 116.20243072509766, 201.5274200439453, 149.8768768310547, -0.53125, 0.597900390625, -1.5126953125
481, 918930195, -11.90583610534668, -14.672246932983398, 22.973175048828125, 107.20488739013672, 217.70179748535156, 102.60955810546875, -0.458251953125, 0.561767578125, -1.504150390625
482, 918946862, -12.369004249572754, 4.46990966796875, 10.446100234985352, 60.83234786987305, 203.5340576171875, 14.278945922851562, -0.40576171875, 0.534912109375, -1.48876953125
483, 918963529, -16.14930534362793, 5.648649215698242, 19.242782592773438, 27.584747314453125, 190.21417236328125, 22.657930374145508, -0.346923828125, 0.526611328125, -1.47216796875
484, 918980196, -10.88377857208252, -0.6253111362457275, 10.937633514404297, 16.89869499206543, 119.60110473632812, 63.127750396728516, -0.3076171875, 0.515869140625, -1.45947265625
485, 918996863, -7.700385093688965, -7.871093273162842, 8.180059432983398, 18.191171646118164, 116.86542510986328, 28.907405853271484, -0.279052734375, 0.50732421875, -1.44677734375
486, 919013530, -16.14676284790039, -3.1358461380004883, 13.413082122802734, 73.3545913696289, 65.63737487792969, 44.82798767089844, -0.25341796875, 0.487548828125, -1.433837890625
487, 919030197, -4.509811878204346, -3.915560007095337, 7.258410930633545, 62.03016662597656, 28.822412490844727, 37.29743957519531, -0.242431640625, 0.465576171875, -1.431396484375
488, 919046864, -6.007790565490723, -2.355611801147461, 8.765603065490723, 68.24333190917969, 24.26007843017578, 41.02409744262695, -0.235595703125, 0.4423828125, -1.42724609375
489, 919063531, -7.693215847015381, -0.053413115441799164, 10.05447006225586, 54.1672477722168, 3.413816452026367, 31.295032501220703, -0.236328125, 0.42431640625, -1.4248046875
490, 919080198, -5.605504989624023, -1.329813003540039, 9.2653226852417, 36.213233947753906, 0.3027118742465973, 20.178386688232422, -0.235595703125, 0.407958984375, -1.42333984375
491, 919096865, -5.251003742218018, -0.7153741121292114, 9.118616104125977, 22.047391891479492, 4.99621057510376, 11.864847183227539, -0.23828125, 0.40087890625, -1.420166015625
492, 919113532, -5.107279300689697, -1.1989868879318237, 8.699182510375977, 12.922921180725098, 10.340441703796387, 5.90009069442749, -0.23486328125, 0.397216796875, -1.419677734375
493, 919130199, -5.372906684875488, -1.6211841106414795, 8.479899406433105, 6.327717304229736, 12.061662673950195, 3.4492580890655518, -0.23193359375, 0.392822265625, -1.416748046875
494, 919146866, -5.319072723388672, -2.0975427627563477, 8.09080982208252, 2.609083890914917, 10.832314491271973, 3.9610507488250732, -0.226806640625, 0.391357421875, -1.4169921875
495, 919163533, -5.263199329376221, -1.88752019405365, 8.051000595092773, 5.219710350036621, 7.790547847747803, 5.897961139678955, -0.227294921875, 0.390869140625, -1.41357421875
496, 919180200, -5.2204694747924805, -1.7705296277999878, 7.929931640625, 8.28945541381836, 3.7749991416931152, 5.843775749206543, -0.221923828125, 0.389404296875, -1.412841796875
497, 919196867, -4.878291606903076, -1.9290741682052612, 8.01437759399414, 11.443626403808594, 0.7440813779830933, 6.330739498138428, -0.2216796875, 0.38330078125, -1.413818359375
498, 919213534, -5.160258769989014, -1.6287373304367065, 8.148754119873047, 10.9071683883667, -0.5416705012321472, 5.880545139312744, -0.2197265625, 0.3798828125, -1.410400390625
499, 919230201, -5.055520534515381, -1.6179996728897095, 8.20778751373291, 8.400078773498535, 1.363883137702942, 5.703431606292725, -0.22216796875, 0.376220703125, -1.411865234375
500, 919246868, -5.064107894897461, -1.6627070903778076, 8.174135208129883, 5.93739652633667, 3.2256641387939453, 5.879255771636963, -0.22216796875, 0.376220703125, -1.411376953125
501, 919263535, -4.988951206207275, -1.7881858348846436, 8.089229583740234, 6.07759428024292, 4.933270454406738, 7.637627124786377, -0.22021484375, 0.371826171875, -1.410400390625
502, 919280202, -5.013169288635254, -1.5683271884918213, 8.129923820495605, 7.075608730316162, 6.898702144622803, 9.420427322387695, -0.220947265625, 0.36865234375, -1.409912109375
503, 919296869, -4.997558116912842, -1.3918567895889282, 8.305099487304688, 6.290055751800537, 9.877629280090332, 10.238525390625, -0.217529296875, 0.36474609375, -1.4052734375
504, 919313536, -4.9208984375, -1.5476751327514648, 8.319445610046387, 2.9504008293151855, 14.303781509399414, 11.991873741149902, -0.213623046875, 0.36474609375, -1.4052734375
505, 919330203, -4.833904266357422, -1.4454219341278076, 8.391301155090332, 4.655535697937012, 22.352325439453125, 12.77115535736084, -0.2099609375, 0.35986328125, -1.404052734375
506, 919346870, -4.594030380249023, -1.4791760444641113, 8.75679874420166, 2.363288402557373, 34.30954360961914, 13.999460220336914, -0.202392578125, 0.355224609375, -1.39697265625
507, 919363537, -4.725284099578857, -1.322027564048767, 8.749974250793457, 0.8355776071548462, 50.46820831298828, 15.066926002502441, -0.192626953125, 0.354736328125, -1.391357421875
508, 919380204, -4.660372734069824, -1.295393943786621, 8.9361572265625, -1.4225558042526245, 70.88389587402344, 15.554670333862305, -0.177490234375, 0.350830078125, -1.382568359375
509, 919396871, -4.821500301361084, -1.5668654441833496, 8.90151309967041, -5.737940788269043, 96.86210632324219, 18.418365478515625, -0.15771484375, 0.352294921875, -1.36962890625
510, 919413538, -5.003725051879883, -1.1997588872909546, 8.899229049682617, -7.289641380310059, 126.07929992675781, 21.079425811767578, -0.126220703125, 0.349609375, -1.35205078125
511, 919430205, -5.491764545440674, -0.4876903295516968, 8.49601936340332, -10.600187301635742, 158.89344787597656, 18.19179344177246, -0.093505859375, 0.34814453125, -1.327880859375
512, 919446872, -5.357511520385742, -1.1518635749816895, 8.913185119628906, -12.824201583862305, 195.1629180908203, 17.109745025634766, -0.05322265625, 0.34814453125, -1.293701171875
513, 919463539, -5.586187839508057, -2.2556047439575195, 8.437484741210938, -3.8202764987945557, 237.45120239257812, 27.681743621826172, -0.0068359375, 0.345703125, -1.251953125
514, 919480206, -5.890047550201416, -3.1800975799560547, 9.84625244140625, 2.042239189147949, 291.54779052734375, 52.065799713134766, 0.04638671875, 0.338623046875, -1.19287109375
515, 919496873, -6.052276134490967, -4.2468085289001465, 10.978348731994629, 14.197602272033691, 356.37591552734375, 81.93791961669922, 0.107421875, 0.318603515625, -1.11962890625
516, 919513540, -8.123703956604004, -4.634807109832764, 10.292133331298828, 26.97487449645996, 431.0382995605469, 133.2781524658203, 0.163818359375, 0.28759765625, -1.021728515625
517, 919530207, -17.62537384033203, -7.625330448150635, 17.572616577148438, 10.707962989807129, 455.9734802246094, 170.6707763671875, 0.212158203125, 0.244140625, -0.904052734375
518, 919546874, -21.18118667602539, -2.005875587463379, 18.484743118286133, -15.613090515136719, 441.963134765625, 172.2255401611328, 0.23779296875, 0.200439453125, -0.7880859375
519, 919563541, -20.511808395385742, -10.506003379821777, 20.494726181030273, -38.93740463256836, 371.1470642089844, 158.4185028076172, 0.25, 0.16015625, -0.687744140625
520, 919580208, -4.2347211837768555, -9.87578010559082, 17.542043685913086, 22.173791885375977, 267.18603515625, 203.6803741455078, 0.238525390625, 0.10986328125, -0.61181640625
521, 919596875, -18.313949584960938, -13.859857559204102, 19.560455322265625, 67.7932357788086, 262.29693603515625, 135.46826171875, 0.221923828125, 0.06396484375, -0.527587890625
522, 919613542, -18.23948860168457, -14.882628440856934, 27.029888153076172, 49.645774841308594, 20.292194366455078, -2.7346060276031494, 0.2177734375, 0.055419921875, -0.506103515625
523, 919630209, -3.501314640045166, -11.44411849975586, 15.933300018310547, 82.98828125, -117.9256591796875, -71.17903137207031, 0.227294921875, 0.071533203125, -0.521484375
524, 919646876, 1.9137258529663086, -5.117585182189941, 9.532563209533691, 108.60743713378906, -150.25267028808594, -84.29061889648438, 0.236328125, 0.09228515625, -0.54296875
525, 919663543, 2.445922374725342, -1.2059639692306519, 7.716380596160889, 82.54673767089844, -151.9469451904297, -91.12911987304688, 0.246826171875, 0.1181640625, -0.576416015625
526, 919680210, 1.2842190265655518, 0.04371609911322594, 7.171083927154541, 35.318599700927734, -153.8120574951172, -96.7748794555664, 0.25341796875, 0.138671875, -0.609130859375
527, 919696877, -0.6825758218765259, -0.4260867238044739, 7.081736087799072, 4.755858421325684, -164.62075805664062, -92.56797790527344, 0.259033203125, 0.16357421875, -0.650146484375
528, 919713544, -3.5537970066070557, -1.1070401668548584, 7.673603057861328, 2.4854509830474854, -189.8289337158203, -80.35826110839844, 0.26220703125, 0.186767578125, -0.70068359375
529, 919730211, -6.059604167938232, -1.0171053409576416, 8.311442375183105, 6.315250873565674, -228.19223022460938, -69.0123519897461, 0.25634765625, 0.204833984375, -0.76025390625
530, 919746878, -7.764438629150391, -0.739923894405365, 8.518009185791016, -3.9445295333862305, -267.07763671875, -68.87446594238281, 0.244384765625, 0.22216796875, -0.823974609375
531, 919763545, -8.572763442993164, -1.141499638557434, 8.24281120300293, -21.37421417236328, -296.93511962890625, -76.96346282958984, 0.2216796875, 0.24462890625, -0.902099609375
532, 919780212, -9.678753852844238, -1.91782546043396, 8.2950439453125, -33.05675506591797, -315.3803405761719, -85.60963439941406, 0.1884765625, 0.267578125, -0.986572265625
533, 919796879, -10.857446670532227, -2.305013418197632, 8.336912155151367, -38.822975158691406, -331.48553466796875, -94.95038604736328, 0.151123046875, 0.2978515625, -1.07080078125
534, 919813546, -9.829886436462402, -1.9299144744873047, 7.110267639160156, -43.736305236816406, -335.12432861328125, -99.21955108642578, 0.101318359375, 0.3232421875, -1.14990234375
535, 919830213, -9.88699722290039, -0.9842384457588196, 7.246095180511475, -51.95249938964844, -304.98822021484375, -92.5492935180664, 0.047607421875, 0.350341796875, -1.221923828125
536, 919846880, -12.770119667053223, -1.2642921209335327, 10.305947303771973, -72.0637435913086, -274.0107116699219, -85.93267822265625, -0.007568359375, 0.38134765625, -1.281982421875
537, 919863547, -18.653676986694336, -3.1518988609313965, 14.78720760345459, -99.60453796386719, -278.4166259765625, -91.77037048339844, -0.065185546875, 0.41845703125, -1.338623046875
538, 919880214, -23.303773880004883, -5.770057201385498, 15.002644538879395, -102.92626953125, -322.9148864746094, -112.40583038330078, -0.136474609375, 0.458984375, -1.3916015625
539, 919896881, -22.90939712524414, -3.7126669883728027, 10.374744415283203, -81.77737426757812, -354.53076171875, -135.69129943847656, -0.225341796875, 0.498779296875, -1.443359375
540, 919913548, -22.05958366394043, -1.6212892532348633, 4.940374851226807, -59.8480224609375, -340.2034606933594, -134.76583862304688, -0.32177734375, 0.533447265625, -1.486572265625
541, 919930215, -22.20128059387207, -0.3009149134159088, 1.7185415029525757, -44.6593132019043, -298.8242492675781, -110.24699401855469, -0.41162109375, 0.5556640625, -1.510986328125
542, 919946882, -22.931659698486328, 2.022890567779541, -1.6374932527542114, -54.816246032714844, -242.95704650878906, -81.9397964477539, -0.48974609375, 0.57666015625, -1.52587890625
543, 919963549, -29.910614013671875, 9.06252670288086, -7.089566230773926, -103.28748321533203, -184.7777862548828, -58.70762634277344, -0.5498046875, 0.604736328125, -1.53564453125
544, 919980216, -30.601682662963867, 12.55606746673584, -16.206974029541016, -141.2910919189453, -111.51103210449219, -42.87655258178711, -0.591552734375, 0.648193359375, -1.536376953125
545, 919996883, -23.379953384399414, 5.856937885284424, -15.592514991760254, -32.98250961303711, 2.9148614406585693, 39.507144927978516, -0.600341796875, 0.666748046875, -1.53515625
546, 920013550, -18.199939727783203, 9.009591102600098, -18.95876693725586, 171.6578369140625, 149.3014678955078, 188.80984497070312, -0.56494140625, 0.626708984375, -1.537353515625
547, 920030217, -13.933991432189941, -10.107171058654785, 21.31897735595703, 177.8938446044922, 205.5730743408203, 198.9188995361328, -0.49755859375, 0.564208984375, -1.531982421875
548, 920046884, -8.887904167175293, -5.6932692527771, 9.894576072692871, 158.38153076171875, 190.68568420410156, 64.77381896972656, -0.447021484375, 0.50732421875, -1.525390625
549, 920063551, -18.508163452148438, 10.061116218566895, 20.218536376953125, 77.52945709228516, 220.90699768066406, -17.707948684692383, -0.377197265625, 0.4794921875, -1.505615234375
550, 920080218, -9.892565727233887, 10.925907135009766, 15.524723052978516, 44.67026901245117, 119.7336654663086, 65.80613708496094, -0.336181640625, 0.463134765625, -1.4912109375
551, 920096885, -7.710262298583984, -8.050716400146484, 7.603911399841309, 19.99692726135254, 112.60804748535156, 68.58506774902344, -0.30810546875, 0.44677734375, -1.479736328125
552, 920113552, -10.21422290802002, -8.918828010559082, 10.0001802444458, 57.01443862915039, 112.93805694580078, 22.124286651611328, -0.277099609375, 0.434814453125, -1.466064453125
553, 920130219, -14.683671951293945, 3.683748960494995, 12.550655364990234, 78.56572723388672, 22.5012264251709, 45.47971725463867, -0.264404296875, 0.406494140625, -1.460693359375
554, 920146886, -4.7973456382751465, -2.0932414531707764, 9.75529956817627, 47.759315490722656, 13.133506774902344, 24.190052032470703, -0.259765625, 0.389404296875, -1.45654296875
555, 920163553, -7.129787921905518, -0.34575238823890686, 9.916150093078613, 32.85749053955078, 4.412097930908203, 18.836654663085938, -0.260498046875, 0.376708984375, -1.455078125
556, 920180220, -5.1347737312316895, -1.1494375467300415, 8.94902515411377, 20.011333465576172, -0.5725345015525818, 10.228967666625977, -0.2607421875, 0.36865234375, -1.453125
557, 920196887, -5.106988430023193, -1.0630812644958496, 8.910200119018555, 15.477328300476074, 0.30217254161834717, 7.815934181213379, -0.2578125, 0.3623046875, -1.45263671875
558, 920213554, -5.0185933113098145, -1.1913105249404907, 8.751287460327148, 8.987031936645508, 3.7651772499084473, 4.9454874992370605, -0.25927734375, 0.358154296875, -1.451904296875
559, 920230221, -4.995965480804443, -1.1966121196746826, 8.63564395904541, 2.9160125255584717, 4.936227321624756, 2.910224199295044, -0.2568359375, 0.357666015625, -1.450927734375
560, 920246888, -4.856433868408203, -1.4630457162857056, 8.338751792907715, -0.6397925019264221, 5.741330623626709, 2.4802191257476807, -0.255126953125, 0.356689453125, -1.447998046875
561, 920263555, -4.9112467765808105, -1.5184286832809448, 8.3307466506958, -1.567010760307312, 6.0207200050354, 2.130855083465576, -0.25634765625, 0.357666015625, -1.448486328125
562, 920280222, -4.860329627990723, -1.6230376958847046, 8.172320365905762, -0.2576509416103363, 5.779729843139648, 2.195719003677368, -0.253173828125, 0.357177734375, -1.4462890625
563, 920296889, -4.846836566925049, -1.6907782554626465, 8.141352653503418, 1.5355134010314941, 3.974174976348877, 2.409905433654785, -0.254638671875, 0.356689453125, -1.445556640625
564, 920313556, -4.7998762130737305, -1.517169713973999, 8.24645709991455, 3.7064337730407715, 2.156647205352783, 3.319899559020996, -0.251220703125, 0.354248046875, -1.4462890625
565, 920330223, -4.852071285247803, -1.4892064332962036, 8.280505180358887, 4.43981409072876, 1.5327857732772827, 3.3575754165649414, -0.251708984375, 0.354736328125, -1.4453125
566, 920346890, -4.762760162353516, -1.598639726638794, 8.259937286376953, 4.814516067504883, 0.7735227942466736, 3.8440372943878174, -0.248291015625, 0.350341796875, -1.4482421875
567, 920363557, -4.63925313949585, -1.551020622253418, 8.326148986816406, 5.138567924499512, 1.0838205814361572, 4.882517337799072, -0.248291015625, 0.350830078125, -1.4453125
568, 920380224, -4.637916088104248, -1.4674538373947144, 8.369277954101562, 5.0157294273376465, 2.283993721008301, 5.717031478881836, -0.24853515625, 0.34619140625, -1.44580078125
569, 920396891, -4.679713726043701, -1.448696494102478, 8.340014457702637, 5.653332710266113, 3.545816659927368, 6.721446514129639, -0.24658203125, 0.345703125, -1.443359375
570, 920413558, -4.52605676651001, -1.553817629814148, 8.440421104431152, 6.162206649780273, 6.567630290985107, 8.145578384399414, -0.24658203125, 0.3408203125, -1.442138671875
571, 920430225, -4.391382217407227, -1.5586973428726196, 8.49330997467041, 6.268406867980957, 11.449542045593262, 11.039264678955078, -0.241455078125, 0.338623046875, -1.440673828125
572, 920446892, -4.739106178283691, -1.3025119304656982, 8.533122062683105, 5.100356101989746, 17.60608673095703, 13.826183319091797, -0.239990234375, 0.336181640625, -1.438232421875
573, 920463559, -4.764002323150635, -1.6836758852005005, 8.565497398376465, 2.6851742267608643, 25.963396072387695, 17.401626586914062, -0.236083984375, 0.332275390625, -1.4345703125
574, 920480226, -4.320917129516602, -1.3462316989898682, 9.113252639770508, 2.9732329845428467, 39.92927932739258, 21.179393768310547, -0.22802734375, 0.32861328125, -1.431396484375
575, 920496893, -4.378553867340088, -0.9678369760513306, 9.2166166305542, 0.5146626830101013, 60.89155197143555, 20.086545944213867, -0.213134765625, 0.326171875, -1.423583984375
576, 920513560, -4.3142266273498535, -0.9905577898025513, 9.324187278747559, -0.6299297213554382, 86.60014343261719, 19.166423797607422, -0.195556640625, 0.32373046875, -1.41015625
577, 920530227, -4.700550556182861, -0.6952023506164551, 9.153277397155762, -3.146559953689575, 114.5487060546875, 16.82837677001953, -0.170166015625, 0.322509765625, -1.396728515625
578, 920546894, -5.175518989562988, -0.5297935605049133, 9.137314796447754, -6.903332233428955, 142.9850616455078, 15.341848373413086, -0.134521484375, 0.319091796875, -1.378173828125
579, 920563561, -5.020893573760986, -1.3551251888275146, 9.544461250305176, -6.343122482299805, 177.85418701171875, 15.666521072387695, -0.09814453125, 0.319580078125, -1.347900390625
580, 920580228, -5.056302070617676, -2.1184277534484863, 9.314096450805664, -5.265190601348877, 219.4968719482422, 27.68612289428711, -0.048828125, 0.31982421875, -1.3125
581, 920596895, -5.272836685180664, -2.7278518676757812, 9.678594589233398, -1.9984228610992432, 272.7647705078125, 51.03704833984375, 0.00439453125, 0.310791015625, -1.260986328125
582, 920613562, -5.613002300262451, -3.167262077331543, 10.155092239379883, 17.647153854370117, 344.9836730957031, 82.11624908447266, 0.06591796875, 0.291259765625, -1.193359375
583, 920630229, -7.804529666900635, -5.192629337310791, 11.986831665039062, 21.827091217041016, 402.0235595703125, 119.04289245605469, 0.129150390625, 0.266845703125, -1.103271484375
584, 920646896, -13.213643074035645, -5.711282253265381, 14.530876159667969, 30.416940689086914, 447.7082214355469, 179.2296905517578, 0.18310546875, 0.220947265625, -0.9931640625
585, 920663563, -17.95697784423828, -3.1230549812316895, 17.056171417236328, -15.240744590759277, 447.0638732910156, 172.1470947265625, 0.22119140625, 0.17724609375, -0.88037109375
586, 920680230, -21.917268753051758, -6.279542446136475, 21.29230499267578, -44.87197494506836, 389.1465759277344, 164.47911071777344, 0.23974609375, 0.135498046875, -0.7783203125
587, 920696897, -8.133683204650879, -9.237593650817871, 16.580411911010742, -34.31863784790039, 309.711181640625, 185.1967315673828, 0.2412109375, 0.0888671875, -0.69580078125
588, 920713564, -11.13549518585205, -14.648772239685059, 13.2962646484375, 48.9017219543457, 307.1983337402344, 179.64065551757812, 0.22705078125, 0.03955078125, -0.613525390625
589, 920730231, -22.858463287353516, -18.366769790649414, 29.88176155090332, 63.1359748840332, 113.24457550048828, 40.004249572753906, 0.218994140625, 0.01708984375, -0.5595703125
590, 920746898, -6.229748249053955, -14.705131530761719, 21.034881591796875, 90.05709838867188, -80.42525482177734, -70.78748321533203, 0.222412109375, 0.03369140625, -0.56298828125
591, 920763565, 3.133274793624878, -7.103766441345215, 12.302666664123535, 111.15054321289062, -133.84996032714844, -110.7091064453125, 0.2353515625, 0.05859375, -0.580322265625
592, 920780232, 3.405259609222412, -1.8866376876831055, 9.882170677185059, 78.87213134765625, -136.98516845703125, -121.1106185913086, 0.247314453125, 0.08984375, -0.606689453125
593, 920796899, 1.6255542039871216, -0.3606228530406952, 9.196982383728027, 27.80582618713379, -142.52206420898438, -124.3526382446289, 0.258544921875, 0.121826171875, -0.638671875
594, 920813566, -0.9407250881195068, -0.4391782581806183, 9.055591583251953, -5.187230110168457, -162.8237762451172, -116.78943634033203, 0.2646484375, 0.153076171875, -0.680908203125
595, 920830233, -3.4044032096862793, -0.6304969191551208, 9.147602081298828, -10.013547897338867, -195.9736785888672, -99.50227355957031, 0.2626953125, 0.17919921875, -0.733154296875
596, 920846900, -6.3895182609558105, -0.06843681633472443, 9.714550018310547, -11.530021667480469, -238.149658203125, -82.97425842285156, 0.256103515625, 0.20703125, -0.79638671875
597, 920863567, -7.950793266296387, 0.5209146738052368, 9.334521293640137, -26.599071502685547, -283.3004455566406, -76.95213317871094, 0.23681640625, 0.2294921875, -0.87109375
598, 920880234, -8.004949569702148, 0.06663185358047485, 8.209014892578125, -45.20045852661133, -312.6207275390625, -76.94731140136719, 0.20654296875, 0.25341796875, -0.952392578125
599, 920896901, -8.746137619018555, -0.7164944410324097, 8.134278297424316, -56.458351135253906, -324.8531799316406, -78.01367950439453, 0.166748046875, 0.2802734375, -1.03564453125
600, 920913568, -10.470145225524902, -0.8845250606536865, 8.499505043029785, -69.31720733642578, -335.6312561035156, -85.04679870605469, 0.118408203125, 0.31005859375, -1.117431640625
601, 920930235, -9.525786399841309, -0.5453358888626099, 7.38783073425293, -82.92810821533203, -338.2127380371094, -88.53034973144531, 0.062744140625, 0.34326171875, -1.193603515625
602, 920946902, -9.705370903015137, -0.2968422472476959, 7.551971435546875, -87.85322570800781, -307.77691650390625, -76.84786987304688, 0.001953125, 0.37646484375, -1.26318359375
603, 920963569, -12.680964469909668, -0.5094125866889954, 10.927379608154297, -98.52478790283203, -277.079345703125, -64.6299057006836, -0.05859375, 0.410400390625, -1.31591796875
604, 920980236, -18.389225006103516, -2.6342480182647705, 14.859187126159668, -119.17816925048828, -279.8793640136719, -64.35216522216797, -0.120849609375, 0.4462890625, -1.36572265625
605, 920996903, -22.798084259033203, -6.06240177154541, 14.746524810791016, -120.89994812011719, -313.4034729003906, -83.1309814453125, -0.19384765625, 0.486328125, -1.41259765625
606, 921013570, -22.137792587280273, -5.5592803955078125, 10.95272445678711, -94.82320404052734, -332.364990234375, -116.34070587158203, -0.281982421875, 0.527099609375, -1.454833984375
607, 921030237, -21.39421844482422, -1.417940616607666, 6.119268894195557, -90.74137878417969, -310.5602722167969, -142.87896728515625, -0.369384765625, 0.560791015625, -1.483154296875
608, 921046904, -22.182302474975586, -0.904075026512146, 2.675036668777466, -76.90342712402344, -265.2813720703125, -139.26133728027344, -0.450927734375, 0.596923828125, -1.503173828125
609, 921063571, -24.071727752685547, 2.1197242736816406, -0.37629395723342896, -62.259708404541016, -215.16856384277344, -126.14474487304688, -0.519287109375, 0.621826171875, -1.510009765625
610, 921080238, -27.30723762512207, 8.001853942871094, -6.38299036026001, -64.455078125, -156.30511474609375, -111.2427978515625, -0.57568359375, 0.6455078125, -1.5146484375
611, 921096905, -30.295360565185547, 12.672983169555664, -14.272624969482422, -49.447021484375, -83.38540649414062, -76.14442443847656, -0.607666015625, 0.663330078125, -1.515869140625
612, 921113572, -25.051891326904297, 12.192601203918457, -12.955738067626953, -5.221112251281738, 11.408035278320312, 1.5288290977478027, -0.6142578125, 0.67138671875, -1.516357421875
613, 921130239, -22.017257690429688, 5.262872695922852, -16.9119930267334, 133.81092834472656, 120.83895874023438, 104.35437774658203, -0.58447265625, 0.64599609375, -1.516845703125
614, 921146906, -10.028247833251953, 5.606368064880371, 12.320853233337402, 153.15040588378906, 237.15628051757812, 171.6774139404297, -0.517822265625, 0.58984375, -1.514404296875
615, 921163573, -7.888822555541992, -7.782515048980713, 16.630882263183594, 142.91229248046875, 173.0736083984375, 115.95757293701172, -0.4609375, 0.5390625, -1.50830078125
616, 921180240, -13.796272277832031, 4.501481056213379, 12.884020805358887, 84.61707305908203, 233.71449279785156, 36.07278823852539, -0.39990234375, 0.50634765625, -1.492919921875
617, 921196907, -16.213119506835938, 6.347058296203613, 17.82130241394043, 41.61389923095703, 166.75120544433594, 34.674278259277344, -0.344482421875, 0.4912109375, -1.471435546875
618, 921213574, -9.238502502441406, -1.9315931797027588, 9.889740943908691, 26.28842544555664, 120.1931381225586, 71.4584732055664, -0.31103515625, 0.475830078125, -1.460693359375
619, 921230241, -7.989289283752441, -6.752060413360596, 7.536684036254883, 33.64834976196289, 122.41797637939453, 28.916257858276367, -0.279541015625, 0.46484375, -1.44677734375
620, 921246908, -15.87610912322998, -1.7755961418151855, 14.82404899597168, 70.16265106201172, 82.03851318359375, 38.58091735839844, -0.24951171875, 0.4453125, -1.43408203125
621, 921263575, -8.914124488830566, -1.077802300453186, 9.640652656555176, 42.917171478271484, 12.415107727050781, 24.97725486755371, -0.246337890625, 0.427734375, -1.430419921875
622, 921280242, -5.963087558746338, -0.07322873175144196, 9.800353050231934, 21.902233123779297, 6.841737747192383, 12.30264663696289, -0.244140625, 0.417724609375, -1.427978515625
623, 921296909, -5.967457294464111, -1.7123088836669922, 8.706518173217773, 9.321355819702148, 7.431597709655762, 1.3984476327896118, -0.23974609375, 0.416259765625, -1.427734375
624, 921313576, -5.654060363769531, -1.5865575075149536, 8.529911994934082, 3.231497287750244, 7.661431789398193, -0.8596263527870178, -0.238037109375, 0.413818359375, -1.4287109375
625, 921330243, -5.034553050994873, -1.3267228603363037, 8.67859172821045, -5.091294765472412, 11.30547046661377, -4.07407283782959, -0.234619140625, 0.414306640625, -1.42578125
626, 921346910, -5.2774658203125, -1.8986968994140625, 8.230393409729004, -10.366854667663574, 13.95464038848877, -5.629793643951416, -0.234619140625, 0.41845703125, -1.42333984375
627, 921363577, -5.111828804016113, -2.253044605255127, 7.981063365936279, -11.081141471862793, 13.669698715209961, -4.320380687713623, -0.229248046875, 0.41943359375, -1.418701171875
628, 921380244, -5.169070720672607, -2.225912094116211, 7.829841613769531, -9.705964088439941, 12.406794548034668, -3.0417280197143555, -0.226806640625, 0.42333984375, -1.418701171875
629, 921396911, -5.156922340393066, -2.640319347381592, 7.7204742431640625, -6.539834976196289, 9.803618431091309, -1.5599935054779053, -0.221435546875, 0.426025390625, -1.42041015625
630, 921413578, -5.192875862121582, -2.4576189517974854, 7.757318496704102, -2.563978672027588, 6.74564266204834, 0.2851077914237976, -0.220458984375, 0.427490234375, -1.4150390625
631, 921430245, -5.212718963623047, -2.0682787895202637, 7.858850479125977, -0.4449182450771332, 4.877163887023926, 1.3172931671142578, -0.218505859375, 0.428466796875, -1.4169921875
632, 921446912, -5.161747932434082, -2.1169421672821045, 7.871216297149658, 0.17725913226604462, 4.445257186889648, 1.3432005643844604, -0.21728515625, 0.425537109375, -1.41455078125
633, 921463579, -5.142575740814209, -2.362870216369629, 7.804505348205566, 0.7834861278533936, 5.22074556350708, 1.8884819746017456, -0.21533203125, 0.424560546875, -1.4169921875
634, 921480246, -5.161600112915039, -2.358980894088745, 7.823179721832275, 2.5239078998565674, 5.423316955566406, 3.857830047607422, -0.2138671875, 0.425048828125, -1.415283203125
635, 921496913, -5.183798789978027, -2.10554575920105, 7.830316066741943, 2.5930237770080566, 5.167023181915283, 5.20819616317749, -0.2119140625, 0.423095703125, -1.413330078125
636, 921513580, -4.8827972412109375, -2.2231080532073975, 7.973454475402832, 2.426631450653076, 6.445713520050049, 7.5792670249938965, -0.2119140625, 0.4189453125, -1.413330078125
637, 921530247, -4.753439903259277, -2.2826995849609375, 8.064179420471191, 2.050816774368286, 10.579109191894531, 11.378571510314941, -0.208984375, 0.419921875, -1.412841796875
638, 921546914, -4.978373050689697, -2.150505781173706, 8.083985328674316, 2.8491737842559814, 14.689123153686523, 14.055695533752441, -0.206787109375, 0.41455078125, -1.40771484375
639, 921563581, -5.259763240814209, -2.168790578842163, 8.189132690429688, 2.562486171722412, 20.026994705200195, 17.53129005432129, -0.200927734375, 0.41357421875, -1.406494140625
640, 921580248, -5.134104251861572, -1.7656586170196533, 8.345611572265625, -0.3119129538536072, 30.572792053222656, 20.607337951660156, -0.1962890625, 0.410400390625, -1.403076171875
641, 921596915, -4.688838481903076, -1.8416051864624023, 8.70393180847168, -0.4409652352333069, 46.44176483154297, 22.652389526367188, -0.184814453125, 0.407470703125, -1.395751953125
642, 921613582, -4.671256065368652, -1.4109104871749878, 8.953642845153809, -4.144545555114746, 70.2838363647461, 18.733497619628906, -0.1669921875, 0.405517578125, -1.384521484375
643, 921630249, -4.811812400817871, -1.6663168668746948, 9.116798400878906, -9.71457290649414, 100.98107147216797, 16.89412498474121, -0.14892578125, 0.402587890625, -1.3720703125
644, 921646916, -5.156156539916992, -1.5812060832977295, 8.982223510742188, -19.79574203491211, 139.8717498779297, 18.720298767089844, -0.11767578125, 0.40576171875, -1.3525390625
645, 921663583, -5.0840535163879395, -1.9092782735824585, 9.159587860107422, -26.711444854736328, 184.37989807128906, 23.10209846496582, -0.077880859375, 0.40966796875, -1.32080078125
646, 921680250, -5.273163318634033, -1.7686232328414917, 8.807774543762207, -26.247835159301758, 233.005615234375, 26.62762451171875, -0.02978515625, 0.411865234375, -1.284423828125
647, 921696917, -5.271376609802246, -2.625145673751831, 8.525577545166016, -23.369991302490234, 293.46630859375, 33.60953903198242, 0.026611328125, 0.409423828125, -1.22998046875
648, 921713584, -5.4466023445129395, -3.196666955947876, 8.80885124206543, -21.465295791625977, 359.5106201171875, 53.99860382080078, 0.09130859375, 0.40380859375, -1.154296875
649, 921730251, -6.716151714324951, -5.9939374923706055, 11.00185775756836, -11.07707691192627, 440.0282897949219, 95.5836181640625, 0.16064453125, 0.38623046875, -1.056884765625
650, 921746918, -14.749948501586914, -6.631911754608154, 12.651142120361328, 4.777591228485107, 474.9413146972656, 142.34341430664062, 0.220947265625, 0.354248046875, -0.938232421875
651, 921763585, -23.00227165222168, -8.250527381896973, 18.31240463256836, -12.570738792419434, 441.09527587890625, 158.73362731933594, 0.259521484375, 0.3134765625, -0.819091796875
652, 921780252, -22.240358352661133, -5.727900505065918, 22.13935661315918, -6.451167583465576, 391.13006591796875, 183.62220764160156, 0.27734375, 0.26220703125, -0.70703125
653, 921796919, -9.527989387512207, -11.34446907043457, 19.085159301757812, -27.188644409179688, 300.6921081542969, 180.43641662597656, 0.27734375, 0.217041015625, -0.62451171875
654, 921813586, -7.707760810852051, -12.004568099975586, 11.548155784606934, 64.5711898803711, 335.9861755371094, 195.9562530517578, 0.264892578125, 0.16162109375, -0.530517578125
