sep=,
DeviceTag:,B,,,,,,,,,,,,,,,,,
FirmwareVersion:,2.2.1,,,,,,,,,,,,,,,,,
AppVersion:,2022.0.1,,,,,,,,,,,,,,,,,
SyncStatus:,Synced,,,,,,,,,,,,,,,,,
OutputRate:,60Hz,,,,,,,,,,,,,,,,,
FilterProfile:,General,,,,,,,,,,,,,,,,,
Measurement Mode:,Inertial Mode - Rate quantities (with mag),,,,,,,,,,,,,,,,,
StartTime:,2022-08-03 15:28:43.663 +0300,,,,,,,,,,,,,,,,,
© Xsens Technologies B. V. 2005-2022,,,,,,,,,,,,,,,,,,,

PacketCounter,SampleTimeFine,Acc_X,Acc_Y,Acc_Z,Gyr_X,Gyr_Y,Gyr_Z,Mag_X,Mag_Y,Mag_Z
1, 507971976, -5.239140033721924, -1.4308456182479858, 8.064007759094238, -0.2728648781776428, -0.6683377623558044, -0.8112949728965759, -0.22802734375, 0.380615234375, -1.39453125
2, 507988643, -5.2373480796813965, -1.4435116052627563, 8.06926441192627, -0.3117193281650543, -0.597403347492218, -0.8978146910667419, -0.2294921875, 0.379150390625, -1.3955078125
3, 508005310, -5.235177040100098, -1.4484784603118896, 8.054842948913574, -0.2651810944080353, -0.6398820877075195, -0.7617471814155579, -0.228759765625, 0.381103515625, -1.39453125
4, 508021977, -5.227944850921631, -1.4556264877319336, 8.038748741149902, -0.3043684959411621, -0.6951286196708679, -0.8276998996734619, -0.229248046875, 0.380615234375, -1.396484375
5, 508038644, -5.2270636558532715, -1.4402885437011719, 8.041607856750488, -0.16171857714653015, -0.7013653516769409, -0.8028044104576111, -0.22705078125, 0.380615234375, -1.39599609375
6, 508055311, -5.242492198944092, -1.4351731538772583, 8.0531587600708, -0.18923941254615784, -0.6014373302459717, -0.7555873394012451, -0.229736328125, 0.381591796875, -1.39404296875
7, 508071978, -5.236479759216309, -1.4356404542922974, 8.069571495056152, -0.2657189667224884, -0.6809391975402832, -0.8170579075813293, -0.22900390625, 0.378173828125, -1.3955078125
8, 508088645, -5.23865270614624, -1.4415967464447021, 8.053834915161133, -0.306379109621048, -0.6670699119567871, -0.8049942851066589, -0.229736328125, 0.379638671875, -1.39697265625
9, 508105312, -5.241147994995117, -1.4477009773254395, 8.060731887817383, -0.25523054599761963, -0.6829754114151001, -0.8003968596458435, -0.228515625, 0.381103515625, -1.392578125
10, 508121979, -5.239523410797119, -1.4345701932907104, 8.067420959472656, -0.20963993668556213, -0.7168994545936584, -0.8657860159873962, -0.2265625, 0.380126953125, -1.39306640625
11, 508138646, -5.225823402404785, -1.4481568336486816, 8.04238224029541, -0.32704854011535645, -0.6878674626350403, -0.6785059571266174, -0.224609375, 0.380615234375, -1.39697265625
12, 508155313, -5.24225378036499, -1.4409211874008179, 8.049967765808105, -0.3309672772884369, -0.6442362070083618, -0.856475830078125, -0.2255859375, 0.377197265625, -1.3955078125
13, 508171980, -5.2460455894470215, -1.4430406093597412, 8.06965446472168, -0.36458393931388855, -0.6294832825660706, -0.8927946090698242, -0.2265625, 0.380615234375, -1.3955078125
14, 508188647, -5.24171781539917, -1.455640196800232, 8.039726257324219, -0.30055221915245056, -0.7538586258888245, -0.942227303981781, -0.2275390625, 0.380615234375, -1.3935546875
15, 508205314, -5.232996940612793, -1.455704689025879, 8.039913177490234, -0.20952469110488892, -0.8596133589744568, -0.8613039255142212, -0.22705078125, 0.380615234375, -1.3955078125
16, 508221981, -5.244836807250977, -1.450117588043213, 8.065068244934082, -0.1940162032842636, -0.8999279141426086, -0.9491041898727417, -0.22607421875, 0.381103515625, -1.3916015625
17, 508238648, -5.2336907386779785, -1.4441566467285156, 8.038009643554688, -0.16180820763111115, -0.8910657167434692, -0.9692996740341187, -0.2275390625, 0.380126953125, -1.39501953125
18, 508255315, -5.24618673324585, -1.4398531913757324, 8.04864501953125, -0.20850017666816711, -0.9260400533676147, -0.940062940120697, -0.2255859375, 0.380615234375, -1.39599609375
19, 508271982, -5.2438507080078125, -1.4420019388198853, 8.055303573608398, -0.25383466482162476, -1.0454976558685303, -1.111924171447754, -0.22802734375, 0.381103515625, -1.39306640625
20, 508288649, -5.257497787475586, -1.4358069896697998, 8.057515144348145, -0.24466532468795776, -1.106468677520752, -1.1342072486877441, -0.2255859375, 0.380126953125, -1.392578125
21, 508305316, -5.236797332763672, -1.4435423612594604, 8.070710182189941, -0.3145623505115509, -1.0383002758026123, -1.1142932176589966, -0.2265625, 0.380615234375, -1.39453125
22, 508321983, -5.219446659088135, -1.4628105163574219, 8.07916259765625, -0.34022626280784607, -0.9410234689712524, -1.108325481414795, -0.22705078125, 0.381103515625, -1.3955078125
23, 508338650, -5.263415336608887, -1.4373551607131958, 8.061415672302246, -0.3196592628955841, -0.9434822201728821, -1.1044450998306274, -0.2265625, 0.381591796875, -1.39453125
24, 508355317, -5.239535808563232, -1.4613574743270874, 8.044651985168457, -0.3907729685306549, -0.9373735785484314, -1.1004369258880615, -0.22705078125, 0.381103515625, -1.39501953125
25, 508371984, -5.219080448150635, -1.4721871614456177, 8.05240249633789, -0.4516927897930145, -0.9054857492446899, -1.0781537294387817, -0.22607421875, 0.382080078125, -1.39111328125
26, 508388651, -5.240011215209961, -1.4457716941833496, 8.060526847839355, -0.4984871745109558, -0.8134721517562866, -0.9892904758453369, -0.229736328125, 0.381591796875, -1.39404296875
27, 508405318, -5.241120338439941, -1.438410997390747, 8.058191299438477, -0.4927884042263031, -0.8638138771057129, -1.0890135765075684, -0.22705078125, 0.382080078125, -1.39404296875
28, 508421985, -5.237728595733643, -1.4464807510375977, 8.06655216217041, -0.3976755440235138, -1.0105105638504028, -1.1122442483901978, -0.228759765625, 0.382080078125, -1.3935546875
29, 508438652, -5.218611717224121, -1.4683531522750854, 8.034448623657227, -0.55587238073349, -0.9383211731910706, -1.1902732849121094, -0.22802734375, 0.381591796875, -1.39453125
30, 508455319, -5.2306952476501465, -1.4732997417449951, 8.068351745605469, -0.48181334137916565, -1.0283371210098267, -1.1615359783172607, -0.2275390625, 0.381591796875, -1.39404296875
31, 508471986, -5.248431205749512, -1.4722570180892944, 8.0385103225708, -0.5619682669639587, -0.8691670298576355, -1.0950453281402588, -0.2265625, 0.381591796875, -1.392578125
32, 508488653, -5.225106239318848, -1.4750088453292847, 8.078434944152832, -0.5841232538223267, -0.8592676520347595, -1.1134097576141357, -0.22607421875, 0.383544921875, -1.39453125
33, 508505320, -5.234673500061035, -1.4597725868225098, 8.049518585205078, -0.5391345024108887, -0.8313626050949097, -1.201722264289856, -0.224609375, 0.381103515625, -1.39453125
34, 508521987, -5.237192153930664, -1.4602971076965332, 8.0449857711792, -0.490790456533432, -0.8167760968208313, -1.1172131299972534, -0.22705078125, 0.381591796875, -1.39453125
35, 508538654, -5.23584508895874, -1.4643841981887817, 8.049583435058594, -0.3876097798347473, -0.9297665357589722, -1.1256908178329468, -0.2275390625, 0.381591796875, -1.3935546875
36, 508555321, -5.227626800537109, -1.4508413076400757, 8.054727554321289, -0.39113152027130127, -0.9463893175125122, -1.116227149963379, -0.228271484375, 0.384521484375, -1.39501953125
37, 508571988, -5.242177963256836, -1.4641181230545044, 8.066472053527832, -0.34126362204551697, -0.9995867609977722, -1.2017606496810913, -0.22607421875, 0.384033203125, -1.39404296875
38, 508588655, -5.238051891326904, -1.487369179725647, 8.052970886230469, -0.2960955798625946, -1.0426290035247803, -1.1759687662124634, -0.2275390625, 0.381591796875, -1.3935546875
39, 508605322, -5.2253947257995605, -1.4938323497772217, 8.070003509521484, -0.23539353907108307, -1.0957497358322144, -1.1543388366699219, -0.228271484375, 0.384521484375, -1.396484375
40, 508621989, -5.234078884124756, -1.484544038772583, 8.094788551330566, -0.18127387762069702, -0.9577741622924805, -1.0005601644515991, -0.228759765625, 0.381591796875, -1.39404296875
41, 508638656, -5.230386257171631, -1.4656294584274292, 8.058083534240723, -0.26962488889694214, -0.9703115224838257, -1.0661542415618896, -0.22607421875, 0.381103515625, -1.3935546875
42, 508655323, -5.235899925231934, -1.4752672910690308, 8.060881614685059, -0.2341897338628769, -0.8541194200515747, -0.9981269240379333, -0.227783203125, 0.383544921875, -1.39404296875
43, 508671990, -5.2268242835998535, -1.4735883474349976, 8.05419921875, -0.3068273365497589, -0.8311192989349365, -0.9884837865829468, -0.227783203125, 0.382568359375, -1.39453125
44, 508688657, -5.23337459564209, -1.4682393074035645, 8.067075729370117, -0.2531687617301941, -0.8436439633369446, -1.011061429977417, -0.2255859375, 0.381591796875, -1.39599609375
45, 508705324, -5.230257511138916, -1.4880907535552979, 8.049516677856445, -0.18847104907035828, -0.923081636428833, -1.019769549369812, -0.22607421875, 0.384033203125, -1.392578125
46, 508721991, -5.232978343963623, -1.4747904539108276, 8.059184074401855, -0.27946019172668457, -0.9232994318008423, -0.9941825866699219, -0.228515625, 0.380615234375, -1.396484375
47, 508738658, -5.227982044219971, -1.4737080335617065, 8.050671577453613, -0.2956986427307129, -1.0157612562179565, -1.041412353515625, -0.228271484375, 0.383056640625, -1.39599609375
48, 508755325, -5.251380920410156, -1.4719914197921753, 8.076135635375977, -0.30275487899780273, -0.9778928160667419, -1.0231761932373047, -0.22607421875, 0.383544921875, -1.39697265625
49, 508771992, -5.244400978088379, -1.482817530632019, 8.053411483764648, -0.2991563379764557, -0.9596310257911682, -1.0655524730682373, -0.22705078125, 0.381591796875, -1.3935546875
50, 508788659, -5.231374263763428, -1.4846196174621582, 8.064422607421875, -0.27090898156166077, -0.968563973903656, -0.9848673939704895, -0.228759765625, 0.383056640625, -1.3935546875
51, 508805326, -5.229800701141357, -1.464036226272583, 8.059032440185547, -0.2635546624660492, -0.8940368890762329, -0.9240677356719971, -0.228759765625, 0.381103515625, -1.39306640625
52, 508821993, -5.2425055503845215, -1.466739535331726, 8.064119338989258, -0.3073652386665344, -0.8469480276107788, -0.930394172668457, -0.2265625, 0.382568359375, -1.39404296875
53, 508838660, -5.237270832061768, -1.470285415649414, 8.052053451538086, -0.3919767439365387, -0.8296209573745728, -0.9606938362121582, -0.224609375, 0.382568359375, -1.39453125
54, 508855327, -5.240635395050049, -1.4969547986984253, 8.045863151550293, -0.3050088584423065, -0.8618033528327942, -0.9889447093009949, -0.229248046875, 0.383544921875, -1.39453125
55, 508871994, -5.237862586975098, -1.4856178760528564, 8.050731658935547, -0.17099037766456604, -0.9260143041610718, -1.0132126808166504, -0.228759765625, 0.384521484375, -1.392578125
56, 508888661, -5.234675407409668, -1.4821935892105103, 8.066218376159668, -0.20362094044685364, -1.0852612257003784, -1.0097037553787231, -0.230224609375, 0.384521484375, -1.39404296875
57, 508905328, -5.229874134063721, -1.479162335395813, 8.048629760742188, -0.18678061664104462, -1.1922839879989624, -1.0592900514602661, -0.228759765625, 0.384033203125, -1.3974609375
58, 508921995, -5.220945358276367, -1.4844238758087158, 8.060433387756348, -0.2172597199678421, -1.065885305404663, -1.0398242473602295, -0.227294921875, 0.384033203125, -1.39453125
59, 508938662, -5.222887992858887, -1.47413170337677, 8.046224594116211, -0.20240435004234314, -0.9530101418495178, -1.0007905960083008, -0.227783203125, 0.382568359375, -1.396484375
60, 508955329, -5.225703716278076, -1.461423635482788, 8.046653747558594, -0.20017604529857635, -0.9459794759750366, -1.0460737943649292, -0.225341796875, 0.38671875, -1.39404296875
61, 508971996, -5.2249250411987305, -1.4713236093521118, 8.063514709472656, -0.15730038285255432, -1.0439735651016235, -0.9447243213653564, -0.22705078125, 0.383056640625, -1.3935546875
62, 508988663, -5.23250675201416, -1.4900870323181152, 8.051492691040039, -0.22188283503055573, -0.9807870984077454, -1.0025451183319092, -0.227783203125, 0.383056640625, -1.3955078125
63, 509005330, -5.223707675933838, -1.5008797645568848, 8.042688369750977, -0.218886137008667, -0.9410490393638611, -0.9510892033576965, -0.226806640625, 0.384033203125, -1.39404296875
64, 509021997, -5.235259532928467, -1.4979395866394043, 8.035148620605469, -0.15245959162712097, -0.9400628805160522, -0.8404551148414612, -0.227783203125, 0.383544921875, -1.3994140625
65, 509038664, -5.23317813873291, -1.47671377658844, 8.081521987915039, -0.21401971578598022, -0.9166016578674316, -0.938782274723053, -0.226806640625, 0.384033203125, -1.39599609375
66, 509055331, -5.219776153564453, -1.486412763595581, 8.066795349121094, -0.2264418751001358, -0.8420174717903137, -1.0100880861282349, -0.227294921875, 0.3857421875, -1.39501953125
67, 509071998, -5.221067905426025, -1.4794559478759766, 8.06151294708252, -0.3505866527557373, -0.8004865050315857, -1.0259807109832764, -0.227294921875, 0.383056640625, -1.396484375
68, 509088665, -5.223491668701172, -1.4798647165298462, 8.072717666625977, -0.2501848638057709, -0.8524803519248962, -0.9613727331161499, -0.227783203125, 0.384033203125, -1.39208984375
69, 509105332, -5.226048469543457, -1.5022075176239014, 8.041969299316406, -0.2277609258890152, -0.8989545106887817, -0.8869933485984802, -0.227783203125, 0.383056640625, -1.39404296875
70, 509121999, -5.22110652923584, -1.4750890731811523, 8.033684730529785, -0.2172597348690033, -0.8950230479240417, -0.9711055159568787, -0.227294921875, 0.3857421875, -1.396484375
71, 509138666, -5.229468822479248, -1.487352728843689, 8.043841361999512, -0.18917539715766907, -0.7615167498588562, -0.882536768913269, -0.2265625, 0.383056640625, -1.39599609375
72, 509155333, -5.2351298332214355, -1.4696290493011475, 8.05638599395752, -0.238774374127388, -0.818505048751831, -1.0119577646255493, -0.225830078125, 0.38623046875, -1.39501953125
73, 509172000, -5.233389377593994, -1.47503662109375, 8.040730476379395, -0.24936524033546448, -0.7730937600135803, -0.9791606664657593, -0.226806640625, 0.384765625, -1.39697265625
74, 509188667, -5.235871315002441, -1.4872558116912842, 8.062406539916992, -0.25282296538352966, -0.9181385040283203, -0.9916212558746338, -0.22412109375, 0.383544921875, -1.39599609375
75, 509205334, -5.252182483673096, -1.4960557222366333, 8.041706085205078, -0.26638489961624146, -0.972168505191803, -1.0216522216796875, -0.229736328125, 0.384033203125, -1.39501953125
76, 509222001, -5.234182357788086, -1.5012394189834595, 8.041976928710938, -0.09142452478408813, -0.9558531641960144, -0.9455695748329163, -0.229736328125, 0.384521484375, -1.39501953125
77, 509238668, -5.224470615386963, -1.488077163696289, 8.063164710998535, -0.14764440059661865, -0.9816706776618958, -0.9094557166099548, -0.227783203125, 0.3857421875, -1.39404296875
78, 509255335, -5.2258501052856445, -1.4787629842758179, 8.037419319152832, -0.11754949390888214, -1.0031981468200684, -1.0240083932876587, -0.228759765625, 0.385009765625, -1.39208984375
79, 509272002, -5.224493503570557, -1.4981235265731812, 8.046319007873535, -0.11018582433462143, -1.019795298576355, -0.9747681021690369, -0.227783203125, 0.383056640625, -1.396484375
80, 509288669, -5.217967987060547, -1.5068269968032837, 8.04964828491211, -0.18661414086818695, -1.0101008415222168, -0.884278416633606, -0.227783203125, 0.384521484375, -1.39404296875
81, 509305336, -5.227973937988281, -1.492759108543396, 8.049652099609375, -0.21344344317913055, -0.9821574091911316, -0.9542779922485352, -0.226806640625, 0.384033203125, -1.396484375
82, 509322003, -5.240206241607666, -1.4888871908187866, 8.049589157104492, -0.1779954731464386, -0.9506282210350037, -1.0242774486541748, -0.226806640625, 0.38623046875, -1.39501953125
83, 509338670, -5.231601238250732, -1.4992965459823608, 8.064557075500488, -0.20732200145721436, -1.080804705619812, -1.0465989112854004, -0.227294921875, 0.382568359375, -1.39501953125
84, 509355337, -5.219707489013672, -1.4977959394454956, 8.084609985351562, -0.15290780365467072, -1.1156636476516724, -1.0268644094467163, -0.226806640625, 0.384765625, -1.39599609375
85, 509372004, -5.228522300720215, -1.5023113489151, 8.076951026916504, -0.10583166778087616, -1.0934700965881348, -0.9193934202194214, -0.227294921875, 0.384765625, -1.3955078125
86, 509388671, -5.221439361572266, -1.4766994714736938, 8.065802574157715, -0.05938304588198662, -1.1252427101135254, -0.8474602699279785, -0.229248046875, 0.384521484375, -1.39501953125
87, 509405338, -5.222618103027344, -1.485213279724121, 8.057153701782227, 0.036888692528009415, -0.9331091046333313, -0.9023481607437134, -0.228759765625, 0.38525390625, -1.39501953125
88, 509422005, -5.233749866485596, -1.4887433052062988, 8.059453964233398, 0.05139828845858574, -0.8657989501953125, -0.8727911710739136, -0.227783203125, 0.38671875, -1.39453125
89, 509438672, -5.231670379638672, -1.481600046157837, 8.068035125732422, -0.10215625166893005, -0.8933454155921936, -0.9057291746139526, -0.228271484375, 0.384521484375, -1.39453125
90, 509455339, -5.237639427185059, -1.4850445985794067, 8.032034873962402, -0.19007183611392975, -0.9047558903694153, -0.9355550408363342, -0.227294921875, 0.383544921875, -1.39501953125
91, 509472006, -5.23982048034668, -1.4737690687179565, 8.039628982543945, -0.10930219292640686, -0.9137842059135437, -0.8823574781417847, -0.227294921875, 0.384033203125, -1.3955078125
92, 509488673, -5.226529598236084, -1.4881335496902466, 8.064618110656738, -0.2311290204524994, -1.0277481079101562, -0.9455184936523438, -0.227783203125, 0.38720703125, -1.39697265625
93, 509505340, -5.222386837005615, -1.487859845161438, 8.059576034545898, -0.22699256241321564, -0.9894955158233643, -0.9311625957489014, -0.226318359375, 0.3857421875, -1.39501953125
94, 509522007, -5.239777088165283, -1.4977434873580933, 8.049972534179688, -0.21874527633190155, -0.985499918460846, -0.9757158160209656, -0.227783203125, 0.38525390625, -1.39599609375
95, 509538674, -5.216220378875732, -1.4970382452011108, 8.056474685668945, -0.2740558683872223, -1.0009058713912964, -0.9850131869316101, -0.228759765625, 0.38525390625, -1.39599609375
96, 509555341, -5.232390880584717, -1.4869084358215332, 8.065560340881348, -0.2163504660129547, -0.9847955703735352, -0.9374504089355469, -0.228271484375, 0.383056640625, -1.3955078125
97, 509572008, -5.222863674163818, -1.4984982013702393, 8.064955711364746, -0.1809409111738205, -1.045100450515747, -1.1102721691131592, -0.225830078125, 0.38720703125, -1.3955078125
98, 509588675, -5.231819152832031, -1.4968582391738892, 8.051070213317871, -0.2365332990884781, -1.193705439567566, -0.9704906940460205, -0.227783203125, 0.38525390625, -1.39501953125
99, 509605342, -5.228401184082031, -1.5029151439666748, 8.050454139709473, -0.1914549320936203, -1.1754308938980103, -0.9933373928070068, -0.2265625, 0.383056640625, -1.3974609375
100, 509622009, -5.211902618408203, -1.4938281774520874, 8.06689167022705, -0.16723813116550446, -1.0954550504684448, -1.0379801988601685, -0.227783203125, 0.384521484375, -1.396484375
101, 509638676, -5.2021894454956055, -1.506400465965271, 8.067049026489258, -0.08386878669261932, -1.029528021812439, -0.8804621696472168, -0.228271484375, 0.384765625, -1.396484375
102, 509655343, -5.225056171417236, -1.4852653741836548, 8.080609321594238, -0.09621411561965942, -1.0136866569519043, -0.95596843957901, -0.227294921875, 0.384033203125, -1.39501953125
103, 509672010, -5.216644763946533, -1.5092332363128662, 8.060873985290527, -0.16458721458911896, -0.9663798809051514, -0.9888807535171509, -0.227783203125, 0.384521484375, -1.39599609375
104, 509688677, -5.224593162536621, -1.5185340642929077, 8.079903602600098, -0.10839293897151947, -0.9551999568939209, -0.8974305391311646, -0.229248046875, 0.383544921875, -1.39697265625
105, 509705344, -5.223240375518799, -1.5091031789779663, 8.065916061401367, -0.1574796736240387, -0.9795960783958435, -0.8707805275917053, -0.228271484375, 0.38525390625, -1.39697265625
106, 509722011, -5.209869384765625, -1.5024681091308594, 8.048083305358887, -0.13764263689517975, -0.9457488656044006, -0.9270644783973694, -0.228759765625, 0.38671875, -1.396484375
107, 509738678, -5.224704742431641, -1.4859287738800049, 8.053156852722168, -0.21709322929382324, -1.0578556060791016, -0.9425986409187317, -0.227294921875, 0.38623046875, -1.3984375
108, 509755345, -5.22442626953125, -1.5072600841522217, 8.0828275680542, -0.14489103853702545, -1.1215672492980957, -0.98526930809021, -0.226806640625, 0.384033203125, -1.39599609375
109, 509772012, -5.2183990478515625, -1.4984441995620728, 8.064659118652344, -0.09010547399520874, -1.0772444009780884, -1.02262544631958, -0.228271484375, 0.3857421875, -1.3955078125
110, 509788679, -5.2098894119262695, -1.5037715435028076, 8.078800201416016, -0.060023363679647446, -1.0974273681640625, -0.9728728532791138, -0.228271484375, 0.384521484375, -1.39697265625
111, 509805346, -5.214866638183594, -1.4989100694656372, 8.05416488647461, -0.01589267887175083, -1.1061996221542358, -0.90688157081604, -0.229736328125, 0.385009765625, -1.396484375
112, 509822013, -5.207754135131836, -1.491150975227356, 8.083108901977539, -0.009028477594256401, -0.9996637105941772, -0.7803165316581726, -0.228271484375, 0.38525390625, -1.3955078125
113, 509838680, -5.212519645690918, -1.4931784868240356, 8.061910629272461, -0.15431296825408936, -1.0729291439056396, -0.8377392888069153, -0.228759765625, 0.38720703125, -1.3955078125
114, 509855347, -5.2265801429748535, -1.4961469173431396, 8.064291000366211, -0.15266449749469757, -0.9340054392814636, -0.9003632068634033, -0.226806640625, 0.38525390625, -1.39599609375
115, 509872014, -5.218225955963135, -1.503293514251709, 8.016427040100098, -0.07330355048179626, -1.0036464929580688, -0.9642285704612732, -0.226806640625, 0.38427734375, -1.396484375
116, 509888681, -5.2209086418151855, -1.4867584705352783, 8.053121566772461, -0.09283323585987091, -1.1118474006652832, -0.9233762621879578, -0.227294921875, 0.382568359375, -1.39599609375
117, 509905348, -5.2105793952941895, -1.4899272918701172, 8.092041969299316, -0.12694932520389557, -1.1518287658691406, -0.9721683859825134, -0.230224609375, 0.38525390625, -1.398193359375
118, 509922015, -5.224960803985596, -1.4991333484649658, 8.065812110900879, -0.022987399250268936, -1.080676555633545, -0.9479517340660095, -0.228271484375, 0.384033203125, -1.3974609375
119, 509938682, -5.215588569641113, -1.5120832920074463, 8.051131248474121, -0.13367266952991486, -1.1327985525131226, -0.9329298138618469, -0.228759765625, 0.38623046875, -1.39599609375
120, 509955349, -5.218408584594727, -1.503693699836731, 8.03132152557373, 0.016129598021507263, -1.099975824356079, -0.9370278120040894, -0.228271484375, 0.38427734375, -1.39794921875
121, 509972016, -5.22453498840332, -1.49088716506958, 8.049901008605957, -0.10921255499124527, -1.105623483657837, -0.9189196825027466, -0.228271484375, 0.384033203125, -1.3955078125
122, 509988683, -5.202215194702148, -1.4945112466812134, 8.050936698913574, -0.042478665709495544, -1.073505163192749, -0.9277176260948181, -0.230712890625, 0.384521484375, -1.39697265625
123, 510005350, -5.219297409057617, -1.4947209358215332, 8.069085121154785, -0.03013334423303604, -1.0506842136383057, -0.889208972454071, -0.228759765625, 0.38525390625, -1.398681640625
124, 510022017, -5.219539642333984, -1.496172547340393, 8.060745239257812, -0.08039825409650803, -1.0390559434890747, -0.8918341398239136, -0.228271484375, 0.384033203125, -1.3974609375
125, 510038684, -5.21129035949707, -1.4901719093322754, 8.078720092773438, -0.10644638538360596, -1.048276662826538, -0.9227102398872375, -0.227294921875, 0.383056640625, -1.39697265625
126, 510055351, -5.202978610992432, -1.4894044399261475, 8.06027603149414, -0.14501911401748657, -1.001571774482727, -0.8849443197250366, -0.229736328125, 0.385009765625, -1.39697265625
127, 510072018, -5.209443092346191, -1.5079959630966187, 8.068965911865234, -0.13214871287345886, -1.0659620761871338, -0.9474649429321289, -0.228759765625, 0.38720703125, -1.39599609375
128, 510088685, -5.212887287139893, -1.506043553352356, 8.064373970031738, -0.09177030622959137, -1.0185914039611816, -0.88901686668396, -0.226806640625, 0.384765625, -1.39501953125
129, 510105352, -5.209772109985352, -1.481123685836792, 8.063085556030273, -0.05537465959787369, -1.1540699005126953, -0.9031166434288025, -0.227783203125, 0.384765625, -1.39697265625
130, 510122019, -5.1956634521484375, -1.4962388277053833, 8.053091049194336, -0.0788486897945404, -0.9814786911010742, -0.8640573024749756, -0.229248046875, 0.3857421875, -1.39697265625
131, 510138686, -5.218106269836426, -1.5033501386642456, 8.069600105285645, -0.032310422509908676, -1.039273738861084, -0.8685907125473022, -0.230712890625, 0.384521484375, -1.398681640625
132, 510155353, -5.214651584625244, -1.4854995012283325, 8.065567970275879, -0.052710939198732376, -1.0040947198867798, -0.913054347038269, -0.229736328125, 0.384765625, -1.39794921875
133, 510172020, -5.212222099304199, -1.4960346221923828, 8.063096046447754, -0.13764265179634094, -0.9572875499725342, -0.9181895852088928, -0.229736328125, 0.385009765625, -1.39599609375
134, 510188687, -5.218252658843994, -1.5018205642700195, 8.074753761291504, -0.12468262016773224, -1.007616400718689, -0.8497526049613953, -0.231201171875, 0.3857421875, -1.396484375
135, 510205354, -5.2012858390808105, -1.4975124597549438, 8.053954124450684, -0.08735211938619614, -1.024661660194397, -0.9104419350624084, -0.231689453125, 0.38623046875, -1.3955078125
136, 510222021, -5.214226245880127, -1.493079423904419, 8.053203582763672, 0.016603432595729828, -1.0238932371139526, -0.9547517895698547, -0.231201171875, 0.385009765625, -1.3955078125
137, 510238688, -5.217058181762695, -1.4955687522888184, 8.073502540588379, -0.13752739131450653, -1.0328706502914429, -0.8319517970085144, -0.230224609375, 0.38525390625, -1.397705078125
138, 510255355, -5.202023506164551, -1.5042990446090698, 8.061198234558105, -0.07327793538570404, -1.0307575464248657, -0.9127340912818909, -0.228271484375, 0.384765625, -1.39599609375
139, 510272022, -5.2188310623168945, -1.4939250946044922, 8.066088676452637, -0.11976498365402222, -1.0410537719726562, -0.8728680610656738, -0.228271484375, 0.385009765625, -1.3955078125
140, 510288689, -5.219050407409668, -1.489092469215393, 8.078522682189941, -0.0707806944847107, -1.0615054368972778, -0.9442248940467834, -0.229736328125, 0.38623046875, -1.39599609375
141, 510305356, -5.220316410064697, -1.4866409301757812, 8.084789276123047, -0.11265746504068375, -1.0590338706970215, -0.8787844777107239, -0.227783203125, 0.384033203125, -1.39697265625
142, 510322023, -5.206990718841553, -1.4892723560333252, 8.062040328979492, -0.07825960963964462, -1.1139219999313354, -0.8468455672264099, -0.229248046875, 0.384521484375, -1.396484375
143, 510338690, -5.201185703277588, -1.4995349645614624, 8.06663990020752, -0.1344410628080368, -1.1618304252624512, -0.9178694486618042, -0.230224609375, 0.384033203125, -1.39501953125
144, 510355357, -5.192549705505371, -1.4998058080673218, 8.096881866455078, -0.04019912704825401, -1.0975170135498047, -0.9863449335098267, -0.229248046875, 0.384033203125, -1.396484375
145, 510372024, -5.191418170928955, -1.4907418489456177, 8.082563400268555, -0.05257006362080574, -0.9723604917526245, -0.932981014251709, -0.230712890625, 0.385009765625, -1.39599609375
146, 510388691, -5.205790042877197, -1.4858033657073975, 8.06154727935791, -0.07723509520292282, -0.9847954511642456, -0.9364513754844666, -0.227783203125, 0.383544921875, -1.39599609375
147, 510405358, -5.208920478820801, -1.4949325323104858, 8.04280948638916, -0.06704124063253403, -1.0185017585754395, -0.9290879368782043, -0.230224609375, 0.384033203125, -1.39306640625
148, 510422025, -5.206784725189209, -1.4994971752166748, 8.070874214172363, -0.14133088290691376, -1.0065279006958008, -0.8963932991027832, -0.229736328125, 0.3857421875, -1.39697265625
149, 510438692, -5.182939052581787, -1.513958215713501, 8.06287956237793, -0.08644286543130875, -0.8886198401451111, -0.8246136903762817, -0.228271484375, 0.3857421875, -1.39599609375
150, 510455359, -5.211958885192871, -1.4965903759002686, 8.07526969909668, -0.0938321202993393, -0.8618032932281494, -0.7673820853233337, -0.228759765625, 0.38427734375, -1.39892578125
151, 510472026, -5.201724529266357, -1.4905731678009033, 8.068376541137695, -0.10101649165153503, -0.9274486899375916, -0.7990009188652039, -0.228759765625, 0.38525390625, -1.3974609375
152, 510488693, -5.205844402313232, -1.4863572120666504, 8.058464050292969, -0.13058634102344513, -0.8497140407562256, -0.7981173396110535, -0.228759765625, 0.382568359375, -1.399658203125
153, 510505360, -5.1930832862854, -1.490409016609192, 8.061964988708496, -0.1485152393579483, -0.932263970375061, -0.8913988471031189, -0.230224609375, 0.385498046875, -1.39404296875
154, 510522027, -5.218051433563232, -1.4950791597366333, 8.078415870666504, -0.14970622956752777, -0.865376353263855, -0.9034623503684998, -0.230224609375, 0.384033203125, -1.39697265625
155, 510538694, -5.206486701965332, -1.5009177923202515, 8.084678649902344, -0.11816418170928955, -0.8549774885177612, -0.7754244208335876, -0.229248046875, 0.3857421875, -1.3955078125
156, 510555361, -5.200747489929199, -1.4904637336730957, 8.09542179107666, -0.13467156887054443, -0.8499318957328796, -0.8197216987609863, -0.229736328125, 0.385009765625, -1.39404296875
157, 510572028, -5.199348449707031, -1.4958181381225586, 8.082564353942871, -0.15450862050056458, -0.8693974614143372, -0.7655251622200012, -0.229736328125, 0.385009765625, -1.396484375
158, 510588695, -5.211017608642578, -1.5000596046447754, 8.070719718933105, -0.16589346528053284, -0.8837533593177795, -0.7387855648994446, -0.230712890625, 0.381591796875, -1.39697265625
159, 510605362, -5.198858261108398, -1.491213321685791, 8.04472541809082, -0.12194206565618515, -0.8895419239997864, -0.8359857201576233, -0.231689453125, 0.384521484375, -1.3955078125
160, 510622029, -5.207147121429443, -1.4872097969055176, 8.069591522216797, -0.1402423232793808, -0.7757574319839478, -0.8178134560585022, -0.228759765625, 0.3857421875, -1.3955078125
161, 510638696, -5.211597442626953, -1.5046483278274536, 8.05439281463623, -0.12917764484882355, -0.7789974212646484, -0.8263809084892273, -0.228759765625, 0.384521484375, -1.39599609375
162, 510655363, -5.216068267822266, -1.5001254081726074, 8.070457458496094, -0.1402551531791687, -0.790600061416626, -0.795748233795166, -0.228271484375, 0.38525390625, -1.396484375
163, 510672030, -5.1849470138549805, -1.4976136684417725, 8.077801704406738, 0.016475368291139603, -0.8055834174156189, -0.747455358505249, -0.229736328125, 0.384033203125, -1.396484375
164, 510688697, -5.209104537963867, -1.4945813417434692, 8.086769104003906, -0.09990234673023224, -0.7611966133117676, -0.6334789395332336, -0.229736328125, 0.385009765625, -1.39501953125
165, 510705364, -5.205376148223877, -1.4861959218978882, 8.072627067565918, -0.13112421333789825, -0.6632024049758911, -0.7245063781738281, -0.230712890625, 0.38525390625, -1.397216796875
166, 510722031, -5.210139751434326, -1.4959670305252075, 8.032198905944824, -0.10356494784355164, -0.6421487927436829, -0.6805549263954163, -0.230712890625, 0.384033203125, -1.3955078125
167, 510738698, -5.220384120941162, -1.4973596334457397, 8.058732032775879, -0.13734810054302216, -0.6778529286384583, -0.7406681180000305, -0.227783203125, 0.3857421875, -1.39501953125
168, 510755365, -5.224910259246826, -1.4879779815673828, 8.060028076171875, -0.03237444907426834, -0.753282368183136, -0.6977155208587646, -0.227783203125, 0.3857421875, -1.3955078125
169, 510772032, -5.222257137298584, -1.4793716669082642, 8.070937156677246, 0.013043266721069813, -0.8526467084884644, -0.7944802641868591, -0.228759765625, 0.382568359375, -1.3974609375
170, 510788699, -5.202311992645264, -1.4976990222930908, 8.073134422302246, -0.051084522157907486, -1.0041714906692505, -0.8260095119476318, -0.229736328125, 0.385009765625, -1.3955078125
171, 510805366, -5.18898344039917, -1.4871057271957397, 8.077672958374023, 0.012748721055686474, -1.042885184288025, -0.7989497184753418, -0.229248046875, 0.384521484375, -1.396484375
172, 510822033, -5.211709499359131, -1.4905426502227783, 8.053194046020508, 0.03631240874528885, -0.9250155091285706, -0.7977076172828674, -0.229736328125, 0.384765625, -1.398681640625
173, 510838700, -5.217833518981934, -1.4761170148849487, 8.043317794799805, -0.057654187083244324, -0.8306839466094971, -0.7127630114555359, -0.229248046875, 0.383056640625, -1.3974609375
174, 510855367, -5.210472106933594, -1.4979146718978882, 8.060186386108398, -0.007594165857881308, -0.8956503868103027, -0.8421968817710876, -0.231201171875, 0.383056640625, -1.398681640625
175, 510872034, -5.218841075897217, -1.4973523616790771, 8.053065299987793, -0.05032895877957344, -0.8791175484657288, -0.8064286708831787, -0.230224609375, 0.383544921875, -1.39794921875
176, 510888701, -5.215926170349121, -1.4775233268737793, 8.041977882385254, -0.04921775683760643, -0.8834350109100342, -0.7974864840507507, -0.229248046875, 0.384521484375, -1.39697265625
177, 510905368, -5.200002193450928, -1.4727895259857178, 8.071635246276855, -0.10029932856559753, -0.9421502351760864, -0.8396225571632385, -0.228759765625, 0.38525390625, -1.396484375
178, 510922035, -5.213245868682861, -1.4826347827911377, 8.054126739501953, -0.0592677928507328, -0.9520369172096252, -0.920379638671875, -0.228271484375, 0.384521484375, -1.3955078125
179, 510938702, -5.208237171173096, -1.4872444868087769, 8.067286491394043, -0.06869325786828995, -0.9365412592887878, -0.8376121520996094, -0.229248046875, 0.382080078125, -1.3984375
180, 510955369, -5.2039947509765625, -1.4865086078643799, 8.06212043762207, -0.14099788665771484, -0.7497988939285278, -0.7908816337585449, -0.227294921875, 0.383056640625, -1.396484375
181, 510972036, -5.20815896987915, -1.4873462915420532, 8.089988708496094, -0.14022952318191528, -0.789165735244751, -0.8059548139572144, -0.227783203125, 0.384765625, -1.39794921875
182, 510988703, -5.2134623527526855, -1.4864219427108765, 8.054360389709473, -0.12470822036266327, -0.7027868032455444, -0.6975618600845337, -0.231201171875, 0.383544921875, -1.396484375
183, 511005370, -5.198521137237549, -1.4930005073547363, 8.064553260803223, -0.09895466268062592, -0.7206900715827942, -0.7330482602119446, -0.230224609375, 0.385009765625, -1.396484375
184, 511022037, -5.203554153442383, -1.4796998500823975, 8.040861129760742, -0.10803436487913132, -0.7484670877456665, -0.7434213757514954, -0.232666015625, 0.384033203125, -1.397705078125
185, 511038704, -5.206403732299805, -1.4861754179000854, 8.069363594055176, -0.13745054602622986, -0.7725686430931091, -0.7071665525436401, -0.231201171875, 0.385009765625, -1.396484375
186, 511055371, -5.206239223480225, -1.4903240203857422, 8.056232452392578, -0.0770045816898346, -0.8305941820144653, -0.7019928097724915, -0.228759765625, 0.385009765625, -1.39599609375
187, 511072038, -5.2266340255737305, -1.4870364665985107, 8.049467086791992, -0.1294465810060501, -0.8436310291290283, -0.7180007100105286, -0.227294921875, 0.383544921875, -1.39697265625
188, 511088705, -5.213502407073975, -1.4798583984375, 8.05826187133789, -0.038060471415519714, -0.7921367287635803, -0.7720820307731628, -0.228271484375, 0.383544921875, -1.39697265625
189, 511105372, -5.213932037353516, -1.4890270233154297, 8.068486213684082, -0.03325808793306351, -0.7949669361114502, -0.6789669990539551, -0.230712890625, 0.384033203125, -1.3955078125
190, 511122039, -5.210854530334473, -1.4855066537857056, 8.076727867126465, -0.08183257281780243, -0.7829546332359314, -0.7632455825805664, -0.226806640625, 0.383544921875, -1.396484375
191, 511138706, -5.212099075317383, -1.4892280101776123, 8.076933860778809, 0.021008817479014397, -0.7569448947906494, -0.7506441473960876, -0.22607421875, 0.383056640625, -1.396484375
192, 511155373, -5.213356971740723, -1.4935675859451294, 8.081135749816895, -0.06545325368642807, -0.7160542011260986, -0.7591347694396973, -0.229736328125, 0.3857421875, -1.396484375
193, 511172040, -5.232532978057861, -1.4766336679458618, 8.079085350036621, -0.08283145725727081, -0.7256205677986145, -0.6509082913398743, -0.227783203125, 0.383056640625, -1.3984375
194, 511188707, -5.208856105804443, -1.4762519598007202, 8.063497543334961, -0.09244903177022934, -0.8115383982658386, -0.8037649393081665, -0.227294921875, 0.38427734375, -1.400146484375
195, 511205374, -5.206395626068115, -1.5033923387527466, 8.046867370605469, -0.14162543416023254, -0.8908482193946838, -0.7029150128364563, -0.230224609375, 0.383544921875, -1.3955078125
196, 511222041, -5.214531898498535, -1.488139033317566, 8.056344032287598, -0.1682882457971573, -0.9735900163650513, -0.7552289366722107, -0.228759765625, 0.3857421875, -1.398681640625
197, 511238708, -5.217068195343018, -1.4608144760131836, 8.060218811035156, -0.1378091424703598, -0.7996669411659241, -0.8719460368156433, -0.228271484375, 0.383056640625, -1.3955078125
198, 511255375, -5.2124714851379395, -1.4725449085235596, 8.070266723632812, -0.13550397753715515, -0.7704684138298035, -0.7894474267959595, -0.230224609375, 0.385009765625, -1.39501953125
199, 511272042, -5.206274509429932, -1.4892330169677734, 8.066161155700684, -0.15837612748146057, -0.7668569684028625, -0.7976562976837158, -0.231201171875, 0.385009765625, -1.39501953125
200, 511288709, -5.224334239959717, -1.4822248220443726, 8.067712783813477, -0.14960376918315887, -0.7645134329795837, -0.7615679502487183, -0.227783203125, 0.383056640625, -1.39697265625
201, 511305376, -5.221611022949219, -1.4699257612228394, 8.075355529785156, -0.1645359992980957, -0.8728936314582825, -0.836728572845459, -0.229736328125, 0.383544921875, -1.398193359375
202, 511322043, -5.231672763824463, -1.4824272394180298, 8.063591003417969, -0.12055899202823639, -0.9665977358818054, -0.8139076232910156, -0.229248046875, 0.383544921875, -1.3955078125
203, 511338710, -5.225095272064209, -1.4791690111160278, 8.066448211669922, -0.06302005052566528, -0.9805182814598083, -0.8503801226615906, -0.228759765625, 0.384765625, -1.39794921875
204, 511355377, -5.208445072174072, -1.4851640462875366, 8.080991744995117, -0.18762582540512085, -0.8808847069740295, -0.866285502910614, -0.228271484375, 0.383544921875, -1.39501953125
205, 511372044, -5.2331671714782715, -1.4727139472961426, 8.040007591247559, -0.07115208357572556, -0.9063822031021118, -0.8217962980270386, -0.228759765625, 0.384521484375, -1.39697265625
206, 511388711, -5.212453365325928, -1.4835906028747559, 8.065572738647461, -0.04861289635300636, -0.9272437691688538, -0.8214761018753052, -0.2265625, 0.383056640625, -1.39599609375
207, 511405378, -5.21693229675293, -1.4670934677124023, 8.071188926696777, -0.08135873824357986, -0.9311754107475281, -0.7495172619819641, -0.227783203125, 0.383056640625, -1.39599609375
208, 511422045, -5.200495719909668, -1.4843683242797852, 8.063973426818848, -0.03649809584021568, -0.8975841999053955, -0.8376632928848267, -0.229248046875, 0.383056640625, -1.39501953125
209, 511438712, -5.205892086029053, -1.4852110147476196, 8.066641807556152, -0.09301252663135529, -0.8633401393890381, -0.8664776086807251, -0.228271484375, 0.383056640625, -1.3955078125
210, 511455379, -5.211307525634766, -1.4869428873062134, 8.071701049804688, -0.10442297160625458, -0.8536840677261353, -0.8463332653045654, -0.228759765625, 0.382568359375, -1.3955078125
211, 511472046, -5.22182035446167, -1.4824632406234741, 8.0496187210083, -0.04811346158385277, -0.9299331307411194, -0.7715441584587097, -0.229736328125, 0.38720703125, -1.39697265625
212, 511488713, -5.218934059143066, -1.4756743907928467, 8.051669120788574, -0.14127963781356812, -0.939537763595581, -0.8417485356330872, -0.2265625, 0.381591796875, -1.396484375
213, 511505380, -5.236208915710449, -1.4834319353103638, 8.055449485778809, -0.12099438905715942, -0.94964200258255, -0.8132672309875488, -0.2255859375, 0.382568359375, -1.396484375
214, 511522047, -5.214641094207764, -1.4899002313613892, 8.062281608581543, -0.06631127744913101, -0.9704266786575317, -0.8557842969894409, -0.230712890625, 0.382568359375, -1.39697265625
215, 511538714, -5.214815616607666, -1.4894952774047852, 8.074535369873047, -0.05633512884378433, -0.9272437691688538, -0.8947155475616455, -0.229736328125, 0.384521484375, -1.39697265625
216, 511555381, -5.216108322143555, -1.4814364910125732, 8.07510757446289, -0.01754469983279705, -0.9155004024505615, -0.847460150718689, -0.227783203125, 0.38427734375, -1.3974609375
217, 511572048, -5.211603164672852, -1.4733351469039917, 8.063373565673828, -0.08375351876020432, -0.9040002226829529, -0.7942114472389221, -0.229248046875, 0.383056640625, -1.39697265625
218, 511588715, -5.221207141876221, -1.4695286750793457, 8.082056045532227, -0.10063229501247406, -0.849445104598999, -0.8927177786827087, -0.230224609375, 0.383544921875, -1.39697265625
219, 511605382, -5.2212934494018555, -1.485116958618164, 8.067627906799316, -0.0638524666428566, -0.9175621867179871, -0.9182665348052979, -0.228759765625, 0.384521484375, -1.39501953125
220, 511622049, -5.212344169616699, -1.4868419170379639, 8.054445266723633, -0.11272148042917252, -0.840916097164154, -0.8415820598602295, -0.228271484375, 0.383544921875, -1.39453125
221, 511638716, -5.227039813995361, -1.4775785207748413, 8.069724082946777, -0.06435190886259079, -0.9043973088264465, -0.842235267162323, -0.229248046875, 0.384521484375, -1.39697265625
222, 511655383, -5.209933757781982, -1.4879839420318604, 8.070308685302734, -0.08390720933675766, -1.002301812171936, -0.8906048536300659, -0.229736328125, 0.383056640625, -1.3935546875
223, 511672050, -5.224233150482178, -1.4835588932037354, 8.071078300476074, -0.14181752502918243, -1.0138146877288818, -0.9475418925285339, -0.231201171875, 0.384521484375, -1.39599609375
224, 511688717, -5.215311050415039, -1.4820009469985962, 8.056403160095215, -0.13722002506256104, -0.9740765690803528, -0.8481773138046265, -0.227294921875, 0.383544921875, -1.39599609375
225, 511705384, -5.21749210357666, -1.4819035530090332, 8.054359436035156, -0.09171906858682632, -0.9473754167556763, -0.9458385109901428, -0.228271484375, 0.381591796875, -1.3974609375
226, 511722051, -5.225809097290039, -1.4809478521347046, 8.066576957702637, -0.06797610223293304, -0.9548797607421875, -0.8192094564437866, -0.230224609375, 0.384521484375, -1.39599609375
227, 511738718, -5.2144036293029785, -1.4811766147613525, 8.066855430603027, -0.171144038438797, -0.9358239769935608, -0.8314394354820251, -0.229248046875, 0.381591796875, -1.3974609375
228, 511755385, -5.20566987991333, -1.4803513288497925, 8.063862800598145, -0.08691670745611191, -0.9147576689720154, -0.8447325229644775, -0.231201171875, 0.382080078125, -1.397216796875
229, 511772052, -5.222511291503906, -1.4651284217834473, 8.060443878173828, -0.1483103483915329, -0.9005681276321411, -0.8100913166999817, -0.228759765625, 0.384521484375, -1.39697265625
230, 511788719, -5.220815181732178, -1.4854319095611572, 8.074956893920898, -0.15481595695018768, -0.9177799224853516, -0.8775423169136047, -0.227294921875, 0.3857421875, -1.39892578125
231, 511805386, -5.214224338531494, -1.4747414588928223, 8.07502269744873, -0.13746336102485657, -0.9642670154571533, -0.9076628684997559, -0.231201171875, 0.384521484375, -1.3955078125
232, 511822053, -5.216378688812256, -1.4796924591064453, 8.043094635009766, -0.2161327749490738, -0.9748194217681885, -0.8283019065856934, -0.227783203125, 0.383056640625, -1.39501953125
233, 511838720, -5.217593669891357, -1.4792046546936035, 8.076014518737793, -0.10546029359102249, -0.9703243374824524, -0.8353198170661926, -0.228271484375, 0.383056640625, -1.39794921875
234, 511855387, -5.21186637878418, -1.4737303256988525, 8.05233383178711, -0.1289215087890625, -1.0207428932189941, -0.9438791275024414, -0.227783203125, 0.383056640625, -1.39501953125
235, 511872054, -5.204055309295654, -1.4783810377120972, 8.063008308410645, -0.13960202038288116, -0.9582608342170715, -0.9324816465377808, -0.228759765625, 0.385009765625, -1.3955078125
236, 511888721, -5.219973564147949, -1.4734033346176147, 8.078455924987793, -0.1440330147743225, -0.9973328113555908, -0.9589394927024841, -0.230224609375, 0.384521484375, -1.39599609375
237, 511905388, -5.220494270324707, -1.4738737344741821, 8.050339698791504, -0.1093534305691719, -0.9456080198287964, -0.9018744230270386, -0.230224609375, 0.382568359375, -1.39697265625
238, 511922055, -5.210729122161865, -1.4896440505981445, 8.057802200317383, -0.1905328780412674, -0.97589510679245, -0.961769700050354, -0.229736328125, 0.382568359375, -1.39453125
239, 511938722, -5.2054667472839355, -1.4614214897155762, 8.078522682189941, -0.10942401736974716, -1.0028870105743408, -0.8442579507827759, -0.228759765625, 0.384521484375, -1.39501953125
240, 511955389, -5.214165687561035, -1.4650019407272339, 8.06885814666748, -0.1243496686220169, -1.0063742399215698, -0.910864531993866, -0.229736328125, 0.382080078125, -1.39697265625
241, 511972056, -5.218410491943359, -1.4869357347488403, 8.061681747436523, -0.05583569034934044, -1.051465392112732, -0.8978276252746582, -0.228759765625, 0.384033203125, -1.3974609375
242, 511988723, -5.204339027404785, -1.4631558656692505, 8.053424835205078, -0.18529509007930756, -0.9942338466644287, -0.8513917922973633, -0.227783203125, 0.383544921875, -1.39697265625
243, 512005390, -5.207812786102295, -1.482112169265747, 8.044720649719238, -0.21229085326194763, -0.9735642671585083, -0.9340438842773438, -0.228759765625, 0.381591796875, -1.39697265625
244, 512022057, -5.227792263031006, -1.4832196235656738, 8.07451057434082, -0.19621889293193817, -0.8994412422180176, -0.9804926514625549, -0.229736328125, 0.385009765625, -1.39453125
245, 512038724, -5.210912704467773, -1.4694983959197998, 8.067634582519531, -0.19883136451244354, -0.8654146194458008, -0.9680063128471375, -0.229736328125, 0.384521484375, -1.3974609375
246, 512055391, -5.212158203125, -1.48158597946167, 8.05539608001709, -0.11830506473779678, -0.9277560114860535, -0.9025019407272339, -0.229736328125, 0.384033203125, -1.398681640625
247, 512072058, -5.219971179962158, -1.4585421085357666, 8.07094669342041, -0.18062074482440948, -0.9778288006782532, -0.9002095460891724, -0.227783203125, 0.383056640625, -1.3974609375
248, 512088725, -5.217735290527344, -1.4796561002731323, 8.083650588989258, -0.11060843616724014, -1.030065894126892, -0.9890855550765991, -0.228271484375, 0.382080078125, -1.39697265625
249, 512105392, -5.2093939781188965, -1.4891854524612427, 8.061894416809082, -0.1600281447172165, -0.9710286855697632, -0.959246814250946, -0.227294921875, 0.383056640625, -1.396484375
250, 512122059, -5.195722579956055, -1.4867063760757446, 8.04191780090332, -0.09664952754974365, -0.9339286088943481, -0.9487200379371643, -0.230224609375, 0.382568359375, -1.39697265625
251, 512138726, -5.198032855987549, -1.4908891916275024, 8.071697235107422, -0.19760197401046753, -0.9130030274391174, -0.9267828464508057, -0.227294921875, 0.384033203125, -1.396484375
252, 512155393, -5.208435535430908, -1.48455810546875, 8.063216209411621, -0.17099039256572723, -0.8425426483154297, -0.8629559278488159, -0.229248046875, 0.383544921875, -1.39794921875
253, 512172060, -5.210479259490967, -1.4794148206710815, 8.074999809265137, -0.23968367278575897, -0.8232049942016602, -0.8217834830284119, -0.228271484375, 0.384521484375, -1.396484375
254, 512188727, -5.216977596282959, -1.4813765287399292, 8.078290939331055, -0.25850898027420044, -0.8030093312263489, -0.8343080282211304, -0.229248046875, 0.382080078125, -1.39794921875
255, 512205394, -5.217318534851074, -1.4740028381347656, 8.040824890136719, -0.2064639776945114, -0.8797193765640259, -0.8605738282203674, -0.228759765625, 0.384521484375, -1.396484375
256, 512222061, -5.215205669403076, -1.4818949699401855, 8.080559730529785, -0.1732058823108673, -0.8866859674453735, -0.8915780186653137, -0.230224609375, 0.383544921875, -1.3974609375
257, 512238728, -5.214677333831787, -1.4881280660629272, 8.076677322387695, -0.22112725675106049, -0.7533591985702515, -0.8773247003555298, -0.228271484375, 0.381591796875, -1.39599609375
258, 512255395, -5.222309112548828, -1.4921376705169678, 8.077144622802734, -0.24151495099067688, -0.8074659705162048, -0.797041654586792, -0.230224609375, 0.383056640625, -1.39453125
259, 512272062, -5.222904682159424, -1.4883335828781128, 8.042511940002441, -0.055451489984989166, -0.847306489944458, -0.8124476671218872, -0.227783203125, 0.383544921875, -1.3955078125
260, 512288729, -5.219578266143799, -1.4670720100402832, 8.061782836914062, -0.15210101008415222, -1.0366867780685425, -0.8380090594291687, -0.226318359375, 0.38525390625, -1.3974609375
261, 512305396, -5.216341495513916, -1.48372483253479, 8.057366371154785, -0.11569256335496902, -0.9767019152641296, -0.8671948313713074, -0.231201171875, 0.385498046875, -1.39501953125
262, 512322063, -5.220637321472168, -1.4824398756027222, 8.045132637023926, -0.11721652001142502, -0.9683393239974976, -0.8997358083724976, -0.228271484375, 0.382080078125, -1.39697265625
263, 512338730, -5.210829734802246, -1.4890398979187012, 8.055800437927246, -0.21197070181369781, -0.9013620615005493, -0.8787972927093506, -0.229248046875, 0.384521484375, -1.396484375
264, 512355397, -5.213289260864258, -1.4781265258789062, 8.055403709411621, -0.1710415929555893, -0.8056218028068542, -0.8789253234863281, -0.228271484375, 0.384521484375, -1.3974609375
265, 512372064, -5.214198589324951, -1.4828908443450928, 8.078021049499512, -0.13277623057365417, -0.9165632724761963, -0.849445104598999, -0.228271484375, 0.38427734375, -1.39892578125
266, 512388731, -5.213232040405273, -1.4822057485580444, 8.059157371520996, -0.1701323539018631, -0.9152570962905884, -0.8215017914772034, -0.230224609375, 0.38623046875, -1.39697265625
267, 512405398, -5.211584568023682, -1.4800283908843994, 8.064831733703613, -0.09676477313041687, -0.9267314672470093, -0.8728294968605042, -0.229248046875, 0.38623046875, -1.398681640625
268, 512422065, -5.215449810028076, -1.4943498373031616, 8.044479370117188, -0.0986345186829567, -1.0148264169692993, -0.7719667553901672, -0.228759765625, 0.384033203125, -1.39599609375
269, 512438732, -5.21829080581665, -1.490482211112976, 8.058476448059082, -0.06123996898531914, -0.9900717735290527, -0.8398149013519287, -0.226318359375, 0.38427734375, -1.39794921875
270, 512455399, -5.215445518493652, -1.4721285104751587, 8.075318336486816, -0.05172484368085861, -0.9584528207778931, -0.8897210955619812, -0.226806640625, 0.383056640625, -1.39599609375
271, 512472066, -5.220552921295166, -1.463305950164795, 8.047183990478516, -0.0585506297647953, -0.9613726139068604, -0.8214888572692871, -0.227294921875, 0.384765625, -1.396484375
272, 512488733, -5.199295997619629, -1.476213812828064, 8.070022583007812, -0.1312778890132904, -1.0329986810684204, -0.9034879207611084, -0.227783203125, 0.384765625, -1.39794921875
273, 512505400, -5.220850944519043, -1.4926695823669434, 8.060248374938965, -0.035909004509449005, -1.0357264280319214, -0.9275510907173157, -0.230712890625, 0.384033203125, -1.396484375
274, 512522067, -5.199577331542969, -1.4924547672271729, 8.056401252746582, -0.02415277250111103, -1.043666124343872, -0.8501110672950745, -0.229736328125, 0.382568359375, -1.39599609375
275, 512538734, -5.20887565612793, -1.489248514175415, 8.072047233581543, -0.13408246636390686, -0.9910065531730652, -0.832694411277771, -0.229248046875, 0.3857421875, -1.3955078125
276, 512555401, -5.206719398498535, -1.473832130432129, 8.039840698242188, -0.1087387204170227, -0.9872671365737915, -0.8055450320243835, -0.230712890625, 0.385009765625, -1.3955078125
277, 512572068, -5.191427230834961, -1.4914162158966064, 8.050226211547852, -0.12122491747140884, -0.8958041667938232, -0.8492147326469421, -0.228759765625, 0.385009765625, -1.39501953125
278, 512588735, -5.2078375816345215, -1.4887686967849731, 8.101686477661133, -0.09243623167276382, -0.9382700324058533, -0.8227439522743225, -0.229248046875, 0.384765625, -1.3984375
279, 512605402, -5.20023250579834, -1.4812928438186646, 8.0692777633667, -0.09655988216400146, -0.9442633986473083, -0.8163408041000366, -0.228271484375, 0.384033203125, -1.39794921875
280, 512622069, -5.212901592254639, -1.4904793500900269, 8.070701599121094, -0.1252461075782776, -0.9089179635047913, -0.8370357751846313, -0.229736328125, 0.384521484375, -1.39794921875
281, 512638736, -5.2239670753479, -1.4721907377243042, 8.07170581817627, -0.10517854243516922, -0.8416077494621277, -0.865196943283081, -0.229248046875, 0.384033203125, -1.39501953125
282, 512655403, -5.197425842285156, -1.4816513061523438, 8.083826065063477, -0.06990986317396164, -0.9267314672470093, -0.8044307827949524, -0.230712890625, 0.383544921875, -1.39453125
283, 512672070, -5.209903240203857, -1.481804609298706, 8.073386192321777, -0.08080806583166122, -0.8786051869392395, -0.7596597671508789, -0.226806640625, 0.384033203125, -1.39697265625
284, 512688737, -5.206730842590332, -1.4772968292236328, 8.069759368896484, -0.12080229073762894, -0.8543884754180908, -0.8626613020896912, -0.228759765625, 0.384033203125, -1.39599609375
285, 512705404, -5.208740234375, -1.4744259119033813, 8.068014144897461, -0.06824503093957901, -0.8264321684837341, -0.8001662492752075, -0.228759765625, 0.384033203125, -1.39599609375
286, 512722071, -5.20463752746582, -1.4781874418258667, 8.072957992553711, -0.16211558878421783, -0.831541895866394, -0.8600232601165771, -0.231201171875, 0.383544921875, -1.39501953125
287, 512738738, -5.221289157867432, -1.4759081602096558, 8.074451446533203, -0.19717936217784882, -0.6768284440040588, -0.831541895866394, -0.230224609375, 0.38525390625, -1.3974609375
288, 512755405, -5.21026611328125, -1.4705190658569336, 8.073694229125977, -0.21476247906684875, -0.8289806246757507, -0.8552592396736145, -0.228759765625, 0.384521484375, -1.39453125
289, 512772072, -5.210250377655029, -1.4841034412384033, 8.067041397094727, -0.15603254735469818, -0.7281306982040405, -0.8064029812812805, -0.229736328125, 0.383544921875, -1.396484375
290, 512788739, -5.2274699211120605, -1.4878708124160767, 8.059051513671875, -0.13018934428691864, -0.8656835556030273, -0.7577260732650757, -0.229736328125, 0.384521484375, -1.396484375
291, 512805406, -5.197214603424072, -1.4776105880737305, 8.069050788879395, -0.13029178977012634, -0.8752243518829346, -0.7858359813690186, -0.229248046875, 0.383544921875, -1.3955078125
292, 512822073, -5.214968681335449, -1.4651620388031006, 8.073933601379395, -0.13295553624629974, -0.8226414918899536, -0.7783443331718445, -0.226318359375, 0.383544921875, -1.3955078125
293, 512838740, -5.199283123016357, -1.4677304029464722, 8.089558601379395, -0.17082390189170837, -0.8524163365364075, -0.8032910823822021, -0.228271484375, 0.385009765625, -1.3935546875
294, 512855407, -5.2113566398620605, -1.4797637462615967, 8.067780494689941, -0.16457441449165344, -0.9211864471435547, -0.823409914970398, -0.228271484375, 0.383056640625, -1.396484375
295, 512872074, -5.2019944190979, -1.4621684551239014, 8.040078163146973, -0.18520544469356537, -0.9610397219657898, -0.924247145652771, -0.229248046875, 0.382568359375, -1.39599609375
296, 512888741, -5.203287601470947, -1.493782639503479, 8.072305679321289, -0.049829501658678055, -0.9684033393859863, -0.8491505980491638, -0.226806640625, 0.383056640625, -1.39794921875
297, 512905408, -5.207711696624756, -1.4786319732666016, 8.068989753723145, -0.08675021678209305, -0.9146038293838501, -0.831541895866394, -0.2275390625, 0.382080078125, -1.39501953125
298, 512922075, -5.238299369812012, -1.4558621644973755, 8.068836212158203, -0.12283851206302643, -0.9397684335708618, -0.9232609868049622, -0.228759765625, 0.384521484375, -1.39599609375
299, 512938742, -5.201966762542725, -1.4996845722198486, 8.06735610961914, -0.13050951063632965, -1.057010531425476, -0.9560579657554626, -0.227783203125, 0.3857421875, -1.396484375
300, 512955409, -5.222788333892822, -1.4543527364730835, 8.070303916931152, -0.042171310633420944, -0.9888550639152527, -0.8339495062828064, -0.231689453125, 0.383544921875, -1.396484375
301, 512972076, -5.19943380355835, -1.478013277053833, 8.081546783447266, -0.10601097345352173, -0.9303813576698303, -0.8692951202392578, -0.230224609375, 0.382568359375, -1.39697265625
302, 512988743, -5.212118625640869, -1.4675579071044922, 8.063657760620117, -0.11230561137199402, -0.9462795853614807, -0.9049124717712402, -0.228759765625, 0.384521484375, -1.3955078125
303, 513005410, -5.20823860168457, -1.4921246767044067, 8.06396198272705, -0.13232801854610443, -0.9095709919929504, -1.0052472352981567, -0.230224609375, 0.381103515625, -1.39794921875
304, 513022077, -5.225055694580078, -1.4954423904418945, 8.080987930297852, -0.1442379355430603, -0.9865371584892273, -0.9435206651687622, -0.227294921875, 0.383056640625, -1.3955078125
305, 513038744, -5.194633960723877, -1.4905775785446167, 8.0696439743042, -0.05513133481144905, -1.131492018699646, -0.9200337529182434, -0.227294921875, 0.384765625, -1.39697265625
306, 513055411, -5.2063751220703125, -1.4780722856521606, 8.055237770080566, -0.07998846471309662, -0.9520241022109985, -0.9021176099777222, -0.229248046875, 0.384521484375, -1.39501953125
307, 513072078, -5.216923236846924, -1.4749374389648438, 8.07687759399414, -0.1323920488357544, -0.8794505000114441, -0.9548285603523254, -0.229248046875, 0.38427734375, -1.399169921875
308, 513088745, -5.222625255584717, -1.4828531742095947, 8.061552047729492, -0.12568151950836182, -0.8812690377235413, -0.9676862955093384, -0.230224609375, 0.384033203125, -1.39404296875
309, 513105412, -5.211681365966797, -1.4753413200378418, 8.053181648254395, -0.1577998548746109, -1.037557601928711, -0.9092124700546265, -0.229736328125, 0.384521484375, -1.3974609375
310, 513122079, -5.204162120819092, -1.4680238962173462, 8.062959671020508, -0.09011827409267426, -0.9092124104499817, -0.9021176099777222, -0.229248046875, 0.383544921875, -1.398681640625
311, 513138746, -5.213391304016113, -1.4913380146026611, 8.056174278259277, -0.15776142477989197, -0.9323150515556335, -0.894523561000824, -0.229248046875, 0.384521484375, -1.3955078125
312, 513155413, -5.208406448364258, -1.4866611957550049, 8.068804740905762, -0.16772475838661194, -0.9481309056282043, -0.9821317195892334, -0.227783203125, 0.385009765625, -1.39501953125
313, 513172080, -5.215364933013916, -1.4840577840805054, 8.094974517822266, -0.09498471021652222, -0.9294465184211731, -0.9426499009132385, -0.233642578125, 0.383056640625, -1.397216796875
314, 513188747, -5.212148189544678, -1.483349084854126, 8.081809043884277, -0.11757510155439377, -1.065475583076477, -0.9596310257911682, -0.229248046875, 0.383544921875, -1.39697265625
315, 513205414, -5.22065544128418, -1.4687641859054565, 8.072137832641602, -0.12477225810289383, -0.9663926959037781, -0.9567111134529114, -0.228759765625, 0.383056640625, -1.39501953125
316, 513222081, -5.180051803588867, -1.4903119802474976, 8.062746047973633, -0.06033071503043175, -0.9615776538848877, -0.8588322997093201, -0.228271484375, 0.382080078125, -1.400146484375
317, 513238748, -5.2162580490112305, -1.4656405448913574, 8.07111930847168, -0.201046884059906, -0.8830618262290955, -0.787283182144165, -0.229736328125, 0.3857421875, -1.396484375
318, 513255415, -5.215636253356934, -1.4723585844039917, 8.055230140686035, -0.20748847723007202, -0.9025915861129761, -0.968710720539093, -0.228759765625, 0.383056640625, -1.39697265625
319, 513272082, -5.205722332000732, -1.4856386184692383, 8.084665298461914, -0.07183081656694412, -0.8567832708358765, -0.9478364586830139, -0.229736328125, 0.384521484375, -1.3974609375
320, 513288749, -5.192598819732666, -1.4798085689544678, 8.046809196472168, -0.12379896640777588, -0.9203667044639587, -0.9150776863098145, -0.229736328125, 0.381591796875, -1.396484375
321, 513305416, -5.223830223083496, -1.4766614437103271, 8.049538612365723, -0.2012517750263214, -1.0428595542907715, -0.9518319368362427, -0.230712890625, 0.383056640625, -1.39697265625
322, 513322083, -5.199035167694092, -1.486085295677185, 8.059247970581055, -0.0945620909333229, -1.0187963247299194, -0.8884149193763733, -0.232177734375, 0.383544921875, -1.39453125
323, 513338750, -5.206193447113037, -1.486743450164795, 8.078073501586914, -0.14124122262001038, -0.9264882802963257, -0.8591011762619019, -0.228271484375, 0.384033203125, -1.39892578125
324, 513355417, -5.19756555557251, -1.4721852540969849, 8.06749439239502, -0.05972881242632866, -1.0044020414352417, -0.8719843029975891, -0.228271484375, 0.384033203125, -1.396484375
325, 513372084, -5.221052646636963, -1.485129714012146, 8.065375328063965, -0.15261328220367432, -0.90581876039505, -0.9586323499679565, -0.229248046875, 0.384765625, -1.3974609375
326, 513388751, -5.193184852600098, -1.4889053106307983, 8.090292930603027, -0.16999149322509766, -0.9051529169082642, -0.9326992630958557, -0.227783203125, 0.383544921875, -1.3984375
327, 513405418, -5.210329055786133, -1.4707484245300293, 8.071134567260742, -0.04222254082560539, -0.8741999268531799, -0.8771837949752808, -0.227783203125, 0.383544921875, -1.3955078125
328, 513422085, -5.2126851081848145, -1.4633656740188599, 8.05003547668457, -0.10962236672639847, -0.8971104621887207, -0.8831899762153625, -0.227783203125, 0.382080078125, -1.3955078125
329, 513438752, -5.224374294281006, -1.4715598821640015, 8.049245834350586, -0.06606795638799667, -0.9732441306114197, -0.9112358093261719, -0.230712890625, 0.383544921875, -1.39599609375
330, 513455419, -5.21088981628418, -1.4783833026885986, 8.061415672302246, -0.13519664108753204, -0.9902895092964172, -0.8939728736877441, -0.230712890625, 0.383544921875, -1.397705078125
331, 513472086, -5.201296329498291, -1.4768120050430298, 8.079094886779785, -0.1312778890132904, -0.9823622107505798, -0.884329617023468, -0.228271484375, 0.382568359375, -1.3994140625
332, 513488753, -5.224318981170654, -1.483014702796936, 8.046812057495117, -0.11696039885282516, -1.08755362033844, -0.9256302118301392, -0.228759765625, 0.384765625, -1.39794921875
333, 513505420, -5.203731536865234, -1.4728703498840332, 8.063445091247559, -0.09285884350538254, -1.044293761253357, -0.9850643873214722, -0.229248046875, 0.384521484375, -1.39501953125
334, 513522087, -5.205560684204102, -1.4857499599456787, 8.080601692199707, -0.11917590349912643, -1.0331395864486694, -0.9024251103401184, -0.231201171875, 0.385009765625, -1.39697265625
335, 513538754, -5.196363925933838, -1.4915961027145386, 8.092544555664062, -0.14987272024154663, -0.9530614614486694, -0.9584016799926758, -0.230224609375, 0.384521484375, -1.39599609375
336, 513555421, -5.202768802642822, -1.4776760339736938, 8.06058120727539, -0.15236996114253998, -0.9905456304550171, -0.9109669923782349, -0.232666015625, 0.382080078125, -1.3955078125
337, 513572088, -5.193770408630371, -1.4731640815734863, 8.085334777832031, -0.14750352501869202, -0.9152697920799255, -0.8596901893615723, -0.230224609375, 0.383544921875, -1.39794921875
338, 513588755, -5.203953266143799, -1.475930094718933, 8.058513641357422, -0.1374889761209488, -0.8946772813796997, -0.9108773469924927, -0.231689453125, 0.384033203125, -1.396728515625
339, 513605422, -5.207406520843506, -1.4811186790466309, 8.07103157043457, -0.3132176995277405, -0.9626020789146423, -0.9829128980636597, -0.232177734375, 0.382568359375, -1.397705078125
340, 513622089, -5.210508823394775, -1.4978456497192383, 8.072102546691895, -0.2700731158256531, -0.8921160101890564, -0.8281226754188538, -0.229736328125, 0.382568359375, -1.39794921875
341, 513638756, -5.21714973449707, -1.4822039604187012, 8.054427146911621, -0.190648153424263, -0.9468503594398499, -0.9065743088722229, -0.230224609375, 0.384033203125, -1.39697265625
342, 513655423, -5.2105712890625, -1.4805432558059692, 8.04307746887207, -0.11188908666372299, -1.0165809392929077, -0.9954760670661926, -0.231689453125, 0.3857421875, -1.397216796875
343, 513672090, -5.207271575927734, -1.489189863204956, 8.070474624633789, -0.22394461929798126, -1.0740814208984375, -0.9402549266815186, -0.229736328125, 0.38623046875, -1.39501953125
344, 513688757, -5.196001052856445, -1.4882351160049438, 8.07589054107666, -0.20089320838451385, -1.1049702167510986, -0.9889703392982483, -0.229736328125, 0.385498046875, -1.3955078125
345, 513705424, -5.204613208770752, -1.4929574728012085, 8.08820915222168, -0.2410154938697815, -1.0377882719039917, -0.9596566557884216, -0.232177734375, 0.382080078125, -1.397216796875
346, 513722091, -5.218558311462402, -1.4758769273757935, 8.076763153076172, -0.21254700422286987, -1.0258142948150635, -0.9116456508636475, -0.232177734375, 0.384033203125, -1.396728515625
347, 513738758, -5.206862926483154, -1.4861935377120972, 8.04041862487793, -0.17773935198783875, -0.9665849208831787, -0.9338006377220154, -0.231689453125, 0.385498046875, -1.39453125
348, 513755425, -5.187474727630615, -1.4944039583206177, 8.060515403747559, -0.3081335425376892, -1.0830458402633667, -0.9824262261390686, -0.229248046875, 0.38525390625, -1.3984375
349, 513772092, -5.211312294006348, -1.4790979623794556, 8.068177223205566, -0.21843792498111725, -0.9882148504257202, -1.0282474756240845, -0.230224609375, 0.384521484375, -1.3974609375
350, 513788759, -5.194252014160156, -1.4852299690246582, 8.057241439819336, -0.29781168699264526, -0.959810197353363, -0.9502568244934082, -0.230712890625, 0.385498046875, -1.39599609375
351, 513805426, -5.213695049285889, -1.489965558052063, 8.0565767288208, -0.3528149425983429, -0.9896746873855591, -0.992914617061615, -0.231689453125, 0.385498046875, -1.396728515625
352, 513822093, -5.19301176071167, -1.4948562383651733, 8.048210144042969, -0.2688693106174469, -0.9839502573013306, -1.002570629119873, -0.228271484375, 0.383056640625, -1.3955078125
353, 513838760, -5.205127716064453, -1.5018647909164429, 8.085205078125, -0.4002624750137329, -0.9302661418914795, -1.0065279006958008, -0.228759765625, 0.38671875, -1.396484375
354, 513855427, -5.190722465515137, -1.497525930404663, 8.062729835510254, -0.2281707376241684, -0.9227359294891357, -0.9795193672180176, -0.229248046875, 0.384521484375, -1.39794921875
355, 513872094, -5.216005802154541, -1.4770625829696655, 8.072978973388672, -0.2898973524570465, -0.9041668176651001, -1.0099984407424927, -0.228759765625, 0.3857421875, -1.39697265625
356, 513888761, -5.205608367919922, -1.5087685585021973, 8.076489448547363, -0.2740558683872223, -0.9219419360160828, -0.9880738258361816, -0.229736328125, 0.382568359375, -1.39697265625
357, 513905428, -5.212289333343506, -1.501814842224121, 8.05574893951416, -0.2470344454050064, -0.9834123849868774, -1.0047990083694458, -0.231201171875, 0.385009765625, -1.397216796875
358, 513922095, -5.200640678405762, -1.4832161664962769, 8.080933570861816, -0.11771596223115921, -1.0037873983383179, -0.9930940270423889, -0.229248046875, 0.383544921875, -1.396484375
359, 513938762, -5.184479236602783, -1.4862685203552246, 8.092153549194336, -0.15298467874526978, -1.0544236898422241, -0.9631528258323669, -0.230224609375, 0.385009765625, -1.397705078125
360, 513955429, -5.195884704589844, -1.5006258487701416, 8.076983451843262, -0.16470246016979218, -1.020781397819519, -0.9623843431472778, -0.230712890625, 0.382568359375, -1.398681640625
361, 513972096, -5.19950532913208, -1.49333918094635, 8.062328338623047, -0.17316746711730957, -0.9522417187690735, -0.976163923740387, -0.231689453125, 0.38525390625, -1.399658203125
362, 513988763, -5.211001873016357, -1.4952161312103271, 8.05897045135498, -0.11551326513290405, -0.9097118377685547, -0.9553536176681519, -0.227783203125, 0.383056640625, -1.39794921875
363, 514005430, -5.200537204742432, -1.5070122480392456, 8.08360767364502, -0.09513837099075317, -0.9528820514678955, -0.9123883247375488, -0.231201171875, 0.384033203125, -1.397216796875
364, 514022097, -5.185551166534424, -1.4906487464904785, 8.051861763000488, -0.09393458068370819, -0.8579357266426086, -0.8730472326278687, -0.230712890625, 0.38525390625, -1.39697265625
365, 514038764, -5.197564125061035, -1.4919071197509766, 8.048386573791504, -0.0939786285161972, -0.8919901847839355, -0.8639296889305115, -0.227783203125, 0.384033203125, -1.3984375
366, 514055431, -5.194732189178467, -1.4886480569839478, 8.06668472290039, -0.1172933429479599, -0.9301891922950745, -0.9086232781410217, -0.227294921875, 0.383544921875, -1.3984375
367, 514072098, -5.202671051025391, -1.502907395362854, 8.074395179748535, -0.1437128633260727, -0.9979604482650757, -0.8692310452461243, -0.230224609375, 0.384033203125, -1.3955078125
368, 514088765, -5.210965156555176, -1.4953049421310425, 8.06269645690918, -0.14546731114387512, -0.9371175169944763, -0.9700809717178345, -0.231201171875, 0.384521484375, -1.399658203125
369, 514105432, -5.189279079437256, -1.5011084079742432, 8.043891906738281, -0.0774143859744072, -0.9752804040908813, -0.971656084060669, -0.231689453125, 0.384521484375, -1.39599609375
370, 514122099, -5.197835445404053, -1.4931961297988892, 8.069039344787598, -0.09128366410732269, -1.0233938694000244, -0.92059725522995, -0.230712890625, 0.385009765625, -1.39697265625
371, 514138766, -5.199817657470703, -1.5004441738128662, 8.07760238647461, -0.10174645483493805, -1.0962876081466675, -0.9125933051109314, -0.231689453125, 0.384033203125, -1.397216796875
372, 514155433, -5.208508014678955, -1.4875459671020508, 8.090986251831055, -0.16798089444637299, -1.0949941873550415, -0.9528949856758118, -0.229736328125, 0.3857421875, -1.3974609375
373, 514172100, -5.209148406982422, -1.4991124868392944, 8.093381881713867, -0.1740126609802246, -0.9338005185127258, -0.9330449104309082, -0.229736328125, 0.3876953125, -1.39599609375
374, 514188767, -5.208583831787109, -1.4940377473831177, 8.071045875549316, -0.265219509601593, -0.9913395643234253, -0.9715665578842163, -0.232666015625, 0.38623046875, -1.397216796875
375, 514205434, -5.207433700561523, -1.5037150382995605, 8.08169937133789, -0.18494929373264313, -0.9142580628395081, -0.9613342881202698, -0.229248046875, 0.384033203125, -1.39794921875
376, 514222101, -5.204980373382568, -1.495974063873291, 8.066564559936523, -0.142496258020401, -1.0390686988830566, -1.0161198377609253, -0.229248046875, 0.38525390625, -1.3974609375
377, 514238768, -5.202641487121582, -1.4897114038467407, 8.08491039276123, -0.26486095786094666, -1.0578557252883911, -0.9266547560691833, -0.230712890625, 0.385498046875, -1.39599609375
378, 514255435, -5.2047553062438965, -1.4846960306167603, 8.05435848236084, -0.20629748702049255, -1.0438969135284424, -0.8893370032310486, -0.228271484375, 0.38623046875, -1.39697265625
379, 514272102, -5.192272663116455, -1.5043904781341553, 8.087969779968262, -0.24872493743896484, -0.9922103881835938, -0.943584680557251, -0.228271484375, 0.38623046875, -1.3984375
380, 514288769, -5.204051971435547, -1.5000331401824951, 8.047439575195312, -0.26965051889419556, -0.8338214755058289, -0.9292927980422974, -0.229736328125, 0.383544921875, -1.398681640625
381, 514305436, -5.205109119415283, -1.4881551265716553, 8.07486629486084, -0.24759796261787415, -0.9576075673103333, -0.8902333378791809, -0.231689453125, 0.384033203125, -1.397216796875
382, 514322103, -5.192070007324219, -1.520738124847412, 8.068477630615234, -0.1962444931268692, -1.067204236984253, -0.9401140809059143, -0.230712890625, 0.385009765625, -1.397216796875
383, 514338770, -5.1965436935424805, -1.5063745975494385, 8.061605453491211, -0.12303061038255692, -0.9613983631134033, -0.8659910559654236, -0.229736328125, 0.383544921875, -1.3974609375
384, 514355437, -5.207710266113281, -1.478154182434082, 8.08057975769043, -0.17709901928901672, -0.9858585000038147, -0.8682321310043335, -0.229248046875, 0.38623046875, -1.39794921875
385, 514372104, -5.207406044006348, -1.4937996864318848, 8.050212860107422, -0.15824805200099945, -1.0365331172943115, -0.8831642866134644, -0.232177734375, 0.385498046875, -1.396728515625
386, 514388771, -5.1952643394470215, -1.4982688426971436, 8.073973655700684, -0.18080002069473267, -0.9018999338150024, -1.043845534324646, -0.231689453125, 0.383544921875, -1.396728515625
387, 514405438, -5.193780899047852, -1.499064564704895, 8.062530517578125, -0.2325505167245865, -0.9820677638053894, -1.0568439960479736, -0.230224609375, 0.385009765625, -1.3974609375
388, 514422105, -5.200019836425781, -1.5000591278076172, 8.08023452758789, -0.24220648407936096, -0.9195470809936523, -0.9410873651504517, -0.228759765625, 0.382080078125, -1.39892578125
389, 514438772, -5.18718957901001, -1.4982374906539917, 8.053003311157227, -0.2753877639770508, -0.8578205704689026, -1.0131231546401978, -0.227783203125, 0.38525390625, -1.39892578125
390, 514455439, -5.200540065765381, -1.505697250366211, 8.081711769104004, -0.2762329578399658, -0.8208101987838745, -0.9496163725852966, -0.231201171875, 0.384033203125, -1.396484375
391, 514472106, -5.20530366897583, -1.5040980577468872, 8.059700965881348, -0.23320363461971283, -0.9816323518753052, -0.9685570001602173, -0.229248046875, 0.38623046875, -1.398681640625
392, 514488773, -5.198441982269287, -1.5065284967422485, 8.075345039367676, -0.21513386070728302, -0.9214810132980347, -0.9048455357551575, -0.229736328125, 0.38671875, -1.399169921875
393, 514505440, -5.204051494598389, -1.5154149532318115, 8.063998222351074, -0.1966671347618103, -0.8972129225730896, -0.9003376960754395, -0.230712890625, 0.38525390625, -1.398681640625
394, 514522107, -5.196561336517334, -1.4871121644973755, 8.037395477294922, -0.2989642322063446, -0.9166785478591919, -0.9307015538215637, -0.231689453125, 0.383544921875, -1.396484375
395, 514538774, -5.188851356506348, -1.5009279251098633, 8.06559944152832, -0.2803182005882263, -0.9104803204536438, -0.9940545558929443, -0.227783203125, 0.3857421875, -1.39599609375
396, 514555441, -5.189935207366943, -1.5141704082489014, 8.0679349899292, -0.20492719113826752, -0.8894010186195374, -0.9820548295974731, -0.231689453125, 0.3857421875, -1.396728515625
397, 514572108, -5.206925868988037, -1.500537633895874, 8.069929122924805, -0.2341768741607666, -0.8965981006622314, -0.9539321660995483, -0.232177734375, 0.384521484375, -1.397216796875
398, 514588775, -5.199634552001953, -1.4992897510528564, 8.073790550231934, -0.13479964435100555, -0.968006432056427, -0.9024763107299805, -0.229736328125, 0.385009765625, -1.39599609375
399, 514605442, -5.177246570587158, -1.4996602535247803, 8.072314262390137, -0.15765894949436188, -1.0167087316513062, -0.908379852771759, -0.232177734375, 0.38671875, -1.3955078125
400, 514622109, -5.194540977478027, -1.4966223239898682, 8.071077346801758, -0.03489730507135391, -0.9796218276023865, -0.8895161747932434, -0.228271484375, 0.38525390625, -1.39453125
401, 514638776, -5.202390670776367, -1.4965730905532837, 8.079361915588379, -0.16406212747097015, -1.0010724067687988, -0.9627430438995361, -0.232177734375, 0.38623046875, -1.399169921875
402, 514655443, -5.194528102874756, -1.4959608316421509, 8.075057029724121, -0.20700182020664215, -0.9603736996650696, -0.8879794478416443, -0.229248046875, 0.384765625, -1.399169921875
403, 514672110, -5.194536209106445, -1.5039849281311035, 8.070707321166992, -0.18836861848831177, -0.9413820505142212, -0.8986985087394714, -0.231201171875, 0.384521484375, -1.397705078125
404, 514688777, -5.192826271057129, -1.4913554191589355, 8.079427719116211, -0.14804139733314514, -0.8927947282791138, -0.8976098895072937, -0.231689453125, 0.384521484375, -1.39453125
405, 514705444, -5.1939005851745605, -1.5042469501495361, 8.053130149841309, -0.14010146260261536, -0.9948612451553345, -0.9231072068214417, -0.229248046875, 0.38671875, -1.396484375
406, 514722111, -5.203365802764893, -1.49159574508667, 8.056330680847168, -0.13236643373966217, -0.9838606119155884, -0.9725013375282288, -0.228759765625, 0.38623046875, -1.39697265625
407, 514738778, -5.191392421722412, -1.5105112791061401, 8.081563949584961, -0.08079525828361511, -1.0371862649917603, -0.9887142777442932, -0.233642578125, 0.38671875, -1.39404296875
408, 514755445, -5.188072681427002, -1.4949772357940674, 8.071112632751465, -0.14445564150810242, -1.0022249221801758, -0.9450318217277527, -0.230224609375, 0.38916015625, -1.398681640625
409, 514772112, -5.1911139488220215, -1.5014568567276, 8.07508659362793, -0.11283674091100693, -1.1151129007339478, -0.9559555053710938, -0.231201171875, 0.38720703125, -1.397216796875
410, 514788779, -5.189833641052246, -1.5006694793701172, 8.070199966430664, -0.18137633800506592, -1.0127389430999756, -0.9070097804069519, -0.231689453125, 0.38623046875, -1.396728515625
411, 514805446, -5.1928839683532715, -1.5121945142745972, 8.072403907775879, -0.1563783437013626, -0.978020966053009, -0.9077269434928894, -0.232666015625, 0.385009765625, -1.395751953125
412, 514822113, -5.201591968536377, -1.5037561655044556, 8.076888084411621, -0.19295328855514526, -0.9055498838424683, -0.9424834251403809, -0.231201171875, 0.384765625, -1.400634765625
413, 514838780, -5.191746711730957, -1.5103366374969482, 8.109057426452637, -0.2420528382062912, -0.8604459166526794, -1.019206166267395, -0.232177734375, 0.384033203125, -1.398193359375
414, 514855447, -5.196220874786377, -1.5001600980758667, 8.060769081115723, -0.31726452708244324, -0.9334036111831665, -1.0223822593688965, -0.231201171875, 0.384033203125, -1.39599609375
415, 514872114, -5.189463138580322, -1.5102733373641968, 8.062983512878418, -0.21304644644260406, -0.9143350124359131, -0.9823238849639893, -0.230712890625, 0.3857421875, -1.399169921875
416, 514888781, -5.178743839263916, -1.5055525302886963, 8.072437286376953, -0.22818352282047272, -0.9307655692100525, -0.9215962886810303, -0.231689453125, 0.384521484375, -1.39599609375
417, 514905448, -5.184128284454346, -1.506150722503662, 8.056609153747559, -0.23616187274456024, -0.7913939356803894, -0.9702857732772827, -0.231689453125, 0.38623046875, -1.397216796875
418, 514922115, -5.196600437164307, -1.5158363580703735, 8.081969261169434, -0.22107602655887604, -0.872663140296936, -0.9875488877296448, -0.229736328125, 0.38525390625, -1.39599609375
419, 514938782, -5.202477931976318, -1.5042269229888916, 8.064257621765137, -0.19678236544132233, -0.9096606373786926, -0.9628325700759888, -0.230712890625, 0.3857421875, -1.39697265625
420, 514955449, -5.186425685882568, -1.5126813650131226, 8.057939529418945, -0.21549244225025177, -0.8794633150100708, -1.0016871690750122, -0.231689453125, 0.3857421875, -1.398681640625
421, 514972116, -5.1875081062316895, -1.5116621255874634, 8.080327987670898, -0.2683826684951782, -0.8636602163314819, -0.9450574517250061, -0.230712890625, 0.385009765625, -1.397216796875
422, 514988783, -5.192121982574463, -1.5141584873199463, 8.074394226074219, -0.3182121813297272, -0.7824935913085938, -0.974217414855957, -0.230712890625, 0.38671875, -1.3955078125
423, 515005450, -5.190395355224609, -1.5078178644180298, 8.079997062683105, -0.20342887938022614, -0.8841888904571533, -0.9708493947982788, -0.231201171875, 0.384033203125, -1.396484375
424, 515022117, -5.191518306732178, -1.5080952644348145, 8.071831703186035, -0.2516447901725769, -0.9186762571334839, -0.965701162815094, -0.231201171875, 0.38671875, -1.399169921875
425, 515038784, -5.198395729064941, -1.515097737312317, 8.073803901672363, -0.352417916059494, -0.9346714615821838, -0.9898027181625366, -0.231689453125, 0.38623046875, -1.39501953125
426, 515055451, -5.20049524307251, -1.517268180847168, 8.08161735534668, -0.27107203006744385, -0.9249643087387085, -0.974396824836731, -0.230224609375, 0.38623046875, -1.398681640625
427, 515072118, -5.199066638946533, -1.5218186378479004, 8.0800142288208, -0.2890521287918091, -0.9006065726280212, -0.9121193885803223, -0.232177734375, 0.38671875, -1.39599609375
428, 515088785, -5.2116804122924805, -1.5113874673843384, 8.055091857910156, -0.32832324504852295, -0.9820113182067871, -1.008278727531433, -0.232177734375, 0.385009765625, -1.397705078125
429, 515105452, -5.204381942749023, -1.5082749128341675, 8.062811851501465, -0.4663304388523102, -1.0781538486480713, -1.034970760345459, -0.230712890625, 0.385009765625, -1.396484375
430, 515122119, -5.189835071563721, -1.520113229751587, 8.07370662689209, -0.4160911440849304, -1.0232914686203003, -1.039965271949768, -0.229736328125, 0.384521484375, -1.39794921875
431, 515138786, -5.192654609680176, -1.5171141624450684, 8.077859878540039, -0.33223509788513184, -0.8411594033241272, -1.0263392925262451, -0.230224609375, 0.38720703125, -1.398193359375
432, 515155453, -5.1722731590271, -1.5274544954299927, 8.04975414276123, -0.3172389268875122, -0.9245927929878235, -0.9434309601783752, -0.228271484375, 0.38720703125, -1.39599609375
433, 515172120, -5.189002990722656, -1.5208616256713867, 8.074020385742188, -0.3171108663082123, -0.7743743658065796, -0.9474266767501831, -0.230712890625, 0.3857421875, -1.39697265625
434, 515188787, -5.187844276428223, -1.5248043537139893, 8.084602355957031, -0.36988580226898193, -0.7568552494049072, -0.9211223125457764, -0.231689453125, 0.38525390625, -1.398681640625
435, 515205454, -5.201328754425049, -1.4940887689590454, 8.062270164489746, -0.2611086666584015, -0.6854854822158813, -0.9342615604400635, -0.229248046875, 0.38720703125, -1.396484375
436, 515222121, -5.205578327178955, -1.506452202796936, 8.062871932983398, -0.25843214988708496, -0.8374840617179871, -0.971656084060669, -0.231201171875, 0.3857421875, -1.400146484375
437, 515238788, -5.204259395599365, -1.5261224508285522, 8.065237998962402, -0.3545822203159332, -0.6522145867347717, -1.0188987255096436, -0.231201171875, 0.38671875, -1.398193359375
438, 515255455, -5.197447776794434, -1.5196185111999512, 8.06030559539795, -0.3311850130558014, -0.6763033270835876, -0.9279609322547913, -0.229736328125, 0.3876953125, -1.3935546875
439, 515272122, -5.216498374938965, -1.5229438543319702, 8.073359489440918, -0.4207525849342346, -0.8610734343528748, -0.8978532552719116, -0.228759765625, 0.38818359375, -1.39697265625
440, 515288789, -5.19921875, -1.528935194015503, 8.047420501708984, -0.3551841080188751, -0.92545086145401, -0.9648047685623169, -0.231689453125, 0.3857421875, -1.399169921875
441, 515305456, -5.190924644470215, -1.5104202032089233, 8.053670883178711, -0.26054519414901733, -1.0321149826049805, -1.0004065036773682, -0.230712890625, 0.38818359375, -1.398193359375
442, 515322123, -5.2075514793396, -1.5110701322555542, 8.094132423400879, -0.26839548349380493, -0.9401270151138306, -0.9837966561317444, -0.229248046875, 0.38720703125, -1.398681640625
443, 515338790, -5.201750755310059, -1.5223972797393799, 8.065165519714355, -0.42285284399986267, -0.9489888548851013, -1.0804716348648071, -0.230224609375, 0.38818359375, -1.39697265625
444, 515355457, -5.198532581329346, -1.5236029624938965, 8.089788436889648, -0.40765175223350525, -1.0153002738952637, -1.0905888080596924, -0.232177734375, 0.3876953125, -1.397216796875
445, 515372124, -5.211705684661865, -1.5216724872589111, 8.059741973876953, -0.3713969886302948, -1.1021273136138916, -1.0724549293518066, -0.231689453125, 0.38623046875, -1.39599609375
446, 515388791, -5.191877841949463, -1.5234160423278809, 8.071702003479004, -0.28811725974082947, -1.2979364395141602, -1.0954809188842773, -0.230224609375, 0.38671875, -1.39453125
447, 515405458, -5.190232276916504, -1.5289076566696167, 8.046418190002441, -0.3013845980167389, -1.2098158597946167, -1.1196975708007812, -0.229248046875, 0.38525390625, -1.398681640625
448, 515422125, -5.1900482177734375, -1.5257827043533325, 8.066532135009766, -0.2859017848968506, -1.200851559638977, -1.1960105895996094, -0.230224609375, 0.38916015625, -1.39599609375
449, 515438792, -5.186154842376709, -1.5150927305221558, 8.056944847106934, -0.24884018301963806, -1.0828535556793213, -1.172651767730713, -0.230712890625, 0.3857421875, -1.39697265625
450, 515455459, -5.204113006591797, -1.5197376012802124, 8.089909553527832, -0.31485694646835327, -1.267892837524414, -1.2229424715042114, -0.230224609375, 0.38818359375, -1.3974609375
451, 515472126, -5.177506923675537, -1.5390174388885498, 8.085443496704102, -0.34346628189086914, -1.251244306564331, -1.2564181089401245, -0.231201171875, 0.39111328125, -1.397216796875
452, 515488793, -5.179811954498291, -1.5421218872070312, 8.0595064163208, -0.4656261205673218, -1.2513854503631592, -1.1913748979568481, -0.230712890625, 0.38818359375, -1.398681640625
453, 515505460, -5.183457851409912, -1.515571117401123, 8.080463409423828, -0.4486064016819, -1.2944402694702148, -1.1414042711257935, -0.230224609375, 0.38916015625, -1.39697265625
454, 515522127, -5.168475151062012, -1.537269115447998, 8.070028305053711, -0.4635130763053894, -1.2956314086914062, -1.1928731203079224, -0.234130859375, 0.3876953125, -1.396728515625
455, 515538794, -5.18096399307251, -1.5353482961654663, 8.090680122375488, -0.43732407689094543, -1.267751932144165, -1.2289743423461914, -0.232666015625, 0.390625, -1.398681640625
456, 515555461, -5.1941142082214355, -1.538124442100525, 8.070066452026367, -0.48691022396087646, -1.1015253067016602, -1.1875711679458618, -0.231689453125, 0.388671875, -1.398681640625
457, 515572128, -5.16901159286499, -1.537360668182373, 8.090776443481445, -0.464627206325531, -1.1237188577651978, -1.134373664855957, -0.232177734375, 0.3896484375, -1.397705078125
458, 515588795, -5.172268390655518, -1.5506775379180908, 8.06180191040039, -0.4162448048591614, -1.226374626159668, -1.1351933479309082, -0.231689453125, 0.3896484375, -1.399658203125
459, 515605462, -5.166069030761719, -1.5437642335891724, 8.070189476013184, -0.3889160752296448, -1.1434277296066284, -1.1679519414901733, -0.231201171875, 0.38818359375, -1.399169921875
460, 515622129, -5.149185657501221, -1.5389320850372314, 8.106264114379883, -0.4361715018749237, -1.0596997737884521, -1.0257630348205566, -0.232177734375, 0.38916015625, -1.398193359375
461, 515638796, -5.163625717163086, -1.5553776025772095, 8.081194877624512, -0.49842312932014465, -0.8366261124610901, -1.0438456535339355, -0.230224609375, 0.3896484375, -1.399658203125
462, 515655463, -5.177646636962891, -1.5720843076705933, 8.077849388122559, -0.4129023253917694, -0.7076148390769958, -0.9441737532615662, -0.230712890625, 0.3896484375, -1.397216796875
463, 515672130, -5.15552282333374, -1.5739059448242188, 8.077938079833984, -0.28729763627052307, -0.6085192561149597, -0.6335429549217224, -0.232666015625, 0.388671875, -1.397705078125
464, 515688797, -5.1809983253479, -1.5648267269134521, 8.07825756072998, -0.23422813415527344, -0.565336287021637, -0.524945080280304, -0.232666015625, 0.390625, -1.400146484375
465, 515705464, -5.190260410308838, -1.487906813621521, 8.054509162902832, -0.280190110206604, -0.6509851217269897, -0.6994315385818481, -0.231201171875, 0.38916015625, -1.398193359375
466, 515722131, -5.17964506149292, -1.5009971857070923, 8.097644805908203, -0.4068065285682678, -0.6904287934303284, -0.9016183018684387, -0.232177734375, 0.3896484375, -1.3955078125
467, 515738798, -5.206867694854736, -1.5104670524597168, 8.051566123962402, -0.6409834027290344, -0.8420558571815491, -1.2007489204406738, -0.230712890625, 0.39111328125, -1.398681640625
468, 515755465, -5.208756923675537, -1.5454139709472656, 8.069628715515137, -0.6167922019958496, -0.9130542278289795, -1.280929446220398, -0.230712890625, 0.38916015625, -1.397705078125
469, 515772132, -5.172263145446777, -1.5392186641693115, 8.075872421264648, -0.602641224861145, -1.09468674659729, -1.3632487058639526, -0.229736328125, 0.39013671875, -1.39697265625
470, 515788799, -5.160425186157227, -1.5531411170959473, 8.072354316711426, -0.5093469023704529, -1.2046676874160767, -1.3394800424575806, -0.231201171875, 0.39111328125, -1.396240234375
471, 515805466, -5.163049697875977, -1.550031065940857, 8.07117748260498, -0.6167794466018677, -1.1049959659576416, -1.2441496849060059, -0.233642578125, 0.390625, -1.397216796875
472, 515822133, -5.181255340576172, -1.5444434881210327, 8.07116413116455, -0.6614863872528076, -1.1693347692489624, -1.3828551769256592, -0.231689453125, 0.388671875, -1.397705078125
473, 515838800, -5.187809944152832, -1.5712405443191528, 8.070785522460938, -0.5506346225738525, -1.1898763179779053, -1.4378842115402222, -0.231689453125, 0.390625, -1.396728515625
474, 515855467, -5.181074619293213, -1.5672787427902222, 8.066201210021973, -0.4784965515136719, -1.1280345916748047, -1.330631136894226, -0.230712890625, 0.390625, -1.397705078125
475, 515872134, -5.155160427093506, -1.5837161540985107, 8.083342552185059, -0.42847487330436707, -1.0951863527297974, -1.2928779125213623, -0.232177734375, 0.392578125, -1.399658203125
476, 515888801, -5.179351329803467, -1.5408778190612793, 8.072879791259766, -0.5152891278266907, -0.9563655257225037, -1.2820565700531006, -0.229248046875, 0.3896484375, -1.398681640625
477, 515905468, -5.167666435241699, -1.5453402996063232, 8.080038070678711, -0.4893306493759155, -1.102895736694336, -1.2965149879455566, -0.229736328125, 0.39013671875, -1.397705078125
478, 515922135, -5.153634548187256, -1.5856044292449951, 8.080750465393066, -0.4637179374694824, -1.0618897676467896, -1.2637691497802734, -0.230712890625, 0.39111328125, -1.401123046875
479, 515938802, -5.190176010131836, -1.5474811792373657, 8.060769081115723, -0.4545741677284241, -1.0530917644500732, -1.2043988704681396, -0.232177734375, 0.39208984375, -1.396728515625
480, 515955469, -5.183926582336426, -1.5567234754562378, 8.080848693847656, -0.47462889552116394, -1.251295566558838, -1.3660532236099243, -0.231201171875, 0.39208984375, -1.399658203125
481, 515972136, -5.104746341705322, -1.5887176990509033, 8.088689804077148, -0.5100768208503723, -1.094660997390747, -1.373608946800232, -0.231689453125, 0.39306640625, -1.397705078125
482, 515988803, -5.182172775268555, -1.5840543508529663, 8.049416542053223, -0.5104098320007324, -0.8844192624092102, -1.1923480033874512, -0.232177734375, 0.3916015625, -1.400146484375
483, 516005470, -5.177947521209717, -1.5622916221618652, 8.086888313293457, -0.41498979926109314, -0.7823655605316162, -1.1546975374221802, -0.234375, 0.39404296875, -1.396728515625
484, 516022137, -5.220566272735596, -1.558085322380066, 8.070765495300293, -0.5133810043334961, -0.9513197541236877, -1.2333284616470337, -0.231689453125, 0.39404296875, -1.398681640625
485, 516038804, -5.220480442047119, -1.54679274559021, 8.078892707824707, -0.4870638847351074, -1.3716496229171753, -1.4166641235351562, -0.231201171875, 0.39306640625, -1.401611328125
486, 516055471, -5.231125354766846, -1.5315581560134888, 8.057157516479492, -0.6308151483535767, -1.793196201324463, -1.717561960220337, -0.231689453125, 0.39306640625, -1.397216796875
487, 516072138, -5.175835132598877, -1.553320288658142, 8.077661514282227, -0.7588785886764526, -2.0726945400238037, -1.8941487073898315, -0.232177734375, 0.392578125, -1.399169921875
488, 516088805, -5.139232635498047, -1.5955650806427002, 8.066145896911621, -0.6667753458023071, -2.1065289974212646, -1.8519643545150757, -0.23193359375, 0.394775390625, -1.400146484375
489, 516105472, -5.102470397949219, -1.618196964263916, 8.090267181396484, -0.6161519289016724, -1.7910577058792114, -1.5935198068618774, -0.234375, 0.39453125, -1.400146484375
490, 516122139, -5.156630039215088, -1.552747130393982, 8.084450721740723, -0.7000718712806702, -1.488648533821106, -1.5526162385940552, -0.232421875, 0.3935546875, -1.398193359375
491, 516138806, -5.170921802520752, -1.563049077987671, 8.059408187866211, -0.7523413300514221, -1.4712305068969727, -1.6286042928695679, -0.232421875, 0.395751953125, -1.397705078125
492, 516155473, -5.162403583526611, -1.585084319114685, 8.077553749084473, -0.8218730688095093, -1.5597877502441406, -1.893738865852356, -0.23583984375, 0.39501953125, -1.397216796875
493, 516172140, -5.1785383224487305, -1.5741738080978394, 8.085118293762207, -0.7595829963684082, -1.8234065771102905, -2.016193151473999, -0.23193359375, 0.394287109375, -1.399169921875
494, 516188807, -5.174443244934082, -1.567509412765503, 8.079548835754395, -0.6759703755378723, -2.0644476413726807, -2.0621681213378906, -0.23388671875, 0.394775390625, -1.400146484375
495, 516205474, -5.027980804443359, -1.6512565612792969, 8.080810546875, -0.9221342206001282, -2.097923994064331, -2.1565897464752197, -0.234375, 0.396240234375, -1.399658203125
496, 516222141, -5.108619213104248, -1.6454037427902222, 8.070934295654297, -0.5427970886230469, -1.7298176288604736, -1.9079155921936035, -0.232421875, 0.39501953125, -1.397216796875
497, 516238808, -5.161197185516357, -1.6117602586746216, 8.071526527404785, -0.4613358974456787, -1.7261805534362793, -1.849031925201416, -0.234375, 0.3955078125, -1.397705078125
498, 516255475, -5.166703224182129, -1.599481463432312, 8.067585945129395, -0.44066646695137024, -2.118298292160034, -1.9743293523788452, -0.232421875, 0.396728515625, -1.401611328125
499, 516272142, -5.2017669677734375, -1.5372695922851562, 8.074112892150879, -0.622183620929718, -2.407222270965576, -2.3258633613586426, -0.23388671875, 0.397705078125, -1.401611328125
500, 516288809, -5.153528213500977, -1.5589706897735596, 8.055279731750488, -0.9305733442306519, -2.9554364681243896, -2.8292553424835205, -0.23388671875, 0.398193359375, -1.399169921875
501, 516305476, -4.976763725280762, -1.7398452758789062, 8.0496187210083, -0.3530327081680298, -3.135225772857666, -2.4940242767333984, -0.2353515625, 0.396728515625, -1.402099609375
502, 516322143, -5.158372402191162, -1.5550811290740967, 8.05321216583252, -0.1382957547903061, -3.346529245376587, -2.526231527328491, -0.23681640625, 0.398193359375, -1.401611328125
503, 516338810, -5.173081398010254, -1.5717947483062744, 8.040589332580566, -0.20184090733528137, -4.208806991577148, -3.1325361728668213, -0.234375, 0.397705078125, -1.401123046875
504, 516355477, -5.14985990524292, -1.6229275465011597, 8.034430503845215, -0.13094492256641388, -5.199275970458984, -3.3256425857543945, -0.2353515625, 0.397705078125, -1.404296875
505, 516372144, -5.044535160064697, -1.6586006879806519, 8.052858352661133, 0.08409290015697479, -5.864501953125, -3.4091663360595703, -0.23876953125, 0.398193359375, -1.400146484375
506, 516388811, -4.984527587890625, -1.6666173934936523, 8.132477760314941, -0.14345672726631165, -5.780518054962158, -3.4600324630737305, -0.23974609375, 0.400146484375, -1.4013671875
507, 516405478, -5.003238201141357, -1.673021674156189, 8.16724967956543, -0.4536266028881073, -5.38962984085083, -3.2367281913757324, -0.242919921875, 0.398681640625, -1.40478515625
508, 516422145, -5.009110927581787, -1.6877416372299194, 8.137453079223633, -0.568268895149231, -4.99981689453125, -2.9285688400268555, -0.242431640625, 0.399658203125, -1.404296875
509, 516438812, -5.018765449523926, -1.741620659828186, 8.147079467773438, -0.4226352572441101, -4.429537296295166, -2.7429921627044678, -0.243896484375, 0.398681640625, -1.4052734375
510, 516455479, -4.989136695861816, -1.6829993724822998, 8.236373901367188, -0.5763369202613831, -3.4113426208496094, -2.4859554767608643, -0.244384765625, 0.399658203125, -1.40576171875
511, 516472146, -4.991901874542236, -1.6285244226455688, 8.262222290039062, -1.5009939670562744, -1.8055930137634277, -2.5833098888397217, -0.243408203125, 0.402099609375, -1.404296875
512, 516488813, -5.016281604766846, -1.6331969499588013, 8.21060562133789, -2.2218120098114014, -0.6196224093437195, -2.6599552631378174, -0.241943359375, 0.400634765625, -1.40625
513, 516505480, -5.011477470397949, -1.6248304843902588, 8.193511009216309, -3.035835027694702, 0.3189869523048401, -2.9944961071014404, -0.241455078125, 0.402587890625, -1.4052734375
514, 516522147, -5.004843711853027, -1.624693512916565, 8.215568542480469, -4.06911563873291, 1.8143844604492188, -3.2784388065338135, -0.243896484375, 0.402099609375, -1.4052734375
515, 516538814, -5.038325786590576, -1.6134613752365112, 8.202786445617676, -5.4917473793029785, 3.2750895023345947, -3.5975472927093506, -0.240966796875, 0.40576171875, -1.4052734375
516, 516555481, -5.046238422393799, -1.7161767482757568, 8.149802207946777, -5.981564521789551, 4.07685661315918, -3.591630697250366, -0.241455078125, 0.40869140625, -1.40576171875
517, 516572148, -5.061371326446533, -1.7269715070724487, 8.11120319366455, -6.067099571228027, 4.378946781158447, -3.5925536155700684, -0.240478515625, 0.40771484375, -1.40478515625
518, 516588815, -5.044776439666748, -1.7543166875839233, 8.140202522277832, -5.910964012145996, 4.585333824157715, -3.3898415565490723, -0.237060546875, 0.4111328125, -1.4033203125
519, 516605482, -5.089547634124756, -1.7846016883850098, 8.074893951416016, -5.787689685821533, 4.5858964920043945, -3.2241909503936768, -0.237060546875, 0.41357421875, -1.4013671875
520, 516622149, -5.080057621002197, -1.8420352935791016, 8.08917236328125, -5.472397804260254, 4.505588054656982, -3.087867259979248, -0.233154296875, 0.415771484375, -1.40380859375
521, 516638816, -5.062650203704834, -1.8382948637008667, 8.092855453491211, -5.175418376922607, 4.786418914794922, -3.123046875, -0.232177734375, 0.415771484375, -1.402587890625
522, 516655483, -5.096907615661621, -1.8261468410491943, 8.062246322631836, -5.421019077301025, 5.298750877380371, -3.2899010181427, -0.232177734375, 0.416748046875, -1.400634765625
523, 516672150, -5.085540294647217, -1.8770554065704346, 8.014923095703125, -5.230498313903809, 5.387305736541748, -3.0062782764434814, -0.228759765625, 0.417236328125, -1.398193359375
524, 516688817, -5.132440090179443, -1.8981072902679443, 7.9691033363342285, -3.868030548095703, 4.630335330963135, -2.0955801010131836, -0.228759765625, 0.417236328125, -1.402099609375
525, 516705484, -5.1367621421813965, -1.9046268463134766, 7.994350910186768, -2.9858388900756836, 3.6195545196533203, -1.2813776731491089, -0.226318359375, 0.421875, -1.399169921875
526, 516722151, -5.155987739562988, -1.8984172344207764, 7.982100963592529, -2.4666311740875244, 3.195754051208496, -0.7560228109359741, -0.226318359375, 0.421875, -1.396484375
527, 516738818, -5.162104606628418, -1.8566924333572388, 8.016999244689941, -2.0073442459106445, 3.016068458557129, -0.41488730907440186, -0.227783203125, 0.421875, -1.398193359375
528, 516755485, -5.184879302978516, -1.8557559251785278, 7.983308792114258, -1.6148936748504639, 2.8694357872009277, 0.008317725732922554, -0.223876953125, 0.42236328125, -1.398193359375
529, 516772152, -5.205808162689209, -1.8866113424301147, 7.949529647827148, -0.939217746257782, 2.0703322887420654, 0.49430590867996216, -0.22314453125, 0.4208984375, -1.39794921875
530, 516788819, -5.121822834014893, -1.9472224712371826, 7.971896648406982, -0.2736460566520691, 1.697859287261963, 0.9261360168457031, -0.22216796875, 0.419677734375, -1.39794921875
531, 516805486, -5.118087291717529, -1.9132816791534424, 8.032800674438477, 0.41052675247192383, 2.3819234371185303, 1.4176822900772095, -0.223876953125, 0.421875, -1.398681640625
532, 516822153, -5.147669315338135, -1.8812050819396973, 8.007438659667969, 0.3268372714519501, 3.4328255653381348, 1.5747904777526855, -0.21923828125, 0.42041015625, -1.3984375
533, 516838820, -5.199840068817139, -1.8367890119552612, 8.0128173828125, 0.022609608247876167, 4.175978183746338, 1.5838702917099, -0.22021484375, 0.420166015625, -1.3935546875
534, 516855487, -5.164139270782471, -1.8780909776687622, 7.9801554679870605, -0.5677183270454407, 5.1108551025390625, 1.2927180528640747, -0.21875, 0.418212890625, -1.3955078125
535, 516872154, -5.050027370452881, -1.9155088663101196, 8.037577629089355, -0.6902879476547241, 7.2104172706604, 1.140450358390808, -0.2158203125, 0.41943359375, -1.39453125
536, 516888821, -5.155543327331543, -1.9998184442520142, 7.9718122482299805, -1.2553684711456299, 10.2027006149292, 1.7544386386871338, -0.21533203125, 0.42041015625, -1.393310546875
537, 516905488, -5.124542236328125, -1.9280999898910522, 7.949886798858643, -1.3475489616394043, 13.581021308898926, 2.1942989826202393, -0.212158203125, 0.4189453125, -1.391357421875
538, 516922155, -4.971035480499268, -2.1070237159729004, 7.902554035186768, -0.33314478397369385, 18.51370620727539, 4.010293960571289, -0.206298828125, 0.415771484375, -1.390625
539, 516938822, -5.27097749710083, -1.8851065635681152, 8.028515815734863, -0.9613746404647827, 23.465587615966797, 5.435634136199951, -0.200927734375, 0.41845703125, -1.388671875
540, 516955489, -5.476714134216309, -1.6042311191558838, 8.061077117919922, -3.335242986679077, 26.77672004699707, 4.737356662750244, -0.19580078125, 0.417236328125, -1.380126953125
541, 516972156, -5.171677589416504, -1.723441481590271, 8.448862075805664, -3.993253469467163, 32.948482513427734, 3.9160501956939697, -0.18701171875, 0.4189453125, -1.37939453125
542, 516988823, -5.244837760925293, -1.9992116689682007, 8.241559982299805, -5.429889678955078, 43.09260940551758, 5.791101932525635, -0.175537109375, 0.41943359375, -1.37109375
543, 517005490, -5.304410934448242, -2.0021543502807617, 8.264754295349121, -9.662178039550781, 54.057552337646484, 10.722177505493164, -0.1640625, 0.419921875, -1.362060546875
544, 517022157, -5.498244285583496, -1.6291468143463135, 8.192173957824707, -13.83492660522461, 65.61605072021484, 12.24649715423584, -0.148193359375, 0.41943359375, -1.355224609375
545, 517038824, -5.608375072479248, -1.5200574398040771, 8.0628662109375, -18.770864486694336, 78.91374206542969, 11.15229606628418, -0.1328125, 0.424072265625, -1.343017578125
546, 517055491, -5.653173446655273, -1.6053133010864258, 8.077779769897461, -23.700824737548828, 93.93864440917969, 10.02599811553955, -0.111572265625, 0.425537109375, -1.32861328125
547, 517072158, -5.766680717468262, -1.8365851640701294, 8.092549324035645, -26.415918350219727, 114.8338851928711, 9.194226264953613, -0.088623046875, 0.431640625, -1.310546875
548, 517088825, -5.87025260925293, -2.0582058429718018, 7.910205841064453, -28.792776107788086, 136.9163055419922, 12.28951358795166, -0.058349609375, 0.434814453125, -1.2880859375
549, 517105492, -6.054408073425293, -2.46140456199646, 7.883062839508057, -25.51169776916504, 158.4674835205078, 18.941431045532227, -0.026123046875, 0.43994140625, -1.259521484375
550, 517122159, -6.581690788269043, -1.9285539388656616, 7.234009265899658, -20.803943634033203, 182.64022827148438, 21.772790908813477, 0.0107421875, 0.437744140625, -1.223876953125
551, 517138826, -7.66991662979126, -2.5662319660186768, 7.581507205963135, -15.797029495239258, 203.55062866210938, 29.097436904907227, 0.052490234375, 0.43798828125, -1.1845703125
552, 517155493, -8.649848937988281, -4.103990077972412, 8.69344425201416, -6.962455749511719, 205.02345275878906, 42.67499542236328, 0.08740234375, 0.431884765625, -1.138916015625
553, 517172160, -10.13240909576416, -4.030040740966797, 7.3977484703063965, 7.123297214508057, 213.22727966308594, 62.22012710571289, 0.12158203125, 0.415283203125, -1.0888671875
554, 517188827, -11.853662490844727, -5.466297626495361, 9.768890380859375, 7.289914131164551, 196.61341857910156, 73.9786148071289, 0.153076171875, 0.400146484375, -1.043701171875
555, 517205494, -12.789216041564941, -4.378060340881348, 11.647854804992676, 17.665868759155273, 187.75892639160156, 95.19292449951172, 0.176025390625, 0.372802734375, -0.99658203125
556, 517222161, -9.763978958129883, -2.8030993938446045, 10.491253852844238, 5.062710285186768, 168.44151306152344, 100.3883056640625, 0.193359375, 0.3466796875, -0.9521484375
557, 517238828, -7.381351947784424, -1.8935458660125732, 7.8985161781311035, -19.477888107299805, 194.5948028564453, 101.87311553955078, 0.212158203125, 0.32275390625, -0.906494140625
558, 517255495, -6.7914652824401855, -2.5303311347961426, 8.620906829833984, -43.841514587402344, 212.3064727783203, 96.41817474365234, 0.226806640625, 0.301513671875, -0.85009765625
559, 517272162, -12.516772270202637, -5.680761337280273, 13.530282020568848, -54.36278533935547, 199.1602325439453, 76.25910186767578, 0.24072265625, 0.28466796875, -0.79931640625
560, 517288829, -10.350809097290039, -7.503644943237305, 14.817925453186035, -27.681442260742188, 111.83522033691406, 53.12019348144531, 0.245849609375, 0.2705078125, -0.76953125
561, 517305496, -4.752622127532959, -5.371356010437012, 12.89538860321045, 8.093914985656738, 49.10512924194336, 34.37384796142578, 0.24609375, 0.26025390625, -0.752197265625
562, 517322163, -0.9488677382469177, -3.2232799530029297, 11.162461280822754, 23.198049545288086, 17.638290405273438, 17.914127349853516, 0.248046875, 0.254150390625, -0.7421875
563, 517338830, -0.01883549988269806, -1.9988654851913452, 10.783987998962402, 20.016742706298828, -3.365769624710083, 3.158376693725586, 0.243896484375, 0.247314453125, -0.74365234375
564, 517355497, -0.6822580099105835, -1.7068452835083008, 10.916507720947266, 12.849360466003418, -30.53067970275879, -6.986071586608887, 0.245361328125, 0.247314453125, -0.7451171875
565, 517372164, -1.456190824508667, -1.7127131223678589, 10.818830490112305, 11.078973770141602, -66.74150848388672, -10.650422096252441, 0.24365234375, 0.249755859375, -0.759765625
566, 517388831, -2.448272705078125, -1.4916752576828003, 10.52763557434082, 9.034442901611328, -105.63948059082031, -11.491521835327148, 0.23779296875, 0.25146484375, -0.7861328125
567, 517405498, -3.2679779529571533, -1.5502792596817017, 9.847474098205566, 3.297647476196289, -141.87831115722656, -13.594029426574707, 0.2265625, 0.253173828125, -0.818359375
568, 517422165, -4.324687957763672, -2.0085644721984863, 9.336108207702637, -2.017608880996704, -171.75474548339844, -16.540830612182617, 0.216552734375, 0.25634765625, -0.861572265625
569, 517438832, -5.769631862640381, -2.4843831062316895, 8.740365982055664, -4.9096527099609375, -195.83816528320312, -21.315359115600586, 0.199951171875, 0.261962890625, -0.908447265625
570, 517455499, -6.593137264251709, -3.141230344772339, 8.016727447509766, -3.1294963359832764, -212.70712280273438, -28.270978927612305, 0.173095703125, 0.266845703125, -0.96337890625
571, 517472166, -7.1529364585876465, -3.425983190536499, 7.680559158325195, -0.1081814169883728, -220.01766967773438, -37.517242431640625, 0.14990234375, 0.275390625, -1.014404296875
572, 517488833, -7.890124797821045, -3.8044140338897705, 7.81490421295166, -0.07325298339128494, -222.38449096679688, -51.89845275878906, 0.120361328125, 0.2861328125, -1.06640625
573, 517505500, -8.815710067749023, -4.2483439445495605, 8.153519630432129, 0.6533458828926086, -223.74252319335938, -68.48180389404297, 0.0888671875, 0.2998046875, -1.115966796875
574, 517522167, -9.606322288513184, -4.484188079833984, 8.680220603942871, 2.756802797317505, -224.8920135498047, -85.4776840209961, 0.05322265625, 0.3125, -1.166748046875
575, 517538834, -10.722208023071289, -4.562261581420898, 9.630833625793457, 3.688493013381958, -225.95396423339844, -100.81847381591797, 0.015625, 0.33251953125, -1.21337890625
576, 517555501, -12.365457534790039, -4.547404766082764, 10.517534255981445, 1.181986689567566, -230.0017852783203, -113.7509765625, -0.02490234375, 0.35400390625, -1.2568359375
577, 517572168, -14.325551986694336, -3.847649097442627, 10.917223930358887, -6.216155052185059, -237.55609130859375, -124.90275573730469, -0.071533203125, 0.37353515625, -1.300048828125
578, 517588835, -16.40473747253418, -2.8604483604431152, 10.175984382629395, -17.889127731323242, -246.27786254882812, -134.44638061523438, -0.12060546875, 0.402587890625, -1.340576171875
579, 517605502, -17.98775863647461, -2.435581922531128, 8.155693054199219, -17.742530822753906, -250.1376190185547, -134.97451782226562, -0.177490234375, 0.425048828125, -1.381591796875
580, 517622169, -19.131710052490234, -1.5322902202606201, 5.969328880310059, -5.526516437530518, -243.76486206054688, -124.74310302734375, -0.236083984375, 0.44482421875, -1.412353515625
581, 517638836, -19.367387771606445, -1.0364482402801514, 4.154521942138672, 4.833059787750244, -228.8804168701172, -104.12542724609375, -0.2939453125, 0.4560546875, -1.44287109375
582, 517655503, -18.42586898803711, 0.046924788504838943, 2.2861788272857666, -1.8469091653823853, -209.78948974609375, -75.24459075927734, -0.3515625, 0.46484375, -1.463134765625
583, 517672170, -18.99570655822754, 1.9978355169296265, -0.41344016790390015, -33.86000442504883, -182.64149475097656, -51.39244079589844, -0.4013671875, 0.4755859375, -1.47998046875
584, 517688837, -20.475481033325195, 5.1160783767700195, -4.726701736450195, -76.42144012451172, -148.0155792236328, -29.577417373657227, -0.445556640625, 0.49658203125, -1.493408203125
585, 517705504, -19.232765197753906, 6.410815238952637, -8.838105201721191, -97.61556243896484, -89.8208236694336, -4.7047553062438965, -0.4765625, 0.52294921875, -1.5009765625
586, 517722171, -17.930551528930664, 3.7792751789093018, -8.025419235229492, -58.89889907836914, -22.786264419555664, 36.40259552001953, -0.48681640625, 0.540771484375, -1.502197265625
587, 517738838, -16.803199768066406, 2.1252596378326416, -3.0231823921203613, -16.126909255981445, 16.623350143432617, 69.75521850585938, -0.4853515625, 0.54345703125, -1.500244140625
588, 517755505, -14.526554107666016, -0.613650381565094, 0.023605026304721832, -18.428279876708984, 35.13534164428711, 71.10370635986328, -0.475341796875, 0.54345703125, -1.49853515625
589, 517772172, -3.785571813583374, -9.864537239074707, 1.2659066915512085, 23.845266342163086, 86.95045471191406, 52.17219161987305, -0.45654296875, 0.5400390625, -1.49462890625
590, 517788839, 4.753032207489014, -4.7020158767700195, 11.375232696533203, 23.542774200439453, 166.78501892089844, 17.316387176513672, -0.412109375, 0.52490234375, -1.48388671875
591, 517805506, -6.6318135261535645, 1.5215705633163452, 6.559244632720947, 5.903922080993652, 215.65533447265625, -6.948535442352295, -0.357421875, 0.52392578125, -1.4638671875
592, 517822173, -17.646814346313477, 3.22835636138916, 17.30977439880371, -13.014741897583008, 189.1224365234375, -0.32182586193084717, -0.30078125, 0.5283203125, -1.44677734375
593, 517838840, -13.466269493103027, -0.05817940831184387, 13.414669036865234, -16.904376983642578, 112.58873748779297, 42.445465087890625, -0.2666015625, 0.527099609375, -1.4306640625
594, 517855507, -9.145167350769043, -7.1974310874938965, 9.414739608764648, -18.18527603149414, 88.6296157836914, 32.93162536621094, -0.24365234375, 0.527587890625, -1.419189453125
595, 517872174, -12.873710632324219, -7.338262557983398, 7.54477596282959, 39.748817443847656, 38.784786224365234, 22.622222900390625, -0.22998046875, 0.51708984375, -1.412353515625
596, 517888841, -4.856254577636719, -3.9826860427856445, 8.110170364379883, 44.93482971191406, 32.902992248535156, 23.734872817993164, -0.217041015625, 0.505126953125, -1.403564453125
597, 517905508, -7.058653831481934, -2.9690327644348145, 8.110044479370117, 49.273345947265625, 19.10517120361328, 25.264074325561523, -0.212890625, 0.489013671875, -1.406005859375
598, 517922175, -6.208141803741455, -1.6304844617843628, 8.795670509338379, 41.3043327331543, 7.27281379699707, 20.574501037597656, -0.2099609375, 0.47216796875, -1.404052734375
599, 517938842, -5.786166667938232, -1.4093945026397705, 8.852521896362305, 33.32632064819336, 2.708075523376465, 16.01059341430664, -0.20947265625, 0.463623046875, -1.4013671875
600, 517955509, -5.699362277984619, -1.1653112173080444, 8.740273475646973, 20.926467895507812, -0.535101592540741, 10.920822143554688, -0.208251953125, 0.4541015625, -1.40087890625
601, 517972176, -5.3812642097473145, -1.5817615985870361, 8.430583000183105, 12.148963928222656, 2.4252235889434814, 5.657894611358643, -0.208251953125, 0.450927734375, -1.40283203125
602, 517988843, -5.407288074493408, -2.063117027282715, 8.094403266906738, 7.994627952575684, 2.966790199279785, 3.688953161239624, -0.208740234375, 0.447021484375, -1.400390625
603, 518005510, -5.265044212341309, -2.4561967849731445, 7.727440357208252, 11.536164283752441, 0.4006789028644562, 6.206901550292969, -0.207275390625, 0.444091796875, -1.39990234375
604, 518022177, -5.118278980255127, -3.1159486770629883, 7.368849277496338, 19.28614616394043, -3.509880542755127, 10.36953067779541, -0.208984375, 0.4384765625, -1.3984375
605, 518038844, -5.213883399963379, -2.2732841968536377, 7.822576999664307, 23.828632354736328, -7.869357109069824, 12.925134658813477, -0.2099609375, 0.432861328125, -1.39794921875
606, 518055511, -5.175317287445068, -2.021385908126831, 8.058320045471191, 24.298063278198242, -10.95390510559082, 13.055119514465332, -0.212890625, 0.4228515625, -1.40087890625
607, 518072178, -5.223217964172363, -1.6851022243499756, 8.227432250976562, 21.11734390258789, -10.501795768737793, 11.643515586853027, -0.21435546875, 0.41748046875, -1.40185546875
608, 518088845, -5.5568389892578125, -1.610156774520874, 8.303642272949219, 15.345300674438477, -8.103537559509277, 9.309006690979004, -0.217041015625, 0.409912109375, -1.4052734375
609, 518105512, -5.389585494995117, -1.6271333694458008, 8.101380348205566, 12.301012992858887, -7.724884986877441, 6.798851490020752, -0.218017578125, 0.40673828125, -1.40234375
610, 518122179, -5.274129867553711, -1.9004838466644287, 7.963995456695557, 13.153639793395996, -9.58909797668457, 6.9667067527771, -0.221435546875, 0.40185546875, -1.405517578125
611, 518138846, -5.145013332366943, -1.7430897951126099, 8.065738677978516, 11.603707313537598, -9.185476303100586, 6.19988489151001, -0.222412109375, 0.399169921875, -1.403564453125
612, 518155513, -5.045701503753662, -1.7001495361328125, 8.146053314208984, 8.359623908996582, -5.997920036315918, 5.350322246551514, -0.223388671875, 0.394775390625, -1.403564453125
613, 518172180, -5.083535194396973, -1.6501411199569702, 8.16470718383789, 6.410417556762695, -3.010516881942749, 5.161836624145508, -0.225341796875, 0.39013671875, -1.403564453125
614, 518188847, -4.975775241851807, -1.7088528871536255, 8.172497749328613, 5.431858539581299, -0.4323808550834656, 5.238534450531006, -0.225341796875, 0.38818359375, -1.403076171875
615, 518205514, -5.0418524742126465, -1.5781874656677246, 8.133318901062012, 3.166748046875, 2.979928731918335, 5.937964916229248, -0.224365234375, 0.38671875, -1.402587890625
616, 518222181, -5.000277519226074, -1.7400168180465698, 8.131869316101074, 1.723256230354309, 8.306822776794434, 6.957706451416016, -0.223876953125, 0.38525390625, -1.403076171875
617, 518238848, -5.101609230041504, -1.5154696702957153, 8.10869312286377, 0.46883437037467957, 12.928513526916504, 7.281561374664307, -0.22119140625, 0.3828125, -1.40380859375
618, 518255515, -5.1160736083984375, -1.6677277088165283, 8.070777893066406, -1.3755701780319214, 17.37164878845215, 8.718618392944336, -0.216796875, 0.3828125, -1.400390625
619, 518272182, -5.023695468902588, -1.5528427362442017, 8.254037857055664, -3.9478225708007812, 23.426422119140625, 10.003569602966309, -0.210693359375, 0.38330078125, -1.397705078125
620, 518288849, -4.7307939529418945, -1.7545013427734375, 8.608098030090332, -6.1129069328308105, 32.85694122314453, 11.020264625549316, -0.207763671875, 0.38232421875, -1.392578125
621, 518305516, -4.804907321929932, -1.3850650787353516, 8.79896354675293, -6.878057479858398, 48.17153549194336, 12.003939628601074, -0.193359375, 0.38330078125, -1.384521484375
622, 518322183, -4.701492786407471, -1.4656884670257568, 8.792126655578613, -7.873714923858643, 66.57795715332031, 10.893621444702148, -0.179931640625, 0.38134765625, -1.377197265625
623, 518338850, -4.864236354827881, -1.2013804912567139, 8.87531852722168, -9.388436317443848, 89.40650939941406, 7.8357696533203125, -0.15576171875, 0.385009765625, -1.36328125
624, 518355517, -5.060240745544434, -1.5697450637817383, 8.929577827453613, -13.405302047729492, 115.32164001464844, 7.85309362411499, -0.13525390625, 0.383544921875, -1.34423828125
625, 518372184, -5.337985992431641, -2.0917930603027344, 8.893598556518555, -16.125591278076172, 146.6605987548828, 12.701837539672852, -0.10205078125, 0.386962890625, -1.3251953125
626, 518388851, -5.101171493530273, -2.500410795211792, 9.093986511230469, -15.846887588500977, 183.68008422851562, 21.459259033203125, -0.063720703125, 0.3896484375, -1.29443359375
627, 518405518, -5.243015766143799, -2.099510669708252, 8.49498176574707, -17.694517135620117, 234.78733825683594, 33.9895133972168, -0.013916015625, 0.38818359375, -1.255126953125
628, 518422185, -6.0364580154418945, -3.9878103733062744, 9.147531509399414, 0.873266875743866, 294.3260803222656, 58.87773513793945, 0.036865234375, 0.376220703125, -1.1982421875
629, 518438852, -7.2855730056762695, -4.4658308029174805, 10.921818733215332, 30.42039680480957, 329.41412353515625, 94.02149200439453, 0.093994140625, 0.3544921875, -1.128662109375
630, 518455519, -9.204519271850586, -4.635258674621582, 9.846287727355957, 32.15996551513672, 373.1649169921875, 134.19183349609375, 0.147216796875, 0.31884765625, -1.0400390625
631, 518472186, -17.261083602905273, -5.638488292694092, 14.660554885864258, 28.386823654174805, 371.0993347167969, 156.72006225585938, 0.187744140625, 0.27685546875, -0.94580078125
632, 518488853, -16.102558135986328, -3.603130340576172, 13.343348503112793, 8.139725685119629, 322.4017028808594, 146.68057250976562, 0.21533203125, 0.240234375, -0.859619140625
633, 518505520, -16.186145782470703, -5.944922924041748, 16.205381393432617, -15.885560035705566, 266.1081848144531, 133.97149658203125, 0.227294921875, 0.204345703125, -0.789306640625
634, 518522187, -3.108557939529419, -6.003682613372803, 10.852426528930664, -0.48765528202056885, 210.73361206054688, 154.85377502441406, 0.2294921875, 0.167724609375, -0.731689453125
635, 518538854, -17.09695816040039, -10.89256477355957, 16.14178466796875, -5.388869285583496, 209.8636932373047, 104.78448486328125, 0.225830078125, 0.1298828125, -0.673095703125
636, 518555521, -13.399310111999512, -14.334118843078613, 19.492807388305664, 14.500334739685059, 40.34864807128906, 16.827306747436523, 0.227294921875, 0.12353515625, -0.651123046875
637, 518572188, -2.7405996322631836, -10.582792282104492, 12.561369895935059, 70.57160949707031, -52.22295379638672, -27.28493309020996, 0.227294921875, 0.125244140625, -0.65625
638, 518588855, 2.121206045150757, -4.667935848236084, 8.525167465209961, 84.357666015625, -73.3063735961914, -48.720863342285156, 0.229248046875, 0.1328125, -0.6650390625
639, 518605522, 3.0063674449920654, -1.5689451694488525, 7.246180534362793, 44.51786804199219, -68.37128448486328, -64.96659851074219, 0.23291015625, 0.14697265625, -0.677490234375
640, 518622189, 1.8156427145004272, -0.9102660417556763, 7.149744033813477, -3.7438268661499023, -66.37171173095703, -75.49009704589844, 0.237060546875, 0.16259765625, -0.694580078125
641, 518638856, -0.17069965600967407, -1.2312970161437988, 7.601835250854492, -32.05110168457031, -78.24457550048828, -79.32274627685547, 0.2412109375, 0.186767578125, -0.715087890625
642, 518655523, -2.417226791381836, -1.5333088636398315, 8.502664566040039, -36.39762878417969, -102.17071533203125, -79.29843139648438, 0.243408203125, 0.20654296875, -0.74462890625
643, 518672190, -5.226483345031738, -1.5027165412902832, 9.52359390258789, -31.352548599243164, -137.06500244140625, -80.56956481933594, 0.242431640625, 0.23046875, -0.7822265625
644, 518688857, -7.441831588745117, -1.4255274534225464, 9.73703384399414, -23.820117950439453, -183.05303955078125, -86.0683822631836, 0.232666015625, 0.2548828125, -0.833740234375
645, 518705524, -7.613932132720947, -0.9290437698364258, 8.858183860778809, -14.007145881652832, -223.5262908935547, -91.53937530517578, 0.2177734375, 0.279541015625, -0.88623046875
646, 518722191, -7.187066555023193, 0.06835446506738663, 8.065536499023438, -8.714827537536621, -243.81663513183594, -94.9022445678711, 0.199462890625, 0.304931640625, -0.949951171875
647, 518738858, -7.513242721557617, 0.7269864082336426, 8.070416450500488, -12.5348482131958, -249.24530029296875, -97.64694213867188, 0.171142578125, 0.329345703125, -1.01123046875
648, 518755525, -8.574191093444824, 0.7000294923782349, 8.666069984436035, -18.649520874023438, -251.48324584960938, -99.73507690429688, 0.13916015625, 0.35693359375, -1.07373046875
