Yaw,Pitch,Roll,MagX,MagY,MagZ,AccelX,AccelY,AccelZ,GyroX,GyroY,GyroZ
+149.289,-021.123,-006.256,-0.113,-0.002,+2.563,-03.3820,+01.0070,-08.7610,+00.010601,+00.002398,-00.004441
+149.281,-021.119,-006.239,-0.127,-0.012,+2.562,-03.3970,+00.9470,-08.7910,+00.011200,+00.002575,-00.005170
+149.278,-021.115,-006.225,-0.113,+0.003,+2.546,-03.3900,+00.9750,-08.7480,+00.010352,+00.002656,-00.003136
+149.276,-021.111,-006.217,-0.108,-0.007,+2.557,-03.4010,+00.9550,-08.7780,+00.004567,+00.003036,+00.000904
+149.277,-021.108,-006.213,-0.113,+0.018,+2.579,-03.4120,+00.9640,-08.7970,+00.000983,+00.002344,+00.002804
+149.280,-021.105,-006.212,-0.108,+0.018,+2.541,-03.4360,+00.9910,-08.7780,+00.002891,+00.001963,+00.001380
+149.283,-021.099,-006.207,-0.113,+0.008,+2.546,-03.4060,+00.9120,-08.8010,+00.003009,+00.007907,+00.001183
+149.284,-021.093,-006.203,-0.122,-0.012,+2.562,-03.4180,+00.9240,-08.7730,+00.003733,+00.005662,+00.003781
+149.286,-021.086,-006.199,-0.108,+0.033,+2.546,-03.4460,+00.9380,-08.7770,+00.004943,+00.006446,+00.002055
+149.289,-021.075,-006.194,-0.113,-0.007,+2.557,-03.3810,+00.9950,-08.7700,+00.006684,+00.009565,+00.002598
+149.288,-021.063,-006.182,-0.113,-0.012,+2.573,-03.4170,+00.9640,-08.7730,+00.011665,+00.012227,+00.000481
+149.285,-021.049,-006.164,-0.108,+0.018,+2.552,-03.3850,+00.9460,-08.7610,+00.019837,+00.013251,-00.000365
+149.282,-021.036,-006.139,-0.113,+0.018,+2.519,-03.4200,+00.9440,-08.7640,+00.024545,+00.011765,-00.002311
+149.278,-021.020,-006.110,-0.108,+0.003,+2.546,-03.4000,+00.9490,-08.7640,+00.027182,+00.013402,-00.003518
+149.274,-021.003,-006.081,-0.113,+0.043,+2.551,-03.3770,+00.9270,-08.7800,+00.020366,+00.015913,-00.001682
+149.274,-020.984,-006.068,-0.122,+0.028,+2.551,-03.3900,+00.9550,-08.7450,+00.004435,+00.016976,+00.001877
+149.276,-020.966,-006.053,-0.122,+0.003,+2.573,-03.3540,+00.9380,-08.8100,+00.015258,+00.017157,+00.001903
+149.277,-020.948,-006.035,-0.122,+0.033,+2.573,-03.3790,+00.9460,-08.7950,+00.015077,+00.014802,+00.002280
+149.277,-020.930,-006.017,-0.127,+0.003,+2.562,-03.3650,+00.9490,-08.7680,+00.012181,+00.012905,-00.000375
+149.278,-020.912,-006.011,-0.122,+0.003,+2.584,-03.3720,+00.8960,-08.7780,+00.003423,+00.013350,+00.005366
+149.283,-020.895,-006.006,-0.113,+0.003,+2.563,-03.3910,+00.9130,-08.8040,+00.005372,+00.014737,+00.005973
+149.290,-020.877,-006.003,-0.118,-0.002,+2.552,-03.3750,+00.9860,-08.7790,+00.010813,+00.011701,+00.008683
+149.299,-020.862,-005.989,-0.136,-0.007,+2.572,-03.3810,+01.0240,-08.7790,+00.016109,+00.011273,+00.007580
+149.306,-020.834,-005.978,-0.127,+0.018,+2.546,-03.3200,+00.9730,-08.7700,+00.012562,+00.025590,+00.012614
+149.325,-020.801,-005.984,-0.113,-0.002,+2.546,-03.3590,+00.8330,-08.7870,-00.008937,+00.037898,+00.024667
+149.366,-020.756,-006.018,-0.122,+0.003,+2.562,-03.3170,+00.8000,-08.6830,-00.013951,+00.038684,+00.046396
+149.435,-020.704,-006.086,-0.122,+0.003,+2.557,-03.3110,+00.7490,-08.7850,-00.049334,+00.042908,+00.067498
+149.524,-020.649,-006.194,-0.132,+0.008,+2.556,-03.3660,+00.7730,-08.8000,-00.078057,+00.040628,+00.084928
+149.604,-020.584,-006.300,-0.141,+0.023,+2.572,-03.2030,+01.0740,-08.7940,-00.073707,+00.054628,+00.053900
+149.632,-020.514,-006.395,-0.132,+0.008,+2.545,-03.4170,+01.2200,-08.7760,-00.060388,+00.064337,+00.014718
+149.601,-020.426,-006.398,-0.136,-0.002,+2.551,-03.3330,+01.3500,-08.8320,+00.022883,+00.084787,-00.036867
+149.525,-020.334,-006.320,-0.136,-0.002,+2.589,-03.3360,+01.0520,-08.8080,+00.054327,+00.086672,-00.055427
+149.469,-020.270,-006.249,-0.136,+0.023,+2.561,-03.0970,+00.7750,-08.7350,+00.022141,+00.042103,-00.029170
+149.463,-020.233,-006.258,-0.141,-0.017,+2.551,-03.1500,+00.7460,-08.8120,-00.033447,+00.017275,+00.016604
+149.497,-020.238,-006.338,-0.150,-0.017,+2.561,-03.2410,+00.9800,-08.8210,-00.076276,-00.016076,+00.028242
+149.539,-020.272,-006.450,-0.136,+0.003,+2.551,-03.3350,+01.0740,-08.8450,-00.084047,-00.037955,+00.028287
+149.568,-020.303,-006.538,-0.146,+0.013,+2.556,-03.2700,+01.0700,-08.8620,-00.061470,-00.022893,+00.015534
+149.575,-020.323,-006.600,-0.132,-0.027,+2.562,-03.2790,+01.0210,-08.8530,-00.045679,-00.016291,-00.000131
+149.571,-020.339,-006.638,-0.146,-0.002,+2.567,-03.3140,+01.0220,-08.8230,-00.026599,-00.012117,-00.011799
+149.554,-020.347,-006.643,-0.141,-0.007,+2.556,-03.2570,+01.0520,-08.8390,-00.000230,-00.000599,-00.019246
+149.517,-020.347,-006.607,-0.136,-0.012,+2.567,-03.2990,+01.0400,-08.8200,+00.035084,+00.008280,-00.039552
+149.449,-020.341,-006.514,-0.146,+0.003,+2.534,-03.3190,+01.0730,-08.8320,+00.076948,+00.012750,-00.066530
+149.355,-020.334,-006.378,-0.146,-0.007,+2.534,-03.2840,+00.9500,-08.8690,+00.087908,+00.015430,-00.081057
+149.253,-020.334,-006.227,-0.136,-0.007,+2.578,-03.1890,+00.9520,-08.7650,+00.095667,-00.004033,-00.085492
+149.148,-020.355,-006.081,-0.141,-0.002,+2.540,-03.1680,+00.8950,-08.7760,+00.091712,-00.013298,-00.090553
+149.037,-020.390,-005.954,-0.150,+0.008,+2.545,-03.2160,+00.8540,-08.7620,+00.071756,-00.032111,-00.095476
+148.919,-020.454,-005.845,-0.132,+0.018,+2.578,-03.3850,+00.9010,-08.9170,+00.052193,-00.052067,-00.109688
+148.792,-020.522,-005.748,-0.132,+0.028,+2.540,-03.2570,+00.6910,-08.7050,+00.031037,-00.054720,-00.104342
+148.680,-020.597,-005.685,-0.136,+0.033,+2.540,-03.2830,+00.7780,-08.7440,+00.009641,-00.054741,-00.090123
+148.582,-020.679,-005.659,-0.136,-0.002,+2.572,-03.1790,+00.8940,-08.7240,-00.008360,-00.061896,-00.089406
+148.460,-020.775,-005.637,-0.136,+0.023,+2.540,-03.2790,+00.7270,-08.6790,-00.023230,-00.078982,-00.116553
+148.322,-020.904,-005.624,-0.127,-0.007,+2.551,-03.1750,+00.8540,-08.7340,-00.037356,-00.117692,-00.131451
+148.194,-021.069,-005.642,-0.113,-0.007,+2.568,-03.3620,+00.6850,-08.7020,-00.072623,-00.147362,-00.105621
+148.113,-021.279,-005.704,-0.118,+0.018,+2.557,-03.3540,+00.9150,-08.7360,-00.075751,-00.189760,-00.079666
+148.032,-021.527,-005.742,-0.108,-0.012,+2.547,-03.3560,+00.9030,-08.6950,-00.052955,-00.226473,-00.093035
+147.923,-021.844,-005.734,-0.099,-0.002,+2.569,-03.5670,+01.0270,-08.8460,-00.001969,-00.294377,-00.128316
+147.782,-022.248,-005.648,-0.071,+0.012,+2.548,-03.6980,+00.9950,-08.7580,+00.042724,-00.367310,-00.165504
+147.605,-022.744,-005.500,-0.062,+0.022,+2.543,-03.5320,+00.9860,-08.8820,+00.092974,-00.449895,-00.194967
+147.388,-023.371,-005.279,-0.048,+0.007,+2.571,-03.2320,+00.5210,-08.9350,+00.156866,-00.599188,-00.230954
+147.229,-024.252,-004.972,-0.015,+0.017,+2.561,-03.6590,+00.6010,-08.6780,+00.250867,-00.867770,-00.173183
+147.247,-025.461,-004.623,+0.022,+0.007,+2.579,-03.5940,+00.7990,-08.7460,+00.350810,-01.168570,-00.010366
+147.470,-027.033,-004.236,+0.069,+0.041,+2.597,-03.8690,+00.8370,-08.6980,+00.455023,-01.530554,+00.104715
+147.854,-029.089,-003.804,+0.144,+0.075,+2.568,-04.0380,+00.7440,-08.4300,+00.616248,-01.992786,+00.216553
+148.483,-031.771,-003.242,+0.228,+0.094,+2.577,-04.4170,+00.6040,-08.3450,+00.863980,-02.592786,+00.407464
+149.553,-035.277,-002.892,+0.330,+0.113,+2.576,-04.1650,+00.3460,-08.6250,+00.894199,-03.360175,+00.729097
+150.621,-039.558,-002.468,+0.494,+0.151,+2.534,-05.7920,+00.1490,-09.5430,+00.834651,-03.981198,+00.442270
+151.411,-044.530,-002.152,+0.652,+0.199,+2.481,-07.9650,+00.6110,-08.4260,+00.548250,-04.680485,+00.372357
+152.064,-050.464,-002.168,+0.829,+0.197,+2.440,-07.1190,-00.1190,-10.9080,+00.194022,-05.506338,+00.012920
+152.200,-057.554,-003.125,+1.053,+0.174,+2.314,-10.4420,+00.7330,-10.7960,-01.158648,-06.662025,-00.324245
+152.118,-065.695,-005.236,+1.281,+0.111,+2.129,-09.0310,+00.3180,-08.7050,-02.105695,-07.311237,-00.698404
+150.466,-074.273,-006.588,+1.468,+0.104,+1.974,-08.4280,+02.0340,-12.4630,-02.941378,-07.304965,-01.480597
+144.200,-082.297,-003.801,+1.645,+0.106,+1.716,-09.0630,+02.5060,-11.6800,-02.843452,-06.409468,-01.850417
+100.916,-087.447,+037.122,+1.752,+0.099,+1.504,-18.0970,+10.1110,-28.1490,-00.592617,-03.637884,-01.614702
+069.469,-087.626,+067.867,+1.766,+0.133,+1.461,-04.7670,+08.9890,-27.0860,-00.404307,+00.456120,-00.110016
+109.160,-086.580,+028.263,+1.770,+0.138,+1.455,-00.5350,+03.6610,-13.2740,+00.115538,+02.378127,+00.786342
+133.529,-083.853,+004.074,+1.742,+0.089,+1.531,-00.1630,+00.1730,-09.0270,+00.065856,+02.908757,+01.165331
+142.621,-080.061,-004.654,+1.714,+0.070,+1.622,-01.4120,-01.4210,-09.7210,+00.437381,+03.518846,+01.045549
+145.264,-075.405,-006.545,+1.659,+0.071,+1.712,-03.8980,-02.6540,-12.1480,+00.603117,+04.355563,+00.807857
+145.800,-069.438,-006.467,+1.570,+0.023,+1.898,-05.7450,-02.5700,-11.2640,+00.475686,+05.591150,+00.674396
+145.502,-062.731,-005.670,+1.454,+0.040,+2.083,-05.6750,-02.4300,-05.4530,+00.474761,+05.808322,+00.411994
+145.015,-056.346,-004.775,+1.258,+0.008,+2.275,-06.3600,-02.0410,-06.3610,+00.350222,+05.447577,+00.231165
+144.494,-050.150,-004.035,+1.030,-0.004,+2.401,-08.3830,-00.0660,-09.4160,+00.284305,+05.428410,+00.108497
+144.171,-043.883,-003.417,+0.857,-0.007,+2.480,-09.2800,+01.8200,-09.9670,+00.344050,+05.471401,+00.229364
+144.302,-037.708,-003.288,+0.661,-0.005,+2.542,-09.8780,+02.2470,-08.9480,+00.043737,+05.272540,+00.516927
+144.854,-032.116,-003.862,+0.447,-0.018,+2.560,-10.6890,+01.6780,-08.5460,-00.350766,+04.527932,+00.775235
+145.470,-027.171,-004.606,+0.316,-0.051,+2.549,-13.4180,+01.7540,-14.7640,-00.355938,+04.259748,+00.765879
+145.857,-022.143,-005.100,+0.195,-0.051,+2.479,-13.2080,+01.0250,-13.6540,-00.233219,+04.348228,+00.604879
+145.996,-017.165,-005.301,+0.111,-0.070,+2.454,-14.1550,+02.5020,-14.0520,-00.049327,+04.323418,+00.472605
+146.043,-012.256,-005.240,+0.041,-0.069,+2.526,-13.5100,+02.2890,-09.7200,+00.069798,+04.160102,+00.404441
+146.059,-007.860,-005.418,-0.108,-0.082,+2.601,-12.7590,+01.0730,-07.0340,-00.320278,+03.593267,+00.350765
+146.006,-004.095,-005.996,-0.281,-0.090,+2.654,-13.5760,-00.9960,-06.2980,-00.575922,+03.097296,+00.205650
+145.725,-000.955,-006.531,-0.421,-0.103,+2.707,-14.1740,-00.6780,-02.8350,-00.389709,+02.512490,-00.006664
+145.554,+001.339,-006.824,-0.570,-0.092,+2.668,-14.8270,+00.5600,+00.9300,-00.179181,+01.681881,+00.193872
+145.900,+002.589,-006.812,-0.668,-0.081,+2.664,-15.3430,+00.4190,+03.6430,+00.113512,+00.636179,+00.556265
+146.646,+002.644,-006.417,-0.710,-0.061,+2.662,-15.4840,-00.4470,+02.2040,+00.417150,-00.387695,+00.686759
+147.530,+001.923,-005.733,-0.696,-0.021,+2.678,-14.4520,-00.3930,-02.3290,+00.668207,-00.843494,+00.689424
+148.341,+000.655,-004.851,-0.668,+0.044,+2.723,-11.4840,-00.7410,-02.7840,+00.734030,-01.393052,+00.535003
+148.479,-001.350,-004.484,-0.621,+0.044,+2.806,+13.9140,-00.0790,-21.2090,-00.297960,-01.907958,-00.550267
+147.189,-004.941,-005.161,-0.514,+0.023,+2.881,+01.0230,+05.4930,-00.4850,-01.266322,-03.915798,-01.791826
+146.927,-009.426,-005.526,-0.360,-0.003,+2.981,-14.1240,+00.3610,-14.6350,-00.023003,-03.644257,-00.052387
+146.791,-013.072,-005.513,-0.266,+0.007,+3.050,-06.7610,-02.5350,-15.2970,-00.099100,-02.961442,-00.673854
+146.685,-016.314,-005.838,-0.122,+0.015,+3.100,-04.7880,+04.5820,-11.6410,-00.295363,-02.766796,-00.081943
+146.670,-018.736,-006.815,-0.028,-0.025,+3.115,-10.4830,+01.0830,-09.1380,-00.823306,-01.331754,-00.231532
+146.742,-019.999,-007.177,+0.009,-0.045,+3.144,-03.6910,-01.6620,-08.6910,-00.282261,-00.756061,-00.084749
+146.765,-020.463,-007.589,+0.046,-0.071,+3.140,-04.3500,+02.2590,-10.0230,-00.240994,-00.262728,+00.004323
+146.767,-020.579,-007.669,+0.037,-0.061,+3.150,-03.8750,+01.3740,-09.0400,-00.016756,-00.042519,-00.018592
+146.741,-020.596,-007.632,+0.042,-0.080,+3.173,-03.3440,+00.9360,-08.9010,+00.034183,+00.006502,-00.027948
+146.700,-020.607,-007.579,+0.042,-0.046,+3.151,-03.3340,+01.0810,-08.7930,+00.036089,-00.017297,-00.039113
+146.664,-020.637,-007.519,+0.051,-0.071,+3.151,-03.3590,+00.8360,-08.7690,+00.042903,-00.034379,-00.025553
+146.665,-020.682,-007.515,+0.046,-0.066,+3.178,-03.1450,+00.8470,-08.7040,-00.026055,-00.044599,+00.008479
+146.698,-020.781,-007.594,+0.046,-0.051,+3.145,-03.1620,+01.2740,-08.7480,-00.062153,-00.114052,+00.009652
+146.716,-020.920,-007.688,+0.051,-0.046,+3.124,-03.3770,+01.2340,-08.7080,-00.104080,-00.131941,-00.006213
+146.727,-021.062,-007.856,+0.056,-0.061,+3.151,-03.4350,+01.1180,-08.7590,-00.158009,-00.115847,-00.011713
+146.724,-021.173,-008.038,+0.070,-0.071,+3.152,-03.5840,+01.2590,-08.7510,-00.151070,-00.080437,-00.022066
+146.698,-021.256,-008.182,+0.065,-0.091,+3.163,-03.3550,+01.3160,-08.6990,-00.121382,-00.062077,-00.036729
+146.632,-021.346,-008.284,+0.070,-0.106,+3.163,-03.2620,+01.2650,-08.6870,-00.102418,-00.076371,-00.083306
+146.516,-021.460,-008.330,+0.079,-0.086,+3.142,-03.4210,+01.3230,-08.7160,-00.058359,-00.089117,-00.116880
+146.363,-021.578,-008.281,+0.079,-0.061,+3.147,-03.5330,+01.4850,-08.7540,+00.020050,-00.079571,-00.150750
+146.179,-021.679,-008.160,+0.070,-0.081,+3.168,-03.5620,+01.3310,-08.7370,+00.057277,-00.058954,-00.162263
+145.957,-021.785,-007.995,+0.084,-0.061,+3.142,-03.4160,+01.3880,-08.7550,+00.086478,-00.073439,-00.214723
+145.657,-021.930,-007.745,+0.084,-0.091,+3.174,-03.4730,+01.3140,-08.6870,+00.141663,-00.104359,-00.283838
+145.307,-022.115,-007.450,+0.093,-0.066,+3.186,-03.6770,+01.1650,-08.6360,+00.130815,-00.134049,-00.301718
+144.951,-022.344,-007.192,+0.093,-0.041,+3.164,-03.8140,+01.0910,-08.6950,+00.110221,-00.177667,-00.322912
+144.593,-022.633,-006.917,+0.102,-0.036,+3.180,-03.5430,+01.1770,-08.6720,+00.133053,-00.250637,-00.308549
+144.267,-023.036,-006.601,+0.121,-0.071,+3.176,-03.6290,+01.0620,-08.7270,+00.191209,-00.364824,-00.294559
+143.978,-023.607,-006.219,+0.149,-0.032,+3.171,-03.4540,+01.0050,-08.8380,+00.248711,-00.524739,-00.277459
+143.762,-024.413,-005.754,+0.182,-0.007,+3.167,-03.7600,+00.8090,-08.6360,+00.361628,-00.772277,-00.206743
+143.690,-025.524,-005.220,+0.210,-0.007,+3.185,-03.8060,+00.7940,-08.6230,+00.490856,-01.075747,-00.097965
+143.853,-026.956,-004.668,+0.289,+0.027,+3.188,-03.8550,+00.6400,-08.5560,+00.570380,-01.365767,+00.092347
+144.341,-028.755,-004.226,+0.368,+0.056,+3.164,-04.3200,+00.7850,-08.6190,+00.589151,-01.759451,+00.375662
+145.297,-031.155,-003.910,+0.448,+0.110,+3.173,-04.1480,+00.7200,-08.4790,+00.779023,-02.384801,+00.665704
+146.690,-034.416,-003.721,+0.592,+0.133,+3.141,-04.0390,+00.9620,-08.6120,+00.872663,-03.225256,+00.913167
+148.330,-038.743,-003.708,+0.779,+0.156,+3.073,-05.2090,+00.4630,-09.3760,+00.761768,-04.261710,+00.937213
+150.412,-044.364,-004.652,+0.956,+0.169,+3.032,-04.1500,+01.4670,-10.8340,+00.401269,-05.392182,+00.912787
+152.177,-051.285,-005.960,+1.208,+0.145,+2.880,-07.3120,-00.8240,-11.1670,-00.279529,-06.538409,+00.268149
+154.369,-059.426,-009.159,+1.487,+0.082,+2.659,-10.5200,-01.0630,-10.4790,-01.672489,-07.681177,+00.105059
+158.680,-068.737,-016.190,+1.697,-0.006,+2.419,-10.7440,+03.3760,-11.5920,-03.055910,-08.573607,-00.326445
+167.865,-078.386,-029.256,+1.920,-0.090,+2.034,-10.6320,+02.4920,-13.7230,-03.937811,-08.390973,-01.551305
-150.163,-085.847,-075.098,+2.073,-0.143,+1.650,-07.1410,+05.2830,-15.5950,-03.424879,-06.878755,-01.810572
-073.426,-085.404,-154.040,+2.096,-0.129,+1.466,-15.0950,+08.5750,-37.3470,-00.958612,-02.424099,-01.116964
-066.867,-085.982,-161.270,+2.064,-0.094,+1.378,-03.1820,+08.9720,-26.6540,+00.100396,+01.723542,-00.205257
-120.137,-088.263,-106.989,+2.027,-0.103,+1.452,-00.5890,+04.1950,-13.0660,+01.230346,+03.323947,+00.516632
+167.274,-085.497,-032.910,+1.999,-0.113,+1.576,-00.6020,+01.0680,-09.2910,+01.357703,+03.894907,+00.810733
+155.661,-080.496,-019.744,+1.929,-0.071,+1.806,-03.1970,-01.0970,-11.1970,+01.493811,+04.791274,+00.765627
+150.116,-074.429,-012.563,+1.705,-0.087,+2.079,-05.6610,-02.8210,-09.8990,+01.493557,+05.697469,+00.244239
+146.051,-067.680,-007.491,+1.482,-0.049,+2.242,-06.8720,-03.1390,-06.2080,+00.742981,+06.079418,-00.278566
+143.455,-060.850,-004.727,+1.211,-0.007,+2.328,-06.3880,+00.3390,-05.6950,+00.286990,+05.947151,-00.334901
+142.157,-054.340,-003.080,+0.964,+0.001,+2.393,-07.4220,+02.2580,-07.2770,+00.602417,+05.583925,-00.127834
+141.873,-047.993,-002.112,+0.783,+0.033,+2.461,-08.8480,+03.1350,-09.8680,+00.622493,+05.560184,+00.247680
+142.330,-041.507,-001.921,+0.587,+0.075,+2.435,-09.7590,+02.2950,-10.7220,+00.317498,+05.703290,+00.582182
+142.825,-035.029,-002.347,+0.386,+0.117,+2.437,-10.3890,+00.4290,-08.7890,-00.403807,+05.520185,+00.471624
+142.962,-029.162,-003.253,+0.246,+0.078,+2.426,-12.1440,+01.8670,-10.1020,-00.834344,+04.845175,+00.286503
+142.898,-023.729,-004.281,+0.134,+0.064,+2.416,-16.0280,+03.3840,-16.4210,-00.897614,+04.816108,+00.285797
+142.887,-017.851,-005.181,+0.008,+0.021,+2.427,-17.5800,+03.7810,-14.6690,-00.713560,+05.241677,+00.520623
+143.146,-012.000,-005.897,-0.150,+0.008,+2.469,-17.9640,+03.4730,-09.3990,-00.475025,+04.863154,+00.816173
+143.701,-006.781,-006.290,-0.365,-0.005,+2.470,-19.0580,+04.2600,-06.5040,-00.131015,+04.247740,+01.055892
+144.696,-002.395,-006.371,-0.570,-0.008,+2.423,-18.3930,+03.2560,-01.3630,+00.037621,+03.326418,+01.401349
+145.908,+000.794,-006.555,-0.678,-0.008,+2.392,-20.1040,-02.9550,+00.8660,-00.356163,+02.282877,+01.209128
+146.519,+002.800,-007.174,-0.762,+0.018,+2.301,-21.0270,-02.6810,+05.3840,-00.560562,+01.240500,+00.462136
+146.758,+003.200,-007.598,-0.794,+0.008,+2.283,-21.0400,-00.5750,+06.8970,-00.273844,-00.233274,+00.211310
+146.976,+001.517,-007.536,-0.766,+0.008,+2.301,-23.9560,-00.5810,+16.5530,+00.462302,-02.859605,-00.373843
+147.209,-001.913,-006.258,-0.682,+0.077,+2.304,+18.1270,+00.3750,-26.5800,+00.299277,-03.171820,-00.080007
+146.404,-005.910,-006.788,-0.580,+0.016,+2.390,-07.2630,+03.0650,-00.5610,-00.177166,-03.783887,-01.052024
+146.900,-010.624,-007.398,-0.472,+0.040,+2.427,-10.6730,-01.7080,-19.0950,-00.945458,-03.904379,+00.151265
+147.373,-014.266,-008.416,-0.365,-0.015,+2.454,-05.8520,-00.8110,-12.7530,-00.871067,-03.024582,-00.175455
+147.746,-017.221,-009.294,-0.267,-0.036,+2.453,-10.5700,+05.4180,-21.6790,-00.354337,-02.138207,-00.041335
+147.949,-018.654,-009.152,-0.234,-0.031,+2.487,-03.9570,+01.2440,-12.3520,+00.327672,-00.975601,-00.055836
+147.988,-019.356,-008.896,-0.211,-0.002,+2.472,-04.5920,+01.7140,-10.3850,+00.141875,-00.437719,-00.085480
+147.920,-019.625,-008.817,-0.202,-0.012,+2.461,-04.0340,+01.5150,-09.3380,+00.031045,-00.103691,-00.076385
+147.837,-019.657,-008.740,-0.202,-0.017,+2.488,-03.2010,+01.5800,-08.9230,+00.038058,+00.000434,-00.069200
+147.725,-019.663,-008.636,-0.197,-0.002,+2.472,-03.0290,+01.0580,-08.8550,+00.075828,+00.006733,-00.103984
+147.612,-019.705,-008.472,-0.202,+0.003,+2.477,-03.1120,+00.9230,-08.6940,+00.125331,-00.037208,-00.085271
+147.540,-019.756,-008.326,-0.197,-0.007,+2.505,-03.1460,+00.9490,-08.8750,+00.101999,-00.032154,-00.059405
+147.486,-019.822,-008.202,-0.197,+0.028,+2.472,-03.0390,+01.0220,-08.7620,+00.077452,-00.065628,-00.048289
+147.451,-019.933,-008.160,-0.202,-0.002,+2.461,-03.0890,+01.4170,-08.8020,+00.005619,-00.104091,-00.040865
+147.384,-020.091,-008.148,-0.202,+0.013,+2.499,-03.3370,+01.6960,-08.7670,-00.007061,-00.136831,-00.096778
+147.248,-020.257,-008.096,-0.183,-0.002,+2.484,-03.3800,+01.2800,-08.8630,+00.006550,-00.121625,-00.146479
+147.074,-020.386,-008.015,-0.192,-0.022,+2.483,-03.3950,+01.1360,-08.7840,+00.024266,-00.078295,-00.163525
+146.879,-020.488,-007.905,-0.188,+0.013,+2.505,-03.3520,+01.2530,-08.7680,+00.047414,-00.059701,-00.174450
+146.662,-020.586,-007.755,-0.183,+0.018,+2.484,-03.2980,+01.1630,-08.7810,+00.075889,-00.058383,-00.194289
+146.439,-020.668,-007.573,-0.174,-0.007,+2.479,-03.3400,+01.2120,-08.7350,+00.099940,-00.042162,-00.188432
+146.207,-020.755,-007.386,-0.188,+0.018,+2.494,-03.2600,+01.2340,-08.7450,+00.082853,-00.060838,-00.207227
+145.927,-020.893,-007.188,-0.178,+0.043,+2.473,-03.2920,+01.0750,-08.6860,+00.085373,-00.107230,-00.262779
+145.623,-021.078,-006.994,-0.174,+0.003,+2.484,-03.3530,+01.0050,-08.7240,+00.072739,-00.144315,-00.262648
+145.337,-021.301,-006.801,-0.169,+0.023,+2.506,-03.4240,+01.0490,-08.7820,+00.075400,-00.176332,-00.243375
+145.074,-021.566,-006.621,-0.155,+0.033,+2.479,-03.4520,+01.1440,-08.7950,+00.072161,-00.226179,-00.244494
+144.793,-021.908,-006.435,-0.160,+0.003,+2.490,-03.4880,+01.0180,-08.7650,+00.073481,-00.300625,-00.268425
+144.497,-022.368,-006.202,-0.141,+0.018,+2.496,-03.5280,+01.0100,-08.7650,+00.129008,-00.418784,-00.286202
+144.214,-022.981,-005.890,-0.113,+0.022,+2.492,-03.1090,+00.6710,-08.8730,+00.226588,-00.587374,-00.266314
+144.027,-023.845,-005.484,-0.094,+0.037,+2.504,-03.7100,+00.8240,-08.7860,+00.327039,-00.830743,-00.187410
+143.989,-024.997,-005.001,-0.066,+0.022,+2.510,-04.0280,+00.8100,-08.6590,+00.454710,-01.112165,-00.064611
+144.162,-026.492,-004.502,-0.015,+0.066,+2.518,-03.7120,+00.5450,-08.6350,+00.518146,-01.431731,+00.074871
+144.571,-028.341,-004.069,+0.041,+0.090,+2.504,-04.3420,+00.6130,-08.4640,+00.553266,-01.773870,+00.265014
+145.342,-030.701,-003.752,+0.116,+0.110,+2.523,-04.1630,+00.6810,-08.5290,+00.670021,-02.316130,+00.536826
+146.505,-033.944,-003.645,+0.214,+0.153,+2.500,-04.0200,+00.9580,-08.3990,+00.666969,-03.208868,+00.684425
+147.782,-038.287,-003.697,+0.368,+0.162,+2.485,-05.1140,+00.6160,-09.0350,+00.518261,-04.272700,+00.718431
+149.464,-044.077,-004.375,+0.526,+0.170,+2.454,-04.6740,+01.5100,-11.3560,+00.549862,-05.543657,+00.607941
+150.541,-051.278,-004.622,+0.755,+0.202,+2.377,-07.4400,+00.4990,-11.8780,+00.328798,-06.805471,-00.132016
+151.145,-060.054,-006.106,+1.011,+0.174,+2.220,-12.1160,+00.0300,-12.0120,-01.627437,-08.262990,-00.572484
+152.034,-070.039,-009.963,+1.221,+0.112,+2.094,-10.2140,+00.4250,-11.6050,-02.765034,-08.890969,-01.180914
+151.670,-080.219,-013.482,+1.472,+0.103,+1.812,-09.7450,+02.9720,-14.4760,-03.252506,-08.375456,-02.185778
+131.931,-088.772,+002.955,+1.631,+0.115,+1.580,-05.0090,+04.4950,-17.1240,-02.269370,-06.153273,-02.425621
-011.874,-086.360,+146.041,+1.668,+0.164,+1.429,-06.7500,+09.2270,-36.4840,-00.170543,-01.942070,-00.957519
+000.424,-086.962,+133.885,+1.640,+0.218,+1.352,-02.0040,+07.4250,-23.5300,+00.529996,+02.123022,+00.377829
+097.871,-088.119,+037.195,+1.579,+0.199,+1.360,+00.3280,+02.1440,-09.2320,+00.655639,+03.506049,+01.151687
+138.881,-084.277,-002.898,+1.560,+0.184,+1.354,-00.3030,-00.2860,-07.0450,+00.849084,+03.772468,+01.321434
+145.303,-079.334,-007.734,+1.607,+0.213,+1.280,-04.3200,-01.1230,-12.1720,+01.658549,+04.616881,+01.058271
+145.791,-073.138,-006.237,+1.794,+0.202,+1.348,-07.2310,-03.8680,-09.3580,+01.573449,+05.759132,+00.533003
+144.835,-066.242,-004.215,+1.957,+0.102,+1.611,-06.6380,-03.2310,-05.5100,+00.606953,+06.054079,+00.128572
+143.913,-059.459,-002.968,+2.009,+0.009,+2.107,-06.8370,-00.6340,-05.6610,+00.369403,+05.817539,-00.069705
+143.139,-053.005,-001.722,+1.664,-0.089,+2.576,-07.7970,+01.2020,-07.0210,+00.588631,+05.555445,-00.153815
+142.896,-046.742,-000.927,+1.333,-0.150,+2.768,-08.5380,+03.3210,-09.1790,+00.450960,+05.436515,+00.119265
+143.414,-040.444,-000.961,+0.993,-0.196,+2.813,-09.1660,+03.1610,-09.8010,+00.121485,+05.513160,+00.570876
+144.236,-034.384,-001.669,+0.675,-0.223,+2.854,-09.8730,+00.9020,-07.8020,-00.295448,+05.037217,+00.694194
+144.672,-029.137,-002.518,+0.456,-0.275,+2.850,-12.3340,-01.0670,-12.8940,-00.698079,+04.388516,+00.314724
+144.323,-023.948,-003.446,+0.237,-0.338,+2.857,-14.1090,-01.5980,-14.9890,-01.088409,+04.630554,-00.246212
+143.387,-018.699,-004.518,-0.020,-0.415,+2.809,-14.5670,+00.4260,-13.1770,-01.270457,+04.582064,-00.501088
+142.482,-013.612,-005.603,-0.179,-0.483,+2.770,-16.4220,+03.2510,-14.7100,-01.051857,+04.514544,-00.228344
+142.077,-008.407,-006.268,-0.417,-0.481,+2.678,-16.5360,+04.3930,-08.6330,-00.409588,+04.458945,+00.352212
+142.330,-003.855,-006.520,-0.613,-0.460,+2.598,-16.3560,+01.6470,-02.7300,-00.161116,+03.557091,+00.798968
+142.739,-000.232,-006.909,-0.734,-0.454,+2.544,-18.2550,-02.1640,-01.3250,-00.436945,+02.868760,+00.593800
+142.764,+002.506,-007.439,-0.837,-0.394,+2.436,-17.9340,-02.5340,+03.8740,-00.431510,+01.976305,+00.176447
+142.709,+003.803,-007.870,-0.888,-0.418,+2.391,-18.0400,-01.7260,+05.0820,-00.302674,+00.628494,+00.108088
+142.796,+003.566,-007.949,-0.898,-0.413,+2.374,-16.8100,-00.6300,+07.7120,+00.095645,-00.943653,-00.289599
+142.310,+000.220,-006.682,-0.800,-0.414,+2.422,-02.8910,-06.5880,-01.4160,+01.470522,-03.067327,-00.992952
+141.917,-003.902,-006.831,-0.660,-0.450,+2.504,+01.7020,+00.8940,-24.9390,-00.782608,-03.386446,-01.304814
+141.862,-008.293,-006.905,-0.543,-0.471,+2.536,-11.1170,-03.2010,-01.6280,+00.007235,-04.141865,+00.276210
+142.839,-012.180,-007.719,-0.398,-0.472,+2.565,-08.2620,-06.5070,-18.7680,-00.529036,-02.984344,+00.144906
+143.430,-015.459,-008.908,-0.296,-0.523,+2.564,-05.9100,+03.8000,-12.8940,-00.954240,-02.794455,+00.155292
+143.953,-018.278,-009.730,-0.207,-0.543,+2.595,-12.2630,+03.7340,-20.9740,-00.194734,-02.015099,-00.157706
+144.177,-019.655,-009.567,-0.147,-0.539,+2.598,-04.6130,+01.4470,-12.7230,+00.279448,-00.903357,-00.038094
+144.169,-020.237,-009.371,-0.137,-0.554,+2.593,-04.7740,+01.8470,-09.6660,+00.066895,-00.324865,-00.091027
+144.054,-020.405,-009.259,-0.132,-0.514,+2.609,-03.6880,+01.5070,-09.0600,+00.091346,-00.047539,-00.133794
+143.859,-020.445,-009.092,-0.114,-0.505,+2.604,-03.3090,+01.2460,-08.8090,+00.083917,+00.005248,-00.179029
+143.644,-020.481,-008.932,-0.109,-0.539,+2.599,-03.2670,+00.9160,-08.8190,+00.072209,-00.018756,-00.169641
+143.520,-020.533,-008.822,-0.119,-0.564,+2.626,-03.2500,+00.8640,-08.7970,+00.039857,-00.035479,-00.069013
+143.488,-020.620,-008.785,-0.114,-0.515,+2.594,-03.0870,+01.4510,-08.7160,+00.027940,-00.099779,-00.029946
+143.464,-020.774,-008.729,-0.109,-0.535,+2.583,-03.1600,+01.4820,-08.6770,+00.044369,-00.135036,-00.048503
+143.395,-020.955,-008.656,-0.095,-0.539,+2.638,-03.4910,+01.5030,-08.7600,+00.039397,-00.150031,-00.098781
+143.282,-021.126,-008.584,-0.091,-0.535,+2.611,-03.6410,+01.2850,-08.8060,+00.021384,-00.119918,-00.116827
+143.169,-021.250,-008.515,-0.086,-0.525,+2.600,-03.5770,+01.3700,-08.7780,+00.023575,-00.076788,-00.102558
+143.047,-021.328,-008.431,-0.091,-0.559,+2.649,-03.4720,+01.2610,-08.7350,+00.046174,-00.040313,-00.112077
+142.876,-021.387,-008.276,-0.072,-0.520,+2.606,-03.3910,+01.3810,-08.6960,+00.103188,-00.029787,-00.174017
+142.625,-021.454,-008.038,-0.077,-0.555,+2.612,-03.5590,+01.2550,-08.7290,+00.138249,-00.024299,-00.222823
+142.346,-021.510,-007.756,-0.081,-0.520,+2.617,-03.4690,+01.3430,-08.6730,+00.158225,-00.014235,-00.234470
+142.071,-021.562,-007.488,-0.077,-0.515,+2.617,-03.4380,+01.1150,-08.6800,+00.126795,-00.022051,-00.224472
+141.809,-021.655,-007.275,-0.067,-0.520,+2.612,-03.3800,+01.1410,-08.7490,+00.095959,-00.075852,-00.222508
+141.545,-021.802,-007.055,-0.063,-0.510,+2.618,-03.4270,+01.1380,-08.6770,+00.115075,-00.110403,-00.230903
+141.269,-021.991,-006.819,-0.049,-0.505,+2.618,-03.5490,+01.0900,-08.7020,+00.113702,-00.157332,-00.248609
+140.971,-022.249,-006.571,-0.044,-0.515,+2.624,-03.4860,+01.1340,-08.7240,+00.128579,-00.222615,-00.280922
+140.615,-022.601,-006.290,-0.020,-0.480,+2.635,-03.5050,+01.1160,-08.7140,+00.129043,-00.308112,-00.337342
+140.222,-023.087,-005.971,+0.003,-0.501,+2.620,-03.7630,+00.9670,-08.6300,+00.156169,-00.437471,-00.371405
+139.869,-023.785,-005.597,+0.022,-0.486,+2.632,-03.2710,+00.6880,-08.8000,+00.242305,-00.663183,-00.303330
+139.700,-024.726,-005.167,+0.050,-0.486,+2.633,-03.5810,+00.7000,-08.7080,+00.359230,-00.899898,-00.141168
+139.851,-025.981,-004.696,+0.096,-0.452,+2.640,-03.9750,+00.6310,-08.6080,+00.517342,-01.219483,+00.137834
+140.377,-027.589,-004.273,+0.152,-0.462,+2.665,-03.9950,+00.4660,-08.6100,+00.602718,-01.557356,+00.412648
+141.391,-029.677,-004.051,+0.208,-0.433,+2.672,-04.0010,+00.6410,-08.7140,+00.687701,-02.079914,+00.769520
+142.916,-032.522,-004.074,+0.302,-0.394,+2.654,-04.0120,+00.9750,-08.5730,+00.692076,-02.855965,+01.041070
+144.844,-036.433,-004.291,+0.451,-0.385,+2.666,-05.7300,+01.5280,-09.0100,+00.635455,-04.033303,+01.285083
+147.193,-042.002,-004.921,+0.596,-0.332,+2.629,-04.6550,+00.5090,-11.7060,+00.787848,-05.477788,+00.889079
+148.735,-049.212,-005.205,+0.852,-0.300,+2.548,-05.1790,+00.9000,-13.1780,+00.593222,-06.888445,+00.078011
+149.540,-058.027,-005.910,+1.151,-0.284,+2.403,-10.8150,+00.4960,-08.9030,-00.481154,-08.168542,-00.357937
+150.813,-068.263,-009.138,+1.393,-0.312,+2.235,-13.0670,+03.5140,-14.0920,-02.524142,-09.267220,-00.861311
+152.000,-079.334,-013.575,+1.696,-0.337,+1.917,-09.7480,+02.2420,-17.8630,-03.330775,-09.335906,-02.051755
+140.452,-088.513,-004.872,+1.896,-0.281,+1.600,-09.6690,+06.2740,-21.8800,-01.908451,-06.229779,-02.191195
-008.053,-087.637,+143.384,+1.938,-0.227,+1.498,-08.4330,+10.2440,-41.7330,+00.398923,-00.657766,-00.350689
+041.555,-088.902,+094.178,+1.882,-0.151,+1.517,+00.8590,+06.0500,-17.2900,+00.774434,+02.527396,+00.559974
+131.838,-086.808,+004.979,+1.770,-0.155,+1.604,+01.9680,+01.7220,-06.9790,+00.904437,+02.973480,+00.811395
+143.277,-083.198,-005.628,+1.691,-0.134,+1.671,+00.5920,+00.4290,-06.6710,+00.570335,+03.249289,+00.914120
+146.453,-078.949,-008.152,+1.593,-0.078,+1.699,-02.1950,+01.0010,-10.6700,+00.590290,+03.937837,+00.847685
+147.303,-073.483,-008.211,+1.486,-0.032,+1.819,-05.3530,+00.7950,-12.6930,+00.705195,+05.198442,+00.854597
+147.277,-066.773,-007.436,+1.388,-0.040,+1.923,-06.3730,-00.1840,-08.0790,+00.583562,+06.020943,+00.741013
+147.007,-059.838,-006.708,+1.248,+0.011,+1.998,-06.8900,-00.5000,-06.5600,+00.340697,+05.969402,+00.566647
+146.489,-053.106,-006.025,+1.160,+0.033,+2.103,-08.4890,-00.8000,-08.2270,+00.151998,+05.830558,+00.286506
+145.697,-046.430,-005.313,+1.081,+0.044,+2.267,-09.3430,+00.7120,-09.8370,+00.064937,+05.848780,+00.064745
+144.992,-039.795,-004.933,+0.899,+0.072,+2.444,-09.8420,+00.9210,-09.5560,-00.276995,+05.763006,+00.068966
+144.445,-033.522,-005.577,+0.591,+0.031,+2.599,-11.1720,-00.1040,-08.5260,-01.178248,+05.248142,+00.157551
+143.943,-027.848,-006.978,+0.349,-0.017,+2.610,-13.6830,+01.2560,-14.6190,-01.578523,+04.882883,+00.145008
+143.395,-022.149,-008.396,+0.097,+0.000,+2.523,-15.6860,+02.5410,-16.0140,-01.284039,+05.031356,+00.329681
+143.101,-016.404,-009.259,-0.048,-0.004,+2.430,-18.3070,+03.2650,-16.1270,-00.528929,+04.965289,+00.658466
+143.008,-010.478,-009.311,-0.132,-0.008,+2.405,-19.5780,+03.4590,-13.3980,+00.183461,+05.194414,+00.809429
+143.115,-004.751,-008.972,-0.253,+0.053,+2.361,-19.1820,+03.5440,-03.9160,+00.275802,+04.624890,+00.932496
+143.531,-000.149,-008.790,-0.374,+0.009,+2.372,-19.0970,+00.1530,+00.1710,+00.055794,+03.496115,+00.973114
+143.840,+003.372,-009.014,-0.458,+0.045,+2.395,-20.8800,-02.7650,+03.6210,-00.345238,+02.631394,+00.567446
+144.036,+005.372,-009.297,-0.519,+0.011,+2.371,-21.4510,-00.7530,+07.2980,-00.106755,+01.093012,+00.457453
+144.776,+005.800,-008.614,-0.533,+0.006,+2.436,-21.4870,-00.8760,+04.5050,+00.936155,-00.178635,+00.809227
+145.654,+004.719,-006.928,-0.496,+0.051,+2.453,-15.6120,-05.3690,+04.8600,+01.615808,-01.591787,+00.273105
+145.481,+002.307,-005.438,-0.402,+0.130,+2.495,+24.0070,+01.9640,-23.6720,+00.880235,-02.166352,-00.662182
+144.615,-001.821,-005.700,-0.257,+0.123,+2.539,-00.0690,+10.2750,+02.6820,-00.480286,-04.409957,-00.759743
+146.021,-006.653,-007.225,-0.094,+0.117,+2.612,-13.2300,-11.1460,-15.2650,-01.520540,-04.117545,+00.922601
+146.438,-010.567,-009.112,+0.074,+0.051,+2.609,-06.8790,-04.3930,-15.7580,-01.842696,-03.068747,-00.558798
+146.897,-013.833,-011.177,+0.223,-0.050,+2.605,-05.8560,+12.3550,-12.7130,-01.373013,-02.713782,+00.284468
+147.692,-016.519,-012.140,+0.311,-0.071,+2.636,-07.5110,-01.9140,-14.6730,-00.276516,-02.087877,-00.098740
+147.907,-018.298,-011.879,+0.391,-0.037,+2.607,-05.0590,+03.8350,-10.7950,+00.608512,-01.214113,-00.074069
+147.952,-019.157,-011.256,+0.433,+0.012,+2.608,-04.3670,+01.0880,-10.2090,+00.473688,-00.528488,-00.135878
+147.891,-019.582,-010.729,+0.433,-0.002,+2.630,-03.2290,+01.1910,-09.3400,+00.383758,-00.277584,-00.152060
+147.694,-019.908,-010.403,+0.452,+0.022,+2.604,-02.9340,+01.8530,-08.7810,+00.181685,-00.242811,-00.238213
+147.429,-020.191,-010.118,+0.470,+0.012,+2.615,-03.5590,+01.0260,-09.0030,+00.125791,-00.167550,-00.245433
+147.225,-020.354,-009.948,+0.466,+0.012,+2.632,-03.5110,+01.3690,-09.0290,+00.090779,-00.070439,-00.163414
+147.080,-020.465,-009.752,+0.475,+0.022,+2.616,-03.3840,+01.5350,-08.8040,+00.159298,-00.086711,-00.116614
+146.987,-020.594,-009.502,+0.470,+0.057,+2.604,-03.3420,+01.5330,-08.8250,+00.188888,-00.103775,-00.087034
+146.896,-020.721,-009.277,+0.475,+0.032,+2.637,-03.4100,+01.7050,-08.7240,+00.156361,-00.090659,-00.099177
+146.768,-020.834,-009.077,+0.484,+0.067,+2.594,-03.4130,+01.4060,-08.6660,+00.120793,-00.074164,-00.127766
+146.623,-020.932,-008.914,+0.489,+0.047,+2.621,-03.3500,+01.4350,-08.6840,+00.090449,-00.062817,-00.138350
+146.447,-021.027,-008.737,+0.494,+0.062,+2.611,-03.4540,+01.3100,-08.7460,+00.108074,-00.049605,-00.161554
+146.259,-021.107,-008.550,+0.494,+0.077,+2.611,-03.4230,+01.2770,-08.6930,+00.095993,-00.046854,-00.161220
+146.077,-021.202,-008.381,+0.498,+0.076,+2.605,-03.3650,+01.1140,-08.6860,+00.091026,-00.067521,-00.158258
+145.895,-021.300,-008.209,+0.508,+0.077,+2.644,-03.3830,+01.2400,-08.6780,+00.093045,-00.060895,-00.161083
+145.680,-021.405,-008.024,+0.508,+0.101,+2.616,-03.2170,+01.2370,-08.6070,+00.095018,-00.072833,-00.206203
+145.394,-021.559,-007.818,+0.508,+0.086,+2.622,-03.3110,+01.1120,-08.6830,+00.080457,-00.116225,-00.271010
+145.078,-021.754,-007.618,+0.517,+0.071,+2.628,-03.4620,+01.1690,-08.7330,+00.067602,-00.147798,-00.274833
+144.792,-021.988,-007.440,+0.526,+0.111,+2.606,-03.5040,+01.1100,-08.6880,+00.057264,-00.194336,-00.246485
+144.549,-022.291,-007.275,+0.536,+0.096,+2.607,-03.5710,+01.1700,-08.7150,+00.069462,-00.270544,-00.223894
+144.305,-022.700,-007.077,+0.540,+0.096,+2.634,-03.7080,+01.0520,-08.6750,+00.103491,-00.368749,-00.259335
+144.029,-023.238,-006.818,+0.559,+0.111,+2.613,-03.6320,+01.2180,-08.6730,+00.152709,-00.491560,-00.287911
+143.760,-023.943,-006.494,+0.582,+0.125,+2.582,-03.3370,+00.7660,-08.6510,+00.213146,-00.648858,-00.262134
+143.647,-024.980,-006.081,+0.620,+0.135,+2.589,-03.5450,+00.8970,-08.7480,+00.376458,-01.018713,-00.130099
+143.788,-026.402,-005.593,+0.676,+0.174,+2.585,-04.0170,+00.8060,-08.5120,+00.531930,-01.397368,+00.072618
+144.303,-028.269,-005.154,+0.741,+0.173,+2.561,-03.6070,+00.4600,-08.5000,+00.624977,-01.818711,+00.363807
+145.375,-030.690,-004.890,+0.806,+0.178,+2.553,-05.4800,+00.8450,-08.4720,+00.672410,-02.474000,+00.793345
+146.988,-033.975,-004.907,+0.914,+0.206,+2.503,-03.4550,+01.2930,-08.7580,+00.768426,-03.269588,+00.993217
+149.273,-038.399,-005.568,+1.067,+0.214,+2.428,-05.8580,+00.5100,-08.5860,+00.429692,-04.537385,+01.485804
+151.856,-044.308,-006.733,+1.235,+0.178,+2.387,-05.7740,+00.5710,-10.3020,+00.367648,-05.843043,+00.876283
+153.977,-051.891,-007.994,+1.459,+0.184,+2.212,-07.0870,+00.4740,-11.1500,+00.124790,-07.215949,+00.000453
+155.588,-060.983,-010.253,+1.692,+0.171,+2.011,-10.9980,-00.6400,-12.3350,-01.367171,-08.484088,-00.689929
+158.500,-071.279,-015.851,+1.873,+0.119,+1.802,-12.5890,+00.8140,-10.2970,-02.564844,-09.266544,-01.227570
+165.705,-081.793,-026.630,+2.074,+0.105,+1.480,-09.5350,+02.6850,-12.5350,-03.339493,-08.866055,-02.314861
-079.378,-088.014,-145.136,+2.199,+0.113,+1.214,-07.2210,+04.2340,-20.3850,-03.271214,-06.516783,-02.266538
-038.254,-084.459,+171.561,+2.227,+0.172,+1.139,-06.9750,+11.3110,-41.1010,-01.078990,-01.060173,-00.656315
-039.004,-086.331,+172.108,+2.167,+0.099,+1.316,-02.2610,+09.5160,-23.0180,+00.899127,+02.791054,+00.820785
-166.788,-088.989,-058.199,+1.962,+0.032,+1.514,-01.2750,+02.0210,-10.7680,+02.008071,+03.973641,+01.232548
+157.501,-084.152,-020.098,+1.780,+0.004,+1.647,-01.0410,-02.5290,-07.0040,+02.035368,+04.464809,+00.969663
+151.797,-078.727,-012.623,+1.603,+0.061,+1.671,-03.6410,-03.7170,-07.9330,+01.354202,+04.951162,+00.380232
+147.249,-072.593,-007.151,+1.500,+0.082,+1.732,-06.9130,-02.9070,-10.0110,+00.655776,+05.767623,-00.273924
+144.128,-065.491,-003.736,+1.468,+0.113,+1.828,-06.9410,+00.7960,-08.6840,+00.398079,+06.467279,-00.370170
+142.937,-058.172,-002.084,+1.398,+0.164,+1.993,-06.9030,+02.7900,-06.0210,+00.598617,+06.284926,-00.010479
+143.111,-051.189,-001.503,+1.305,+0.186,+2.195,-08.1450,+03.7110,-07.9340,+00.602010,+06.002146,+00.454766
+144.092,-044.347,-001.594,+1.184,+0.203,+2.423,-09.0410,+02.6360,-08.9800,+00.501430,+05.911150,+00.872033
+145.067,-037.656,-002.118,+0.928,+0.252,+2.672,-10.1490,-01.4520,-08.5780,-00.230824,+05.736104,+00.701396
+145.146,-031.495,-003.163,+0.527,+0.266,+2.833,-11.6290,-02.2690,-07.8670,-01.185614,+05.060703,+00.040756
+144.288,-026.155,-004.421,+0.242,+0.200,+2.843,-13.9420,+01.1260,-13.6900,-01.585734,+04.587735,-00.525680
+143.231,-020.866,-005.656,-0.057,+0.127,+2.722,-15.9790,+04.9960,-15.3200,-01.367468,+04.711654,-00.297721
+142.756,-015.475,-006.871,-0.276,+0.064,+2.593,-18.6070,+05.2760,-14.3300,-01.093923,+04.706305,+00.373003
+142.815,-009.978,-007.876,-0.416,+0.040,+2.533,-21.3200,+03.3620,-10.6140,-00.719783,+04.760839,+00.784544
+143.108,-004.872,-008.519,-0.575,+0.046,+2.423,-20.4870,+02.1060,-01.2390,-00.449582,+04.001398,+00.956071
+143.772,-001.140,-008.866,-0.659,+0.057,+2.311,-20.3500,+00.5010,+02.3280,-00.179746,+02.629712,+01.111737
+144.454,+001.378,-009.018,-0.687,+0.067,+2.288,-22.8210,-03.8990,+02.3780,-00.167786,+01.825776,+00.733383
+144.699,+002.729,-009.147,-0.710,+0.077,+2.248,-20.4580,-02.5920,+07.8660,-00.087768,+00.584033,+00.248288
+145.004,+002.275,-009.053,-0.687,+0.086,+2.244,-18.5010,+00.2560,+05.0610,+00.235008,-01.054396,+00.097491
+145.356,-000.330,-006.374,-0.626,+0.156,+2.257,+01.9110,-05.3120,-20.0680,+02.539317,-01.907102,+00.017095
+144.996,-003.362,-005.713,-0.528,+0.199,+2.261,+03.3660,-06.2440,-07.4360,+00.130840,-02.980912,-01.508138
+144.501,-007.913,-005.586,-0.388,+0.173,+2.273,-11.2870,-04.3940,-07.0180,-00.214267,-04.086065,-00.187019
+145.022,-012.113,-006.802,-0.281,+0.132,+2.283,-04.4580,+00.2500,-11.9650,-01.490163,-03.643140,+00.048192
+145.719,-016.610,-009.500,-0.146,+0.076,+2.262,-06.8100,+01.1770,-18.5110,-02.248871,-04.087070,-00.083154
+146.052,-019.289,-010.053,-0.057,+0.031,+2.261,-05.1310,+05.6790,-03.4040,+00.806849,-01.515130,+00.099574
+146.176,-020.216,-009.627,-0.029,+0.040,+2.284,-03.5990,-01.0760,-09.1670,+00.288036,-00.577390,-00.145262
+146.145,-020.513,-009.544,-0.020,+0.050,+2.246,-04.3040,+01.6430,-09.2070,+00.089974,-00.072028,-00.068082
+146.035,-020.488,-009.433,-0.020,+0.065,+2.252,-03.2360,+01.3200,-08.8770,+00.055488,+00.044340,-00.089505
+145.883,-020.481,-009.297,-0.029,+0.060,+2.257,-03.0620,+01.0720,-08.8240,+00.086957,+00.013761,-00.134489
+145.773,-020.523,-009.166,-0.029,+0.085,+2.246,-03.4450,+00.7300,-08.7660,+00.065679,-00.031130,-00.050721
+145.768,-020.593,-009.133,-0.020,+0.070,+2.246,-03.1020,+01.3080,-08.7630,+00.014766,-00.072518,-00.008429
+145.763,-020.709,-009.117,-0.020,+0.045,+2.279,-03.1230,+01.5110,-08.7580,+00.014216,-00.115971,-00.029326
+145.711,-020.861,-009.083,-0.011,+0.050,+2.236,-03.2630,+01.6710,-08.7320,+00.014187,-00.127617,-00.089505
+145.568,-021.019,-008.998,+0.003,+0.065,+2.253,-03.5260,+01.4890,-08.7150,+00.038393,-00.108860,-00.152419
+145.413,-021.159,-008.912,-0.006,+0.060,+2.269,-03.5250,+01.2290,-08.7710,+00.017534,-00.087990,-00.129397
+145.294,-021.265,-008.868,-0.001,+0.065,+2.242,-03.2910,+01.3440,-08.5980,+00.000719,-00.080470,-00.103794
+145.167,-021.404,-008.822,+0.003,+0.040,+2.242,-03.2910,+01.4130,-08.6420,-00.005265,-00.116012,-00.133070
+145.012,-021.571,-008.772,+0.003,+0.060,+2.258,-03.5240,+01.3540,-08.7230,-00.006935,-00.125856,-00.149376
+144.862,-021.733,-008.731,+0.017,+0.075,+2.253,-03.6060,+01.1800,-08.6900,-00.012526,-00.117226,-00.135061
+144.739,-021.883,-008.701,+0.013,+0.050,+2.232,-03.5460,+01.3230,-08.6680,-00.014387,-00.113058,-00.111989
+144.623,-022.044,-008.674,+0.013,+0.040,+2.270,-03.4850,+01.3040,-08.6890,-00.010447,-00.135941,-00.116023
+144.510,-022.231,-008.622,+0.017,+0.069,+2.237,-03.5610,+01.2950,-08.6550,+00.018516,-00.153896,-00.114428
+144.401,-022.439,-008.555,+0.022,+0.054,+2.216,-03.5890,+01.2180,-08.6460,+00.024200,-00.175248,-00.116353
+144.292,-022.670,-008.476,+0.031,+0.069,+2.243,-03.6580,+01.2380,-08.6620,+00.040539,-00.190075,-00.116740
+144.154,-022.952,-008.347,+0.036,+0.084,+2.249,-03.6720,+01.2310,-08.6640,+00.092290,-00.264277,-00.172615
+143.948,-023.378,-008.069,+0.050,+0.079,+2.233,-03.3110,+01.3880,-08.6930,+00.238467,-00.408281,-00.245867
+143.707,-024.040,-007.583,+0.055,+0.049,+2.255,-03.7620,+01.2620,-08.7030,+00.401757,-00.635595,-00.284831
+143.495,-024.973,-006.925,+0.097,+0.103,+2.229,-03.7690,+01.1410,-08.7280,+00.550382,-00.890347,-00.235073
+143.486,-026.169,-006.204,+0.134,+0.098,+2.231,-03.7680,+00.9840,-08.6150,+00.662548,-01.116169,-00.066515
+143.694,-027.649,-005.491,+0.167,+0.108,+2.260,-04.0280,+00.9760,-08.5540,+00.721706,-01.422401,+00.092875
+144.140,-029.506,-004.866,+0.227,+0.167,+2.229,-04.4610,+00.8810,-08.3960,+00.763449,-01.790599,+00.257065
+145.001,-031.951,-004.453,+0.297,+0.166,+2.221,-03.8930,+00.8090,-08.4680,+00.774145,-02.426607,+00.592921
+146.260,-035.274,-004.215,+0.381,+0.195,+2.252,-04.8450,+00.7490,-08.6510,+00.821511,-03.318386,+00.727665
+148.133,-039.847,-004.568,+0.521,+0.253,+2.193,-09.4260,+00.7010,-08.6020,+00.436551,-04.617874,+01.248251
+150.493,-045.811,-005.807,+0.708,+0.216,+2.130,-04.7500,+01.7870,-11.4500,+00.253155,-05.796407,+00.947886
+152.775,-053.199,-007.624,+0.890,+0.214,+2.062,-07.5570,-01.4910,-12.3780,-00.462499,-06.954622,+00.363121
+156.432,-061.789,-012.278,+1.141,+0.191,+1.900,-10.3540,-01.2890,-12.8250,-02.054430,-08.139132,+00.348422
+164.267,-071.589,-023.043,+1.398,+0.098,+1.684,-12.7060,+00.5920,-12.4440,-03.294491,-09.310287,-00.408463
-175.264,-080.952,-047.363,+1.584,+0.080,+1.486,-10.7800,+02.9940,-13.6490,-03.616635,-08.779859,-01.607159
-106.245,-084.539,-119.415,+1.751,+0.107,+1.189,-03.8200,+02.6040,-20.6010,-02.803557,-06.217242,-01.798661
-071.584,-082.947,-155.382,+1.863,+0.155,+1.052,-06.6300,+03.8340,-37.3630,-00.954733,-01.180033,-01.116052
-070.317,-085.041,-157.013,+1.924,+0.174,+1.088,-02.8910,+06.2410,-24.5800,+00.325524,+02.879141,-00.558447
-137.823,-088.281,-088.498,+1.971,+0.249,+1.236,-01.7390,+03.2680,-12.0040,+01.190159,+04.478695,-00.075027
+151.899,-084.222,-016.682,+1.971,+0.221,+1.480,-00.4810,+00.8750,-06.5450,+01.531642,+04.853899,+00.019812
+143.876,-078.684,-006.889,+1.939,+0.232,+1.679,-02.4390,+00.3220,-06.9480,+01.609983,+04.976562,-00.054662
+141.498,-072.615,-002.878,+1.846,+0.294,+1.930,-06.0820,+00.4210,-09.6450,+01.343001,+05.611007,-00.071599
+140.797,-065.683,-001.018,+1.655,+0.257,+2.242,-07.0420,+01.6680,-08.4820,+00.879020,+06.245144,+00.058348
+141.183,-058.495,-000.348,+1.399,+0.241,+2.443,-07.2790,+02.7790,-06.8540,+00.917161,+06.213917,+00.341757
+142.017,-051.553,+000.052,+1.077,+0.225,+2.527,-08.5150,+02.6360,-07.4710,+00.934105,+05.971365,+00.465361
+142.981,-044.867,+000.312,+0.797,+0.193,+2.536,-08.8460,+03.7850,-09.1770,+00.809965,+05.766535,+00.606639
+144.103,-038.341,+000.244,+0.657,+0.229,+2.519,-09.3670,+02.3800,-10.1760,+00.363242,+05.659151,+00.728216
+145.027,-032.029,-000.463,+0.526,+0.200,+2.513,-10.1950,+00.8640,-10.3790,-00.447479,+05.368402,+00.592370
+145.405,-026.125,-001.492,+0.400,+0.182,+2.573,-12.0200,+00.5400,-13.8810,-00.858409,+05.067895,+00.208987
+145.140,-020.141,-002.615,+0.275,+0.169,+2.666,-15.2530,+01.2300,-18.0600,-01.175945,+05.405308,-00.117593
+144.672,-013.731,-003.900,-0.015,+0.097,+2.773,-16.7200,+02.1930,-14.6780,-01.256935,+05.616536,-00.002482
+144.383,-007.618,-005.239,-0.355,+0.056,+2.731,-19.5520,+02.3920,-11.3190,-01.139854,+05.131392,+00.292902
+144.477,-002.153,-006.125,-0.575,+0.072,+2.662,-21.0910,+03.8470,-07.1380,-00.463348,+04.469576,+00.753176
+145.053,+002.358,-006.156,-0.757,+0.089,+2.534,-22.2210,-01.4490,+00.1300,+00.044966,+03.412428,+00.905536
+145.313,+005.485,-006.619,-0.864,+0.094,+2.453,-23.9390,-04.9390,+05.6000,-00.781474,+02.218056,+00.296070
+145.236,+006.993,-007.671,-0.902,+0.055,+2.436,-23.0440,-01.1730,+08.0020,-00.758867,+00.707601,+00.060928
+145.600,+006.531,-007.732,-0.888,+0.084,+2.393,-21.2510,+00.7570,+06.6180,+00.293169,-01.110504,+00.401771
+146.189,+003.970,-006.984,-0.813,+0.104,+2.450,-00.7770,+02.1090,-10.7440,+00.480053,-02.834687,+00.090898
+145.941,+000.694,-007.095,-0.738,+0.073,+2.492,+09.4650,+02.8160,-13.9680,-00.868304,-03.318595,-01.181154
+145.864,-003.825,-007.461,-0.575,+0.072,+2.515,-14.1230,-00.9670,-04.5690,+00.026361,-04.078770,+00.421060
+146.924,-008.145,-008.290,-0.416,+0.011,+2.555,-07.7140,-08.1490,-19.7780,-00.998466,-03.524430,+00.146980
+147.306,-011.786,-009.992,-0.323,-0.035,+2.587,-06.0180,+05.4650,-11.9440,-01.559065,-03.122625,-00.177048
+148.078,-015.044,-011.445,-0.188,-0.076,+2.598,-06.1560,+06.4090,-15.1230,-00.687119,-02.879189,+00.185073
+148.513,-017.517,-011.799,-0.104,-0.112,+2.608,-06.4420,+00.1880,-12.8750,+00.022618,-01.594426,-00.143969
+148.615,-018.634,-011.345,-0.080,-0.062,+2.619,-04.6070,+01.5180,-10.0400,+00.418037,-00.646211,-00.112510
+148.563,-019.059,-010.901,-0.043,-0.018,+2.599,-03.8710,+01.9980,-09.3900,+00.353615,-00.223480,-00.103772
+148.447,-019.219,-010.567,-0.043,-0.073,+2.605,-03.0460,+01.3910,-08.9050,+00.202260,-00.092302,-00.134537
+148.290,-019.341,-010.368,-0.043,-0.067,+2.642,-03.0650,+01.1080,-08.8910,+00.103653,-00.075448,-00.148208
+148.160,-019.441,-010.225,-0.034,-0.048,+2.588,-03.0920,+01.2530,-08.8040,+00.069639,-00.056737,-00.097540
+148.079,-019.528,-010.164,-0.038,-0.033,+2.610,-02.9500,+01.3210,-08.7740,+00.010347,-00.077629,-00.068730
+148.028,-019.645,-010.154,-0.024,-0.028,+2.638,-02.9550,+01.5640,-08.6870,-00.009651,-00.105987,-00.054981
+147.979,-019.794,-010.132,-0.034,-0.033,+2.599,-03.0900,+01.7220,-08.7520,+00.020714,-00.131084,-00.074835
+147.887,-019.971,-010.019,-0.029,-0.053,+2.616,-03.2300,+01.5750,-08.7410,+00.092707,-00.143987,-00.117283
+147.765,-020.149,-009.861,-0.015,-0.053,+2.627,-03.4460,+01.4050,-08.8190,+00.095191,-00.122974,-00.124465
+147.635,-020.289,-009.748,-0.010,-0.043,+2.600,-03.3170,+01.4770,-08.7530,+00.046770,-00.089466,-00.129855
+147.487,-020.394,-009.662,-0.001,-0.058,+2.612,-03.3850,+01.4250,-08.8120,+00.024687,-00.058679,-00.132883
+147.330,-020.480,-009.556,-0.010,-0.058,+2.633,-03.2710,+01.5590,-08.7750,+00.055833,-00.051889,-00.147899
+147.147,-020.569,-009.409,-0.001,-0.043,+2.612,-03.2310,+01.4560,-08.6730,+00.077980,-00.056323,-00.167136
+146.941,-020.670,-009.249,-0.001,-0.063,+2.623,-03.2840,+01.3830,-08.6960,+00.075381,-00.058342,-00.188483
+146.719,-020.782,-009.080,+0.013,-0.018,+2.612,-03.3290,+01.3460,-08.7010,+00.078329,-00.077233,-00.193493
+146.516,-020.921,-008.926,+0.004,-0.023,+2.606,-03.3770,+01.3630,-08.6860,+00.068132,-00.103744,-00.176930
+146.323,-021.100,-008.787,+0.013,-0.023,+2.617,-03.3710,+01.3800,-08.6880,+00.058510,-00.143510,-00.185350
+146.121,-021.312,-008.652,+0.013,-0.043,+2.623,-03.4050,+01.3290,-08.7180,+00.049958,-00.167454,-00.189288
+145.933,-021.574,-008.514,+0.027,-0.033,+2.624,-03.4040,+01.3400,-08.7050,+00.067541,-00.234127,-00.184225
+145.763,-021.942,-008.333,+0.046,-0.034,+2.614,-03.5630,+01.1670,-08.6680,+00.123342,-00.333997,-00.188355
+145.592,-022.469,-008.050,+0.064,+0.001,+2.614,-03.4770,+01.5010,-08.6900,+00.254620,-00.506954,-00.206528
+145.395,-023.204,-007.584,+0.088,+0.001,+2.621,-03.5200,+01.5400,-08.7410,+00.392342,-00.696763,-00.265056
+145.246,-024.209,-007.013,+0.125,-0.009,+2.628,-03.6320,+01.1650,-08.7110,+00.473340,-00.948153,-00.196856
+145.245,-025.519,-006.389,+0.158,+0.015,+2.651,-03.9100,+00.8960,-08.6070,+00.576250,-01.241486,-00.085120
+145.443,-027.155,-005.829,+0.214,+0.059,+2.620,-04.1810,+00.8940,-08.5660,+00.559780,-01.558957,+00.060875
+145.921,-029.141,-005.424,+0.274,+0.059,+2.623,-04.4820,+00.5750,-08.5470,+00.527647,-01.907484,+00.323712
+146.915,-031.704,-005.305,+0.368,+0.108,+2.638,-04.3700,+01.0020,-08.4170,+00.579360,-02.557351,+00.630704
+148.176,-035.102,-005.253,+0.489,+0.171,+2.588,-04.7390,+00.9420,-08.3590,+00.637151,-03.343278,+00.742188
+150.234,-039.670,-006.053,+0.652,+0.124,+2.547,-04.2580,+00.6600,-10.2370,+00.324426,-04.569913,+01.114068
+152.460,-045.548,-007.326,+0.825,+0.123,+2.516,-05.3250,+00.8180,-10.4690,+00.175872,-05.672534,+00.654987
+154.246,-052.803,-008.829,+1.072,+0.134,+2.386,-07.9810,+00.0040,-12.0970,-00.475972,-06.834209,-00.145658
+156.302,-061.450,-012.205,+1.342,+0.086,+2.192,-10.7600,-00.2360,-13.9650,-02.058887,-08.079927,-00.607233
+160.426,-071.172,-019.156,+1.566,+0.053,+2.017,-12.1970,+01.1520,-11.6080,-02.700901,-08.824974,-01.228868
+170.224,-080.991,-032.088,+1.794,+0.099,+1.680,-10.0340,+02.8430,-13.4870,-02.704476,-08.325880,-02.180231
-124.888,-087.633,-098.838,+1.938,+0.106,+1.414,-04.8590,+03.9460,-21.3720,-01.067947,-05.621408,-02.240102
-056.088,-086.860,-167.799,+1.976,+0.185,+1.323,-04.6220,+06.1700,-38.0150,-00.246808,-00.161072,-00.792812
-100.790,-089.448,-123.268,+1.985,+0.225,+1.361,-00.8760,+06.0270,-18.2580,+00.153024,+03.411587,+00.185906
+149.591,-085.758,-013.215,+1.985,+0.230,+1.475,+01.2460,+02.5990,-06.0230,+00.538557,+03.964747,+00.582472
+147.963,-081.238,-010.809,+1.995,+0.216,+1.584,-00.1240,+01.6370,-04.9020,+00.786031,+03.824458,+00.719917
+148.193,-076.493,-009.788,+2.032,+0.201,+1.754,-03.8340,+01.7340,-11.4440,+01.306733,+04.377620,+00.809551
+148.062,-070.543,-008.033,+1.981,+0.174,+2.121,-06.2640,-01.0780,-09.5370,+01.345676,+05.531660,+00.689503
+147.469,-063.902,-006.386,+1.795,+0.192,+2.423,-06.1030,-01.6820,-06.1640,+00.700387,+05.812493,+00.420069
+146.665,-057.283,-005.218,+1.446,+0.252,+2.700,-07.2930,-01.6190,-07.3100,+00.269995,+05.770429,+00.119954
+145.609,-050.700,-004.196,+1.068,+0.281,+2.846,-08.5610,-00.4330,-08.8720,+00.109377,+05.782653,-00.162223
+144.618,-044.103,-003.381,+0.802,+0.344,+2.910,-09.1120,+01.4840,-09.8120,+00.050078,+05.780533,-00.187045
+144.015,-037.550,-003.076,+0.462,+0.387,+2.922,-09.5510,+01.5860,-09.1480,-00.228848,+05.671665,+00.007873
+143.820,-031.485,-003.603,+0.131,+0.375,+2.918,-09.8260,+01.6020,-08.3350,-00.736425,+04.965642,+00.256978
+143.843,-026.165,-004.550,-0.122,+0.308,+2.859,-12.3390,+00.5890,-15.7940,-00.887866,+04.595132,+00.341265
+143.590,-020.644,-005.544,-0.290,+0.228,+2.592,-13.4890,-00.7180,-17.2300,-00.987341,+04.945457,+00.138696
+143.022,-014.826,-006.429,-0.225,+0.078,+2.433,-14.2330,+01.3130,-16.3660,-00.820497,+05.143085,+00.051788
+142.521,-009.072,-007.035,-0.174,-0.057,+2.496,-15.1530,+02.1340,-13.2960,-00.501060,+04.925357,+00.260033
+142.262,-003.721,-007.431,-0.337,-0.100,+2.570,-16.2540,+01.1150,-09.4250,-00.298615,+04.476507,+00.383123
+141.842,+000.951,-007.791,-0.584,-0.127,+2.614,-17.3010,-01.1950,-04.0750,-00.417795,+03.836270,-00.011076
+141.008,+004.642,-008.752,-0.757,-0.160,+2.585,-17.9910,-01.5230,+01.6720,-01.065283,+02.901104,-00.345276
+140.352,+006.931,-010.045,-0.902,-0.174,+2.546,-19.1670,+01.1270,+05.3560,-00.884135,+01.521289,-00.096221
+140.611,+007.602,-010.260,-0.967,-0.173,+2.511,-19.9910,+02.1320,+07.7860,+00.205153,-00.075533,+00.592501
+141.868,+006.701,-009.400,-0.967,-0.143,+2.565,-19.6610,+00.8280,+04.2350,+00.748153,-01.406647,+01.103365
+143.519,+004.603,-007.916,-0.901,-0.059,+2.610,+00.0780,+01.0050,-10.6980,+01.742503,-02.349859,+01.186036
+144.139,+001.620,-007.025,-0.817,-0.049,+2.701,+19.7140,-00.2090,-15.1800,+00.117099,-03.323728,-00.408920
+144.054,-003.100,-007.482,-0.687,-0.055,+2.793,-14.0410,+00.8540,-04.4020,-00.125368,-04.279476,+00.350112
+145.317,-007.681,-008.035,-0.519,-0.022,+2.855,-10.4790,-15.0460,-21.1330,-00.584393,-03.817958,+00.042212
+145.149,-011.530,-009.161,-0.383,-0.088,+2.910,-05.4170,+04.0310,-10.6710,-01.233342,-03.092887,-00.617926
+145.641,-014.762,-010.419,-0.285,-0.123,+2.974,-06.4550,+05.6810,-14.1920,-00.726602,-02.651939,+00.066723
+145.941,-017.462,-010.575,-0.159,-0.139,+2.980,-07.6110,+03.0040,-18.4710,+00.256564,-02.070183,-00.260729
+146.049,-018.967,-009.915,-0.103,-0.105,+2.998,-04.2570,+01.5510,-11.7950,+00.614296,-00.986014,-00.132673
+145.964,-019.698,-009.367,-0.071,-0.085,+3.027,-04.5510,+01.8400,-10.3960,+00.361071,-00.443818,-00.171743
+145.800,-020.007,-009.005,-0.066,-0.055,+3.005,-03.5270,+01.5530,-09.3560,+00.210300,-00.165991,-00.178181
+145.560,-020.158,-008.680,-0.057,-0.065,+3.011,-03.2400,+01.2500,-09.0070,+00.222147,-00.070305,-00.247826
+145.260,-020.238,-008.352,-0.052,-0.051,+3.000,-03.4970,+01.2010,-08.7770,+00.168990,-00.023671,-00.241617
+145.043,-020.258,-008.120,-0.057,-0.036,+3.000,-03.3050,+00.6720,-08.8140,+00.110784,+00.012285,-00.135312
+144.959,-020.311,-008.036,-0.052,-0.046,+3.011,-02.8870,+00.9280,-08.6150,+00.005735,-00.072923,-00.049010
+144.960,-020.461,-008.057,-0.043,-0.046,+3.017,-03.0360,+01.1670,-08.6870,-00.035287,-00.154489,-00.000836
+145.001,-020.643,-008.134,-0.029,-0.051,+3.034,-03.5530,+01.2630,-08.7660,-00.068140,-00.156977,+00.013438
+145.042,-020.811,-008.260,-0.043,-0.046,+3.012,-03.4490,+01.4340,-08.8100,-00.101733,-00.145555,+00.008721
+145.042,-020.964,-008.369,-0.033,-0.051,+3.050,-03.4690,+01.3040,-08.7650,-00.084328,-00.119139,-00.037030
+144.987,-021.099,-008.439,-0.019,-0.051,+3.023,-03.2800,+01.2290,-08.7770,-00.074188,-00.111154,-00.074653
+144.895,-021.232,-008.480,-0.024,-0.046,+3.001,-03.5170,+01.2650,-08.7840,-00.059567,-00.092922,-00.097922
+144.798,-021.335,-008.499,-0.010,-0.076,+3.046,-03.5290,+01.2340,-08.7650,-00.038307,-00.064907,-00.084333
+144.705,-021.409,-008.501,-0.015,-0.066,+3.018,-03.4580,+01.3180,-08.7550,-00.018847,-00.047106,-00.090815
+144.581,-021.471,-008.446,-0.010,-0.061,+3.029,-03.3510,+01.3930,-08.7210,+00.025101,-00.039044,-00.120111
+144.404,-021.554,-008.330,-0.001,-0.071,+3.030,-03.4230,+01.2810,-08.7030,+00.051683,-00.055417,-00.169033
+144.203,-021.656,-008.189,-0.005,-0.066,+3.030,-03.4730,+01.2710,-08.7030,+00.060034,-00.068842,-00.174943
+144.004,-021.775,-008.050,-0.001,-0.051,+3.008,-03.4840,+01.1450,-08.6820,+00.054922,-00.089141,-00.172881
+143.812,-021.931,-007.900,-0.001,-0.076,+3.041,-03.4440,+01.2220,-08.6720,+00.078297,-00.128682,-00.175943
+143.599,-022.137,-007.704,+0.013,-0.056,+3.030,-03.5640,+01.2250,-08.6450,+00.113568,-00.169282,-00.207167
+143.366,-022.411,-007.486,+0.018,-0.046,+3.014,-03.6070,+01.2060,-08.6670,+00.108473,-00.241276,-00.221194
+143.140,-022.778,-007.271,+0.023,-0.046,+3.042,-03.5580,+01.0240,-08.7160,+00.117788,-00.323173,-00.218769
+142.937,-023.287,-006.993,+0.051,-0.007,+3.026,-03.5120,+00.9420,-08.7590,+00.218666,-00.485205,-00.199589
+142.822,-024.020,-006.593,+0.074,-0.002,+3.027,-03.6420,+00.8830,-08.6400,+00.348640,-00.711178,-00.152640
+142.809,-025.036,-006.098,+0.112,+0.013,+3.056,-03.7810,+00.8700,-08.5660,+00.481708,-00.989955,-00.065152
+143.008,-026.372,-005.596,+0.163,+0.047,+3.047,-03.7720,+00.7050,-08.6510,+00.528864,-01.307620,+00.113477
+143.606,-028.192,-005.220,+0.247,+0.051,+3.029,-03.4220,+00.7070,-08.6730,+00.613230,-01.827835,+00.387178
+144.555,-030.724,-004.975,+0.331,+0.090,+3.043,-04.2200,+00.7930,-08.4620,+00.620937,-02.555615,+00.608622
+145.869,-034.154,-004.854,+0.490,+0.133,+3.001,-04.0480,+01.2870,-08.6770,+00.787122,-03.393288,+00.756279
+147.655,-038.824,-005.190,+0.671,+0.146,+2.987,-06.0880,+01.2600,-09.0580,+00.434641,-04.696141,+01.032356
+149.429,-044.957,-005.779,+0.872,+0.149,+2.947,-05.7460,+00.6110,-10.9810,+00.538780,-05.815138,+00.347541
+150.272,-052.277,-005.847,+1.152,+0.205,+2.801,-07.8610,+00.2020,-11.3950,+00.309899,-06.783755,-00.463707
+150.776,-060.841,-007.128,+1.455,+0.201,+2.636,-11.4220,-01.0940,-12.1490,-01.351513,-07.953543,-00.678749
+151.791,-070.429,-010.580,+1.683,+0.159,+2.461,-11.3730,+00.6920,-09.4870,-02.173182,-08.517177,-01.104725
+152.391,-080.178,-014.332,+1.953,+0.134,+2.142,-09.7470,+01.8720,-14.1130,-02.947171,-08.067925,-01.974831
+146.296,-088.122,-011.422,+2.093,+0.127,+1.882,-09.2840,+05.8140,-20.5060,-02.182374,-05.304061,-01.941983
+037.128,-088.984,+097.568,+2.074,+0.172,+1.865,-07.9740,+08.8360,-40.6880,+00.250410,+00.520297,-00.465775
+114.476,-087.154,+020.862,+1.906,+0.198,+1.906,+01.3520,+04.3950,-12.1350,+00.858752,+03.032481,+00.224538
+130.639,-083.831,+005.667,+1.739,+0.220,+1.986,+01.7870,+01.4760,-04.4210,+00.725350,+02.995774,+00.516568
+137.258,-080.556,-000.042,+1.627,+0.212,+2.030,+00.2060,+01.0770,-06.8520,+00.817550,+02.904578,+00.678989
+140.682,-076.744,-002.065,+1.510,+0.258,+2.024,-03.3320,+00.5500,-11.1800,+01.334351,+03.676958,+00.611939
+142.023,-071.653,-002.027,+1.398,+0.254,+2.047,-05.8000,-01.3640,-10.0310,+00.940292,+04.848210,+00.394960
+142.446,-065.603,-001.793,+1.333,+0.275,+2.125,-06.0210,+00.0130,-07.6340,+00.394618,+05.441058,+00.267835
+142.651,-059.318,-001.492,+1.291,+0.295,+2.188,-07.5980,+01.2060,-08.0580,+00.484877,+05.498969,+00.211524
+142.754,-052.953,-000.861,+1.259,+0.267,+2.420,-09.1230,+02.4760,-08.7810,+00.668062,+05.584086,+00.160569
+143.121,-046.511,-000.505,+1.110,+0.235,+2.707,-10.0660,+03.7590,-08.5020,+00.446720,+05.613546,+00.363346
+143.830,-040.179,-000.758,+0.728,+0.220,+2.935,-10.8160,+02.1640,-07.6630,+00.007960,+05.443259,+00.544968
+144.229,-034.269,-001.469,+0.270,+0.230,+2.958,-11.8440,-00.8970,-05.9550,-00.698093,+04.892171,+00.180950
+143.677,-029.231,-002.473,+0.009,+0.197,+2.898,-13.7190,-01.0080,-09.7350,-01.338565,+04.207108,-00.517685
+142.341,-024.452,-003.660,-0.206,+0.184,+2.731,-13.5320,+00.5060,-11.5680,-01.625818,+04.242620,-00.940914
+140.721,-019.868,-005.171,-0.351,+0.130,+2.655,-12.8960,+00.0060,-09.9580,-02.022114,+03.955561,-00.999169
+138.995,-015.657,-007.369,-0.430,+0.056,+2.603,-14.8050,-02.1680,-12.3760,-02.566296,+03.794358,-01.089073
+136.717,-011.315,-009.939,-0.528,-0.013,+2.556,-16.0350,-04.9210,-12.5150,-02.739527,+04.199573,-01.529196
+133.564,-007.095,-012.389,-0.645,-0.166,+2.519,-14.0820,-06.7200,-06.3670,-02.452750,+03.981331,-02.209689
+129.944,-003.847,-014.853,-0.729,-0.260,+2.494,-12.3940,-05.5740,-04.7300,-02.435048,+03.215750,-02.388630
+126.625,-001.471,-016.962,-0.795,-0.365,+2.384,-11.6490,-03.6240,-03.9200,-01.586983,+02.508491,-02.125900
+123.656,+000.025,-018.218,-0.833,-0.504,+2.356,-12.2190,-04.8010,-01.4480,-01.004779,+01.755652,-02.048179
+120.967,+000.926,-019.291,-0.847,-0.553,+2.361,-12.6060,-04.5140,-01.6730,-00.790778,+01.337064,-01.926125
+118.549,+001.156,-019.551,-0.842,-0.559,+2.329,-11.4820,-03.6630,-00.4800,+00.192881,+00.551737,-01.925340
+116.506,+000.358,-018.983,-0.814,-0.604,+2.325,-10.4960,-02.1970,-02.0570,+00.589507,-00.401360,-01.889357
+114.868,-001.066,-017.932,-0.772,-0.609,+2.370,+00.2880,+10.0660,-13.4060,+02.097663,-00.858236,-01.482070
+113.018,-002.415,-015.741,-0.716,-0.539,+2.416,+11.2560,+13.3890,-10.0420,+01.821845,-00.965612,-02.285908
+111.593,-004.923,-013.603,-0.618,-0.490,+2.479,+00.9800,+11.1790,-04.4570,+01.561201,-02.112355,-00.707964
+112.220,-007.738,-011.790,-0.524,-0.451,+2.592,-06.2160,-07.4330,-12.0990,+01.494790,-02.644228,-00.004479
+112.549,-010.526,-010.364,-0.435,-0.357,+2.633,-04.3320,-05.8290,-10.4280,+01.061908,-02.382848,-00.337149
+112.935,-013.333,-009.787,-0.328,-0.328,+2.681,-02.9440,+01.4290,-10.6910,+00.327029,-02.564491,+00.041128
+113.535,-016.391,-009.456,-0.230,-0.279,+2.706,-06.8070,+00.4610,-15.0100,+00.602938,-02.698099,-00.010725
+113.857,-019.257,-008.786,-0.127,-0.245,+2.727,-07.1240,+03.3090,-10.2870,+00.895626,-02.039024,-00.095607
+113.931,-020.907,-008.529,-0.039,-0.261,+2.736,-05.2720,-00.2720,-09.8400,-00.079749,-00.917009,-00.182938
+113.810,-021.428,-008.465,-0.025,-0.216,+2.748,-04.0310,+01.4830,-09.3560,+00.131865,-00.300400,-00.179241
+113.595,-021.668,-008.150,-0.011,-0.211,+2.759,-03.7400,+00.7040,-09.0170,+00.243173,-00.159554,-00.196283
+113.418,-021.892,-007.864,-0.015,-0.221,+2.759,-03.9870,+00.8490,-08.8420,+00.150733,-00.169238,-00.150993
+113.356,-022.076,-007.749,-0.001,-0.216,+2.776,-03.8810,+00.8010,-08.7890,+00.039316,-00.138566,-00.014528
+113.430,-022.210,-007.789,+0.013,-0.207,+2.765,-03.6010,+00.9210,-08.7790,-00.029358,-00.125242,+00.069579
+113.565,-022.339,-007.897,+0.022,-0.212,+2.755,-03.4600,+01.3530,-08.6920,-00.053133,-00.140156,+00.094183
+113.678,-022.481,-008.002,+0.008,-0.231,+2.776,-03.6510,+01.3210,-08.6920,-00.054074,-00.126435,+00.057016
+113.744,-022.598,-008.100,+0.018,-0.212,+2.766,-03.7980,+01.2210,-08.7000,-00.072345,-00.090502,+00.033287
+113.785,-022.671,-008.214,+0.022,-0.236,+2.782,-03.7720,+01.3930,-08.6790,-00.086603,-00.056249,+00.011258
+113.775,-022.715,-008.299,+0.022,-0.237,+2.772,-03.6450,+01.4280,-08.6560,-00.067750,-00.025055,-00.023951
+113.713,-022.749,-008.323,+0.027,-0.227,+2.766,-03.4730,+01.3730,-08.6030,-00.027735,-00.020893,-00.075915
+113.584,-022.787,-008.296,+0.027,-0.207,+2.750,-03.7470,+01.2660,-08.6420,-00.012080,-00.010342,-00.119910
+113.428,-022.798,-008.241,+0.013,-0.236,+2.787,-03.7420,+01.1590,-08.6400,-00.015088,+00.018777,-00.127568
+113.277,-022.779,-008.220,+0.017,-0.237,+2.750,-03.6690,+01.0390,-08.6350,-00.049073,+00.039580,-00.101592
+113.178,-022.751,-008.250,+0.027,-0.237,+2.755,-03.5790,+01.1280,-08.6640,-00.065104,+00.030480,-00.066210
+113.091,-022.743,-008.286,+0.032,-0.212,+2.777,-03.4880,+01.3700,-08.6460,-00.053651,+00.007199,-00.076123
+112.988,-022.761,-008.295,+0.027,-0.207,+2.744,-03.6880,+01.3280,-08.6380,-00.034426,-00.005415,-00.080653
+112.896,-022.783,-008.285,+0.017,-0.241,+2.766,-03.6790,+01.4180,-08.7000,-00.012667,-00.011360,-00.078582
+112.783,-022.797,-008.241,+0.022,-0.242,+2.761,-03.7210,+01.3360,-08.7070,+00.007085,+00.011573,-00.097344
+112.653,-022.799,-008.176,+0.022,-0.212,+2.766,-03.5670,+01.5000,-08.5870,+00.016394,+00.007452,-00.109262
+112.517,-022.844,-008.111,+0.022,-0.242,+2.766,-03.6190,+01.3080,-08.5880,+00.002699,-00.038932,-00.109883
+112.393,-022.941,-008.066,+0.027,-0.242,+2.772,-03.6300,+01.2430,-08.6210,-00.002913,-00.083076,-00.111607
+112.279,-023.065,-008.026,+0.036,-0.212,+2.745,-03.6820,+01.2790,-08.6920,-00.000850,-00.097831,-00.100441
+112.182,-023.185,-007.989,+0.031,-0.232,+2.756,-03.7690,+01.2970,-08.6280,-00.008424,-00.086803,-00.082476
+112.120,-023.304,-007.989,+0.050,-0.217,+2.773,-03.6080,+01.3860,-08.6000,-00.030451,-00.111382,-00.061743
+112.060,-023.469,-008.005,+0.046,-0.212,+2.751,-03.7740,+01.3180,-08.5540,-00.035465,-00.149624,-00.072070
+111.994,-023.671,-008.015,+0.059,-0.237,+2.735,-03.7700,+01.2470,-08.5620,-00.031588,-00.177302,-00.079509
+111.926,-023.902,-008.030,+0.064,-0.237,+2.790,-03.7440,+01.3250,-08.5750,-00.043088,-00.208320,-00.086034
+111.882,-024.168,-008.068,+0.073,-0.237,+2.763,-03.8120,+01.2360,-08.5150,-00.047951,-00.239191,-00.048890
+111.893,-024.479,-008.122,+0.097,-0.242,+2.759,-03.7740,+01.3870,-08.5970,-00.034589,-00.286230,-00.024747
+111.925,-024.861,-008.147,+0.097,-0.242,+2.764,-03.7770,+01.2300,-08.5590,+00.008741,-00.373258,-00.022424
+111.954,-025.394,-008.080,+0.125,-0.233,+2.754,-03.8900,+01.4030,-08.5660,+00.103176,-00.525895,-00.044106
+112.023,-026.125,-007.957,+0.153,-0.238,+2.756,-03.8950,+01.3270,-08.5500,+00.150418,-00.703059,-00.013475
+112.224,-027.048,-007.810,+0.171,-0.233,+2.783,-04.1980,+01.0260,-08.5200,+00.256898,-00.897223,+00.095617
+112.629,-028.255,-007.617,+0.237,-0.179,+2.759,-04.1970,+01.0510,-08.6900,+00.392852,-01.220794,+00.203015
+113.274,-029.888,-007.362,+0.293,-0.175,+2.750,-03.4650,+01.3550,-08.8660,+00.565194,-01.624670,+00.406183
+114.465,-031.971,-007.301,+0.354,-0.180,+2.796,-05.7460,+00.7580,-08.0050,+00.530739,-02.096685,+00.856746
+116.309,-034.580,-007.883,+0.451,-0.156,+2.757,-04.1670,+00.0410,-08.3100,+00.312177,-02.635114,+01.081647
+118.883,-037.678,-009.451,+0.568,-0.163,+2.724,-05.6540,+00.1680,-08.6200,-00.435501,-03.116377,+01.648349
+122.879,-041.043,-013.734,+0.666,-0.243,+2.680,-04.3760,-01.3730,-09.8930,-02.109407,-03.551645,+02.282132
+128.276,-044.309,-021.136,+0.787,-0.379,+2.589,-06.8420,-03.6190,-11.0260,-03.981985,-03.863131,+02.509417
+135.143,-047.197,-032.299,+0.907,-0.635,+2.395,-07.4630,-01.1030,-09.7620,-06.327967,-04.195779,+02.630014
+142.988,-049.539,-047.245,+0.977,-0.895,+2.248,-09.0000,+00.5650,-10.4400,-08.545715,-04.657621,+01.847865
+151.239,-051.642,-064.733,+1.069,-1.172,+1.858,-09.7870,+04.5480,-08.1780,-10.142700,-04.948113,+00.590719
+160.542,-053.643,-084.183,+1.157,-1.399,+1.418,-11.2670,+06.8200,-07.3690,-10.753950,-05.328775,-00.880045
+167.836,-055.326,-100.323,+1.208,-1.436,+1.073,-26.3520,+01.7750,-29.9570,-07.054702,-01.886633,-02.093105
+168.784,-058.068,-106.563,+1.259,-1.412,+0.842,-10.3250,+08.6800,-25.5520,-03.649492,+01.448204,-02.579544
+163.162,-061.469,-102.979,+1.315,-1.393,+0.833,-07.4640,+08.0210,-18.4470,+00.148273,+03.906074,-02.018501
+152.182,-064.340,-091.696,+1.329,-1.393,+0.948,-06.9060,+00.4170,-11.5790,+01.685714,+05.037664,-01.930843
+136.579,-066.390,-075.776,+1.376,-1.328,+1.042,-05.5040,-06.7610,-04.8180,+01.165569,+05.530051,-02.744453
+118.115,-067.363,-058.395,+1.451,-1.303,+1.137,-05.4200,-04.3420,-02.5560,-00.049707,+05.371081,-03.448367
+099.695,-066.569,-041.556,+1.549,-1.254,+1.244,-05.9600,+01.3770,-06.1210,+00.022945,+05.203713,-03.428977
+084.705,-063.512,-027.016,+1.656,-1.155,+1.422,-05.9730,+04.6270,-08.8210,+01.298967,+05.372177,-02.786228
+074.778,-058.692,-016.455,+1.685,-1.069,+1.776,-06.0950,+01.6350,-05.1650,+01.505732,+05.448712,-02.086417
+068.850,-053.193,-010.648,+1.564,-1.001,+2.063,-05.9950,+01.4490,-04.1890,+00.318063,+05.238201,-01.482656
+065.368,-047.763,-007.952,+1.285,-0.883,+2.251,-06.6830,+03.0440,-06.2240,-00.066373,+04.824611,-00.958474
+063.297,-042.690,-006.511,+0.972,-0.791,+2.296,-07.6170,+02.7630,-07.2550,-00.047197,+04.372853,-00.577011
+062.037,-038.051,-005.941,+0.804,-0.774,+2.213,-09.2170,+01.9750,-09.3690,-00.383753,+03.988609,-00.297585
+061.197,-033.596,-006.153,+0.758,-0.794,+2.097,-11.0990,+02.0700,-12.1500,-00.687253,+03.934709,-00.132625
+060.509,-029.025,-006.634,+0.762,-0.919,+2.141,-12.2070,+01.3210,-13.5820,-00.756340,+04.097710,-00.026800
+059.894,-024.218,-007.235,+0.697,-1.017,+2.242,-12.7510,+00.6560,-13.2510,-00.749214,+04.283561,+00.058650
+059.386,-019.275,-007.655,+0.543,-1.075,+2.312,-14.2770,+02.2700,-13.4440,-00.302910,+04.344059,+00.248117
+059.172,-014.240,-007.414,+0.305,-1.127,+2.389,-14.0480,+01.4410,-10.5830,+00.383558,+04.352913,+00.467212
+059.072,-009.513,-006.731,+0.123,-1.100,+2.381,-13.2270,+00.5970,-06.3050,+00.639415,+03.912487,+00.353039
+058.802,-005.408,-006.059,-0.031,-1.089,+2.292,-14.0980,+00.5870,-04.5440,+00.447141,+03.407903,+00.073216
+058.469,-001.855,-005.902,-0.115,-1.069,+2.229,-14.0730,-00.2030,-01.6210,-00.092856,+02.898545,+00.020127
+058.185,+000.900,-006.128,-0.153,-1.108,+2.227,-14.6100,+00.4970,+00.7040,-00.200537,+02.104876,+00.008830
+058.151,+002.655,-006.132,-0.185,-1.083,+2.166,-14.5370,+01.4370,+01.6000,+00.192008,+01.197430,+00.243675
+058.476,+003.405,-005.592,-0.199,-1.078,+2.171,-12.9890,+00.2870,+01.9770,+00.554898,+00.252687,+00.356086
+058.747,+003.134,-005.192,-0.190,-1.063,+2.204,-12.2330,-01.0110,-01.7350,+00.114493,-00.462809,+00.106336
+058.500,+002.034,-005.285,-0.143,-1.064,+2.146,-02.8940,-03.1390,+01.1040,+00.006727,-01.657476,-00.690909
+057.586,-000.504,-005.502,-0.027,-1.105,+2.146,+12.8080,+04.7680,-12.1260,-00.602079,-02.532432,-01.075934
+056.714,-004.486,-006.520,+0.099,-1.126,+2.130,-07.9910,+08.9200,-08.1300,-00.421740,-03.760859,-00.609819
+057.192,-008.320,-006.744,+0.244,-1.103,+2.087,-10.6670,-04.1320,-15.6010,+00.046150,-03.057834,-00.040106
+057.228,-011.440,-006.812,+0.351,-1.104,+2.032,-03.6640,+00.6440,-11.3830,-00.243403,-02.551578,-00.218854
+057.530,-014.302,-007.164,+0.421,-1.120,+2.041,-04.4790,+01.5860,-12.0110,-00.194056,-02.461924,-00.039901
+057.606,-017.055,-007.272,+0.528,-1.106,+2.007,-08.5120,+03.6150,-18.6380,-00.025125,-02.207225,-00.329327
+057.603,-018.875,-007.281,+0.584,-1.141,+1.978,-04.7380,+00.7730,-13.0600,+00.081727,-01.253025,-00.217139
+057.436,-019.750,-007.196,+0.603,-1.162,+1.979,-05.5520,+02.0410,-11.1370,-00.116189,-00.473983,-00.221499
+057.198,-019.956,-007.150,+0.617,-1.137,+1.963,-03.5800,+01.2060,-09.4680,+00.084443,-00.068221,-00.228096
+056.890,-020.012,-006.867,+0.631,-1.142,+1.963,-03.4800,+01.1440,-09.0390,+00.198426,+00.022589,-00.265771
+056.572,-020.002,-006.499,+0.636,-1.112,+1.991,-03.6170,+00.9200,-08.8660,+00.243031,+00.042950,-00.240430
+056.356,-019.992,-006.150,+0.640,-1.102,+1.974,-03.3120,+00.7290,-08.7930,+00.222380,+00.019455,-00.125237
+056.290,-020.004,-005.972,+0.631,-1.122,+1.974,-03.1460,+00.8030,-08.7960,+00.083834,-00.019968,-00.017693
+056.321,-020.048,-005.945,+0.645,-1.122,+2.007,-03.0460,+00.8710,-08.6810,+00.009260,-00.051669,+00.037137
+056.370,-020.143,-005.981,+0.640,-1.112,+1.991,-03.0920,+01.1690,-08.7620,-00.022150,-00.100835,+00.021281
+056.371,-020.268,-005.988,+0.640,-1.097,+1.963,-03.1060,+01.3590,-08.7720,+00.012380,-00.111714,-00.038534
+056.265,-020.405,-005.892,+0.654,-1.117,+1.986,-03.4210,+01.2470,-08.8290,+00.074370,-00.102326,-00.130023
+056.070,-020.516,-005.704,+0.668,-1.107,+1.992,-03.3140,+01.0700,-08.8340,+00.110662,-00.066494,-00.189421
+055.843,-020.602,-005.530,+0.673,-1.093,+1.976,-03.1920,+00.8130,-08.6960,+00.061412,-00.058084,-00.187135
+055.648,-020.697,-005.434,+0.678,-1.083,+2.008,-03.3490,+00.6520,-08.7310,+00.004345,-00.071112,-00.147441
+055.492,-020.805,-005.393,+0.682,-1.063,+1.992,-03.3490,+00.9290,-08.7380,-00.015032,-00.088190,-00.135877
+055.324,-020.932,-005.350,+0.687,-1.108,+1.987,-03.1040,+01.1360,-08.6510,-00.012490,-00.108349,-00.167619
+055.109,-021.101,-005.301,+0.701,-1.108,+1.999,-03.2990,+00.9920,-08.7540,-00.035383,-00.141229,-00.194415
+054.910,-021.290,-005.294,+0.715,-1.073,+1.977,-03.5200,+00.8920,-08.7620,-00.066660,-00.155600,-00.158086
+054.759,-021.502,-005.317,+0.720,-1.118,+1.951,-03.5070,+00.8570,-08.7380,-00.064949,-00.180714,-00.124128
+054.659,-021.737,-005.354,+0.734,-1.073,+2.005,-03.4850,+00.8740,-08.7500,-00.066855,-00.206619,-00.089459
+054.564,-022.018,-005.359,+0.748,-1.074,+1.952,-03.6030,+00.9940,-08.7550,-00.019929,-00.254268,-00.115269
+054.412,-022.363,-005.298,+0.762,-1.074,+1.941,-03.6110,+01.0710,-08.7070,+00.019264,-00.310745,-00.173480
+054.183,-022.804,-005.170,+0.776,-1.109,+1.980,-03.6350,+01.0380,-08.7090,+00.051149,-00.404011,-00.240117
+053.917,-023.358,-004.971,+0.780,-1.074,+1.953,-03.6860,+00.9140,-08.7260,+00.108352,-00.498737,-00.260600
+053.683,-024.061,-004.686,+0.818,-1.079,+1.939,-03.6900,+01.1500,-08.7170,+00.210389,-00.672185,-00.223627
+053.573,-025.087,-004.279,+0.841,-1.075,+1.945,-03.7630,+00.7970,-08.6580,+00.367285,-00.997236,-00.102309
+053.696,-026.440,-003.837,+0.878,-1.055,+1.946,-03.7850,+00.6240,-08.6040,+00.461150,-01.310707,+00.093918
+054.185,-028.175,-003.499,+0.916,-1.026,+1.910,-04.5580,+00.8020,-08.5320,+00.491704,-01.699334,+00.409327
+055.067,-030.503,-003.255,+0.944,-1.051,+1.928,-04.1360,+00.6970,-08.3660,+00.661805,-02.297865,+00.600773
+056.284,-033.696,-003.123,+1.009,-1.012,+1.892,-03.4210,+01.3380,-08.9390,+00.742942,-03.168589,+00.795210
+057.663,-038.020,-003.031,+1.097,-1.033,+1.831,-04.4870,+00.8770,-09.9740,+00.779072,-04.233443,+00.752814
+058.976,-043.633,-003.154,+1.181,-1.049,+1.791,-03.9570,+01.2310,-11.6310,+00.752418,-05.328043,+00.444431
+059.257,-050.555,-002.557,+1.335,-1.001,+1.657,-07.1000,+00.2200,-10.6420,+00.465375,-06.527724,-00.422827
+058.731,-059.000,-003.013,+1.522,-1.004,+1.464,-11.7470,-01.0200,-10.5150,-01.543451,-07.928504,-00.687051
+058.101,-068.634,-005.489,+1.643,-0.996,+1.241,-09.6240,+01.0500,-10.1920,-02.824378,-08.528027,-01.004118
+055.310,-078.489,-006.694,+1.791,-0.985,+0.873,-09.9770,+02.1620,-12.4720,-03.468575,-08.278508,-01.881715
+034.133,-087.097,+010.648,+1.875,-0.912,+0.556,-09.2860,+03.9800,-15.4920,-03.100241,-06.726346,-02.088370
-086.132,-086.657,+129.237,+1.940,-0.834,+0.428,-20.6150,+12.3540,-39.2150,-00.403478,-02.371578,-01.063348
-076.233,-086.820,+119.619,+1.992,-0.810,+0.441,-03.8330,+07.5830,-26.3830,+00.625049,+02.059692,+00.398744
+007.515,-087.267,+036.798,+1.987,-0.833,+0.647,-00.2120,+01.9070,-09.7980,+00.698303,+03.711562,+01.211822
+043.413,-083.398,+001.907,+1.969,-0.877,+0.820,+00.1110,-00.9880,-05.0910,+00.867265,+03.863303,+01.265800
+050.688,-078.828,-003.910,+1.918,-0.871,+1.008,-03.5580,-01.6540,-10.1860,+01.428318,+04.172637,+00.876953
+051.607,-073.197,-003.168,+1.853,-0.854,+1.249,-06.8330,-03.5470,-09.9570,+01.308878,+05.329614,+00.265046
+050.962,-066.639,-001.557,+1.760,-0.847,+1.517,-06.1370,-01.4690,-06.2020,+00.668339,+05.827324,-00.052286
+050.425,-060.083,-000.419,+1.555,-0.829,+1.774,-06.8390,+00.7590,-05.9250,+00.570765,+05.624579,-00.139810
+050.149,-053.756,+000.451,+1.247,-0.825,+1.939,-08.1750,+02.2730,-07.4730,+00.507968,+05.492817,-00.101673
+050.358,-047.508,+000.753,+1.019,-0.833,+1.924,-08.7050,+03.3130,-07.7070,+00.300832,+05.396433,+00.153644
+050.898,-041.432,+000.522,+0.916,-0.837,+1.832,-10.1050,+01.1120,-08.6690,-00.039948,+05.260358,+00.287914
+051.053,-035.493,-000.172,+0.892,-0.882,+1.816,-11.4730,-01.8630,-08.1210,-00.875086,+05.075727,-00.106183
+050.313,-030.067,-001.255,+0.958,-0.942,+1.819,-12.3820,-00.7710,-09.5040,-01.451858,+04.534210,-00.686950
+048.946,-024.995,-002.489,+1.121,-0.978,+1.929,-13.3260,-00.6710,-13.7890,-01.745065,+04.505390,-01.026119
+047.141,-019.716,-004.070,+1.154,-1.096,+2.236,-12.9480,-02.7320,-12.6020,-02.116854,+04.751233,-01.309591
+044.849,-014.470,-006.030,+1.033,-1.188,+2.497,-13.3630,-04.6360,-11.9450,-02.363174,+04.703385,-01.627220
+041.956,-009.456,-008.202,+0.739,-1.334,+2.605,-13.9350,-06.2080,-11.4000,-02.427796,+04.613672,-02.093610
+038.582,-004.901,-010.497,+0.477,-1.481,+2.529,-12.3630,-04.2430,-08.6290,-02.303329,+04.218997,-02.245390
+035.391,-001.075,-012.682,+0.346,-1.560,+2.442,-12.2050,-02.4630,-06.5600,-01.857434,+03.586484,-01.902445
+032.727,+001.952,-014.554,+0.267,-1.624,+2.304,-12.4410,-04.4360,-03.1090,-01.529488,+02.816832,-01.521105
+030.353,+004.066,-016.276,+0.210,-1.664,+2.209,-14.9450,-04.1470,-00.3780,-01.248644,+02.031767,-01.495151
+028.392,+005.208,-017.415,+0.220,-1.694,+2.156,-15.2310,-01.9460,+02.6060,-00.559037,+01.050161,-01.205584
+027.289,+005.218,-017.492,+0.234,-1.675,+2.102,-15.4520,-01.7840,+02.2420,+00.368295,-00.125985,-00.740521
+026.761,+004.039,-016.482,+0.271,-1.695,+2.120,-13.7990,-00.8580,+04.5160,+01.579516,-01.588330,-01.095340
+025.382,+001.494,-014.210,+0.341,-1.660,+2.182,+10.5500,+09.9820,-21.4040,+02.140841,-01.814682,-02.368199
+023.625,-001.823,-011.487,+0.500,-1.572,+2.210,+01.1380,+12.5710,-02.5890,+01.907907,-02.953745,-01.318340
+024.244,-005.709,-009.313,+0.607,-1.509,+2.177,-09.7510,-06.7090,-12.6330,+01.915268,-03.438644,+00.404228
+025.012,-009.135,-007.812,+0.668,-1.489,+2.228,-05.6360,-10.0000,-11.6880,+01.054782,-02.940655,-00.060124
+025.645,-012.328,-007.724,+0.747,-1.495,+2.156,-04.2890,+00.9220,-12.3300,-00.232816,-02.778599,+00.374665
+026.401,-015.436,-008.483,+0.798,-1.531,+2.077,-07.3920,+01.8720,-15.3530,-00.588665,-02.719755,+00.097026
+026.892,-018.144,-008.953,+0.850,-1.542,+2.041,-06.9990,+01.1620,-11.4620,+00.009109,-01.999109,+00.029323
+027.095,-019.896,-008.877,+0.906,-1.503,+2.011,-04.9230,+01.4660,-10.5430,+00.010084,-01.121501,-00.147259
+026.945,-020.649,-008.891,+0.924,-1.523,+2.001,-04.5490,+01.9090,-08.8510,+00.050577,-00.343298,-00.190767
+026.698,-020.866,-008.812,+0.943,-1.543,+2.007,-03.9960,+01.3400,-09.2010,+00.034153,-00.076034,-00.229968
+026.458,-020.981,-008.630,+0.947,-1.523,+1.975,-03.8170,+01.1760,-08.8040,+00.099564,-00.063292,-00.191752
+026.314,-021.057,-008.464,+0.952,-1.523,+1.996,-03.6640,+00.9510,-08.7610,+00.098446,-00.054021,-00.077186
+026.337,-021.160,-008.412,+0.952,-1.538,+2.013,-03.4470,+01.2800,-08.7340,+00.021221,-00.115192,+00.037484
+026.429,-021.306,-008.454,+0.952,-1.533,+1.991,-03.6160,+01.7650,-08.6520,-00.019386,-00.139326,+00.058839
+026.519,-021.452,-008.506,+0.961,-1.548,+1.997,-03.5860,+01.6730,-08.6560,-00.018476,-00.124328,+00.049818
+026.588,-021.577,-008.546,+0.962,-1.528,+2.008,-03.5710,+01.6440,-08.6930,-00.005623,-00.113548,+00.025773
+026.588,-021.689,-008.535,+0.957,-1.538,+1.981,-03.6260,+01.7690,-08.6490,+00.019876,-00.086252,-00.040803
+026.493,-021.785,-008.456,+0.957,-1.513,+1.980,-03.6220,+01.6270,-08.6300,+00.048748,-00.062498,-00.117431
+026.325,-021.860,-008.339,+0.966,-1.543,+2.008,-03.6690,+01.4570,-08.6390,+00.043671,-00.040571,-00.155058
+026.155,-021.906,-008.237,+0.980,-1.523,+1.987,-03.5940,+01.3900,-08.6280,+00.028451,-00.009356,-00.128767
+026.022,-021.936,-008.166,+0.980,-1.514,+1.960,-03.6300,+01.2190,-08.6330,+00.010181,-00.008161,-00.098342
+025.924,-021.955,-008.138,+0.980,-1.504,+1.976,-03.6400,+01.4440,-08.6470,-00.016532,-00.007057,-00.075633
+025.841,-021.976,-008.140,+0.985,-1.504,+1.965,-03.6050,+01.3730,-08.6430,-00.036344,-00.006015,-00.064857
+025.773,-021.982,-008.165,+0.975,-1.523,+1.981,-03.5710,+01.4750,-08.6250,-00.047592,+00.004201,-00.049484
+025.708,-021.999,-008.193,+0.985,-1.538,+1.998,-03.6080,+01.5070,-08.6010,-00.045147,-00.013089,-00.053358
+025.654,-022.024,-008.214,+0.980,-1.523,+1.981,-03.6400,+01.4480,-08.5910,-00.034489,-00.016395,-00.041269
+025.622,-022.050,-008.242,+0.980,-1.529,+1.960,-03.6290,+01.4570,-08.6060,-00.032848,-00.023352,-00.023959
+025.581,-022.094,-008.249,+0.985,-1.523,+1.998,-03.5600,+01.5120,-08.5480,-00.006239,-00.042993,-00.053136
+025.503,-022.171,-008.195,+0.994,-1.509,+1.966,-03.6400,+01.4030,-08.6470,+00.044736,-00.069672,-00.080460
+025.408,-022.302,-008.085,+1.003,-1.534,+1.972,-03.6070,+01.5580,-08.6020,+00.068904,-00.114968,-00.104348
+025.280,-022.460,-007.953,+0.999,-1.524,+1.988,-03.7270,+01.5360,-08.6020,+00.081592,-00.125686,-00.126749
+025.122,-022.658,-007.798,+1.017,-1.499,+1.983,-03.7540,+01.6030,-08.6370,+00.077528,-00.165256,-00.167409
+024.938,-022.899,-007.647,+1.017,-1.499,+1.977,-03.7050,+01.5610,-08.5460,+00.062554,-00.205728,-00.171005
+024.768,-023.196,-007.538,+1.041,-1.509,+1.984,-03.7290,+01.4980,-08.5140,+00.024685,-00.262218,-00.170287
+024.636,-023.538,-007.476,+1.041,-1.509,+1.957,-03.8080,+01.3140,-08.5370,+00.007073,-00.285415,-00.118660
+024.637,-023.865,-007.471,+1.050,-1.504,+1.930,-03.9550,+01.1200,-08.5580,+00.001180,-00.277381,+00.017807
+024.792,-024.186,-007.528,+1.060,-1.475,+1.968,-03.7790,+01.4430,-08.4740,-00.001790,-00.307533,+00.115318
+024.989,-024.587,-007.600,+1.059,-1.470,+1.947,-03.9180,+01.4890,-08.4410,+00.021705,-00.404206,+00.102840
+025.188,-025.133,-007.650,+1.078,-1.485,+1.931,-04.0100,+01.4210,-08.4610,+00.038865,-00.549310,+00.095093
+025.477,-025.839,-007.698,+1.078,-1.515,+1.942,-04.1290,+01.1280,-08.4800,+00.086736,-00.697729,+00.200908
+026.006,-026.726,-007.792,+1.092,-1.500,+1.888,-03.8920,+01.4150,-08.5950,+00.149217,-00.910054,+00.363792
+026.743,-027.926,-008.000,+1.111,-1.505,+1.895,-04.1050,+01.1270,-08.4780,+00.076203,-01.253434,+00.472140
+027.823,-029.494,-008.530,+1.125,-1.515,+1.885,-04.2200,+01.0320,-08.5740,-00.071384,-01.617982,+00.738480
+029.528,-031.500,-009.727,+1.143,-1.531,+1.820,-03.8900,+01.1880,-08.5650,-00.460672,-02.122508,+01.170084
+032.031,-033.886,-012.111,+1.148,-1.611,+1.740,-05.6700,+00.4980,-08.6850,-01.272781,-02.552048,+01.543115
+035.518,-036.461,-016.437,+1.143,-1.671,+1.664,-05.8140,-01.1800,-10.0580,-02.467441,-02.942241,+02.020045
+040.000,-039.068,-022.898,+1.124,-1.766,+1.441,-05.4490,-01.4420,-12.2160,-03.772572,-03.324022,+02.144740
+045.184,-041.906,-031.811,+1.114,-1.872,+1.165,-07.4540,+00.1800,-09.4890,-05.511508,-03.999866,+01.800303
+050.610,-044.500,-044.015,+1.118,-1.948,+0.878,-07.5120,+00.4540,-12.6690,-08.760919,-03.666151,+01.102759
+055.929,-046.854,-060.089,+1.108,-1.921,+0.313,-08.1630,+05.7080,-09.7460,-11.189460,-03.841087,-00.061383
+062.306,-050.079,-078.195,+1.122,-1.720,-0.280,-10.8390,+07.0510,-07.4570,-11.712200,-04.618813,-01.972655
+066.815,-052.706,-091.959,+1.159,-1.503,-0.595,-20.5710,+14.3830,-39.8640,-05.680290,-00.107245,-01.677184
+062.180,-054.361,-091.427,+1.276,-1.325,-0.662,-06.6690,+07.9060,-23.6150,-01.310322,+03.699256,-01.292027
+052.868,-056.125,-083.695,+1.491,-1.227,-0.528,-04.1370,-03.4030,-09.4930,+00.304366,+04.792917,-02.136869
+041.742,-058.273,-074.445,+1.673,-1.144,-0.380,-04.1790,-06.6240,-04.5640,-00.396463,+04.791216,-03.225008
+028.633,-060.317,-063.714,+1.902,-0.956,-0.273,-05.7010,-00.9680,-07.8720,-00.330009,+04.885868,-03.942802
+013.860,-060.854,-050.381,+2.126,-0.808,-0.069,-05.0810,+04.3170,-09.3230,+00.820528,+05.156408,-03.629573
+000.634,-058.974,-037.368,+2.313,-0.710,+0.183,-03.5610,+04.7200,-06.5650,+01.533920,+05.136673,-02.636435
-008.521,-055.454,-028.114,+2.473,-0.580,+0.466,-02.7780,+03.2650,-04.7290,+01.156468,+04.763146,-01.614056
-014.264,-051.357,-022.653,+2.571,-0.540,+0.801,-03.5260,+02.4090,-05.5400,+00.494901,+04.374219,-00.950566
-018.027,-047.086,-019.337,+2.609,-0.539,+1.139,-04.3400,+02.9710,-07.6840,+00.437371,+04.169116,-00.530837
-020.714,-042.776,-016.839,+2.530,-0.501,+1.488,-05.8560,+01.9190,-09.6950,+00.512727,+04.069017,-00.371825
-023.004,-038.341,-015.045,+2.306,-0.443,+1.766,-07.8140,+01.1530,-12.0840,+00.071995,+04.224122,-00.433385
-025.198,-033.521,-013.818,+2.167,-0.416,+1.917,-09.2210,+03.0400,-13.3840,-00.043357,+04.590673,-00.442461
-027.103,-028.398,-012.825,+1.985,-0.384,+2.039,-09.4450,+02.8070,-12.0420,-00.008805,+04.687280,-00.293348
-028.642,-023.212,-012.488,+1.808,-0.382,+2.145,-10.5450,+01.5930,-12.9200,-00.462423,+04.701488,-00.138058
-029.998,-017.971,-012.622,+1.705,-0.370,+2.254,-11.2810,+02.0580,-12.3830,-00.512978,+04.670280,-00.057581
-031.160,-012.949,-012.759,+1.584,-0.378,+2.358,-12.3230,+02.6170,-10.9650,-00.299634,+04.352171,+00.056182
-032.066,-008.318,-012.658,+1.430,-0.366,+2.460,-13.2790,+03.2600,-10.2470,+00.092726,+03.977700,+00.163165
-032.846,-004.016,-012.194,+1.309,-0.380,+2.579,-14.0190,+03.0540,-08.9450,+00.400165,+03.718866,+00.110691
-033.760,+000.009,-011.952,+1.155,-0.348,+2.654,-14.8370,+00.6730,-04.7130,-00.074010,+03.513040,-00.181750
-034.987,+003.416,-012.673,+1.015,-0.381,+2.707,-15.3690,+01.2580,+00.5420,-00.837901,+02.822465,-00.511988
-036.080,+005.760,-013.710,+0.918,-0.380,+2.741,-15.9490,+03.9320,+02.0780,-00.696964,+01.824179,-00.359105
-036.428,+007.059,-014.050,+0.862,-0.394,+2.728,-15.7330,+04.4170,+02.6070,+00.011799,+00.793375,+00.229138
-035.836,+007.376,-013.405,+0.838,-0.384,+2.738,-14.3240,+03.1370,+01.4100,+00.785103,-00.224803,+00.719505
-035.213,+005.878,-011.668,+0.871,-0.344,+2.761,-06.2710,-04.2490,+04.7850,+02.126523,-02.467722,-00.248217
-035.661,+002.986,-008.992,+0.969,-0.211,+2.710,+20.5530,-00.6150,-19.2970,+01.867451,-02.667012,-01.004709
-036.881,-000.967,-008.442,+1.114,-0.143,+2.672,-06.2240,-00.1740,+00.0510,+00.380102,-03.917652,-01.422572
-036.647,-005.824,-008.439,+1.249,-0.135,+2.618,-10.0030,-01.2000,-18.7500,-00.271650,-03.919403,+00.010592
-036.008,-009.873,-009.363,+1.384,-0.142,+2.516,-04.5900,+00.7860,-10.4520,-01.201959,-03.627460,+00.067278
-035.037,-013.912,-011.305,+1.529,-0.223,+2.419,-10.4790,+06.1460,-20.3030,-01.212059,-03.537381,+00.168919
-034.342,-016.648,-011.614,+1.603,-0.229,+2.352,-04.9020,+01.7680,-12.9280,+00.676403,-01.816803,+00.075058
-034.089,-017.826,-010.923,+1.650,-0.175,+2.321,-04.4060,+00.6410,-10.1290,+00.504245,-00.736954,-00.010008
-033.968,-018.322,-010.539,+1.664,-0.166,+2.262,-04.2000,+01.5210,-09.7390,+00.285035,-00.265919,-00.005805
-034.033,-018.503,-010.376,+1.654,-0.200,+2.305,-02.8970,+01.8410,-08.6860,+00.113573,-00.118788,-00.124645
-034.227,-018.598,-010.217,+1.668,-0.171,+2.284,-03.3370,+01.0600,-09.0120,+00.058933,+00.011393,-00.179250
-034.426,-018.620,-010.094,+1.668,-0.181,+2.284,-03.4700,+01.7320,-08.7530,+00.050341,-00.000841,-00.150757
-034.573,-018.650,-009.990,+1.664,-0.185,+2.327,-03.3690,+01.7300,-08.7840,+00.055082,-00.018217,-00.107782
-034.628,-018.712,-009.933,+1.668,-0.161,+2.284,-03.2290,+01.5040,-08.7840,+00.010707,-00.059455,-00.020122
-034.613,-018.798,-009.962,+1.673,-0.181,+2.295,-03.2530,+01.7310,-08.7750,-00.033147,-00.081667,-00.001104
-034.619,-018.905,-010.011,+1.668,-0.160,+2.322,-03.1120,+01.6960,-08.6160,-00.053844,-00.099836,-00.035974
-034.657,-019.025,-010.058,+1.687,-0.161,+2.285,-03.1480,+01.4970,-08.7570,-00.052606,-00.099965,-00.055627
-034.714,-019.159,-010.087,+1.682,-0.166,+2.279,-03.3030,+01.6850,-08.7320,-00.038529,-00.109946,-00.077903
-034.810,-019.293,-010.080,+1.692,-0.161,+2.296,-03.2530,+01.8540,-08.6750,-00.004487,-00.100360,-00.110775
-034.948,-019.426,-010.007,+1.687,-0.146,+2.295,-03.4460,+01.7210,-08.6680,+00.038544,-00.088973,-00.138392
-035.101,-019.547,-009.891,+1.678,-0.151,+2.295,-03.4770,+01.6780,-08.6770,+00.064557,-00.078679,-00.144884
-035.267,-019.660,-009.747,+1.696,-0.116,+2.285,-03.5110,+01.6850,-08.6510,+00.083810,-00.072701,-00.149127
-035.430,-019.768,-009.585,+1.696,-0.131,+2.269,-03.4190,+01.7280,-08.6800,+00.107122,-00.068727,-00.150891
-035.629,-019.885,-009.364,+1.701,-0.126,+2.263,-03.4540,+01.6300,-08.6620,+00.148804,-00.082859,-00.197434
-035.902,-020.014,-008.996,+1.706,-0.111,+2.285,-03.4640,+01.7360,-08.7290,+00.293680,-00.075273,-00.272631
-036.280,-020.151,-008.499,+1.715,-0.077,+2.264,-03.5790,+01.5770,-08.5690,+00.310813,-00.077217,-00.346674
-036.700,-020.335,-008.061,+1.711,-0.057,+2.269,-03.4590,+01.3590,-08.6280,+00.223103,-00.132345,-00.366629
-037.108,-020.611,-007.593,+1.725,-0.012,+2.269,-03.3680,+01.5870,-08.7050,+00.348149,-00.240833,-00.365289
-037.493,-021.020,-007.017,+1.729,-0.022,+2.242,-03.5490,+01.2210,-08.6070,+00.397322,-00.362145,-00.351923
-037.869,-021.586,-006.420,+1.748,+0.003,+2.254,-03.4680,+01.2150,-08.7090,+00.407100,-00.517951,-00.362971
-038.198,-022.342,-005.784,+1.767,+0.007,+2.249,-03.8360,+00.9990,-08.6840,+00.468953,-00.687690,-00.306891
-038.407,-023.325,-005.122,+1.795,+0.077,+2.201,-03.5940,+00.8000,-08.6890,+00.544635,-00.944731,-00.193286
-038.350,-024.574,-004.482,+1.823,+0.061,+2.159,-04.2370,+00.8480,-08.6410,+00.598426,-01.188285,+00.046757
-038.027,-026.124,-003.889,+1.851,+0.066,+2.149,-04.3160,+00.6410,-08.5890,+00.634690,-01.474200,+00.214631
-037.420,-028.078,-003.435,+1.916,+0.100,+2.059,-04.9540,+00.9220,-08.4870,+00.618326,-01.934209,+00.480179
-036.465,-030.792,-003.157,+1.972,+0.074,+1.953,-03.9210,+00.9950,-08.4060,+00.693368,-02.711225,+00.609754
-035.350,-034.481,-003.024,+2.028,+0.088,+1.885,-04.3930,+01.1840,-08.7290,+00.596000,-03.608392,+00.776686
-033.606,-039.467,-003.638,+2.139,+0.061,+1.706,-03.3460,+00.2790,-11.5860,+00.383770,-04.836667,+00.931410
-032.091,-045.840,-004.085,+2.246,+0.024,+1.439,-04.4790,-00.2470,-12.0570,+00.503183,-06.095394,+00.385939
-031.127,-053.554,-004.995,+2.311,+0.017,+1.209,-10.2240,+00.5870,-10.3200,-00.669497,-07.122644,-00.041701
-029.485,-062.616,-008.197,+2.367,+0.029,+0.831,-09.8700,+01.7590,-12.5970,-02.387326,-08.309478,-00.248338
-026.406,-072.743,-013.779,+2.343,+0.067,+0.379,-09.8980,+01.8170,-17.4410,-02.800168,-08.909225,-01.034819
-019.684,-082.498,-023.653,+2.277,+0.146,+0.099,-09.8390,+02.9170,-15.6500,-02.661447,-07.915341,-01.708179
+017.334,-088.495,-062.672,+2.165,+0.260,-0.200,-13.7650,+03.3900,-29.6870,-00.838010,-03.538870,-01.587686
-006.853,-088.297,-038.610,+2.151,+0.285,-0.184,-02.3890,+06.0360,-27.1000,-00.065157,+02.090267,-00.025583
-031.545,-085.152,-012.883,+2.161,+0.251,-0.091,+01.5500,+01.2060,-09.4390,+01.283750,+03.094707,+00.048992
-037.089,-081.613,-005.939,+2.207,+0.251,-0.003,+00.9260,-01.2670,-05.5760,+01.143057,+03.141734,-00.098155
-039.770,-077.788,-002.256,+2.250,+0.241,+0.124,-00.9220,-00.4710,-08.9480,+00.806820,+03.564087,-00.224391
-041.077,-073.028,-000.121,+2.296,+0.241,+0.284,-03.6420,+01.8550,-11.9000,+00.763794,+04.570388,-00.135592
-040.820,-067.100,+000.604,+2.339,+0.247,+0.486,-05.2980,+01.8330,-09.3700,+00.877667,+05.453366,+00.164199
-039.795,-060.659,+000.624,+2.372,+0.233,+0.754,-05.9120,+01.8770,-07.2320,+00.771677,+05.662990,+00.427063
-038.611,-054.196,+000.392,+2.363,+0.219,+0.982,-07.5270,+00.8040,-07.7580,+00.590730,+05.630186,+00.499753
-037.763,-047.724,+000.302,+2.284,+0.241,+1.255,-08.7840,+01.8010,-09.3560,+00.434165,+05.667856,+00.396682
-036.956,-041.173,+000.172,+2.121,+0.164,+1.493,-09.2710,+03.8090,-09.6970,+00.348592,+05.733443,+00.575256
-035.909,-034.836,-000.405,+1.981,+0.092,+1.677,-09.1170,+01.8660,-06.5110,-00.190051,+05.306458,+00.780110
-034.973,-029.427,-001.494,+1.859,+0.049,+1.797,-10.4740,+01.7850,-09.7780,-00.612764,+04.390643,+00.719803
-034.412,-024.414,-002.671,+1.757,+0.041,+1.966,-12.5280,+02.2100,-15.8390,-00.860119,+04.458816,+00.551719
-034.111,-019.173,-003.868,+1.631,+0.023,+2.145,-13.4590,+02.0110,-14.7210,-01.020006,+04.577615,+00.479666
-033.951,-013.905,-005.077,+1.473,-0.029,+2.258,-15.9280,+02.4250,-15.1780,-00.966171,+04.589419,+00.507409
-033.901,-008.466,-006.009,+1.323,-0.082,+2.393,-18.2860,+01.9870,-13.5900,-00.687639,+04.804344,+00.496186
-033.955,-003.162,-006.694,+1.174,-0.120,+2.495,-18.0750,-00.7110,-05.7740,-00.603630,+04.358240,+00.408179
-034.370,+001.197,-007.392,+1.020,-0.123,+2.548,-19.8720,-00.6710,-01.5650,-00.586502,+03.495369,-00.101629
-035.230,+004.488,-008.105,+0.908,-0.147,+2.609,-20.8290,-00.4770,+03.8700,-00.634171,+02.566712,-00.462430
-036.032,+006.310,-009.027,+0.857,-0.181,+2.656,-20.6920,+01.3640,+07.8300,-00.697700,+01.096535,-00.368836
-036.056,+006.491,-009.295,+0.838,-0.195,+2.649,-19.6120,+03.2950,+05.3480,+00.140107,-00.363487,+00.269769
-035.191,+005.284,-008.424,+0.890,-0.191,+2.646,-15.1490,+01.6390,+02.9290,+00.954153,-01.650904,+00.585282
-034.482,+002.844,-006.693,+0.969,-0.107,+2.633,+16.6540,+00.2710,-22.0280,+00.982934,-02.044564,+00.078690
-034.910,-000.999,-007.373,+1.104,-0.129,+2.552,-00.8000,-00.4400,-02.8620,-00.795049,-03.915166,-01.065206
-034.366,-005.623,-008.214,+1.281,-0.171,+2.479,-13.6640,-10.6020,-12.1660,-00.811323,-03.945867,+00.003120
-033.955,-009.649,-009.821,+1.398,-0.197,+2.403,-05.0300,+01.5470,-14.5980,-01.809582,-03.344872,-00.163085
-033.283,-013.140,-011.932,+1.519,-0.254,+2.278,-08.1510,+05.7470,-15.8360,-01.453642,-02.835916,+00.059471
-032.608,-015.703,-012.509,+1.594,-0.265,+2.195,-07.1320,+07.8940,-13.6660,+00.413841,-02.009017,+00.153479
-032.079,-017.157,-011.906,+1.636,-0.260,+2.207,-04.8480,+00.1170,-12.3170,+00.657454,-01.004836,+00.112284
-031.794,-017.888,-011.456,+1.650,-0.226,+2.153,-03.7600,+02.4190,-09.7360,+00.377001,-00.538562,+00.101685
-031.690,-018.317,-011.263,+1.682,-0.241,+2.128,-02.4600,+01.9850,-08.6480,+00.132323,-00.343222,-00.040306
-031.700,-018.683,-011.240,+1.682,-0.246,+2.144,-03.5130,+01.3940,-08.7750,-00.035678,-00.278722,-00.062936
-031.715,-018.932,-011.366,+1.691,-0.226,+2.117,-03.4670,+02.0440,-08.8430,-00.121987,-00.180127,-00.055311
-031.722,-019.082,-011.521,+1.687,-0.256,+2.144,-03.6260,+01.5700,-08.9500,-00.164312,-00.101289,-00.016264
-031.667,-019.199,-011.785,+1.682,-0.221,+2.144,-03.1830,+02.2500,-08.6550,-00.213599,-00.119069,+00.036373
-031.606,-019.330,-012.011,+1.705,-0.237,+2.096,-03.1380,+02.2340,-08.5900,-00.154323,-00.131080,+00.012511
-031.575,-019.480,-012.186,+1.701,-0.256,+2.107,-03.4030,+02.0710,-08.6640,-00.140673,-00.133624,-00.004840
-031.534,-019.619,-012.357,+1.719,-0.247,+2.108,-03.4460,+02.1260,-08.6720,-00.126602,-00.126417,+00.013721
-031.495,-019.758,-012.468,+1.719,-0.252,+2.086,-03.4250,+02.1220,-08.6050,-00.050017,-00.119825,-00.006549
-031.500,-019.876,-012.503,+1.719,-0.261,+2.119,-03.5160,+02.0190,-08.5810,-00.020693,-00.084166,-00.038943
-031.564,-019.957,-012.450,+1.705,-0.261,+2.096,-03.3760,+02.0790,-08.6050,+00.065291,-00.045475,-00.084447
-031.700,-020.026,-012.254,+1.729,-0.252,+2.097,-03.3590,+02.0940,-08.5520,+00.162946,-00.029131,-00.149814
-031.941,-020.115,-011.907,+1.719,-0.242,+2.097,-03.5640,+02.0550,-08.4680,+00.261548,-00.036797,-00.233967
-032.237,-020.206,-011.506,+1.733,-0.237,+2.130,-03.5870,+01.8860,-08.6140,+00.255239,-00.024707,-00.262035
-032.554,-020.283,-011.099,+1.729,-0.197,+2.086,-03.5780,+01.7130,-08.6330,+00.276601,-00.011453,-00.271473
-032.943,-020.331,-010.517,+1.738,-0.167,+2.092,-03.5570,+01.5950,-08.7140,+00.472184,+00.049656,-00.367051
-033.568,-020.321,-009.580,+1.734,-0.142,+2.135,-03.5220,+02.5200,-08.3950,+00.683264,+00.087058,-00.596395
-034.287,-020.446,-008.782,+1.743,-0.107,+2.108,-03.5000,+01.7340,-08.5570,+00.396732,-00.041715,-00.590154
-034.944,-020.670,-008.170,+1.757,-0.098,+2.103,-03.6070,+00.8470,-08.6890,+00.308569,-00.148696,-00.503675
-035.356,-020.976,-007.666,+1.752,-0.093,+2.130,-03.3150,+01.0760,-08.6470,+00.317701,-00.262551,-00.296580
-035.546,-021.428,-007.166,+1.771,-0.058,+2.098,-03.4080,+01.3260,-08.6970,+00.407700,-00.432263,-00.171259
-035.695,-022.082,-006.601,+1.776,-0.018,+2.081,-03.5050,+01.3100,-08.7980,+00.476649,-00.642681,-00.189415
-035.750,-023.029,-006.022,+1.804,-0.024,+2.077,-03.6510,+01.1530,-08.6030,+00.501133,-00.920646,-00.099644
-035.659,-024.335,-005.420,+1.836,+0.055,+2.018,-03.9560,+00.9300,-08.5590,+00.578960,-01.295433,+00.007877
-035.377,-026.099,-004.865,+1.874,+0.025,+1.971,-03.7250,+00.8030,-08.7430,+00.595357,-01.728261,+00.160467
-034.649,-028.512,-004.534,+1.916,+0.009,+1.941,-03.9780,+01.0270,-08.7840,+00.597294,-02.432224,+00.502930
-033.559,-031.903,-004.329,+1.995,+0.023,+1.787,-03.7470,+01.3140,-08.6090,+00.685695,-03.387676,+00.683864
-031.623,-036.617,-004.788,+2.092,-0.039,+1.639,-03.5610,+00.4200,-09.1020,+00.484538,-04.746820,+01.370356
-029.251,-042.743,-005.972,+2.157,-0.040,+1.452,-05.3770,+00.5420,-10.0660,+00.076625,-05.950486,+00.887033
-026.980,-050.251,-008.256,+2.255,-0.087,+1.153,-08.0910,-00.3430,-11.3200,-01.080451,-07.078979,+00.302621
-023.850,-059.036,-013.175,+2.315,-0.115,+0.797,-10.6620,-02.3480,-12.9610,-02.551536,-08.350083,-00.007209
-017.595,-068.955,-022.428,+2.329,-0.106,+0.489,-12.1340,+05.2340,-12.8240,-02.912341,-09.253941,-00.597472
-002.527,-078.561,-040.519,+2.258,-0.013,+0.013,-09.6580,+02.7960,-13.4320,-02.995661,-08.763511,-01.467952
+045.550,-084.084,-090.877,+2.156,+0.101,-0.291,-06.8330,+04.4000,-21.6370,-01.937297,-06.125955,-01.379153
+076.158,-084.269,-121.940,+2.123,+0.116,-0.364,-06.7190,+04.7420,-41.9430,-00.090543,-00.129014,-00.287568
+045.375,-085.052,-091.018,+2.174,+0.146,-0.199,-01.0430,+04.2150,-18.1740,+00.671073,+03.568578,+00.231028
+003.762,-083.183,-048.323,+2.198,+0.122,+0.036,+00.5710,+01.0330,-06.3650,+01.437553,+04.034129,+00.109843
-015.715,-079.527,-027.148,+2.161,+0.113,+0.268,-00.4280,-00.0170,-04.4470,+01.734503,+03.997832,-00.181762
-025.082,-075.168,-016.161,+2.068,+0.205,+0.421,-03.8180,+01.1910,-09.9650,+01.490406,+04.456430,-00.281298
-030.318,-069.355,-009.595,+1.956,+0.281,+0.562,-07.0120,+02.0100,-09.9810,+01.361665,+05.692801,-00.211175
-033.053,-062.682,-005.545,+1.929,+0.411,+0.657,-06.2190,+02.6410,-05.4150,+01.307687,+05.877362,-00.189629
-034.279,-056.188,-003.208,+1.906,+0.561,+0.807,-07.2890,+02.9960,-05.6530,+00.986028,+05.596152,-00.053160
-034.686,-049.893,-002.100,+1.859,+0.647,+0.967,-08.4360,+04.3550,-07.7250,+00.531813,+05.462228,+00.104528
-034.473,-043.694,-001.653,+1.916,+0.682,+1.116,-08.5490,+05.9320,-08.6970,+00.550055,+05.359277,+00.448516
-033.745,-037.630,-001.767,+1.953,+0.579,+1.547,-09.5470,+03.9750,-09.5310,+00.084506,+05.240747,+00.722916
-032.972,-031.742,-002.572,+1.734,+0.355,+2.006,-10.1480,+03.2890,-10.1400,-00.513597,+05.008831,+00.727819
-032.397,-026.183,-003.467,+1.422,+0.155,+2.211,-10.7190,+02.8200,-12.1070,-00.521534,+04.725650,+00.655047
-032.129,-020.757,-004.354,+1.062,-0.006,+2.169,-12.3720,+01.2810,-14.3850,-00.815435,+04.750802,+00.461582
-032.189,-015.185,-005.460,+0.894,-0.134,+2.038,-13.3420,+01.1800,-14.4280,-01.027028,+04.884533,+00.309843
-032.466,-009.612,-006.478,+0.861,-0.194,+1.999,-14.4690,+02.1980,-13.1110,-00.850602,+04.810246,+00.276199
-032.664,-004.346,-007.258,+0.894,-0.219,+2.039,-14.9100,+03.5920,-09.4590,-00.632378,+04.400380,+00.488778
-032.500,+000.328,-007.831,+0.870,-0.233,+2.108,-16.3430,+01.5220,-05.7200,-00.472268,+03.782674,+00.727632
-032.490,+004.162,-008.519,+0.824,-0.282,+2.253,-18.1210,-02.6060,-00.4460,-00.745134,+02.975326,+00.259832
-033.087,+006.675,-009.754,+0.791,-0.301,+2.279,-19.4690,-02.0750,+03.4240,-01.119843,+01.781178,-00.377127
-033.745,+007.644,-010.850,+0.782,-0.316,+2.306,-19.5770,+02.2090,+04.8610,-00.626925,+00.412866,-00.326423
-033.746,+007.097,-010.862,+0.805,-0.376,+2.345,-17.9970,+04.7850,+08.7010,+00.396757,-01.275627,-00.250382
-033.418,+003.823,-008.633,+0.945,-0.268,+2.302,-04.6000,-00.9920,-08.3600,+02.351046,-02.757547,-00.086189
-032.940,-000.009,-008.014,+1.090,-0.260,+2.238,+04.9540,-03.8510,-19.5890,-00.129047,-03.452901,-00.717305
-032.663,-004.557,-008.025,+1.216,-0.246,+2.172,-13.6380,-07.8360,-04.4710,-00.027084,-04.242826,+00.192996
-032.122,-008.482,-008.724,+1.355,-0.253,+2.059,-07.1570,-04.4770,-18.6100,-00.609565,-03.020766,-00.344882
-031.883,-011.888,-009.745,+1.463,-0.280,+1.934,-05.4080,+08.9470,-11.9950,-00.799297,-02.913373,-00.043559
-031.251,-014.938,-010.072,+1.523,-0.285,+1.888,-07.4040,+02.5000,-16.5770,+00.285013,-02.610536,-00.083039
-031.148,-017.079,-009.512,+1.579,-0.252,+1.819,-04.7750,+01.0070,-10.2660,+00.726813,-01.449473,-00.248023
-031.283,-018.109,-008.843,+1.616,-0.247,+1.794,-04.9510,+01.3840,-10.3810,+00.447308,-00.578595,-00.296534
-031.528,-018.438,-008.620,+1.621,-0.212,+1.810,-03.5840,+01.4820,-09.2110,+00.098876,-00.143951,-00.205769
-031.809,-018.561,-008.467,+1.626,-0.202,+1.783,-03.0070,+00.9800,-08.8760,+00.032777,-00.045438,-00.262543
-032.089,-018.652,-008.330,+1.635,-0.237,+1.789,-03.5450,+00.9330,-08.8250,+00.059124,-00.053048,-00.206807
-032.222,-018.749,-008.244,+1.644,-0.232,+1.806,-03.3520,+01.3340,-08.8420,+00.010497,-00.076125,-00.075082
-032.255,-018.880,-008.258,+1.635,-0.213,+1.767,-03.0720,+01.5090,-08.7180,-00.020362,-00.139316,-00.030694
-032.248,-019.085,-008.307,+1.635,-0.223,+1.756,-03.4700,+01.5210,-08.8100,-00.059369,-00.185928,-00.015013
-032.235,-019.292,-008.415,+1.649,-0.203,+1.768,-03.4240,+01.5750,-08.8110,-00.108094,-00.181950,-00.014123
-032.236,-019.490,-008.546,+1.654,-0.213,+1.768,-03.4870,+01.5830,-08.7560,-00.116870,-00.166735,-00.035356
-032.259,-019.668,-008.677,+1.658,-0.218,+1.746,-03.3670,+01.3400,-08.6550,-00.126185,-00.143942,-00.042970
-032.272,-019.833,-008.827,+1.649,-0.228,+1.768,-03.4030,+01.3500,-08.7330,-00.136678,-00.138722,-00.024589
-032.274,-019.996,-008.965,+1.672,-0.233,+1.747,-03.5530,+01.6500,-08.7310,-00.107834,-00.138647,-00.029564
-032.302,-020.143,-009.052,+1.654,-0.208,+1.741,-03.5710,+01.6030,-08.7060,-00.072424,-00.112567,-00.051554
-032.358,-020.270,-009.100,+1.668,-0.213,+1.736,-03.4770,+01.6140,-08.6540,-00.046710,-00.095654,-00.074308
-032.459,-020.394,-009.088,+1.682,-0.228,+1.731,-03.5250,+01.5060,-08.6970,-00.002722,-00.093356,-00.115074
-032.579,-020.510,-009.016,+1.677,-0.218,+1.715,-03.5520,+01.4740,-08.6170,+00.040756,-00.079412,-00.105538
-032.693,-020.619,-008.909,+1.682,-0.213,+1.737,-03.4790,+01.6260,-08.5800,+00.068780,-00.080332,-00.112281
-032.824,-020.762,-008.768,+1.696,-0.193,+1.721,-03.5000,+01.5700,-08.6820,+00.087847,-00.124757,-00.133081
-032.962,-020.961,-008.621,+1.691,-0.169,+1.710,-03.4580,+01.4240,-08.7180,+00.081130,-00.176343,-00.131863
-033.065,-021.213,-008.461,+1.700,-0.184,+1.710,-03.3310,+01.6300,-08.6150,+00.129919,-00.243160,-00.111247
-033.109,-021.635,-008.215,+1.714,-0.169,+1.689,-03.4700,+01.2930,-08.6660,+00.243799,-00.417365,-00.078037
-033.110,-022.207,-007.774,+1.714,-0.169,+1.683,-03.5200,+01.4880,-08.6330,+00.473678,-00.556966,-00.085499
-033.131,-023.068,-007.099,+1.733,-0.169,+1.663,-03.9330,+01.2370,-08.5350,+00.621276,-00.849248,-00.118529
-033.051,-024.238,-006.425,+1.756,-0.120,+1.636,-03.6050,+01.1290,-08.6700,+00.615956,-01.129910,-00.014465
-032.763,-025.725,-005.858,+1.775,-0.150,+1.594,-03.6690,+01.0110,-08.6110,+00.604106,-01.421454,+00.151599
-032.186,-027.558,-005.456,+1.803,-0.150,+1.573,-05.3490,+00.9520,-08.5150,+00.526726,-01.815291,+00.431019
-031.032,-029.961,-005.358,+1.840,-0.146,+1.461,-02.5420,+01.1760,-08.9200,+00.636136,-02.404969,+00.779636
-029.365,-033.216,-005.508,+1.877,-0.192,+1.392,-04.1370,+01.3240,-08.3200,+00.602280,-03.336023,+01.098816
-026.767,-037.813,-006.785,+1.924,-0.198,+1.269,-03.6020,+01.4900,-09.6590,+00.009832,-04.679400,+01.485143
-023.836,-043.737,-009.141,+1.975,-0.264,+1.060,-05.1180,+00.2950,-11.2830,-00.570064,-05.831151,+00.899650
-021.112,-050.890,-012.420,+2.021,-0.271,+0.802,-07.4500,-00.0680,-12.5940,-01.434353,-06.731056,+00.207156
-017.124,-059.087,-018.280,+2.049,-0.317,+0.592,-10.7690,+00.4990,-14.0050,-02.614292,-07.824747,-00.135222
-009.694,-068.539,-028.525,+2.020,-0.269,+0.216,-11.5310,+05.9520,-15.2270,-02.878810,-08.880363,-00.879748
+007.088,-077.457,-048.232,+1.969,-0.180,-0.162,-09.7510,+03.2220,-13.3960,-03.181290,-08.510740,-01.690849
+050.116,-082.393,-093.659,+1.903,-0.076,-0.366,-05.4270,+04.4520,-21.0300,-02.223406,-06.198695,-01.654102
+078.834,-082.890,-122.621,+1.875,-0.007,-0.509,-07.5610,+03.6490,-41.5290,-00.020752,-00.691660,-01.021157
+059.755,-084.758,-103.151,+1.997,-0.023,-0.401,-02.7180,+04.1980,-22.6970,+00.846489,+03.511622,-00.599008
+007.230,-084.132,-049.488,+2.127,-0.018,-0.227,-00.4900,+01.9690,-07.7040,+01.382929,+04.458670,-00.516941
-018.588,-080.285,-022.127,+2.268,+0.002,-0.004,-00.3130,+00.8010,-04.2110,+01.521376,+04.385182,-00.587809
-028.211,-075.658,-011.061,+2.385,-0.013,+0.246,-02.7250,+01.7540,-08.7600,+01.316934,+04.462977,-00.460671
-032.040,-069.805,-006.103,+2.422,-0.007,+0.535,-06.6860,+03.3940,-12.4970,+01.099352,+05.704533,-00.063122
-033.245,-062.754,-003.703,+2.409,+0.009,+0.871,-06.8080,+02.8350,-06.7720,+01.096104,+06.273951,+00.196871
-033.297,-055.862,-002.340,+2.302,-0.023,+1.225,-06.2880,+02.5210,-04.1080,+01.168194,+05.765545,+00.324460
-033.084,-049.630,-001.339,+2.209,-0.021,+1.416,-07.8850,+01.4920,-06.9970,+00.858592,+05.310250,+00.240325
-032.901,-043.527,-000.842,+2.088,-0.024,+1.612,-09.2900,+03.2860,-11.1900,+00.393723,+05.393990,+00.208845
-032.544,-037.134,-000.780,+1.971,-0.042,+1.786,-09.5900,+04.4540,-10.7110,+00.143325,+05.636152,+00.405708
-031.852,-030.854,-001.314,+1.883,-0.075,+1.989,-09.4410,+04.0150,-07.7930,-00.305392,+05.259944,+00.712693
-030.961,-025.427,-002.307,+1.780,-0.108,+2.131,-10.3450,+02.4890,-10.5420,-00.610329,+04.430089,+00.837545
-030.358,-020.290,-003.577,+1.650,-0.170,+2.327,-13.5300,+01.1230,-16.3910,-01.064394,+04.602358,+00.645093
-030.094,-014.662,-005.003,+1.501,-0.223,+2.510,-14.9480,+01.8360,-14.9630,-01.138175,+04.980230,+00.575457
-029.979,-009.011,-006.001,+1.268,-0.235,+2.636,-17.6260,+02.2700,-12.4560,-00.648441,+04.821298,+00.571607
-029.898,-003.765,-006.439,+0.997,-0.241,+2.711,-18.5850,+02.1800,-06.7050,-00.251072,+04.316655,+00.565073
-029.696,+000.550,-006.590,+0.829,-0.259,+2.758,-19.2170,+02.2470,-01.4750,-00.065524,+03.321810,+00.616888
-029.531,+003.656,-006.830,+0.680,-0.223,+2.730,-22.8770,-02.5280,+01.0820,-00.364252,+02.342808,+00.286084
-029.898,+005.667,-007.482,+0.605,-0.263,+2.699,-23.7300,-02.3440,+05.9540,-00.545821,+01.359596,-00.296183
-030.338,+005.959,-007.760,+0.605,-0.262,+2.732,-22.0820,+00.8390,+08.3810,+00.069284,-00.378022,-00.299723
-030.413,+004.093,-007.149,+0.656,-0.248,+2.685,-14.9880,+00.2930,+09.7680,+01.016507,-02.625080,-00.403876
-030.177,+001.153,-006.367,+0.759,-0.195,+2.646,+22.6600,+02.8370,-22.5040,-00.505888,-02.819294,-00.001100
-030.411,-003.112,-007.920,+0.876,-0.241,+2.613,-05.4160,+04.4430,-02.3560,-01.249572,-04.150697,-00.215413
-029.047,-007.823,-010.271,+1.039,-0.298,+2.469,-12.9190,-09.7530,-17.9510,-01.983935,-03.991068,+00.367653
-028.778,-011.378,-012.202,+1.155,-0.364,+2.393,-06.9700,+04.0450,-14.5050,-01.519377,-02.755720,-00.641626
-028.282,-014.276,-013.176,+1.225,-0.400,+2.315,-07.9020,+10.0110,-15.0450,-00.002976,-02.357864,+00.079480
-027.814,-016.417,-012.658,+1.300,-0.326,+2.258,-06.0010,+01.2300,-13.9040,+00.748413,-01.498480,-00.117125
-027.604,-017.516,-011.900,+1.342,-0.352,+2.238,-04.8430,+00.8670,-10.9910,+00.586371,-00.652139,-00.030516
-027.521,-017.927,-011.496,+1.342,-0.342,+2.255,-04.0390,+02.1090,-09.5330,+00.271683,-00.240471,+00.012226
-027.472,-018.097,-011.313,+1.346,-0.327,+2.222,-02.7560,+01.6240,-08.8680,+00.133678,-00.141372,-00.009923
-027.504,-018.287,-011.206,+1.356,-0.312,+2.212,-02.9120,+01.6170,-08.6830,+00.037593,-00.174957,-00.079696
-027.554,-018.447,-011.228,+1.351,-0.317,+2.244,-03.3550,+01.5660,-08.9260,-00.084781,-00.097897,-00.051615
-027.584,-018.539,-011.418,+1.351,-0.307,+2.228,-03.3860,+02.0870,-08.7840,-00.215367,-00.071392,-00.029318
-027.566,-018.614,-011.729,+1.351,-0.322,+2.217,-03.0120,+01.5290,-08.6700,-00.289650,-00.060959,+00.025807
-027.513,-018.694,-012.033,+1.351,-0.312,+2.222,-03.2330,+02.2370,-08.5890,-00.219017,-00.080404,+00.023729
-027.481,-018.779,-012.244,+1.360,-0.332,+2.179,-03.1840,+02.3470,-08.6030,-00.141065,-00.076862,-00.002367
-027.495,-018.865,-012.328,+1.365,-0.312,+2.196,-03.2730,+02.1060,-08.6540,-00.034546,-00.062973,-00.044256
-027.587,-018.924,-012.222,+1.360,-0.347,+2.207,-03.1460,+02.0750,-08.5340,+00.130828,-00.021341,-00.112386
-027.780,-018.982,-011.921,+1.370,-0.312,+2.212,-03.1700,+01.8470,-08.6730,+00.242757,-00.009104,-00.206555
-028.098,-019.040,-011.480,+1.360,-0.302,+2.201,-03.2630,+01.9360,-08.6400,+00.318670,+00.008645,-00.299363
-028.493,-019.125,-011.001,+1.360,-0.307,+2.223,-03.5220,+01.7890,-08.5900,+00.290043,-00.022017,-00.341630
-028.875,-019.221,-010.558,+1.374,-0.277,+2.212,-03.4710,+01.6890,-08.7730,+00.273220,-00.017169,-00.313697
-029.206,-019.303,-010.155,+1.379,-0.238,+2.207,-03.4090,+01.7910,-08.6250,+00.228274,-00.030265,-00.260694
-029.489,-019.400,-009.817,+1.379,-0.233,+2.217,-03.1880,+01.7710,-08.6460,+00.216903,-00.061820,-00.241609
-029.753,-019.558,-009.474,+1.384,-0.218,+2.190,-03.2790,+01.8150,-08.6450,+00.231841,-00.123720,-00.237186
-030.007,-019.793,-009.147,+1.393,-0.198,+2.185,-03.4230,+01.5090,-08.6710,+00.189819,-00.195458,-00.234187
-030.225,-020.096,-008.868,+1.402,-0.208,+2.202,-03.4230,+01.5070,-08.6810,+00.181489,-00.255822,-00.205524
-030.374,-020.494,-008.573,+1.407,-0.193,+2.186,-03.3740,+01.4690,-08.6290,+00.226413,-00.373864,-00.144689
-030.422,-021.039,-008.257,+1.416,-0.184,+2.181,-03.4980,+01.4710,-08.6790,+00.292635,-00.520815,-00.093832
-030.397,-021.770,-007.875,+1.440,-0.164,+2.171,-03.5520,+01.2470,-08.6040,+00.369639,-00.689862,-00.034313
-030.179,-022.701,-007.463,+1.458,-0.149,+2.150,-03.4250,+01.3390,-08.7350,+00.469353,-00.931561,+00.125859
-029.719,-023.889,-007.107,+1.491,-0.165,+2.108,-03.8410,+01.1790,-08.6700,+00.460075,-01.167552,+00.295006
-029.022,-025.381,-006.889,+1.524,-0.160,+2.088,-03.6890,+01.0970,-08.6480,+00.445066,-01.476319,+00.448383
-027.934,-027.321,-006.860,+1.589,-0.166,+2.036,-04.1440,+01.4810,-08.6700,+00.469850,-02.001849,+00.765275
-026.412,-029.942,-006.933,+1.635,-0.182,+1.951,-03.4560,+01.6760,-08.5420,+00.591833,-02.680678,+00.911031
-024.404,-033.615,-007.484,+1.705,-0.203,+1.895,-05.0730,+01.3010,-08.5680,+00.179806,-03.857807,+01.254404
-021.595,-038.635,-009.156,+1.808,-0.195,+1.709,-05.6590,+00.3950,-10.2620,-00.158509,-05.052714,+01.177845
-019.125,-044.941,-011.456,+1.943,-0.267,+1.488,-05.9400,-00.1810,-11.7460,-00.909832,-06.128176,+00.271513
-016.558,-052.459,-015.375,+2.026,-0.298,+1.280,-09.9860,+00.6470,-07.2280,-02.183624,-07.209333,-00.238496
-012.146,-061.333,-022.281,+2.124,-0.311,+0.904,-10.1410,+02.0630,-11.6580,-03.337336,-08.499769,-00.820517
-003.118,-071.232,-034.313,+2.165,-0.224,+0.461,-10.6610,+02.4920,-17.4190,-03.208968,-08.865210,-01.520073
+019.086,-079.828,-059.711,+2.132,-0.166,+0.117,-11.4300,+04.7880,-14.8970,-03.272511,-08.120337,-02.223844
+061.692,-083.278,-104.913,+2.081,+0.022,-0.175,-12.5960,+04.7350,-30.5610,-01.537728,-03.829364,-02.133422
+061.387,-084.279,-104.970,+2.109,+0.022,-0.206,-04.3260,+07.3840,-29.3270,-00.102899,+01.964277,-00.538546
+024.386,-084.432,-067.211,+2.174,+0.027,-0.089,+00.4630,+03.2610,-10.9690,+01.156995,+03.354010,-00.306231
-004.223,-082.259,-037.122,+2.249,+0.022,+0.039,+01.0640,+01.0840,-05.1570,+01.467109,+03.357045,-00.298652
-017.752,-079.052,-022.082,+2.319,+0.002,+0.216,-00.8940,+01.1230,-08.4790,+01.465323,+03.456792,-00.294419
-025.271,-074.577,-013.287,+2.394,-0.003,+0.409,-04.6510,+01.8380,-14.0010,+01.149078,+04.745983,-00.182337
-029.387,-068.280,-008.315,+2.432,+0.003,+0.715,-05.9030,+00.9820,-08.8390,+00.811044,+05.963897,-00.071545
-031.426,-061.438,-005.762,+2.362,-0.014,+1.070,-05.7270,+02.2590,-05.4940,+00.559706,+05.938643,+00.030618
-032.202,-054.933,-004.387,+2.232,-0.051,+1.347,-06.7330,+01.8550,-06.2460,+00.625699,+05.543774,+00.210135
-032.423,-048.600,-003.732,+2.046,-0.034,+1.518,-08.6950,+01.5690,-09.7730,+00.251421,+05.572443,+00.293017
-032.432,-041.983,-003.584,+1.882,-0.046,+1.646,-09.4630,+02.1900,-10.6780,+00.084186,+05.871493,+00.406352
-032.339,-035.308,-003.698,+1.752,-0.060,+1.760,-09.5510,+00.7820,-07.3630,-00.128364,+05.666470,+00.436002
-032.395,-029.558,-004.274,+1.654,-0.033,+1.799,-10.1760,-01.1990,-07.5960,-00.770331,+04.586185,+00.178533
-032.885,-024.412,-005.337,+1.640,-0.038,+1.815,-14.1000,+01.4040,-16.5690,-01.248798,+04.648099,-00.054998
-033.348,-018.657,-006.514,+1.654,-0.048,+1.968,-16.5390,+05.1290,-17.2940,-01.021505,+05.250853,+00.364923
-033.209,-012.521,-007.251,+1.589,-0.135,+2.204,-18.3430,+04.6680,-12.2700,-00.398010,+05.228390,+00.956413
-032.715,-006.787,-007.510,+1.445,-0.177,+2.448,-20.8710,+03.4040,-07.3350,-00.047605,+04.681346,+01.079483
-032.147,-001.865,-007.507,+1.296,-0.195,+2.615,-21.3780,+03.3120,-01.1540,+00.053363,+03.834135,+01.047340
-031.351,+001.711,-007.590,+1.132,-0.183,+2.738,-21.0380,+00.5160,+04.4810,-00.210149,+02.444798,+01.129367
-030.538,+003.738,-008.027,+1.039,-0.271,+2.805,-24.8150,-02.9520,+04.9380,-00.464796,+01.239365,+00.754379
-030.232,+003.982,-008.020,+1.016,-0.281,+2.853,-24.6870,-01.0760,+15.6470,+00.381513,-00.913868,-00.187850
-030.491,+000.818,-006.490,+1.142,-0.217,+2.831,-03.4120,-04.2430,+02.3200,+01.763606,-03.022089,-00.525688
-030.253,-002.984,-005.825,+1.319,-0.185,+2.784,+06.0700,+00.6020,-21.7990,+00.144287,-03.417146,-00.530053
-030.366,-007.695,-005.714,+1.482,-0.176,+2.759,-12.4670,-06.7240,-07.7880,-00.242530,-04.307660,-00.100544
-030.248,-011.581,-005.894,+1.673,-0.169,+2.659,-09.1310,-02.0860,-17.6560,+00.108040,-02.833851,-00.442123
-029.980,-014.823,-006.154,+1.799,-0.180,+2.577,-04.5140,+07.7030,-11.1220,-00.166385,-02.873408,+00.280303
-029.698,-017.228,-006.403,+1.883,-0.191,+2.532,-12.7400,-02.0800,-10.0290,-00.183349,-01.176143,-00.153016
-029.585,-018.667,-006.572,+1.939,-0.167,+2.486,-04.9660,-01.1550,-09.0700,-00.313624,-00.762551,-00.035140
-029.628,-019.064,-007.014,+1.948,-0.177,+2.464,-04.7460,+01.9660,-09.6310,-00.266720,-00.130314,-00.081190
-029.791,-019.029,-007.026,+1.962,-0.192,+2.481,-03.6300,+00.8300,-09.0800,-00.006017,+00.098524,-00.135156
-030.016,-018.947,-006.912,+1.958,-0.202,+2.471,-03.1720,+01.5530,-08.7900,+00.068114,+00.082830,-00.210322
-030.333,-018.944,-006.644,+1.967,-0.182,+2.482,-03.4510,+01.5210,-08.7250,+00.217536,-00.008411,-00.273562
-030.581,-019.006,-006.280,+1.963,-0.158,+2.487,-03.4670,+00.8940,-08.8700,+00.225532,-00.032455,-00.166698
-030.708,-019.055,-006.072,+1.953,-0.128,+2.470,-03.3060,+00.7010,-08.7830,+00.092175,-00.031947,-00.071122
-030.713,-019.133,-006.069,+1.953,-0.168,+2.465,-03.1440,+00.6800,-08.7380,-00.048424,-00.081544,+00.018038
-030.672,-019.253,-006.196,+1.958,-0.182,+2.487,-03.1210,+01.1890,-08.7480,-00.114089,-00.125331,+00.012071
-030.696,-019.404,-006.281,+1.981,-0.108,+2.460,-03.3350,+01.3020,-08.8040,-00.053581,-00.121787,-00.063704
-030.800,-019.535,-006.264,+1.981,-0.153,+2.477,-03.5250,+01.2510,-09.0010,-00.006060,-00.093605,-00.109407
-030.935,-019.634,-006.201,+1.986,-0.153,+2.455,-03.4800,+01.0880,-08.8500,+00.029127,-00.060303,-00.120639
-031.077,-019.697,-006.109,+1.981,-0.138,+2.466,-03.2730,+01.0340,-08.7700,+00.041037,-00.041331,-00.122590
-031.240,-019.760,-005.982,+1.986,-0.123,+2.466,-03.3490,+01.1230,-08.7380,+00.088292,-00.049287,-00.156243
-031.447,-019.842,-005.788,+1.991,-0.143,+2.477,-03.3920,+01.0350,-08.7760,+00.110981,-00.052495,-00.181989
-031.678,-019.935,-005.587,+1.995,-0.093,+2.455,-03.3890,+01.0140,-08.7450,+00.102160,-00.066108,-00.212233
-031.942,-020.038,-005.391,+2.000,-0.118,+2.439,-03.3710,+00.8620,-08.6900,+00.083449,-00.071775,-00.224661
-032.215,-020.166,-005.212,+2.005,-0.108,+2.461,-03.2370,+00.9010,-08.7460,+00.067758,-00.106831,-00.242387
-032.504,-020.352,-005.050,+2.014,-0.084,+2.456,-03.4920,+00.7510,-08.6940,+00.045183,-00.157937,-00.251185
-032.795,-020.592,-004.921,+2.023,-0.079,+2.440,-03.5930,+00.9080,-08.6590,+00.012638,-00.204631,-00.253447
-033.057,-020.890,-004.856,+2.042,-0.044,+2.446,-03.5600,+00.7730,-08.7220,-00.041528,-00.261229,-00.214511
-033.246,-021.274,-004.824,+2.042,-0.049,+2.413,-03.5300,+00.9760,-08.7270,-00.025874,-00.352257,-00.162251
-033.394,-021.784,-004.736,+2.070,-0.064,+2.404,-03.4400,+00.9100,-08.7760,+00.073093,-00.496368,-00.161797
-033.476,-022.528,-004.527,+2.089,-0.045,+2.383,-03.7110,+01.0620,-08.6710,+00.208072,-00.734609,-00.074687
-033.404,-023.568,-004.231,+2.121,-0.006,+2.335,-03.6280,+00.8640,-08.6470,+00.332514,-01.020579,+00.032016
-033.186,-024.976,-003.837,+2.172,-0.031,+2.310,-03.6210,+00.7220,-08.7060,+00.461437,-01.380316,+00.118444
-032.806,-026.889,-003.439,+2.214,+0.003,+2.269,-03.6570,+00.9250,-08.6220,+00.525036,-01.888324,+00.250189
-032.212,-029.635,-003.081,+2.284,+0.002,+2.152,-04.9020,+01.1290,-08.4310,+00.531971,-02.803205,+00.392535
-031.296,-033.581,-002.780,+2.377,-0.015,+1.994,-02.5090,+00.7780,-08.7560,+00.809516,-03.867072,+00.566222
-030.283,-038.779,-002.484,+2.475,-0.021,+1.862,-05.2660,+00.3720,-11.4650,+00.636593,-05.017381,+00.498748
-029.186,-045.386,-002.385,+2.591,-0.009,+1.574,-04.7910,-00.0460,-11.1160,+00.693205,-06.256416,+00.229236
-029.009,-053.458,-002.422,+2.689,-0.022,+1.204,-10.5410,-01.0270,-11.9830,-00.677126,-07.540828,-00.398756
-029.201,-063.044,-004.384,+2.740,+0.001,+0.897,-10.9650,+01.0500,-15.2940,-02.608293,-08.608513,-00.682150
-030.095,-073.277,-006.868,+2.716,+0.094,+0.423,-09.9910,+03.3040,-14.2510,-03.222197,-08.850072,-01.536104
-037.076,-083.123,-003.632,+2.627,+0.212,+0.016,-10.3700,+02.3510,-12.8120,-03.021091,-07.997756,-02.151672
-146.343,-088.012,+102.845,+2.511,+0.337,-0.185,-08.4120,+05.2630,-22.4030,-01.468963,-05.306130,-02.292681
-170.167,-086.682,+126.250,+2.455,+0.397,-0.215,-05.8540,+11.9330,-35.2660,-00.102519,+00.775473,+00.013971
-091.875,-087.775,+048.668,+2.431,+0.323,-0.010,-01.7650,+05.6200,-15.7790,+00.704039,+03.829954,+01.236520
-042.565,-083.681,+000.145,+2.422,+0.275,+0.208,+00.1340,+00.3940,-05.7270,+00.536231,+04.380475,+01.566726
-033.849,-078.660,-008.108,+2.418,+0.221,+0.414,-01.1470,-02.0010,-04.6570,+00.259920,+04.166925,+01.355319
-032.271,-073.542,-009.313,+2.362,+0.153,+0.602,-06.0060,-03.3080,-10.6070,+00.309130,+04.667677,+00.763323
-033.491,-067.374,-007.890,+2.315,+0.109,+0.785,-06.4490,-02.7240,-09.8150,+00.176912,+05.728291,+00.302992
-035.035,-060.674,-006.307,+2.278,+0.130,+0.951,-05.6780,-02.2880,-05.8860,+00.175226,+05.838003,+00.039637
-036.460,-054.212,-005.043,+2.283,+0.106,+1.131,-06.9050,-02.7760,-06.9180,-00.081241,+05.620131,-00.191286
-037.761,-047.763,-004.433,+2.307,+0.107,+1.344,-08.1610,-01.5690,-09.2790,-00.495549,+05.706134,-00.270610
-038.943,-041.157,-004.221,+2.298,+0.129,+1.690,-09.1550,-00.7580,-10.1020,-00.541282,+05.847414,-00.322033
-039.974,-034.689,-004.436,+2.126,+0.098,+2.079,-09.2760,-01.3160,-06.3120,-00.977124,+05.427711,-00.224230
-040.655,-029.230,-005.511,+1.897,+0.071,+2.287,-10.7540,+00.0680,-11.1440,-01.319421,+04.480541,-00.022965
-041.228,-023.863,-006.617,+1.608,+0.054,+2.356,-13.7850,+01.0230,-19.1880,-01.038212,+04.978068,+00.107411
-041.755,-017.849,-007.320,+1.389,+0.037,+2.417,-12.9800,+01.6240,-14.8130,-00.664373,+05.312987,+00.297936
-041.930,-011.902,-007.830,+1.249,+0.039,+2.514,-13.5670,+03.0800,-13.5010,-00.368970,+05.051674,+00.704136
-041.592,-006.242,-008.017,+1.063,+0.011,+2.582,-15.1970,+03.4160,-11.6620,+00.036250,+04.720322,+01.118523
-040.866,-001.108,-007.780,+0.867,-0.002,+2.676,-15.5120,+02.4520,-06.1180,+00.321765,+04.066741,+01.287227
-040.056,+003.067,-007.651,+0.722,-0.035,+2.735,-16.9260,-01.4460,-02.2830,-00.117030,+03.202809,+01.040079
-039.694,+006.172,-008.134,+0.573,-0.028,+2.713,-18.4550,-01.7330,+02.2870,-00.575199,+02.251080,+00.493208
-039.468,+007.800,-008.600,+0.508,-0.067,+2.710,-19.5630,+00.6330,+06.6780,-00.239273,+00.792125,+00.435400
-038.726,+007.705,-008.250,+0.494,-0.047,+2.731,-20.0220,+00.4050,+06.1350,+00.507861,-00.734184,+00.699258
-037.900,+005.865,-007.192,+0.545,+0.007,+2.684,-20.1970,-07.5230,+12.5630,+00.954809,-02.525193,-00.040964
-038.113,+002.190,-006.079,+0.662,+0.001,+2.673,+19.0980,+02.1670,-23.6010,+00.685620,-03.240705,-00.628806
-039.059,-002.143,-006.832,+0.787,-0.006,+2.635,-05.8920,+07.1730,-06.2990,-00.415615,-03.819548,-01.150881
-038.483,-006.807,-006.973,+0.946,+0.027,+2.544,-12.1630,-06.0730,-17.3940,-00.361027,-03.890868,+00.149974
-038.041,-010.441,-007.775,+1.053,-0.024,+2.489,-05.0310,-00.3260,-11.6740,-00.827651,-02.987852,-00.059350
-037.346,-013.725,-009.007,+1.137,-0.065,+2.466,-05.1140,+02.9720,-12.5540,-00.885148,-02.845798,+00.155981
-036.897,-016.881,-009.671,+1.235,-0.056,+2.383,-09.0850,+02.6100,-22.9480,-00.092558,-02.546453,-00.203252
-036.711,-018.481,-009.029,+1.277,-0.017,+2.363,-02.7170,+04.2760,-11.7840,+00.745224,-01.197635,-00.055561
-036.786,-019.226,-008.498,+1.309,-0.022,+2.354,-05.1020,+02.0160,-10.9660,+00.255663,-00.438916,-00.157347
-036.975,-019.373,-008.204,+1.319,-0.008,+2.322,-03.6360,+01.9590,-09.2710,+00.292950,+00.006889,-00.211831
-037.347,-019.399,-007.720,+1.305,-0.002,+2.343,-03.4110,+01.0550,-09.1220,+00.296273,+00.024025,-00.359632
-037.797,-019.417,-007.192,+1.314,-0.003,+2.349,-03.6720,+00.6420,-08.5830,+00.343588,+00.038698,-00.340355
-038.070,-019.439,-006.756,+1.310,+0.037,+2.343,-03.3460,+00.5410,-08.7570,+00.256834,-00.013017,-00.159630
-038.160,-019.522,-006.551,+1.324,+0.042,+2.338,-03.2560,+00.7270,-08.6920,+00.098980,-00.093845,-00.041227
-038.114,-019.668,-006.570,+1.319,+0.037,+2.365,-03.0630,+00.9650,-08.7050,-00.054957,-00.153509,+00.049820
-038.058,-019.856,-006.663,+1.328,+0.047,+2.333,-03.4580,+01.3620,-08.7080,-00.057825,-00.169844,+00.005077
-038.090,-020.037,-006.686,+1.338,+0.032,+2.317,-03.6430,+01.4270,-08.7990,-00.010766,-00.138605,-00.073365
-038.199,-020.170,-006.635,+1.324,+0.032,+2.349,-03.6980,+01.1920,-08.8220,+00.026636,-00.087511,-00.111013
-038.329,-020.252,-006.546,+1.352,+0.052,+2.317,-03.4810,+01.0040,-08.7620,+00.034917,-00.044039,-00.112325
-038.465,-020.305,-006.461,+1.333,+0.037,+2.338,-03.2810,+01.2600,-08.7020,+00.040409,-00.038201,-00.126823
-038.650,-020.394,-006.311,+1.333,+0.027,+2.349,-03.5390,+01.0330,-08.7790,+00.091063,-00.067234,-00.172624
-038.845,-020.483,-006.117,+1.342,+0.047,+2.322,-03.6190,+01.1260,-08.7410,+00.118394,-00.054993,-00.164839
-039.054,-020.561,-005.931,+1.338,+0.092,+2.305,-03.5390,+00.9850,-08.6160,+00.084638,-00.048989,-00.180419
-039.302,-020.662,-005.753,+1.347,+0.082,+2.322,-03.4390,+00.9620,-08.6730,+00.078374,-00.079906,-00.236197
-039.598,-020.800,-005.557,+1.356,+0.086,+2.306,-03.5280,+00.9530,-08.6660,+00.074883,-00.112283,-00.259312
