Yaw,Pitch,Roll,MagX,MagY,MagZ,AccelX,AccelY,AccelZ,GyroX,GyroY,GyroZ
+177.966,-017.292,+005.607,-0.166,+0.461,+2.561,-02.7810,-00.8740,-08.9690,+00.000870,+00.002442,-00.000029
+177.966,-017.290,+005.608,-0.164,+0.444,+2.566,-02.7870,-00.8810,-08.9380,+00.000415,+00.000752,-00.000878
+177.966,-017.287,+005.610,-0.155,+0.478,+2.561,-02.7900,-00.9090,-08.9640,-00.000313,+00.000135,+00.000277
+177.966,-017.285,+005.610,-0.166,+0.451,+2.561,-02.7870,-00.8830,-08.9590,-00.000204,+00.000526,-00.001397
+177.965,-017.284,+005.613,-0.159,+0.429,+2.572,-02.7930,-00.9200,-08.9650,+00.000671,-00.001102,-00.000899
+177.964,-017.284,+005.615,-0.159,+0.444,+2.529,-02.8100,-00.8730,-08.9780,+00.000360,-00.000902,-00.000916
+177.962,-017.285,+005.616,-0.162,+0.459,+2.555,-02.8050,-00.9170,-08.9660,+00.000928,-00.000061,-00.000078
+177.960,-017.284,+005.619,-0.164,+0.464,+2.577,-02.7990,-00.8780,-08.9600,+00.001720,-00.000356,-00.000895
+177.961,-017.286,+005.620,-0.173,+0.459,+2.544,-02.8030,-00.8940,-08.9630,+00.000052,-00.000416,+00.001027
+177.962,-017.286,+005.621,-0.169,+0.464,+2.563,-02.7790,-00.8970,-08.9970,-00.001074,-00.000217,+00.000011
+177.963,-017.286,+005.620,-0.159,+0.474,+2.571,-02.8110,-00.8870,-08.9700,+00.000070,-00.000555,+00.000189
+177.962,-017.285,+005.620,-0.164,+0.449,+2.561,-02.7840,-00.8910,-08.9750,-00.000160,+00.000295,-00.002017
+177.959,-017.285,+005.623,-0.169,+0.464,+2.558,-02.7940,-00.8940,-08.9450,+00.001873,+00.001122,-00.001626
+177.957,-017.284,+005.626,-0.164,+0.434,+2.561,-02.7960,-00.8900,-08.9590,+00.003283,-00.001602,-00.001344
+177.957,-017.284,+005.627,-0.159,+0.474,+2.577,-02.7920,-00.8680,-08.9490,+00.002010,-00.000121,-00.000158
+177.958,-017.281,+005.627,-0.166,+0.464,+2.560,-02.7980,-00.8840,-08.9740,+00.000331,+00.001947,-00.000217
+177.957,-017.279,+005.626,-0.159,+0.454,+2.582,-02.8090,-00.8830,-08.9680,-00.000057,+00.003544,+00.000076
+177.957,-017.277,+005.627,-0.159,+0.459,+2.566,-02.8000,-00.8650,-08.9650,+00.000343,+00.001145,-00.001869
+177.955,-017.277,+005.628,-0.155,+0.468,+2.550,-02.7900,-00.9070,-08.9640,+00.001606,-00.002063,-00.001105
+177.952,-017.280,+005.633,-0.164,+0.439,+2.582,-02.7950,-00.9120,-08.9490,+00.001035,-00.002816,-00.001010
+177.951,-017.281,+005.636,-0.155,+0.459,+2.566,-02.7970,-00.8920,-08.9900,-00.000047,-00.000227,+00.000726
+177.952,-017.282,+005.636,-0.171,+0.454,+2.542,-02.8000,-00.8730,-08.9950,+00.000587,-00.000010,+00.000507
+177.952,-017.281,+005.639,-0.155,+0.429,+2.588,-02.8050,-00.8920,-08.9580,+00.004228,-00.000039,-00.001087
+177.951,-017.281,+005.644,-0.159,+0.459,+2.561,-02.7890,-00.9020,-08.9720,+00.003982,-00.000967,+00.000153
+177.950,-017.282,+005.648,-0.164,+0.459,+2.558,-02.8040,-00.8980,-08.9670,+00.003154,-00.001483,-00.001679
+177.949,-017.284,+005.650,-0.169,+0.434,+2.582,-02.7920,-00.8490,-08.9720,+00.003612,-00.001624,-00.000797
+177.949,-017.285,+005.652,-0.164,+0.439,+2.566,-02.8020,-00.9000,-08.9600,+00.002611,-00.001842,-00.001031
+177.948,-017.284,+005.655,-0.169,+0.471,+2.547,-02.8120,-00.8970,-08.9730,+00.002957,-00.000274,+00.000703
+177.948,-017.284,+005.658,-0.169,+0.439,+2.566,-02.7910,-00.8870,-08.9580,+00.002805,+00.000416,-00.000566
+177.947,-017.283,+005.662,-0.164,+0.488,+2.560,-02.7920,-00.8960,-08.9690,+00.001439,-00.000502,+00.000632
+177.947,-017.282,+005.665,-0.157,+0.449,+2.564,-02.8040,-00.8810,-08.9770,+00.002047,-00.000879,-00.000595
+177.945,-017.281,+005.670,-0.164,+0.444,+2.571,-02.8040,-00.9020,-08.9830,+00.001463,-00.000042,+00.000410
+177.945,-017.281,+005.671,-0.164,+0.469,+2.544,-02.8130,-00.8880,-08.9720,+00.001700,+00.000164,-00.001191
+177.945,-017.281,+005.673,-0.164,+0.464,+2.553,-02.7830,-00.8870,-08.9720,+00.001932,-00.000393,-00.001167
+177.946,-017.281,+005.674,-0.159,+0.449,+2.566,-02.7820,-00.8710,-08.9700,+00.000825,+00.000354,+00.000923
+177.944,-017.280,+005.678,-0.159,+0.439,+2.545,-02.8030,-00.9030,-08.9660,+00.002498,+00.001627,-00.001095
+177.942,-017.278,+005.682,-0.162,+0.459,+2.563,-02.8060,-00.9050,-08.9430,+00.001638,+00.000987,-00.001225
+177.939,-017.277,+005.685,-0.169,+0.449,+2.582,-02.7900,-00.9010,-08.9660,+00.001940,+00.000743,-00.000478
+177.937,-017.278,+005.688,-0.169,+0.454,+2.571,-02.7990,-00.8910,-08.9670,+00.001463,-00.000450,-00.001864
+177.935,-017.276,+005.690,-0.166,+0.451,+2.536,-02.8030,-00.9000,-08.9640,+00.001338,-00.001524,-00.000782
+177.935,-017.277,+005.692,-0.169,+0.434,+2.582,-02.8130,-00.9090,-08.9560,+00.001876,-00.001112,+00.000735
+177.934,-017.275,+005.693,-0.150,+0.449,+2.572,-02.7790,-00.8940,-08.9510,+00.001438,+00.000269,-00.000598
+177.932,-017.275,+005.692,-0.164,+0.456,+2.550,-02.7920,-00.8950,-08.9560,+00.000170,-00.000087,-00.000122
+177.931,-017.274,+005.690,-0.164,+0.429,+2.572,-02.7920,-00.8790,-08.9710,-00.002960,+00.001430,-00.001487
+177.930,-017.273,+005.688,-0.173,+0.469,+2.539,-02.8090,-00.8920,-08.9640,-00.001183,+00.000571,-00.001329
+177.928,-017.270,+005.689,-0.159,+0.454,+2.547,-02.7980,-00.9150,-08.9460,-00.000881,+00.002894,-00.001989
+177.927,-017.268,+005.690,-0.164,+0.439,+2.582,-02.7820,-00.9040,-08.9580,-00.000099,+00.000778,-00.002462
+177.925,-017.266,+005.692,-0.159,+0.464,+2.561,-02.7840,-00.8920,-08.9620,+00.002474,+00.001188,-00.002253
+177.921,-017.262,+005.696,-0.162,+0.451,+2.550,-02.7960,-00.9080,-08.9650,+00.002731,-00.000356,-00.002651
+177.918,-017.261,+005.701,-0.150,+0.449,+2.588,-02.7900,-00.8960,-08.9830,+00.002401,-00.000508,-00.002167
+177.917,-017.263,+005.704,-0.155,+0.454,+2.566,-02.8250,-00.9240,-08.9430,+00.001989,-00.000659,-00.000636
+177.916,-017.262,+005.705,-0.166,+0.449,+2.561,-02.7750,-00.7800,-09.0080,+00.005640,-00.001393,-00.002089
+177.911,-017.263,+005.715,-0.164,+0.449,+2.588,-02.7880,-00.9310,-08.9320,+00.003401,+00.001649,-00.003210
+177.910,-017.261,+005.720,-0.164,+0.459,+2.566,-02.7540,-00.9480,-08.9790,-00.000869,-00.001245,+00.001823
+177.907,-017.263,+005.724,-0.169,+0.464,+2.552,-02.7370,-00.8980,-08.9680,+00.004655,-00.000214,-00.001900
+177.905,-017.261,+005.727,-0.169,+0.449,+2.571,-02.7770,-00.8860,-08.9650,+00.000505,+00.000511,-00.001128
+177.903,-017.260,+005.729,-0.159,+0.473,+2.550,-02.8180,-00.9170,-08.9450,+00.000485,+00.001172,-00.002532
+177.899,-017.258,+005.732,-0.169,+0.449,+2.555,-02.8000,-00.9290,-08.9680,+00.000236,+00.001535,-00.002437
+177.897,-017.255,+005.733,-0.169,+0.439,+2.577,-02.7980,-00.8900,-08.9640,+00.000041,+00.001594,-00.002131
+177.894,-017.252,+005.735,-0.178,+0.444,+2.566,-02.7910,-00.9520,-08.9910,-00.000444,+00.003022,-00.001702
+177.893,-017.249,+005.733,-0.166,+0.449,+2.569,-02.8040,-00.9160,-08.9710,-00.003289,+00.003702,+00.000577
+177.893,-017.245,+005.728,-0.164,+0.444,+2.571,-02.7730,-00.9110,-08.9650,-00.004362,+00.003383,+00.001025
+177.893,-017.242,+005.724,-0.169,+0.478,+2.555,-02.8080,-00.8840,-08.9480,-00.003446,+00.002513,-00.001179
+177.890,-017.239,+005.723,-0.166,+0.444,+2.553,-02.8230,-00.9100,-08.9720,-00.001730,+00.003020,-00.003460
+177.885,-017.233,+005.725,-0.159,+0.434,+2.566,-02.7780,-00.9170,-08.9450,+00.000695,+00.003394,-00.003194
+177.883,-017.230,+005.726,-0.164,+0.483,+2.544,-02.7810,-00.9210,-08.9640,-00.001004,+00.001541,-00.000365
+177.883,-017.229,+005.724,-0.166,+0.454,+2.566,-02.7860,-00.9070,-08.9790,-00.001640,+00.001010,-00.000723
+177.883,-017.225,+005.723,-0.164,+0.464,+2.550,-02.7850,-00.9280,-08.9770,-00.000826,+00.002860,-00.000963
+177.881,-017.221,+005.724,-0.169,+0.449,+2.561,-02.7900,-00.9500,-08.9620,-00.001464,+00.004047,-00.001944
+177.878,-017.216,+005.722,-0.169,+0.464,+2.550,-02.8130,-00.8990,-09.0090,-00.001974,+00.004233,-00.002155
+177.875,-017.212,+005.720,-0.169,+0.439,+2.577,-02.8020,-00.9200,-08.9900,-00.003218,+00.005885,-00.003329
+177.871,-017.204,+005.716,-0.164,+0.488,+2.566,-02.8050,-00.9040,-08.9710,-00.003687,+00.007193,-00.002942
+177.868,-017.196,+005.714,-0.162,+0.446,+2.555,-02.7930,-00.9320,-08.9520,-00.004884,+00.008430,-00.003720
+177.864,-017.186,+005.710,-0.169,+0.464,+2.582,-02.8000,-00.8910,-08.9520,-00.004061,+00.008431,-00.003804
+177.861,-017.177,+005.707,-0.159,+0.473,+2.539,-02.7750,-00.8790,-08.9640,-00.001480,+00.006164,-00.003899
+177.861,-017.170,+005.706,-0.164,+0.464,+2.553,-02.7550,-00.8880,-08.9480,-00.002350,+00.004504,+00.000292
+177.861,-017.164,+005.706,-0.164,+0.459,+2.582,-02.7740,-00.9080,-08.9710,-00.000939,+00.003768,-00.000768
+177.858,-017.160,+005.706,-0.169,+0.469,+2.555,-02.7800,-00.9040,-08.9630,+00.000510,+00.002683,-00.002918
+177.854,-017.156,+005.709,-0.171,+0.474,+2.550,-02.7560,-00.9120,-08.9870,+00.001123,+00.001185,-00.002716
+177.851,-017.153,+005.709,-0.159,+0.429,+2.556,-02.7650,-00.8860,-08.9670,-00.005126,+00.002055,-00.001176
+177.851,-017.147,+005.702,-0.169,+0.464,+2.560,-02.7610,-00.9100,-08.9730,-00.007905,+00.003345,+00.002083
+177.853,-017.145,+005.689,-0.164,+0.461,+2.545,-02.7870,-00.9080,-08.9940,-00.015003,+00.002194,+00.001565
+177.857,-017.141,+005.671,-0.173,+0.439,+2.576,-02.8130,-00.9040,-08.9650,-00.014738,+00.005797,+00.003713
+177.865,-017.135,+005.652,-0.173,+0.464,+2.550,-02.7760,-00.8800,-08.9340,-00.013683,+00.009972,+00.010742
+177.876,-017.128,+005.633,-0.176,+0.439,+2.544,-02.7240,-00.8810,-08.9830,-00.010871,-00.005403,+00.007704
+177.890,-017.129,+005.596,-0.169,+0.434,+2.582,-02.8060,-00.9310,-09.0010,-00.041545,+00.007533,+00.015371
+177.906,-017.121,+005.543,-0.169,+0.454,+2.566,-02.7690,-00.9460,-08.9220,-00.044776,+00.011048,+00.008940
+177.905,-017.105,+005.519,-0.166,+0.442,+2.553,-02.8030,-00.8460,-08.9730,-00.006464,+00.015142,-00.012549
+177.885,-017.084,+005.524,-0.159,+0.434,+2.582,-02.7480,-00.8360,-09.0140,+00.005933,+00.016560,-00.019113
+177.866,-017.061,+005.532,-0.173,+0.454,+2.550,-02.7720,-00.9080,-08.9930,-00.001317,+00.022312,-00.015635
+177.860,-017.036,+005.531,-0.171,+0.456,+2.558,-02.7290,-00.8960,-08.9640,-00.008715,+00.017512,-00.002841
+177.862,-017.015,+005.513,-0.173,+0.444,+2.560,-02.7240,-00.9010,-08.9800,-00.013576,+00.015597,+00.002573
+177.868,-017.001,+005.494,-0.169,+0.439,+2.566,-02.7650,-00.8570,-08.9450,-00.014033,+00.010351,+00.004416
+177.872,-016.988,+005.484,-0.164,+0.464,+2.550,-02.7500,-00.8870,-08.9750,-00.006410,+00.012926,+00.003274
+177.882,-016.970,+005.479,-0.178,+0.420,+2.592,-02.7260,-00.8570,-08.9880,+00.006454,+00.014066,+00.008532
+177.888,-016.959,+005.491,-0.178,+0.434,+2.576,-02.7420,-00.8540,-09.0190,+00.016287,+00.007723,+00.002339
+177.888,-016.951,+005.506,-0.178,+0.466,+2.549,-02.6960,-00.8380,-08.9960,+00.012942,+00.005071,-00.000734
+177.889,-016.947,+005.520,-0.178,+0.449,+2.576,-02.7850,-00.9150,-08.9750,+00.009176,+00.006226,+00.000586
+177.889,-016.935,+005.528,-0.178,+0.459,+2.565,-02.7320,-00.9080,-08.9530,+00.002969,+00.012212,-00.001694
+177.888,-016.922,+005.552,-0.171,+0.456,+2.555,-02.7480,-00.7580,-09.0060,+00.030943,+00.011016,-00.005854
+177.873,-016.905,+005.589,-0.169,+0.444,+2.587,-02.7290,-00.9270,-08.9720,+00.026078,+00.016005,-00.016839
+177.852,-016.887,+005.649,-0.187,+0.439,+2.554,-02.5720,-00.9560,-08.8530,+00.079363,+00.006158,-00.019202
+177.823,-016.876,+005.766,-0.178,+0.454,+2.557,-02.8030,-01.0720,-09.0040,+00.096658,+00.013358,-00.027932
+177.759,-016.855,+005.885,-0.173,+0.469,+2.571,-02.7700,-00.8870,-09.0130,+00.080367,+00.013988,-00.067370
+177.673,-016.825,+005.984,-0.187,+0.503,+2.559,-02.7590,-00.8710,-09.0470,+00.053989,+00.021986,-00.076015
+177.599,-016.788,+006.040,-0.182,+0.459,+2.549,-02.6110,-00.9430,-08.9440,+00.025185,+00.021185,-00.049858
+177.567,-016.761,+006.074,-0.182,+0.469,+2.581,-02.7600,-01.1660,-08.8740,+00.007618,+00.027885,-00.018974
+177.566,-016.723,+006.070,-0.187,+0.493,+2.554,-02.6690,-00.9210,-09.0370,-00.008626,+00.029642,+00.001923
+177.574,-016.698,+006.063,-0.175,+0.461,+2.541,-02.7050,-00.8220,-08.9680,+00.007665,+00.016781,+00.002764
+177.569,-016.691,+006.094,-0.182,+0.464,+2.560,-02.5210,-00.8660,-08.9860,+00.045325,-00.007505,-00.007560
+177.559,-016.700,+006.165,-0.178,+0.464,+2.528,-02.6320,-00.8860,-09.0350,+00.069979,-00.010009,-00.007892
+177.539,-016.702,+006.258,-0.185,+0.474,+2.541,-02.7110,-00.8930,-09.0930,+00.081969,+00.004295,-00.023221
+177.493,-016.686,+006.381,-0.192,+0.454,+2.560,-02.6680,-00.9320,-08.9980,+00.104945,+00.009305,-00.045570
+177.434,-016.667,+006.520,-0.178,+0.478,+2.528,-02.8170,-00.8970,-08.9720,+00.104519,+00.015488,-00.053389
+177.380,-016.643,+006.652,-0.182,+0.491,+2.546,-02.7280,-01.0290,-08.9630,+00.105128,+00.019900,-00.038717
+177.352,-016.619,+006.769,-0.182,+0.474,+2.570,-02.6810,-01.1510,-08.9960,+00.083923,+00.014862,-00.013634
+177.353,-016.602,+006.839,-0.187,+0.479,+2.543,-02.7290,-01.1450,-08.9680,+00.048464,+00.019537,+00.006926
+177.375,-016.579,+006.852,-0.187,+0.479,+2.546,-02.6690,-01.1910,-08.9430,-00.004767,+00.024663,+00.020451
+177.416,-016.561,+006.813,-0.196,+0.454,+2.575,-02.5620,-01.0910,-08.9170,-00.035708,+00.014861,+00.040328
+177.493,-016.566,+006.712,-0.192,+0.498,+2.554,-02.5790,-01.0970,-08.9550,-00.087153,-00.008836,+00.081228
+177.591,-016.601,+006.564,-0.185,+0.474,+2.554,-02.7750,-01.0170,-08.9690,-00.111207,-00.025085,+00.080840
+177.676,-016.646,+006.414,-0.182,+0.459,+2.581,-02.8070,-01.0990,-09.0180,-00.107670,-00.031611,+00.071019
+177.756,-016.681,+006.279,-0.187,+0.469,+2.538,-02.7380,-00.9380,-08.9890,-00.095363,-00.019632,+00.068763
+177.840,-016.708,+006.140,-0.175,+0.474,+2.547,-02.5890,-00.9600,-08.8930,-00.112914,-00.016229,+00.080942
+177.994,-016.751,+005.909,-0.178,+0.444,+2.582,-02.5070,-01.0870,-08.8900,-00.195473,-00.032539,+00.166613
+178.238,-016.838,+005.583,-0.169,+0.449,+2.555,-02.8770,-00.9730,-08.9130,-00.239313,-00.066590,+00.223814
+178.476,-016.936,+005.244,-0.173,+0.461,+2.547,-02.8840,-00.8440,-08.9580,-00.227275,-00.062235,+00.189341
+178.655,-017.023,+004.955,-0.169,+0.420,+2.577,-02.7710,-00.7020,-09.0780,-00.202311,-00.059463,+00.137548
+178.817,-017.113,+004.643,-0.169,+0.444,+2.550,-02.7090,-00.8410,-08.9590,-00.251666,-00.083934,+00.150931
+179.028,-017.268,+004.260,-0.155,+0.415,+2.575,-02.6970,-00.7330,-08.9380,-00.290569,-00.144486,+00.210947
+179.274,-017.479,+003.844,-0.164,+0.400,+2.583,-02.9250,-00.6490,-08.9900,-00.298685,-00.185507,+00.208449
+179.470,-017.768,+003.418,-0.159,+0.400,+2.567,-02.6460,-00.4690,-09.0400,-00.341305,-00.282122,+00.148348
+179.602,-018.236,+002.942,-0.134,+0.395,+2.562,-02.6140,-00.6890,-08.9570,-00.400259,-00.491121,+00.142276
+179.743,-019.007,+002.457,-0.100,+0.380,+2.596,-02.7540,-00.6080,-09.0660,-00.368527,-00.773207,+00.143713
+179.855,-020.132,+002.043,-0.072,+0.365,+2.592,-03.1500,-00.4050,-09.0660,-00.293042,-01.098972,+00.076188
+179.701,-021.632,+001.870,-0.014,+0.357,+2.584,-04.8350,-00.3930,-09.1650,-00.114199,-01.473423,-00.277966
+179.225,-023.526,+002.079,+0.029,+0.339,+2.597,-02.4620,-00.1410,-09.3550,+00.124634,-01.775809,-00.392886
+178.485,-025.800,+002.780,+0.117,+0.348,+2.595,-03.4100,-00.2070,-09.0230,+00.458231,-02.146600,-00.566299
+177.399,-028.656,+003.935,+0.209,+0.401,+2.596,-03.1200,-00.4270,-09.0090,+00.627750,-02.805515,-00.765580
+175.915,-032.506,+005.441,+0.333,+0.400,+2.599,-03.4340,-01.0810,-09.2370,+00.639424,-03.902060,-00.855020
+174.470,-037.916,+007.036,+0.522,+0.447,+2.543,-02.2540,-01.3490,-10.1090,+00.594165,-05.458098,-00.270392
+173.557,-045.421,+008.139,+0.766,+0.461,+2.481,-06.1840,-00.7610,-12.9770,+00.675002,-07.243138,+00.724453
+173.081,-054.923,+008.844,+1.038,+0.446,+2.372,-03.5600,-00.0070,-13.3140,+00.155282,-08.584161,+01.128428
+173.548,-065.555,+008.461,+1.346,+0.437,+2.145,-10.4890,-00.9540,-14.4790,-00.312468,-09.437080,+01.748016
+177.108,-075.667,+005.759,+1.585,+0.384,+1.888,-13.1510,-03.8300,-26.3110,+00.387690,-08.089619,+02.065711
-174.512,-079.504,-002.028,+1.682,+0.338,+1.753,-14.3610,-08.1980,-64.1810,+00.208467,+01.295203,+00.953052
-169.262,-077.061,-007.628,+1.658,+0.294,+1.715,+04.9530,-02.1030,-11.2830,-00.848002,+02.307940,+01.299213
-164.839,-074.281,-013.024,+1.647,+0.235,+1.771,+04.2860,-02.2580,-05.9920,-00.843866,+02.111806,+01.329680
-162.886,-071.458,-015.157,+1.640,+0.186,+1.838,+03.3500,-05.5090,-10.7430,+00.051797,+02.513759,+00.872602
-164.608,-067.690,-013.426,+1.576,+0.178,+1.910,+00.9580,-07.8190,-16.5940,+00.016169,+03.924028,-00.086884
-169.075,-062.376,-009.611,+1.493,+0.182,+2.057,-00.3770,-04.8210,-11.2190,-00.267035,+05.271749,-00.984320
-173.509,-056.392,-005.841,+1.373,+0.186,+2.239,-01.6170,-01.3300,-07.3650,+00.164355,+05.451448,-01.357349
-176.973,-050.233,-002.513,+1.153,+0.283,+2.400,-03.9890,+00.2130,-10.8420,+00.614522,+05.569437,-01.392579
-179.348,-043.525,-000.041,+0.918,+0.280,+2.484,-06.5120,+01.1850,-14.9710,+00.636775,+06.108956,-01.198478
+179.395,-036.008,+001.493,+0.683,+0.283,+2.578,-08.9760,+03.1750,-13.3000,+00.648710,+06.786803,-00.713545
+179.328,-028.596,+002.483,+0.398,+0.336,+2.629,-09.5100,+03.7350,-05.3930,+00.935644,+06.011924,-00.036432
+179.906,-022.921,+003.321,+0.218,+0.342,+2.589,-10.9700,+01.6350,-14.5230,+00.893898,+04.496316,+00.328963
-179.363,-017.687,+004.082,+0.098,+0.343,+2.552,-12.4580,-01.4820,-16.4700,+00.910745,+04.543619,+00.198376
-179.092,-012.717,+005.220,+0.029,+0.393,+2.489,-15.0770,-04.1510,-17.7440,+01.097385,+04.302393,-00.363378
-179.597,-007.678,+006.393,-0.017,+0.381,+2.546,-16.7440,-05.8680,-17.2120,+00.799947,+04.376843,-01.203702
+179.187,-002.463,+007.160,-0.173,+0.415,+2.695,-17.3240,-02.8060,-12.2670,+00.489486,+04.336603,-01.764951
+177.633,+002.394,+007.692,-0.449,+0.487,+2.719,-17.7120,-00.3590,-07.7600,+00.408915,+03.802793,-01.943615
+175.973,+006.480,+007.836,-0.691,+0.489,+2.671,-19.4850,+02.0450,-04.0610,+00.105057,+03.049529,-01.840725
+174.503,+009.434,+007.430,-0.841,+0.481,+2.622,-19.6930,+03.5390,+01.9810,-00.255107,+01.933923,-01.454580
+173.294,+010.958,+007.131,-0.961,+0.437,+2.531,-20.1410,+04.5130,+02.4570,+00.034101,+00.768592,-01.036050
+172.404,+011.204,+006.831,-0.981,+0.435,+2.512,-19.2570,+03.2290,+01.7130,-00.276579,-00.261085,-00.663880
+171.679,+010.312,+006.024,-0.979,+0.403,+2.579,-16.8850,+02.9350,-00.9610,-00.733220,-01.181512,-00.449714
+171.451,+008.652,+005.496,-0.947,+0.383,+2.602,+09.8270,+08.3470,-16.7680,+00.652512,-01.659487,+00.197913
+173.429,+006.314,+006.208,-0.903,+0.462,+2.649,+09.1090,-03.1600,-08.4010,+00.213101,-02.364039,+02.546415
+175.015,+003.007,+006.604,-0.808,+0.496,+2.730,-09.1050,-14.6580,-00.7030,-00.097540,-03.100077,+00.643822
+174.443,-000.474,+006.538,-0.725,+0.529,+2.782,-03.0110,+03.0130,-18.3420,+00.005034,-02.865909,-00.237426
+174.258,-004.017,+007.353,-0.635,+0.561,+2.831,-01.9360,+01.1210,-08.2680,+01.060149,-03.301849,+00.346745
+173.963,-008.356,+008.867,-0.527,+0.616,+2.908,-01.6840,-08.8550,-07.8730,+01.340378,-04.297418,+00.237779
+173.112,-012.834,+008.916,-0.352,+0.669,+2.953,-11.8340,+01.2700,-21.9970,-00.726984,-02.587454,-00.254172
+172.977,-014.136,+008.516,-0.306,+0.627,+2.966,-03.9240,-02.7400,-10.6500,-00.162352,-00.612007,+00.064338
+172.887,-014.439,+008.383,-0.292,+0.619,+2.983,-02.9880,-00.0940,-10.2940,+00.009833,-00.114032,-00.056745
+172.785,-014.512,+008.418,-0.301,+0.629,+2.961,-01.1710,-00.1390,-09.1280,-00.012307,-00.053461,-00.063716
+172.685,-014.535,+008.489,-0.299,+0.637,+2.974,-03.3380,-01.5920,-09.5490,+00.122269,-00.004899,-00.116059
+172.540,-014.525,+008.935,-0.310,+0.644,+2.982,-02.4940,-01.4940,-09.2470,+00.455203,-00.034080,-00.117929
+172.348,-014.554,+009.588,-0.297,+0.698,+2.971,-02.4150,-01.7720,-08.9380,+00.567373,-00.057185,-00.164656
+172.182,-014.639,+010.254,-0.301,+0.695,+2.950,-01.9240,-01.6050,-08.8810,+00.519167,-00.125152,-00.097057
+172.081,-014.795,+010.775,-0.287,+0.703,+2.988,-02.4070,-01.8580,-08.8700,+00.379054,-00.153724,-00.041430
+172.005,-014.946,+011.221,-0.297,+0.742,+2.949,-02.6270,-01.6970,-08.9220,+00.355639,-00.123150,-00.039287
+171.967,-015.026,+011.468,-0.290,+0.732,+2.952,-02.2830,-02.0530,-08.6200,+00.104564,-00.046732,+00.007173
+172.035,-015.074,+011.345,-0.292,+0.737,+2.976,-02.1830,-02.0280,-08.6080,-00.195585,-00.022329,+00.101690
+172.223,-015.172,+011.029,-0.287,+0.742,+2.977,-02.5410,-01.7120,-08.7900,-00.251171,-00.069432,+00.193382
+172.453,-015.301,+010.699,-0.287,+0.713,+2.958,-02.6400,-01.7670,-08.9620,-00.219054,-00.071261,+00.211724
+172.675,-015.422,+010.378,-0.283,+0.703,+2.993,-02.5820,-01.6170,-09.0420,-00.226990,-00.066321,+00.194070
+172.857,-015.532,+010.104,-0.274,+0.708,+2.983,-02.5500,-01.7150,-08.9280,-00.185282,-00.069379,+00.150370
+173.015,-015.633,+009.855,-0.274,+0.703,+2.969,-02.4200,-01.6450,-08.8520,-00.196079,-00.072535,+00.150006
+173.163,-015.761,+009.510,-0.274,+0.659,+3.005,-02.4360,-01.7000,-08.8150,-00.327653,-00.099347,+00.136465
+173.282,-015.922,+008.965,-0.246,+0.663,+2.990,-02.6170,-01.4530,-08.9470,-00.498794,-00.155021,+00.109834
+173.347,-016.178,+008.442,-0.260,+0.651,+2.997,-02.8670,-01.3250,-09.0660,-00.380737,-00.263489,+00.078254
+173.356,-016.521,+007.981,-0.241,+0.639,+3.012,-02.4580,-01.2970,-09.0050,-00.414944,-00.318896,+00.028138
+173.283,-017.001,+007.543,-0.223,+0.614,+3.002,-02.8410,-01.1420,-08.9470,-00.372163,-00.504694,-00.023944
+173.028,-017.703,+007.231,-0.193,+0.599,+3.014,-02.7560,-01.0790,-09.0390,-00.328846,-00.722757,-00.206083
+172.583,-018.685,+007.003,-0.159,+0.574,+3.010,-02.6870,-00.9650,-09.1420,-00.304560,-00.998086,-00.266564
+171.976,-020.017,+007.063,-0.108,+0.578,+3.018,-04.7890,-01.4190,-09.2270,+00.034444,-01.378208,-00.429860
+171.072,-021.810,+007.571,-0.032,+0.568,+3.027,-03.1220,-00.9560,-09.2490,+00.279198,-01.816644,-00.619939
+169.626,-024.257,+008.653,+0.049,+0.557,+3.041,-02.6760,-01.2510,-09.1120,+00.551559,-02.622420,-00.960964
+167.807,-027.857,+010.313,+0.215,+0.600,+3.010,-02.0160,-01.2040,-09.6530,+00.867599,-03.792317,-00.849546
+165.723,-033.218,+012.636,+0.408,+0.664,+2.965,+00.4270,-01.2350,-11.6910,+01.310552,-05.653044,-00.303801
+163.849,-041.169,+016.246,+0.712,+0.722,+2.913,-00.8290,-04.0010,-15.0670,+02.665095,-07.758952,+00.913419
+161.283,-052.066,+021.589,+1.113,+0.825,+2.678,-06.2580,-02.9200,-14.9510,+03.084239,-10.288920,+01.880214
+156.126,-064.499,+028.739,+1.501,+0.804,+2.342,-13.2280,-03.3750,-12.6210,+02.391820,-11.311790,+02.770269
+140.607,-076.233,+045.528,+1.821,+0.726,+1.998,-08.9850,-04.9450,-24.4080,+01.553814,-10.711140,+02.670930
+103.414,-082.932,+082.640,+2.004,+0.624,+1.605,-19.7570,-04.9400,-53.1890,+00.141508,-04.106271,+02.340054
+123.521,-083.786,+063.221,+2.002,+0.540,+1.565,-00.4930,-03.2190,-30.6670,+00.749581,+03.529863,+01.318427
+157.817,-081.224,+029.853,+1.976,+0.516,+1.684,+03.0810,-02.7050,-06.6920,+00.278728,+04.231565,+00.988466
+172.086,-077.453,+015.088,+1.917,+0.523,+1.891,+01.8910,-03.7580,-05.8620,-01.265824,+03.744175,+00.806658
+178.737,-073.053,+006.296,+1.779,+0.457,+2.118,-00.9170,-03.5050,-12.8060,-02.351481,+04.416394,+00.678570
-178.179,-067.024,+000.959,+1.526,+0.401,+2.314,-02.8280,-02.3460,-12.9420,-01.803436,+05.822574,+00.545955
-177.274,-059.646,-001.156,+1.245,+0.331,+2.388,-04.3320,-03.8510,-10.0020,-00.799087,+06.698202,+00.245435
-177.690,-051.769,-001.466,+0.982,+0.316,+2.454,-05.9490,-05.4220,-08.2140,-00.498823,+06.921938,-00.229669
-178.864,-043.860,-001.158,+0.729,+0.282,+2.499,-07.1070,-04.6540,-09.3070,-00.417279,+06.907943,-00.689933
+179.708,-036.056,-000.463,+0.471,+0.285,+2.467,-08.1550,-03.9160,-09.4370,-00.063267,+06.746119,-00.947466
+178.356,-028.628,+000.409,+0.299,+0.289,+2.432,-09.0480,-02.5070,-08.1600,+00.228327,+06.240582,-00.979683
+177.424,-022.354,+001.380,+0.172,+0.293,+2.459,-10.3710,-01.5690,-09.5680,+00.702774,+04.904722,-00.715263
+176.926,-017.060,+002.815,+0.071,+0.407,+2.470,-13.8000,-03.1910,-14.6860,+01.260095,+04.500515,-00.550010
+176.443,-012.543,+004.568,-0.072,+0.472,+2.498,-15.2460,-03.9450,-11.0420,+01.460122,+03.476133,-00.763369
+175.598,-008.851,+005.972,-0.242,+0.513,+2.519,-20.3900,-03.7510,-19.2600,+00.778634,+03.124209,-01.102746
+174.814,-004.493,+006.616,-0.459,+0.569,+2.435,-24.5050,-01.2000,-20.6030,+00.453096,+04.162450,-01.082495
+173.986,+000.626,+007.212,-0.636,+0.539,+2.331,-24.0330,-00.6330,-03.3790,+00.479652,+04.142143,-01.348440
+173.012,+004.640,+007.364,-0.740,+0.547,+2.256,-26.5630,+03.5040,+02.3670,+00.067023,+02.915340,-01.095745
+172.629,+007.188,+007.658,-0.805,+0.522,+2.162,-27.1000,+05.7840,+07.4350,+00.571676,+01.648930,-00.350974
+172.536,+008.042,+008.686,-0.821,+0.534,+2.124,-26.5070,+02.2930,+07.6510,+00.911967,+00.142686,-00.179398
+172.221,+006.617,+008.707,-0.805,+0.542,+2.152,-11.6060,+03.4040,+10.7860,-00.871243,-02.684518,+00.034295
+172.503,+004.336,+008.563,-0.740,+0.556,+2.138,+22.4320,+03.3340,-19.6120,+00.388944,-02.452536,+01.354512
+173.778,+000.520,+008.571,-0.641,+0.580,+2.180,-10.8230,-05.1870,+06.8540,-00.298179,-03.706526,+00.674114
+173.281,-004.001,+008.620,-0.528,+0.579,+2.255,-06.3880,-02.3400,-20.7530,+00.161831,-03.653615,-00.144439
+172.562,-008.410,+009.568,-0.404,+0.622,+2.265,-03.1260,-03.1570,-14.1090,+00.700004,-04.154852,+00.153552
+171.750,-012.184,+009.364,-0.302,+0.621,+2.310,-09.8400,-01.3650,-18.9110,-00.836101,-01.819043,-00.320068
+171.566,-013.266,+008.965,-0.270,+0.577,+2.330,-02.2550,-01.2870,-10.0400,-00.168589,-00.613503,+00.067034
+171.478,-013.722,+008.785,-0.252,+0.591,+2.304,-02.6280,-00.5850,-10.4450,-00.128906,-00.290070,-00.034650
+171.486,-013.917,+008.486,-0.261,+0.599,+2.317,-02.4540,-01.2620,-09.0570,-00.311363,-00.139306,+00.072835
+171.508,-014.048,+008.220,-0.247,+0.596,+2.347,-02.2930,-01.0360,-09.1790,-00.175410,-00.104874,-00.006266
+171.492,-014.173,+008.095,-0.247,+0.576,+2.331,-02.3560,-01.0930,-09.2120,-00.096079,-00.118801,+00.015487
+171.535,-014.328,+007.987,-0.242,+0.574,+2.321,-02.3790,-01.5800,-09.0330,-00.082548,-00.136345,+00.083945
+171.642,-014.548,+007.860,-0.242,+0.557,+2.332,-02.3840,-01.3440,-09.0540,-00.080458,-00.197452,+00.122629
+171.734,-014.784,+007.761,-0.229,+0.586,+2.337,-02.3820,-01.1750,-09.0310,-00.062454,-00.191547,+00.097091
+171.806,-014.990,+007.684,-0.226,+0.571,+2.332,-02.4500,-01.1560,-09.0270,-00.048581,-00.155402,+00.074918
+171.872,-015.160,+007.589,-0.219,+0.547,+2.354,-02.3740,-01.3690,-09.0090,-00.081319,-00.133534,+00.083764
+171.994,-015.318,+007.438,-0.206,+0.556,+2.344,-02.5160,-01.2270,-08.9760,-00.119003,-00.115525,+00.146606
+172.174,-015.461,+007.216,-0.210,+0.583,+2.335,-02.5870,-01.0100,-09.0320,-00.170624,-00.100555,+00.168039
+172.355,-015.587,+006.948,-0.206,+0.552,+2.376,-02.4910,-00.9950,-09.0070,-00.215594,-00.086353,+00.168060
+172.574,-015.712,+006.625,-0.196,+0.546,+2.339,-02.5690,-01.1460,-09.0190,-00.228815,-00.087469,+00.211340
+172.818,-015.843,+006.323,-0.185,+0.546,+2.358,-02.6250,-00.8520,-09.0030,-00.202397,-00.094529,+00.215356
+173.066,-015.985,+005.991,-0.192,+0.547,+2.371,-02.6680,-00.9210,-08.9820,-00.247487,-00.107826,+00.221445
+173.328,-016.155,+005.627,-0.187,+0.561,+2.361,-02.6030,-01.0150,-09.0320,-00.250583,-00.138506,+00.249852
+173.654,-016.366,+005.251,-0.169,+0.536,+2.351,-02.4990,-01.0000,-08.9870,-00.249125,-00.179878,+00.306410
+173.973,-016.631,+004.874,-0.164,+0.522,+2.362,-03.0700,-00.6800,-09.0470,-00.226477,-00.224187,+00.267464
+174.202,-016.995,+004.548,-0.141,+0.536,+2.342,-02.5160,-00.6370,-09.1030,-00.234733,-00.356372,+00.179363
+174.302,-017.548,+004.214,-0.148,+0.499,+2.374,-02.8150,-00.6990,-09.0150,-00.267388,-00.558188,+00.077339
+174.211,-018.330,+003.940,-0.118,+0.492,+2.396,-02.8830,-00.4970,-09.0260,-00.248150,-00.766270,-00.092675
+173.898,-019.342,+003.805,-0.081,+0.516,+2.387,-02.7150,-00.3660,-09.1200,-00.165815,-00.994215,-00.255567
+173.362,-020.704,+003.913,-0.054,+0.474,+2.389,-02.7630,-00.5050,-09.4490,+00.008110,-01.330824,-00.398024
+172.483,-022.528,+004.459,-0.008,+0.471,+2.412,-02.5770,-00.6090,-09.3980,+00.290018,-01.829814,-00.696969
+171.243,-025.037,+005.497,+0.094,+0.509,+2.384,-03.7620,-00.8210,-09.0480,+00.569449,-02.546346,-00.828515
+169.587,-028.622,+006.965,+0.177,+0.538,+2.385,-01.7970,-01.1170,-09.5530,+00.610734,-03.716541,-00.951840
+167.822,-034.030,+008.660,+0.324,+0.532,+2.394,+00.1860,-01.1770,-10.7800,+00.761896,-05.585455,-00.273703
+166.771,-041.929,+010.113,+0.582,+0.592,+2.309,-02.2210,-01.8190,-13.2050,+00.591270,-07.663187,+00.858178
+166.506,-052.225,+011.392,+0.858,+0.616,+2.205,-09.3490,+00.0060,-12.0910,+00.719825,-09.517013,+01.634941
+166.565,-063.830,+012.505,+1.157,+0.585,+2.066,-14.0310,-07.1820,-13.9230,+00.753761,-10.030110,+02.233106
+166.921,-075.669,+013.738,+1.419,+0.522,+1.767,-09.5010,-01.8800,-22.6690,+01.498395,-09.938798,+02.490331
+174.090,-085.813,+006.998,+1.608,+0.472,+1.502,-06.0450,-02.1890,-34.5610,-00.377634,-06.314843,+02.896748
-162.436,-085.122,-016.639,+1.617,+0.411,+1.434,-00.9980,-03.2740,-36.1650,+00.185153,+02.416323,+01.414839
-162.468,-080.589,-016.238,+1.612,+0.317,+1.386,+02.8460,-02.4430,-08.7190,+00.381616,+04.084062,+00.946540
-164.306,-076.243,-014.126,+1.676,+0.262,+1.360,+02.9620,-03.9160,-02.7890,+00.102892,+03.456347,+00.477421
-167.247,-072.365,-011.832,+1.819,+0.148,+1.439,+00.8490,-04.8860,-12.3700,-00.797827,+03.697841,-00.145073
-171.536,-067.213,-009.010,+1.994,+0.089,+1.699,-01.5550,-02.3770,-14.7880,-01.002032,+05.261060,-00.618592
-175.592,-060.575,-005.956,+1.933,+0.038,+2.184,-02.6740,-00.1990,-09.1340,-00.202435,+06.200225,-00.850863
-178.469,-053.436,-003.304,+1.595,+0.014,+2.593,-04.5560,+00.2210,-08.3640,+00.387177,+06.363644,-00.835863
+179.645,-046.111,-001.312,+1.139,+0.034,+2.739,-05.9550,+01.1390,-11.1160,+00.532296,+06.483889,-00.752640
+178.724,-038.316,+000.180,+0.801,+0.018,+2.799,-08.6310,+03.2270,-13.3220,+00.920992,+07.020682,-00.343954
+178.871,-030.273,+001.458,+0.485,+0.026,+2.866,-09.3460,+03.0360,-07.4480,+01.308714,+06.853957,+00.225334
+179.733,-023.281,+002.670,+0.149,+0.108,+2.856,-10.3680,-00.3160,-06.6710,+01.433883,+05.611622,+00.494403
-179.600,-017.692,+003.998,-0.127,+0.130,+2.787,-13.8090,-03.8720,-16.9100,+01.395384,+04.718596,+00.059421
-179.785,-012.511,+005.525,-0.330,+0.127,+2.695,-16.7790,-03.8150,-13.7440,+01.240157,+04.207858,-00.891158
+179.108,-008.007,+006.640,-0.482,+0.212,+2.613,-22.5620,-01.9910,-17.9160,+00.471312,+03.723458,-01.569335
+177.810,-003.423,+006.624,-0.623,+0.210,+2.545,-24.9630,+00.6370,-09.3060,-00.442244,+03.795467,-01.530221
+176.761,+000.150,+006.016,-0.745,+0.170,+2.505,-27.0020,+01.3330,+01.9170,-00.579612,+02.420098,-01.100482
+175.793,+002.077,+005.995,-0.805,+0.185,+2.449,-28.5180,+04.6640,+02.5920,+00.518151,+01.210448,-00.998255
+174.966,+002.969,+007.010,-0.830,+0.204,+2.408,-28.0010,+04.0450,+07.5440,+00.852539,+00.244672,-00.689880
+174.330,+001.852,+007.306,-0.800,+0.180,+2.433,-26.6720,+09.1200,+16.2890,-00.305804,-02.337250,-00.165711
+174.331,-000.554,+007.802,-0.731,+0.209,+2.463,+18.2740,+05.2740,-27.4030,+00.738757,-01.706559,+00.715675
+175.562,-003.908,+008.477,-0.653,+0.228,+2.479,-04.7010,-14.7470,+08.2980,+00.437870,-03.396307,+00.891856
+174.827,-008.330,+008.708,-0.519,+0.222,+2.552,-07.4640,+01.2760,-23.1940,+00.024909,-03.940444,-00.056504
+174.264,-012.265,+008.887,-0.372,+0.215,+2.591,-15.5200,-05.9350,-15.1100,+00.418683,-02.476170,-00.121534
+173.950,-013.789,+008.867,-0.330,+0.213,+2.604,-02.1290,+01.8730,-09.6080,+00.091443,-00.917904,+00.086589
+173.883,-014.642,+008.979,-0.293,+0.200,+2.616,-03.0900,-01.2470,-10.5950,-00.037729,-00.650572,+00.026588
+173.898,-014.920,+008.869,-0.284,+0.220,+2.616,-03.2930,-01.8920,-09.7460,-00.068935,-00.151442,+00.025010
+173.922,-015.058,+008.788,-0.279,+0.202,+2.614,-02.4570,-01.1070,-09.1640,-00.064120,-00.098214,+00.054023
+173.923,-015.139,+008.745,-0.275,+0.210,+2.633,-02.4970,-01.0880,-09.2110,-00.022320,-00.063812,-00.005293
+173.909,-015.194,+008.718,-0.279,+0.205,+2.611,-02.5190,-01.4700,-09.0730,-00.040144,-00.037959,+00.006266
+173.950,-015.240,+008.634,-0.279,+0.197,+2.614,-02.4930,-01.4390,-09.0250,-00.075366,-00.033853,+00.050702
+174.019,-015.320,+008.519,-0.279,+0.175,+2.633,-02.4120,-01.4430,-09.0020,-00.091072,-00.076583,+00.077040
+174.097,-015.435,+008.387,-0.275,+0.195,+2.617,-02.4880,-01.3150,-08.9860,-00.101406,-00.096261,+00.077457
+174.166,-015.564,+008.260,-0.266,+0.192,+2.604,-02.5540,-01.2970,-08.9760,-00.094126,-00.107637,+00.070478
+174.231,-015.700,+008.135,-0.261,+0.175,+2.644,-02.6260,-01.2780,-09.0020,-00.090348,-00.104909,+00.075586
+174.318,-015.841,+008.000,-0.261,+0.180,+2.612,-02.6050,-01.2720,-08.9780,-00.099860,-00.113957,+00.099438
+174.439,-015.990,+007.851,-0.256,+0.197,+2.620,-02.6190,-01.2570,-08.9590,-00.104004,-00.117130,+00.133480
+174.596,-016.149,+007.698,-0.243,+0.170,+2.645,-02.6730,-01.1980,-08.9830,-00.087309,-00.117272,+00.158466
+174.777,-016.283,+007.554,-0.252,+0.190,+2.623,-02.7030,-01.0820,-08.9870,-00.088125,-00.079678,+00.156589
+174.943,-016.381,+007.392,-0.247,+0.168,+2.605,-02.6270,-01.1580,-08.9730,-00.108329,-00.061926,+00.158978
+175.145,-016.488,+007.173,-0.247,+0.165,+2.629,-02.5390,-01.1820,-08.9410,-00.168533,-00.086013,+00.187756
+175.388,-016.646,+006.885,-0.233,+0.160,+2.630,-02.7230,-01.2270,-08.9380,-00.187376,-00.135967,+00.233171
+175.636,-016.875,+006.621,-0.229,+0.163,+2.619,-02.7450,-01.0150,-08.9470,-00.156382,-00.204410,+00.218641
+175.787,-017.184,+006.381,-0.233,+0.165,+2.646,-02.7890,-00.9390,-08.9440,-00.189233,-00.301731,+00.110154
+175.761,-017.640,+006.157,-0.210,+0.135,+2.631,-02.8290,-01.0290,-08.9590,-00.194679,-00.464054,-00.027540
+175.570,-018.287,+005.992,-0.194,+0.125,+2.621,-02.8970,-00.9690,-08.9440,-00.190928,-00.638166,-00.150819
+175.170,-019.102,+005.917,-0.164,+0.106,+2.644,-02.9390,-00.7640,-09.0790,-00.161748,-00.802367,-00.302414
+174.592,-020.147,+006.008,-0.123,+0.130,+2.645,-02.7830,-00.8370,-08.9690,-00.047982,-01.046148,-00.407095
+173.927,-021.493,+006.331,-0.079,+0.124,+2.637,-02.5490,-00.9300,-09.1050,+00.155573,-01.349399,-00.401355
+173.116,-023.244,+006.966,-0.017,+0.143,+2.655,-03.9530,-01.1150,-08.9710,+00.363325,-01.790464,-00.569280
+171.955,-025.751,+008.017,+0.098,+0.182,+2.660,-04.1700,-01.5350,-08.8980,+00.565800,-02.622657,-00.607683
+170.543,-029.463,+009.422,+0.209,+0.166,+2.665,-02.5330,-01.6730,-09.9170,+00.674646,-03.909420,-00.605822
+168.939,-035.062,+011.299,+0.398,+0.198,+2.684,-02.8530,-01.4640,-09.9410,+01.158269,-05.762291,+00.113230
+167.787,-043.048,+013.609,+0.688,+0.278,+2.600,-03.8480,-00.8570,-14.1790,+01.685882,-07.696206,+01.242440
+166.518,-053.438,+016.695,+1.001,+0.324,+2.479,-06.3160,-02.1120,-15.6410,+01.822905,-09.428570,+01.881459
+164.483,-065.154,+020.571,+1.323,+0.344,+2.311,-13.8070,-05.4500,-14.4520,+01.625999,-10.216680,+02.423380
+158.761,-076.887,+028.115,+1.645,+0.369,+1.998,-09.8760,-03.8550,-17.8220,+01.623055,-09.908655,+03.001333
+133.186,-086.469,+053.868,+1.829,+0.292,+1.714,-19.8920,-02.3620,-43.9510,-00.372306,-05.938478,+02.836714
+145.954,-088.371,+040.874,+1.852,+0.262,+1.659,-03.5010,-06.4280,-38.8810,-00.062781,+01.417561,+01.244447
-175.380,-084.567,+002.340,+1.746,+0.293,+1.714,+00.7130,-03.3530,-14.0090,+00.108967,+04.329448,+00.524278
-172.397,-079.562,-000.698,+1.624,+0.267,+1.770,+01.3290,-02.6340,-04.9500,-00.273463,+04.331239,+00.188794
-172.627,-074.681,-001.383,+1.548,+0.251,+1.839,-00.0770,-03.0430,-07.0560,-01.078262,+04.280850,-00.074012
-173.870,-069.308,-001.585,+1.461,+0.287,+1.889,-02.8990,-02.3140,-12.1760,-01.145225,+05.069532,-00.291041
-175.493,-062.689,-000.979,+1.371,+0.300,+1.981,-04.7670,-02.1490,-10.6550,-00.527922,+06.148301,-00.529002
-177.118,-055.381,+000.141,+1.268,+0.334,+2.083,-05.4730,-02.6550,-07.7160,-00.114072,+06.432122,-00.779524
-178.642,-048.017,+001.263,+1.190,+0.394,+2.213,-06.9270,-01.6000,-10.2710,-00.022298,+06.448028,-00.942315
-179.735,-040.359,+002.152,+1.031,+0.439,+2.415,-08.3150,-00.2880,-11.4060,+00.209772,+06.775949,-00.805554
+179.809,-032.672,+002.983,+0.753,+0.499,+2.606,-08.6570,+00.1750,-07.5760,+00.643727,+06.544898,-00.493482
+179.879,-025.858,+004.050,+0.421,+0.532,+2.677,-09.4950,-00.6060,-07.1280,+01.155777,+05.499249,-00.236937
-179.976,-020.273,+005.383,+0.168,+0.586,+2.615,-12.3930,-02.7730,-17.6790,+01.305646,+04.696257,-00.301695
+179.976,-014.653,+006.872,+0.016,+0.589,+2.514,-15.1660,-04.6120,-17.5670,+01.282972,+04.874198,-00.756448
+179.378,-009.088,+008.246,-0.067,+0.649,+2.408,-18.4450,-04.3730,-15.1550,+00.935988,+04.652049,-01.376077
+178.332,-003.874,+009.143,-0.164,+0.684,+2.380,-21.0050,-02.9120,-11.8230,+00.509771,+04.169640,-01.657435
+177.111,+000.657,+009.363,-0.274,+0.661,+2.421,-23.2730,-03.4800,-05.7330,-00.020999,+03.402846,-01.728143
+175.578,+004.080,+009.077,-0.385,+0.662,+2.421,-24.7010,+00.5390,+00.8300,-00.122465,+02.287479,-01.810876
+174.225,+006.292,+009.444,-0.470,+0.645,+2.412,-27.4480,+03.6280,+02.8640,+00.621086,+01.406949,-01.221605
+173.322,+007.161,+010.077,-0.523,+0.668,+2.447,-25.6040,+02.6610,+07.7190,+00.522368,+00.038998,-00.754796
+172.552,+005.707,+009.917,-0.481,+0.688,+2.481,-22.2900,+06.2660,+18.0280,-00.750798,-02.784717,-00.015267
+172.006,+003.192,+008.931,-0.380,+0.670,+2.531,+21.7240,+05.2930,-27.5590,-00.193422,-01.975590,+00.211777
+173.251,-000.163,+008.493,-0.260,+0.652,+2.598,-03.5180,-02.3970,+03.7750,-00.757144,-03.175762,+01.568909
+173.319,-004.472,+008.692,-0.099,+0.709,+2.626,-08.0340,-05.8430,-16.6740,+00.051821,-03.716765,+00.142808
+172.752,-008.544,+009.295,+0.065,+0.742,+2.673,-04.0470,+01.6090,-12.7500,+00.675803,-03.684748,+00.264503
+172.148,-012.457,+009.256,+0.224,+0.736,+2.720,-20.2420,-07.7680,-21.9130,-00.464766,-02.353551,-00.224630
+171.855,-013.754,+008.615,+0.279,+0.706,+2.702,-03.2500,+01.5390,-11.8480,-00.074647,-00.714881,+00.151959
+171.901,-014.554,+008.360,+0.311,+0.722,+2.706,-03.3000,-00.6980,-09.5650,-00.263486,-00.589292,+00.142096
+172.031,-015.027,+007.973,+0.339,+0.690,+2.737,-02.7210,-01.1940,-09.2870,-00.341978,-00.265606,+00.187938
+172.235,-015.304,+007.555,+0.343,+0.685,+2.699,-02.5460,-00.5200,-09.2830,-00.267253,-00.195402,+00.188791
+172.313,-015.517,+007.334,+0.357,+0.697,+2.719,-02.8220,-00.8580,-09.1730,-00.127519,-00.168073,+00.025923
+172.293,-015.696,+007.239,+0.362,+0.705,+2.748,-02.4950,-01.0060,-09.0990,-00.095906,-00.143140,+00.003105
+172.311,-015.864,+007.058,+0.375,+0.670,+2.712,-02.4930,-01.3580,-09.0400,-00.198763,-00.156571,+00.063030
+172.441,-016.082,+006.689,+0.382,+0.668,+2.728,-02.4970,-01.3240,-09.0830,-00.350561,-00.190596,+00.174825
+172.705,-016.307,+006.186,+0.394,+0.665,+2.739,-02.6660,-01.2630,-08.9760,-00.379794,-00.147417,+00.272394
+173.030,-016.475,+005.704,+0.389,+0.670,+2.723,-02.6400,-00.8910,-08.9940,-00.319950,-00.104840,+00.282024
+173.346,-016.617,+005.259,+0.403,+0.611,+2.732,-02.6580,-00.6830,-08.9890,-00.326527,-00.101208,+00.268201
+173.643,-016.767,+004.789,+0.398,+0.621,+2.756,-02.8000,-00.7380,-09.0050,-00.336476,-00.111362,+00.255728
+173.947,-016.932,+004.338,+0.408,+0.587,+2.740,-02.8680,-00.7470,-08.9910,-00.296859,-00.128552,+00.268335
+174.293,-017.111,+003.942,+0.426,+0.564,+2.741,-02.8300,-00.6490,-09.0070,-00.237434,-00.140454,+00.316857
+174.669,-017.303,+003.594,+0.431,+0.616,+2.747,-02.9200,-00.5570,-08.9720,-00.187283,-00.153370,+00.315268
+175.017,-017.519,+003.291,+0.449,+0.552,+2.732,-02.8370,-00.4790,-09.0040,-00.171515,-00.185680,+00.301413
+175.354,-017.784,+002.982,+0.451,+0.549,+2.724,-02.7140,-00.1230,-09.0500,-00.194631,-00.236040,+00.267591
+175.645,-018.130,+002.667,+0.458,+0.527,+2.754,-03.0440,-00.2980,-08.9530,-00.194544,-00.321386,+00.242185
+175.846,-018.583,+002.392,+0.490,+0.546,+2.739,-03.0050,-00.2410,-08.9320,-00.179723,-00.426819,+00.152728
+175.931,-019.177,+002.176,+0.509,+0.522,+2.737,-02.9600,-00.1440,-08.8860,-00.158437,-00.575388,+00.042594
+175.828,-019.921,+002.035,+0.532,+0.526,+2.757,-03.2550,-00.2170,-08.9320,-00.141929,-00.697511,-00.127202
+175.502,-020.807,+001.951,+0.560,+0.570,+2.736,-02.6050,-00.2770,-09.0060,-00.193327,-00.837895,-00.302510
+175.034,-021.923,+001.911,+0.606,+0.511,+2.728,-03.0490,-00.2450,-08.8940,-00.168332,-01.093612,-00.373111
+174.549,-023.343,+002.042,+0.642,+0.501,+2.757,-04.4750,-00.4820,-08.8300,+00.036624,-01.384317,-00.377889
+174.036,-025.216,+002.477,+0.721,+0.524,+2.706,-03.7800,-00.3630,-09.0630,+00.292548,-01.840289,-00.383905
+173.250,-027.897,+003.327,+0.794,+0.546,+2.688,-03.8770,-00.7770,-09.2780,+00.499333,-02.767031,-00.528981
+172.298,-031.962,+004.402,+0.923,+0.561,+2.661,-03.1470,-01.3870,-09.7950,+00.498977,-04.162988,-00.458807
+171.212,-038.072,+005.409,+1.126,+0.583,+2.552,-00.6310,-02.4760,-10.7050,+00.203750,-06.185512,-00.090288
+170.834,-046.784,+005.864,+1.386,+0.592,+2.419,-05.4940,-01.2140,-12.7250,+00.159404,-08.343488,+00.890454
+171.789,-057.605,+006.173,+1.683,+0.542,+2.229,-06.9420,+00.9710,-12.0410,+01.053812,-09.804026,+01.662724
+174.136,-069.335,+005.489,+1.968,+0.517,+1.904,-14.7750,+00.6980,-15.6540,+01.615532,-10.366920,+02.183899
-178.310,-080.918,+000.250,+2.163,+0.472,+1.578,-09.5060,-01.7740,-23.0140,+01.585692,-09.943223,+02.302851
-106.651,-087.248,-070.731,+2.266,+0.379,+1.377,-34.4460,-06.8310,-55.5570,-00.153111,-03.433409,+01.865607
-105.185,-085.649,-072.527,+2.183,+0.322,+1.497,-02.8140,-03.7440,-31.4220,+00.117158,+01.918419,+01.142805
-134.513,-082.788,-042.597,+1.976,+0.339,+1.667,+00.3970,-03.0310,-11.7340,+00.865786,+03.936247,+00.424301
-150.470,-078.817,-025.883,+1.737,+0.328,+1.804,+01.2220,-02.7040,-04.9780,+00.715131,+04.095847,-00.079216
-159.450,-074.600,-016.920,+1.539,+0.339,+1.779,-00.2880,-03.7710,-07.6500,-00.189594,+04.111591,-00.514414
-166.469,-069.653,-011.041,+1.451,+0.313,+1.743,-03.0200,-03.2290,-12.1490,-00.872198,+05.037465,-00.925025
-172.267,-063.373,-006.458,+1.433,+0.297,+1.834,-04.9170,-01.7230,-11.4300,-00.434851,+06.089546,-01.293803
-176.746,-056.153,-002.697,+1.383,+0.357,+1.954,-05.8270,-00.7730,-08.7520,+00.051583,+06.553637,-01.525433
-179.897,-048.545,+000.005,+1.302,+0.413,+2.173,-07.3490,+00.7120,-10.6000,+00.245472,+06.756022,-01.484418
+178.160,-040.558,+001.822,+1.153,+0.484,+2.442,-09.2460,+01.2990,-11.5990,+00.455000,+07.044100,-01.209355
+177.194,-032.511,+002.999,+0.841,+0.616,+2.722,-09.9540,+02.0030,-09.2390,+00.572291,+06.917936,-00.801056
+177.032,-025.145,+003.911,+0.408,+0.725,+2.847,-10.9910,+02.5990,-07.8670,+00.947004,+05.965830,-00.343459
+177.303,-019.100,+005.011,+0.016,+0.748,+2.760,-12.6950,+02.3340,-18.9690,+01.103054,+05.038250,-00.043884
+178.074,-013.086,+006.294,-0.265,+0.823,+2.559,-15.2400,+00.2540,-20.4040,+01.409017,+05.395232,+00.181915
+178.830,-007.108,+007.536,-0.428,+0.827,+2.415,-17.8390,-04.4660,-15.2710,+00.943990,+05.096447,-00.145286
+179.075,-001.722,+007.977,-0.569,+0.801,+2.321,-18.9890,-05.0370,-10.0830,+00.146714,+04.407259,-00.565470
+178.929,+002.764,+008.192,-0.680,+0.772,+2.188,-20.4750,-02.9290,-06.5290,+00.371896,+03.544616,-00.730475
+178.484,+006.436,+009.233,-0.705,+0.803,+2.090,-22.2100,+01.5680,-03.9990,+01.283698,+02.861385,-00.922628
+178.020,+009.234,+010.387,-0.749,+0.801,+2.077,-24.4650,+00.7410,+03.8200,+00.708087,+01.904331,-00.762871
+177.210,+010.371,+010.393,-0.740,+0.762,+2.035,-26.4380,+02.0950,+10.4690,-00.082593,+00.152972,-00.949559
+175.962,+009.452,+010.051,-0.701,+0.749,+2.042,-26.7930,+03.3510,+06.4560,-00.086713,-01.583659,-00.831033
+174.586,+007.247,+009.271,-0.643,+0.707,+2.093,+14.3620,-04.9090,-29.8640,-00.925836,-02.050394,-00.851808
+174.968,+004.679,+008.811,-0.551,+0.706,+2.092,+03.0070,+06.3150,-00.7410,-00.127313,-02.702719,+01.620644
+175.224,+000.444,+008.212,-0.417,+0.692,+2.130,-10.0470,+05.5800,-07.4680,-00.032494,-03.983147,+00.500073
+175.170,-003.729,+008.424,-0.284,+0.679,+2.168,-03.6480,+01.5550,-14.8600,+00.511566,-03.317321,+00.465064
+175.013,-007.663,+009.486,-0.155,+0.683,+2.152,-05.4060,-08.3900,-13.2660,+00.780726,-03.441853,+00.311403
+174.335,-011.589,+009.464,-0.031,+0.669,+2.150,-13.0530,-04.2130,-24.7420,-00.792586,-02.934882,-00.088738
+174.183,-013.385,+008.042,+0.020,+0.617,+2.182,-04.1270,+00.1460,-12.9860,-00.783580,-01.170613,+00.278235
+174.344,-014.284,+007.283,+0.048,+0.632,+2.172,-03.2070,+00.3180,-10.6950,-00.483727,-00.605526,+00.234719
+174.576,-014.920,+006.805,+0.068,+0.617,+2.181,-03.2410,-01.1080,-11.0180,-00.380887,-00.415650,+00.322437
+174.910,-015.295,+006.292,+0.085,+0.568,+2.223,-02.8280,-00.3460,-09.0830,-00.332045,-00.264720,+00.267356
+175.045,-015.595,+006.042,+0.094,+0.587,+2.175,-02.8730,-00.7110,-09.2050,-00.107426,-00.212568,+00.081023
+175.054,-015.787,+005.982,+0.110,+0.582,+2.192,-02.6140,-00.3420,-09.0580,-00.032575,-00.142201,-00.015100
+174.992,-015.914,+005.963,+0.103,+0.562,+2.218,-02.5280,-01.1440,-09.0560,-00.047254,-00.112107,-00.038111
+174.977,-016.064,+005.854,+0.117,+0.587,+2.154,-02.5520,-01.2890,-08.9520,-00.130109,-00.142326,+00.035626
+175.055,-016.228,+005.631,+0.121,+0.557,+2.192,-02.6980,-00.7980,-09.1050,-00.189830,-00.127953,+00.093810
+175.169,-016.369,+005.376,+0.140,+0.547,+2.209,-02.7480,-00.9500,-09.1610,-00.185378,-00.097890,+00.114085
+175.324,-016.467,+005.111,+0.131,+0.567,+2.198,-02.7400,-00.7780,-09.0530,-00.193387,-00.065526,+00.145795
+175.482,-016.548,+004.854,+0.144,+0.557,+2.183,-02.8530,-00.7830,-09.0600,-00.176650,-00.053332,+00.133225
+175.654,-016.625,+004.595,+0.130,+0.523,+2.214,-02.7460,-00.6610,-08.9630,-00.189748,-00.059164,+00.162750
+175.880,-016.721,+004.305,+0.144,+0.528,+2.204,-02.7360,-00.6990,-08.9600,-00.197124,-00.076892,+00.211451
+176.155,-016.849,+004.012,+0.149,+0.550,+2.188,-02.7540,-00.7140,-08.9730,-00.180549,-00.101920,+00.259627
+176.487,-017.003,+003.716,+0.149,+0.523,+2.231,-02.7160,-00.5670,-08.9720,-00.174988,-00.127473,+00.297607
+176.848,-017.194,+003.429,+0.149,+0.547,+2.188,-02.7400,-00.4570,-09.0050,-00.147576,-00.164385,+00.311495
+177.162,-017.408,+003.192,+0.172,+0.539,+2.184,-02.6340,-00.3170,-09.1220,-00.116450,-00.177674,+00.234687
+177.352,-017.680,+002.990,+0.172,+0.498,+2.232,-02.8440,-00.3670,-09.0040,-00.136850,-00.263557,+00.128179
+177.429,-018.081,+002.796,+0.190,+0.527,+2.190,-02.8320,-00.3670,-08.9630,-00.158411,-00.400370,+00.054219
+177.428,-018.694,+002.574,+0.209,+0.500,+2.194,-03.0420,-00.6200,-08.9130,-00.214147,-00.626274,+00.007898
+177.359,-019.566,+002.354,+0.223,+0.492,+2.213,-02.7860,-00.3460,-08.9740,-00.210391,-00.840898,-00.053737
+177.194,-020.684,+002.206,+0.255,+0.512,+2.204,-02.7920,-00.2680,-09.0770,-00.150078,-01.070525,-00.129736
+176.857,-022.084,+002.270,+0.299,+0.511,+2.192,-03.4440,-00.1390,-09.1810,+00.045555,-01.349146,-00.274768
+176.229,-023.995,+002.783,+0.333,+0.491,+2.202,-03.1800,-00.5180,-09.1960,+00.329833,-01.945146,-00.512434
+175.420,-026.767,+003.660,+0.416,+0.525,+2.189,-04.1760,-00.7870,-09.1940,+00.539438,-02.804797,-00.510972
+174.119,-030.799,+004.869,+0.517,+0.541,+2.161,-01.5360,-00.8440,-10.2270,+00.458007,-04.079019,-00.858441
+172.467,-036.749,+006.338,+0.674,+0.542,+2.147,-01.6550,-01.5770,-10.2280,+00.478684,-06.041806,-00.491579
+171.203,-045.035,+008.067,+0.909,+0.598,+2.055,-05.5460,+02.5100,-13.9400,+01.245378,-07.957562,+00.462910
+170.134,-055.538,+010.216,+1.160,+0.599,+1.895,-05.6270,-02.1920,-14.0090,+01.335312,-09.662663,+01.235704
+169.360,-067.156,+012.577,+1.415,+0.605,+1.691,-13.3450,-00.2680,-13.5400,+01.552012,-10.040690,+01.804034
+166.142,-078.757,+017.463,+1.659,+0.597,+1.402,-10.7220,-02.9620,-22.3010,+01.184521,-10.089390,+01.928616
+161.212,-087.572,+022.155,+1.831,+0.542,+1.182,-22.0720,-03.0450,-53.0050,-00.888837,-04.073740,+02.090286
-170.295,-085.693,-006.400,+1.907,+0.500,+1.231,-01.3070,-02.1140,-30.1610,+00.565775,+03.385984,+01.111608
-168.298,-080.507,-007.576,+1.916,+0.516,+1.451,+01.6780,-02.5610,-06.8660,+00.616951,+04.643481,+00.604110
-169.008,-075.503,-006.667,+1.900,+0.512,+1.630,+01.4230,-03.9060,-01.4940,-00.187607,+04.097655,+00.244089
-170.816,-070.999,-005.798,+1.871,+0.513,+1.841,-00.5560,-04.0330,-09.0270,-00.977207,+04.067522,-00.185105
-173.556,-065.615,-004.330,+1.761,+0.520,+2.082,-02.9080,-02.6380,-12.1310,-00.803651,+05.218560,-00.631810
-176.446,-059.125,-002.269,+1.535,+0.519,+2.346,-04.3370,-01.6050,-08.3570,-00.261539,+05.916421,-00.917530
-178.687,-052.282,-000.523,+1.181,+0.519,+2.555,-05.2640,-00.5560,-07.4450,-00.006544,+05.990178,-00.955264
+179.800,-045.385,+000.638,+0.789,+0.474,+2.560,-06.4780,+00.7340,-10.3430,+00.017987,+06.060613,-00.778830
+179.225,-038.296,+001.153,+0.547,+0.439,+2.464,-07.8520,+01.4480,-11.6720,+00.175374,+06.254050,-00.270991
+179.489,-031.165,+001.446,+0.393,+0.364,+2.425,-08.7730,+00.9030,-08.0010,+00.538667,+06.075128,+00.220475
-179.831,-024.993,+002.043,+0.328,+0.335,+2.407,-09.2120,-00.4560,-08.7510,+00.933595,+04.911071,+00.398082
-179.072,-019.538,+003.258,+0.306,+0.392,+2.456,-12.8740,-03.1230,-21.3560,+01.466946,+04.989977,+00.318833
-178.732,-013.592,+004.764,+0.163,+0.544,+2.628,-15.5700,-05.2790,-17.9060,+01.279848,+05.194258,-00.370618
-179.167,-007.652,+005.922,-0.164,+0.651,+2.688,-19.0520,-03.5200,-15.6010,+00.744914,+05.068906,-01.096966
+179.981,-002.038,+006.574,-0.456,+0.678,+2.613,-20.2040,-01.0140,-09.3950,+00.413270,+04.541360,-01.322339
+178.929,+002.668,+006.940,-0.661,+0.670,+2.500,-21.5900,-00.9350,-04.9700,+00.269036,+03.611172,-01.457530
+177.588,+006.284,+007.041,-0.795,+0.661,+2.371,-23.6990,+03.7250,-01.5410,+00.216926,+02.623067,-01.517676
+176.547,+008.735,+007.156,-0.862,+0.636,+2.304,-24.8450,+05.2620,+04.3490,+00.216710,+01.595410,-00.948335
+175.804,+009.537,+007.321,-0.892,+0.656,+2.302,-23.6550,+04.2400,+07.4280,+00.216270,-00.004029,-00.653617
+175.045,+008.439,+007.087,-0.873,+0.612,+2.298,-21.4340,+10.3270,+14.1520,-00.469905,-01.871997,-00.211357
+175.176,+005.921,+007.152,-0.800,+0.602,+2.323,+22.1880,+09.0160,-19.3630,+00.496129,-02.125701,+01.088090
+177.050,+002.275,+007.673,-0.694,+0.625,+2.349,-05.7650,-11.7990,-01.9520,+00.253050,-03.237293,+01.771797
+176.961,-001.637,+007.806,-0.574,+0.644,+2.397,-07.2340,-04.1310,-15.6330,+00.081599,-03.476163,-00.033321
+176.387,-005.567,+008.459,-0.468,+0.650,+2.409,-02.6590,+01.9020,-09.7320,+00.942029,-03.573279,+00.085460
+175.925,-010.413,+009.636,-0.320,+0.651,+2.445,-01.2240,-09.2020,-17.7610,+00.485204,-04.798575,+00.234215
+175.462,-013.179,+008.675,-0.228,+0.631,+2.455,-01.5840,+03.6390,-10.1790,-01.030755,-01.552664,+00.043799
+175.537,-014.263,+008.116,-0.198,+0.621,+2.475,-03.2440,-02.4950,-10.5330,-00.501842,-00.770106,+00.204793
+175.614,-014.810,+007.789,-0.173,+0.591,+2.506,-03.4450,-01.0110,-10.5120,-00.156635,-00.357541,+00.062796
+175.608,-015.112,+007.568,-0.168,+0.596,+2.474,-02.2580,-00.6400,-09.1720,-00.179915,-00.231548,+00.042397
+175.652,-015.365,+007.348,-0.152,+0.591,+2.483,-02.3140,-01.0710,-08.8940,-00.177719,-00.215586,+00.078213
+175.725,-015.578,+007.127,-0.141,+0.556,+2.497,-02.6790,-01.1100,-09.1600,-00.163277,-00.144627,+00.079646
+175.811,-015.722,+006.942,-0.141,+0.576,+2.481,-02.8650,-01.1120,-09.2370,-00.146787,-00.090018,+00.087542
+175.893,-015.817,+006.752,-0.139,+0.574,+2.491,-02.7040,-00.9500,-09.0280,-00.138398,-00.075613,+00.072849
+175.940,-015.912,+006.616,-0.136,+0.556,+2.513,-02.5550,-01.0680,-08.9780,-00.097720,-00.071847,+00.039274
+175.977,-015.993,+006.490,-0.136,+0.581,+2.481,-02.6940,-00.9260,-09.0660,-00.101913,-00.060049,+00.029511
+175.990,-016.047,+006.382,-0.132,+0.561,+2.487,-02.6830,-01.0070,-09.0330,-00.089714,-00.035269,+00.011903
+176.025,-016.070,+006.238,-0.132,+0.547,+2.508,-02.6270,-01.1140,-09.0150,-00.151447,-00.010280,+00.053670
+176.158,-016.101,+005.970,-0.132,+0.546,+2.476,-02.5540,-01.1210,-09.0100,-00.226734,-00.023227,+00.153690
+176.403,-016.159,+005.629,-0.132,+0.544,+2.484,-02.6430,-00.9060,-09.0650,-00.236459,-00.029805,+00.231751
+176.691,-016.223,+005.281,-0.122,+0.527,+2.509,-02.7020,-00.7970,-09.0270,-00.228482,-00.037298,+00.252715
+176.989,-016.301,+004.954,-0.113,+0.536,+2.482,-02.7540,-00.7840,-08.9630,-00.208533,-00.048878,+00.248965
+177.303,-016.391,+004.626,-0.113,+0.524,+2.488,-02.7010,-00.7610,-08.9320,-00.213727,-00.063090,+00.282587
+177.671,-016.499,+004.285,-0.109,+0.512,+2.520,-02.6340,-00.7240,-09.0380,-00.201185,-00.075354,+00.333406
+178.073,-016.639,+003.949,-0.109,+0.517,+2.499,-02.6340,-00.6010,-08.9990,-00.189806,-00.111224,+00.344130
+178.452,-016.822,+003.636,-0.097,+0.514,+2.491,-02.7420,-00.5850,-08.9850,-00.164856,-00.156995,+00.310361
+178.767,-017.050,+003.363,-0.095,+0.492,+2.532,-02.5550,-00.3540,-09.0990,-00.165294,-00.193167,+00.253997
+178.990,-017.372,+003.083,-0.086,+0.487,+2.505,-02.7930,-00.3320,-08.9970,-00.193815,-00.322833,+00.173415
+179.096,-017.874,+002.825,-0.072,+0.489,+2.503,-02.7980,-00.4200,-08.9790,-00.200077,-00.507692,+00.071532
+179.045,-018.624,+002.609,-0.053,+0.462,+2.528,-02.9650,-00.4110,-09.0260,-00.203112,-00.763601,-00.066412
+178.844,-019.724,+002.464,-0.007,+0.496,+2.541,-02.8580,-00.3920,-09.0420,-00.171711,-01.091580,-00.143415
+178.456,-021.276,+002.438,+0.036,+0.471,+2.513,-03.5250,-00.5510,-09.1350,-00.118290,-01.563649,-00.361874
+177.868,-023.466,+002.758,+0.103,+0.466,+2.540,-04.2640,-00.7030,-09.1610,+00.208392,-02.185442,-00.439471
+177.051,-026.493,+003.534,+0.200,+0.479,+2.528,-03.1680,-00.4890,-09.6460,+00.456623,-03.020139,-00.583786
+175.779,-030.841,+004.599,+0.336,+0.525,+2.515,-01.3640,-00.8960,-09.9260,+00.324530,-04.434570,-00.742929
+174.504,-037.253,+005.575,+0.541,+0.505,+2.506,-01.9510,-00.8100,-09.9030,+00.165230,-06.450262,-00.134458
+173.972,-046.038,+006.034,+0.831,+0.526,+2.384,-04.8460,+00.5050,-14.8890,+00.290602,-08.338495,+00.815617
+174.299,-056.986,+006.377,+1.148,+0.520,+2.240,-06.5130,-01.3350,-13.3850,+00.871753,-10.034090,+01.508320
+176.367,-068.719,+005.556,+1.457,+0.504,+2.021,-13.2620,+00.8570,-14.5390,+01.203094,-10.129220,+02.139313
-175.924,-080.300,-000.057,+1.737,+0.504,+1.674,-10.9240,-02.6110,-24.9700,+01.485171,-09.928401,+02.485209
-127.129,-086.111,-047.617,+1.891,+0.420,+1.432,-23.1720,-06.7810,-65.6230,+00.518769,-01.689609,+02.126965
-132.989,-083.291,-040.733,+1.902,+0.403,+1.468,+01.0300,-05.9360,-22.4380,+01.117465,+03.056523,+01.208407
-144.922,-079.281,-028.130,+1.893,+0.413,+1.569,+01.8720,-05.2650,-08.3270,+00.422230,+03.992373,+00.419968
-153.101,-075.080,-020.144,+1.882,+0.382,+1.660,+00.8610,-05.4350,-05.8360,-00.225821,+03.949852,-00.194939
-160.107,-070.569,-014.040,+1.894,+0.390,+1.810,-02.0150,-04.7640,-12.5280,-00.653673,+04.652785,-00.784274
-166.426,-064.628,-008.934,+1.857,+0.382,+2.104,-03.6960,-02.3760,-11.7050,-00.545134,+05.934957,-01.148674
-171.233,-057.681,-004.987,+1.687,+0.445,+2.473,-04.7220,-00.4540,-07.4980,-00.046431,+06.351228,-01.306255
-174.509,-050.509,-002.086,+1.356,+0.513,+2.761,-05.4620,+00.8200,-07.8750,+00.348548,+06.319321,-01.259927
-176.609,-043.231,+000.108,+0.961,+0.646,+2.893,-07.1250,+01.5470,-11.2600,+00.674992,+06.451231,-01.053639
-177.710,-035.742,+001.623,+0.627,+0.733,+2.953,-07.7450,+02.1060,-08.6550,+00.713395,+06.500319,-00.680604
-177.903,-028.817,+002.773,+0.298,+0.746,+3.034,-08.5310,+02.6800,-05.2820,+01.112229,+05.612221,-00.200376
-177.621,-023.320,+004.089,-0.071,+0.789,+3.023,-10.0800,+02.4580,-14.4840,+01.324000,+04.421455,+00.061415
-176.812,-017.970,+005.320,-0.460,+0.709,+2.830,-12.0690,+00.0700,-17.7880,+01.237868,+04.805604,+00.341451
-175.971,-012.887,+006.390,-0.643,+0.586,+2.469,-14.4550,-03.0910,-15.6150,+01.097144,+04.302310,+00.111886
-175.777,-008.101,+007.498,-0.551,+0.358,+2.234,-17.4580,-05.6280,-17.1650,+00.911323,+04.129528,-00.624793
-176.352,-003.149,+008.293,-0.450,+0.303,+2.247,-20.1810,-04.5600,-13.5020,+00.558849,+04.231604,-01.338684
-177.486,+001.667,+008.971,-0.478,+0.377,+2.360,-21.2860,-02.1690,-06.5840,+00.588747,+03.783472,-01.723554
-178.882,+005.726,+009.522,-0.611,+0.512,+2.418,-22.3080,+02.5600,-03.1790,+00.645307,+03.029501,-01.720017
-179.999,+008.781,+010.017,-0.753,+0.577,+2.403,-22.9710,+02.4920,+05.2910,+00.427285,+01.990674,-01.228065
+178.902,+010.027,+010.276,-0.836,+0.612,+2.444,-23.0730,+01.7640,+06.9290,+00.436322,+00.261018,-01.111570
+177.530,+009.490,+010.583,-0.855,+0.637,+2.476,-21.1190,-01.1030,+15.4380,+00.383415,-01.594651,-00.835112
+175.610,+006.907,+008.817,-0.795,+0.573,+2.575,+20.3710,+07.2610,-22.9610,-00.757476,-02.189185,-01.250526
+175.218,+002.805,+008.066,-0.693,+0.543,+2.698,-04.2200,+11.7070,-05.4710,-00.378990,-04.086306,+00.723455
+175.000,-001.760,+007.811,-0.523,+0.581,+2.796,-09.0620,+04.3980,-14.0090,-00.355003,-04.002079,+00.307994
+174.642,-005.632,+008.212,-0.380,+0.622,+2.858,-04.2910,-04.6490,-12.9790,+00.552220,-03.172643,-00.028568
+173.909,-009.139,+009.006,-0.255,+0.643,+2.931,-05.0470,-04.1230,-13.7730,+00.390463,-03.066972,-00.210860
+173.219,-012.611,+008.761,-0.108,+0.696,+2.985,-11.6030,-02.5160,-22.7400,-00.510078,-02.471574,-00.031917
+173.089,-014.661,+008.194,-0.034,+0.651,+2.986,-05.2330,-03.2850,-11.4950,-00.302743,-01.345257,+00.271231
+173.282,-015.599,+007.641,+0.003,+0.631,+3.017,-02.9750,+00.2770,-08.7490,-00.348528,-00.509558,+00.265922
+173.613,-016.084,+007.054,+0.030,+0.631,+2.981,-02.3310,-00.9430,-09.4430,-00.458281,-00.362396,+00.415926
+174.035,-016.478,+006.409,+0.046,+0.592,+3.011,-03.1830,-01.2070,-08.9800,-00.450859,-00.271559,+00.329399
+174.340,-016.737,+005.897,+0.049,+0.587,+3.030,-02.8520,-00.7660,-09.0320,-00.325638,-00.152861,+00.253445
+174.580,-016.870,+005.515,+0.053,+0.611,+3.019,-02.7660,-00.3280,-09.0040,-00.238137,-00.067890,+00.177147
+174.731,-016.983,+005.228,+0.065,+0.577,+3.023,-02.8550,-00.9410,-09.0320,-00.201122,-00.107910,+00.119300
+174.852,-017.117,+004.987,+0.067,+0.542,+3.037,-02.8930,-00.7220,-08.9160,-00.165512,-00.101505,+00.109791
+174.984,-017.242,+004.764,+0.072,+0.567,+3.021,-02.7940,-00.5050,-09.0230,-00.148864,-00.090643,+00.122414
+175.110,-017.333,+004.582,+0.083,+0.559,+3.018,-02.8960,-00.8000,-08.9790,-00.119387,-00.065524,+00.110358
+175.258,-017.418,+004.393,+0.076,+0.547,+3.048,-02.8510,-00.7560,-08.9550,-00.129542,-00.063775,+00.138611
+175.452,-017.512,+004.184,+0.081,+0.552,+3.021,-02.7050,-00.7420,-08.9950,-00.134215,-00.078794,+00.190243
+175.718,-017.633,+003.944,+0.095,+0.542,+3.035,-02.8860,-00.5280,-08.9250,-00.137927,-00.095676,+00.240087
+175.996,-017.757,+003.716,+0.099,+0.508,+3.049,-02.9140,-00.5090,-08.8950,-00.116947,-00.090278,+00.239987
+176.284,-017.866,+003.511,+0.099,+0.517,+3.033,-03.0230,-00.3830,-08.9270,-00.092541,-00.073848,+00.244985
+176.588,-017.971,+003.324,+0.111,+0.539,+3.028,-02.9730,-00.4280,-08.8590,-00.074052,-00.077928,+00.262122
+176.904,-018.083,+003.145,+0.122,+0.537,+3.055,-02.8770,-00.4610,-08.9020,-00.070951,-00.089328,+00.273355
+177.270,-018.230,+002.942,+0.122,+0.522,+3.050,-02.9820,-00.4990,-08.8450,-00.081531,-00.122947,+00.333691
+177.673,-018.407,+002.729,+0.127,+0.512,+3.037,-03.0440,-00.2620,-08.8520,-00.067372,-00.144867,+00.332265
+178.014,-018.607,+002.546,+0.141,+0.498,+3.067,-03.1440,-00.0620,-08.8340,-00.065068,-00.170984,+00.247846
+178.170,-018.844,+002.414,+0.155,+0.517,+3.030,-02.7720,-00.1090,-09.0350,-00.076281,-00.222944,+00.056942
+177.974,-019.112,+002.394,+0.164,+0.502,+3.044,-03.3680,+00.0150,-08.8380,-00.069117,-00.295654,-00.243335
+177.472,-019.560,+002.469,+0.168,+0.482,+3.052,-02.8420,-00.4460,-09.0440,-00.092158,-00.514090,-00.446112
+176.852,-020.378,+002.601,+0.215,+0.516,+3.043,-02.8980,-00.5000,-09.0980,-00.049209,-00.891831,-00.498324
+176.057,-021.638,+002.855,+0.256,+0.513,+3.045,-03.2480,-00.3330,-09.2290,-00.000950,-01.250057,-00.633358
+175.068,-023.471,+003.430,+0.330,+0.530,+3.070,-03.9120,-00.7820,-09.2820,+00.282808,-01.860673,-00.706075
+173.822,-026.017,+004.460,+0.436,+0.558,+3.042,-03.3920,-00.9240,-09.3970,+00.516913,-02.562643,-00.919631
+172.144,-029.646,+005.909,+0.560,+0.584,+3.012,-02.7330,-01.4300,-09.8890,+00.603963,-03.835218,-01.016209
+170.625,-035.358,+007.432,+0.753,+0.609,+2.970,-01.7490,-02.4880,-10.1220,+00.636264,-05.858268,-00.144762
+169.963,-043.557,+008.476,+1.071,+0.644,+2.860,-04.2040,+00.3170,-14.3430,+00.828808,-07.881426,+01.087383
+169.909,-054.025,+009.849,+1.419,+0.679,+2.680,-07.2510,-00.5850,-12.1410,+01.519641,-09.591814,+01.592264
+170.105,-065.481,+011.869,+1.752,+0.714,+2.439,-10.6230,-00.2970,-11.5960,+02.106948,-09.971772,+02.168351
+171.615,-076.853,+013.655,+2.060,+0.724,+2.062,-09.6240,-02.0460,-22.8500,+02.870780,-09.492431,+02.829618
-175.805,-085.230,+002.817,+2.205,+0.694,+1.808,-12.9270,-12.9400,-46.4870,-00.001877,-03.711129,+02.161306
-171.430,-083.406,-000.735,+2.083,+0.708,+1.940,+02.1960,-11.0160,-23.8350,+00.514711,+02.666144,-00.249785
-177.477,-079.450,+005.496,+1.835,+0.809,+2.073,+02.7180,-03.6860,-07.5070,+00.114528,+03.587727,-01.183943
+178.050,-075.197,+009.622,+1.607,+0.814,+2.119,+01.0800,-00.9630,-06.8890,-00.460930,+03.586637,-01.386482
+176.016,-070.437,+010.607,+1.407,+0.790,+2.188,-01.0380,+01.3340,-12.0230,-01.033956,+04.337673,-01.125724
+176.178,-064.509,+009.273,+1.250,+0.737,+2.192,-02.9270,+03.5850,-13.2480,-00.933825,+05.565831,-00.642994
+177.493,-057.536,+007.422,+1.123,+0.692,+2.238,-04.1530,+03.7090,-09.7140,-00.433704,+06.320442,-00.145839
+179.052,-050.280,+005.851,+1.057,+0.637,+2.318,-04.7980,+02.1690,-07.6520,-00.203822,+06.343728,+00.148105
-179.684,-043.074,+004.716,+1.001,+0.628,+2.498,-06.1870,+00.5560,-11.7760,-00.226211,+06.390302,+00.156852
-178.727,-035.608,+003.868,+0.776,+0.590,+2.762,-07.6070,+00.7790,-10.3040,-00.168529,+06.581430,+00.171142
-177.949,-028.550,+003.363,+0.376,+0.588,+2.964,-08.3280,+00.1770,-07.6070,-00.040406,+05.819912,+00.197752
-177.386,-022.758,+003.213,-0.039,+0.680,+2.913,-08.9110,-02.0480,-13.8980,+00.204765,+04.666443,+00.102148
-177.276,-017.147,+003.616,-0.327,+0.773,+2.763,-11.3370,-06.0010,-21.0110,+00.430705,+05.123143,-00.444571
-178.044,-011.187,+004.276,-0.509,+0.772,+2.613,-13.9420,-08.5430,-17.2870,+00.419445,+05.104642,-01.390818
-179.957,-005.379,+004.903,-0.666,+0.749,+2.515,-16.5550,-09.3760,-14.5630,+00.212671,+04.760559,-02.412347
+177.276,-000.081,+004.936,-0.783,+0.673,+2.446,-19.1690,-09.1830,-10.9290,-00.206531,+04.172800,-02.989315
+174.011,+004.545,+004.689,-0.896,+0.583,+2.421,-19.9280,-06.3660,-05.3360,+00.071977,+03.521999,-03.247716
+170.727,+008.259,+005.406,-1.016,+0.560,+2.341,-20.9210,+00.1980,-01.8530,+01.626467,+02.666713,-02.922409
+167.920,+010.814,+007.486,-1.094,+0.595,+2.307,-22.3970,-03.3990,+02.6140,+02.371923,+01.453794,-02.572508
+164.741,+011.941,+009.436,-1.136,+0.565,+2.282,-22.9460,-05.5980,+03.2860,+02.158035,+00.048372,-03.065949
+160.655,+011.736,+010.518,-1.140,+0.580,+2.292,-21.6750,-04.9270,+04.0120,+01.405688,-01.304710,-03.544895
+156.177,+010.233,+011.097,-1.090,+0.563,+2.319,-17.2930,-00.9340,-00.9190,+01.204973,-02.299060,-03.402516
+152.733,+008.075,+012.104,-1.034,+0.550,+2.388,+22.1420,+13.2890,-19.7610,+00.210120,-02.351783,-01.656298
+152.537,+003.937,+013.589,-0.896,+0.647,+2.426,-07.6130,+12.7880,+05.0420,+01.609775,-04.544638,+01.562662
+152.773,-000.724,+014.350,-0.751,+0.722,+2.525,-06.5100,-05.4280,-20.3540,+00.173337,-03.486639,+00.907314
+152.811,-004.666,+014.887,-0.610,+0.763,+2.593,-05.0930,-10.2560,-20.4270,+00.180474,-03.071774,+00.848319
+152.458,-007.693,+014.535,-0.495,+0.850,+2.618,-08.5200,-06.5060,-14.6010,-00.751271,-02.321805,+00.090230
+152.185,-010.071,+013.782,-0.414,+0.803,+2.646,-02.9800,-02.4470,-10.6450,-00.747278,-01.930169,+00.366747
+151.672,-011.724,+012.191,-0.357,+0.736,+2.700,-02.6620,+00.3270,-11.6350,-01.546913,-01.314930,-00.188509
+151.369,-012.929,+011.168,-0.297,+0.721,+2.725,-02.8450,-02.2200,-09.6870,-00.746535,-00.958058,+00.021695
+151.381,-013.912,+010.444,-0.269,+0.694,+2.726,-01.3640,-01.0150,-08.8200,-00.525143,-00.855193,+00.297314
+151.699,-014.838,+009.730,-0.237,+0.662,+2.738,-03.3470,-01.4050,-10.0020,-00.596233,-00.572473,+00.420054
+152.050,-015.339,+008.993,-0.209,+0.681,+2.745,-02.9280,-01.2030,-09.5760,-00.537380,-00.321815,+00.329894
+152.351,-015.703,+008.378,-0.205,+0.659,+2.742,-03.1070,-01.3430,-09.2900,-00.421400,-00.223360,+00.279162
+152.606,-015.913,+007.888,-0.191,+0.607,+2.751,-02.6060,-01.2490,-09.0540,-00.346550,-00.134475,+00.229454
+152.805,-016.104,+007.482,-0.173,+0.617,+2.752,-02.8460,-01.0360,-09.0920,-00.268698,-00.149644,+00.156554
+152.916,-016.298,+007.200,-0.180,+0.615,+2.757,-02.8470,-01.0800,-09.0530,-00.200753,-00.157071,+00.096598
+153.008,-016.486,+006.956,-0.177,+0.583,+2.763,-02.6300,-01.2040,-09.0100,-00.189957,-00.156446,+00.108535
+153.162,-016.692,+006.677,-0.159,+0.587,+2.758,-02.7100,-01.1970,-08.9090,-00.213011,-00.153636,+00.168413
+153.318,-016.836,+006.432,-0.154,+0.587,+2.761,-02.8500,-00.8620,-08.9860,-00.153245,-00.100269,+00.118017
+153.398,-016.950,+006.259,-0.145,+0.587,+2.780,-02.8660,-00.9030,-09.0140,-00.121361,-00.078609,+00.057005
+153.452,-017.023,+006.104,-0.150,+0.578,+2.759,-02.7730,-00.9420,-08.9420,-00.127161,-00.051406,+00.053612
+153.535,-017.087,+005.915,-0.145,+0.568,+2.773,-02.7390,-00.9330,-08.9370,-00.153949,-00.050403,+00.092326
+153.648,-017.158,+005.694,-0.150,+0.587,+2.775,-02.9190,-00.7280,-08.9300,-00.165191,-00.051802,+00.090135
+153.726,-017.220,+005.494,-0.150,+0.558,+2.780,-02.8120,-00.6190,-08.9450,-00.156549,-00.039690,+00.064793
+153.822,-017.235,+005.243,-0.143,+0.563,+2.775,-02.7330,-00.6820,-09.0310,-00.216855,+00.005504,+00.090750
+153.930,-017.240,+004.931,-0.140,+0.568,+2.797,-02.8300,-00.5950,-08.9780,-00.257002,-00.001173,+00.079567
+153.988,-017.262,+004.623,-0.140,+0.563,+2.781,-02.8670,-00.5060,-08.9130,-00.259139,-00.019193,+00.029463
+154.023,-017.293,+004.296,-0.136,+0.533,+2.784,-02.8220,-00.5620,-08.9250,-00.284814,-00.034787,+00.022940
+154.017,-017.373,+003.981,-0.136,+0.499,+2.776,-02.9050,-00.4880,-08.9500,-00.266474,-00.090511,-00.020860
+153.916,-017.528,+003.708,-0.122,+0.504,+2.782,-02.7750,-00.3630,-08.9460,-00.267682,-00.168465,-00.109221
+153.724,-017.736,+003.462,-0.122,+0.501,+2.790,-02.7890,+00.2220,-09.0290,-00.252705,-00.189943,-00.178963
+153.508,-018.021,+003.262,-0.108,+0.469,+2.810,-02.8570,-00.2640,-08.9220,-00.219941,-00.306696,-00.171298
+153.307,-018.473,+003.074,-0.095,+0.489,+2.794,-02.7020,-00.5170,-08.9600,-00.235785,-00.472226,-00.111771
+153.219,-019.161,+002.794,-0.067,+0.457,+2.804,-02.8790,-00.5150,-08.9450,-00.284616,-00.695162,-00.001612
+153.189,-020.200,+002.475,-0.035,+0.434,+2.829,-02.6530,-00.4730,-08.9140,-00.292736,-01.051918,+00.020224
+153.163,-021.788,+002.159,+0.030,+0.443,+2.827,-02.6870,-00.7550,-08.8150,-00.283690,-01.619298,+00.042812
+153.116,-024.132,+002.019,+0.104,+0.443,+2.803,-03.7310,-01.3810,-09.7400,-00.015384,-02.315339,+00.025640
+153.305,-027.402,+002.127,+0.219,+0.427,+2.835,-02.8070,-01.8160,-10.7790,+00.231837,-03.210822,+00.427961
+154.419,-032.022,+001.431,+0.407,+0.439,+2.795,-02.9950,-03.3950,-10.5150,-00.542689,-04.556223,+01.362022
+157.176,-038.540,-002.982,+0.637,+0.314,+2.758,-04.8000,-04.9420,-10.5910,-03.842953,-06.546592,+02.228029
+162.789,-046.630,-013.498,+0.895,+0.026,+2.680,-07.9520,-07.1330,-14.0640,-07.015616,-07.712709,+02.529248
+171.978,-053.030,-028.619,+1.166,-0.292,+2.475,-14.8340,-09.0420,-20.3210,-07.510817,-06.244664,+02.788247
-179.351,-056.672,-045.932,+1.280,-0.606,+2.198,-07.4590,-09.2660,-16.2950,-09.537022,-04.433580,+00.945075
-179.288,-058.412,-052.976,+1.321,-0.811,+2.051,-04.6820,-17.0290,-30.7470,-03.652167,+01.174799,-02.305445
+171.350,-059.436,-047.967,+1.302,-0.841,+2.019,-00.5290,-07.3310,-09.8290,-02.087941,+02.980382,-03.555781
+161.381,-060.116,-042.006,+1.295,-0.851,+1.994,+00.2560,-01.7210,-04.1630,-02.417564,+02.395999,-03.341242
+152.978,-060.207,-037.405,+1.293,-0.905,+2.019,-00.4220,+01.0120,-07.8520,-02.149407,+02.318455,-02.535364
+145.645,-059.000,-032.845,+1.265,-0.958,+1.996,-01.6200,-00.5840,-13.0230,-01.186188,+03.059709,-01.766684
+138.559,-055.981,-027.829,+1.233,-1.012,+2.017,-03.5780,-05.7640,-15.2660,-00.760819,+04.500662,-01.483693
+131.317,-051.476,-022.970,+1.210,-1.065,+2.102,-04.7740,-09.3570,-10.2050,-00.897165,+05.422937,-01.885307
+124.098,-046.425,-018.369,+1.215,-1.114,+2.290,-06.1920,-10.1380,-07.9170,-00.590262,+05.625414,-02.584173
+117.033,-041.090,-013.746,+1.139,-1.043,+2.562,-08.3490,-10.2020,-09.3140,-00.057917,+05.778804,-03.220980
+110.388,-035.411,-009.518,+0.944,-0.917,+2.786,-09.2270,-07.6890,-07.3720,+00.223966,+05.690365,-03.525804
+104.798,-029.715,-005.771,+0.677,-0.737,+2.858,-10.8060,-04.2620,-09.4550,+00.946375,+05.369522,-03.286833
+100.471,-023.996,-002.256,+0.415,-0.609,+2.784,-11.1510,-03.4690,-09.3850,+01.477097,+05.053012,-02.837145
+097.307,-018.980,+000.306,+0.235,-0.561,+2.693,-11.3470,-02.4770,-09.2510,+01.121019,+03.977416,-02.247911
+095.090,-014.717,+002.530,+0.148,-0.591,+2.539,-12.8260,-03.4220,-11.5140,+01.425986,+03.526067,-01.844158
+093.351,-011.390,+004.619,+0.120,-0.630,+2.568,-13.1520,-01.6370,-07.3060,+01.528981,+02.322172,-01.520955
+092.031,-009.133,+006.565,+0.046,-0.569,+2.674,-16.0570,-01.0550,-13.1550,+01.394133,+01.730865,-01.202377
+091.164,-006.728,+007.910,-0.133,-0.504,+2.596,-17.4020,+01.3510,-15.5220,+00.932486,+02.222223,-00.908872
+090.663,-003.769,+009.107,-0.223,-0.499,+2.480,-16.7210,+02.7930,-10.5650,+01.124383,+02.557254,-00.791511
+090.050,-000.752,+010.363,-0.253,-0.514,+2.425,-17.0140,+00.5380,-05.8440,+00.897930,+02.413500,-01.117711
+089.048,+001.932,+010.979,-0.244,-0.509,+2.366,-18.3310,+02.0930,-03.2570,+00.429462,+02.009635,-01.362256
+087.960,+004.077,+011.593,-0.242,-0.529,+2.374,-18.5370,+03.9310,+01.8880,+00.765965,+01.332238,-01.223524
+086.806,+004.646,+012.065,-0.207,-0.539,+2.411,-19.4620,-00.1070,+12.3930,-00.567977,-00.912018,-01.057559
+085.576,+002.649,+010.641,-0.097,-0.570,+2.357,-04.0090,+08.9580,+00.4360,-00.870095,-02.303107,-00.688369
+085.366,+000.064,+009.328,-0.014,-0.661,+2.321,+03.2850,+12.7180,-19.7600,-01.207252,-02.391472,+01.200147
+085.759,-003.375,+008.485,+0.083,-0.694,+2.339,-05.5900,-06.1000,-03.3940,-00.451295,-03.255394,+00.182173
+084.912,-006.648,+008.137,+0.225,-0.740,+2.308,-03.9180,+02.3770,-14.0220,-00.402007,-02.726471,-00.422572
+084.217,-010.100,+008.299,+0.350,-0.751,+2.260,-01.7990,-02.4370,-18.3210,+00.051333,-03.261943,-00.149775
+083.743,-012.260,+007.561,+0.419,-0.787,+2.242,+00.1050,-01.6570,-10.6240,-00.949856,-01.575535,-00.155703
+083.850,-013.291,+007.155,+0.455,-0.782,+2.217,-02.9240,-01.8510,-11.0330,-00.220364,-00.807715,+00.298956
+084.011,-013.937,+006.860,+0.474,-0.795,+2.196,-03.3930,-00.9680,-09.0780,-00.200754,-00.344702,+00.127952
+084.070,-014.266,+006.639,+0.474,-0.827,+2.223,-02.4750,-00.4190,-09.4220,-00.165327,-00.263268,+00.087692
+084.136,-014.541,+006.445,+0.488,-0.837,+2.197,-02.8290,-00.8900,-09.1230,-00.145851,-00.208913,+00.072474
+084.146,-014.741,+006.343,+0.506,-0.834,+2.195,-02.5930,-00.8780,-09.1120,-00.054010,-00.161555,+00.010847
+084.131,-014.899,+006.299,+0.511,-0.812,+2.209,-02.7310,-00.9240,-09.1590,-00.044874,-00.122975,-00.008048
+084.130,-015.026,+006.190,+0.497,-0.847,+2.192,-02.5680,-01.3110,-09.0910,-00.145209,-00.110260,+00.043597
+084.249,-015.173,+005.933,+0.506,-0.849,+2.171,-02.7180,-00.9650,-09.0200,-00.208869,-00.116013,+00.143464
+084.408,-015.297,+005.675,+0.511,-0.871,+2.204,-02.6420,-00.6400,-09.0070,-00.172889,-00.081718,+00.132970
+084.521,-015.391,+005.489,+0.511,-0.832,+2.161,-02.6440,-00.5920,-08.9480,-00.115745,-00.064912,+00.084204
+084.594,-015.463,+005.352,+0.510,-0.864,+2.158,-02.6180,-00.8140,-08.9730,-00.096883,-00.056294,+00.060480
+084.684,-015.534,+005.207,+0.511,-0.857,+2.182,-02.6120,-00.8160,-08.9510,-00.116882,-00.057926,+00.100214
+084.830,-015.621,+005.003,+0.510,-0.842,+2.150,-02.6940,-00.8430,-09.0210,-00.151764,-00.066690,+00.143936
+085.022,-015.716,+004.777,+0.506,-0.871,+2.137,-02.7380,-00.7580,-09.0110,-00.157136,-00.067611,+00.179301
+085.245,-015.808,+004.551,+0.510,-0.891,+2.161,-02.7220,-00.7660,-08.9900,-00.142105,-00.064049,+00.204778
+085.525,-015.913,+004.289,+0.506,-0.881,+2.155,-02.6980,-00.7170,-08.9630,-00.181561,-00.077115,+00.264120
+085.881,-016.063,+003.979,+0.506,-0.891,+2.139,-02.8760,-00.6420,-08.9540,-00.183804,-00.121996,+00.318795
+086.258,-016.253,+003.680,+0.501,-0.925,+2.172,-02.8600,-00.5400,-09.0010,-00.164560,-00.157044,+00.327092
+086.632,-016.483,+003.396,+0.497,-0.881,+2.134,-02.9320,-00.3440,-08.9490,-00.150157,-00.198058,+00.315617
+086.956,-016.770,+003.128,+0.497,-0.918,+2.123,-02.7560,-00.4100,-08.9950,-00.165435,-00.262294,+00.259180
+087.164,-017.120,+002.867,+0.510,-0.926,+2.134,-03.0010,-00.4470,-08.9950,-00.171796,-00.346531,+00.171037
+087.257,-017.618,+002.641,+0.524,-0.906,+2.119,-02.9600,-00.1670,-09.0430,-00.171438,-00.480680,+00.039988
+087.142,-018.280,+002.488,+0.540,-0.938,+2.106,-02.9340,-00.2820,-08.8990,-00.151806,-00.653956,-00.135931
+086.804,-019.205,+002.498,+0.561,-0.951,+2.110,-02.6840,-00.2060,-09.0620,-00.038614,-00.899850,-00.297796
+086.267,-020.410,+002.726,+0.607,-0.932,+2.064,-03.0660,-00.4120,-09.0350,+00.067791,-01.195217,-00.462850
+085.472,-022.066,+003.211,+0.660,-0.910,+2.077,-03.6970,-00.6160,-09.2450,+00.279984,-01.677326,-00.610684
+084.472,-024.378,+004.188,+0.736,-0.904,+2.091,-04.4840,-00.7850,-09.3160,+00.641229,-02.299063,-00.707847
+083.149,-027.622,+005.621,+0.847,-0.866,+2.052,-03.0580,-00.9770,-09.6420,+00.789140,-03.354492,-00.842270
+081.548,-032.467,+007.202,+0.980,-0.830,+2.036,-01.3510,-01.1250,-10.3770,+00.698664,-05.053775,-00.511008
+080.479,-039.601,+008.415,+1.160,-0.815,+1.975,-01.5780,-03.1850,-11.2690,+00.337528,-07.024283,+00.498892
+080.438,-049.102,+009.173,+1.367,-0.798,+1.801,-08.9750,-01.4670,-08.5530,+00.618521,-08.858231,+01.442587
+081.064,-060.047,+009.665,+1.544,-0.831,+1.611,-10.7850,-06.3210,-12.9390,+00.821839,-09.508396,+02.026454
+083.203,-071.386,+008.953,+1.688,-0.872,+1.393,-08.6800,-03.6190,-18.0510,+01.425540,-09.662767,+02.436470
+093.685,-082.611,-000.323,+1.808,-0.924,+1.130,-10.9400,-05.2790,-25.7620,+00.241211,-08.985620,+02.912393
+131.298,-085.673,-037.722,+1.854,-0.972,+1.028,-18.7760,-08.3930,-60.6840,+00.685406,+01.211338,+01.278274
+119.555,-082.194,-024.769,+1.877,-0.998,+1.198,+00.2150,-06.9180,-17.9690,+01.039975,+04.185571,+00.233691
+109.278,-077.565,-013.967,+1.854,-0.908,+1.411,+02.3040,-02.8840,-03.9720,+00.328905,+04.172966,-00.289245
+103.602,-073.143,-008.628,+1.815,-0.873,+1.548,-00.6290,-01.5000,-09.9840,-00.342549,+04.140412,-00.565609
+099.570,-067.612,-005.340,+1.781,-0.818,+1.729,-03.1480,+00.0300,-12.9290,-00.430202,+05.430359,-00.579207
+096.922,-060.860,-003.079,+1.671,-0.722,+1.948,-04.0740,+01.4730,-08.3010,+00.126000,+06.138896,-00.549542
+095.269,-053.751,-001.156,+1.434,-0.652,+2.232,-04.7260,+00.7400,-07.4810,+00.579294,+06.248963,-00.562363
+094.099,-046.649,+000.360,+1.092,-0.552,+2.420,-05.3090,+00.3810,-07.7780,+00.488773,+06.146407,-00.639133
+093.225,-039.609,+001.535,+0.723,-0.543,+2.377,-06.8810,+00.1920,-09.8680,+00.519454,+06.138309,-00.674451
+092.590,-032.584,+002.585,+0.555,-0.601,+2.279,-08.0100,+00.6190,-08.2660,+00.607632,+06.037269,-00.650771
+092.107,-026.220,+003.558,+0.442,-0.698,+2.264,-08.3270,-00.2730,-06.4520,+00.653974,+05.121580,-00.713083
+091.468,-021.001,+004.488,+0.465,-0.861,+2.239,-10.0460,-00.6690,-17.8530,+00.624261,+04.382371,-00.852975
+090.834,-015.493,+005.513,+0.607,-0.923,+2.404,-11.9100,-03.3900,-19.7250,+00.784626,+04.906179,-01.038088
+089.711,-009.654,+006.492,+0.553,-0.928,+2.806,-14.5600,-08.8180,-16.9310,+00.459173,+04.952916,-01.841982
+087.438,-003.958,+006.783,+0.203,-0.859,+3.042,-17.0840,-09.8160,-12.4410,-00.213314,+04.482463,-02.913763
+084.220,+000.963,+006.451,-0.129,-0.878,+3.009,-19.0530,-07.7210,-08.4890,-00.368124,+03.599640,-03.452420
+080.625,+004.883,+006.143,-0.299,-0.938,+2.903,-21.5360,-01.2360,-07.3740,+00.257737,+02.775199,-03.398012
+077.493,+008.245,+006.747,-0.392,-0.894,+2.775,-25.0140,+00.1470,-04.1790,+00.963874,+02.511285,-02.801780
+074.855,+010.688,+007.076,-0.419,-0.911,+2.710,-24.7280,+02.2510,+05.9430,+00.547437,+01.307856,-02.334219
+072.574,+011.603,+007.508,-0.405,-0.928,+2.700,-24.9200,+03.1240,+00.2770,+00.898881,+00.265887,-01.868336
+070.818,+011.733,+007.944,-0.387,-0.889,+2.690,-20.5750,+12.2100,+07.7250,+00.407503,-00.358361,-01.026514
+070.692,+010.440,+009.298,-0.348,-0.850,+2.707,+22.9380,+03.9120,-21.4230,+00.512531,-00.826919,+00.639729
+072.117,+008.665,+010.961,-0.350,-0.815,+2.760,-02.5610,-10.0390,+03.0090,+00.887549,-01.631163,+01.476066
+072.053,+005.409,+011.319,-0.272,-0.792,+2.758,-05.8550,-09.3230,-23.4920,+00.397752,-02.881044,+00.075679
+071.559,+002.782,+011.696,-0.182,-0.766,+2.762,-01.6750,+03.9240,-07.4620,+00.546390,-02.457742,+00.305558
+071.248,+000.003,+012.654,-0.110,-0.759,+2.797,-01.2280,-03.5120,-11.1970,+00.950182,-02.405216,+00.155312
+070.732,-002.995,+013.926,-0.004,-0.701,+2.791,-00.0370,-02.6100,-06.2420,+01.305685,-02.943465,+00.174014
+069.923,-007.163,+015.760,+0.125,-0.646,+2.826,-01.7640,-05.3190,-11.9590,+01.545030,-04.062836,+00.291582
+069.159,-010.444,+016.312,+0.240,-0.620,+2.849,-04.5170,-03.9440,-14.7050,-00.484334,-02.109509,+00.064018
+068.890,-011.771,+015.371,+0.291,-0.665,+2.809,-02.7430,-03.0510,-09.7380,-00.887903,-01.006753,+00.145793
+068.849,-012.754,+014.211,+0.323,-0.690,+2.781,-02.9570,-01.8810,-09.8310,-01.059267,-00.726281,+00.211331
+068.957,-013.468,+013.068,+0.327,-0.763,+2.774,-02.8810,-02.6530,-09.6000,-01.001547,-00.456540,+00.222140
+069.125,-013.880,+011.972,+0.336,-0.759,+2.726,-02.5790,-01.9040,-09.4840,-00.824941,-00.272239,+00.211053
+069.329,-014.192,+011.215,+0.352,-0.796,+2.721,-02.7810,-01.9280,-09.2580,-00.541500,-00.211412,+00.246031
+069.602,-014.429,+010.594,+0.345,-0.862,+2.732,-02.6530,-02.0250,-09.0520,-00.462266,-00.145632,+00.271956
+069.884,-014.642,+010.071,+0.345,-0.847,+2.695,-02.7110,-01.6280,-08.9660,-00.370046,-00.147011,+00.258042
+070.098,-014.862,+009.614,+0.348,-0.855,+2.681,-02.8070,-01.5510,-08.9710,-00.348329,-00.155871,+00.180365
+070.284,-014.998,+009.149,+0.336,-0.892,+2.700,-02.7790,-01.6090,-08.9470,-00.372751,-00.058072,+00.177790
+070.495,-015.071,+008.621,+0.355,-0.867,+2.679,-02.5660,-01.5570,-08.9180,-00.434875,-00.029059,+00.193695
+070.723,-015.124,+008.069,+0.338,-0.931,+2.676,-02.6390,-01.3030,-08.9510,-00.435437,-00.017073,+00.190209
+070.901,-015.175,+007.566,+0.331,-0.946,+2.689,-02.7150,-00.9850,-09.0340,-00.374453,-00.031337,+00.126545
+070.991,-015.229,+007.136,+0.331,-0.951,+2.657,-02.6010,-00.9950,-08.9860,-00.345958,-00.037347,+00.063632
+071.071,-015.286,+006.717,+0.334,-0.958,+2.633,-02.4190,-01.0990,-08.9660,-00.357373,-00.047516,+00.088119
+071.202,-015.372,+006.248,+0.327,-0.990,+2.652,-02.5550,-01.0880,-09.0090,-00.397545,-00.068222,+00.133898
+071.382,-015.486,+005.742,+0.322,-0.990,+2.614,-02.6100,-00.8300,-09.0220,-00.395919,-00.089363,+00.170716
+071.563,-015.612,+005.256,+0.333,-1.027,+2.610,-02.6840,-00.6750,-09.0640,-00.369572,-00.094347,+00.152244
+071.713,-015.737,+004.813,+0.327,-1.039,+2.626,-02.8300,-00.4970,-09.0450,-00.335951,-00.101845,+00.115366
+071.786,-015.877,+004.433,+0.340,-1.034,+2.610,-02.8310,-00.5450,-09.0230,-00.301629,-00.126936,+00.049994
+071.819,-016.047,+004.093,+0.336,-1.037,+2.580,-02.8370,-00.5960,-08.9920,-00.283158,-00.159250,+00.030353
+071.859,-016.253,+003.764,+0.345,-1.059,+2.589,-02.6970,-00.5930,-09.0260,-00.278767,-00.188500,+00.063353
+071.909,-016.487,+003.435,+0.354,-1.030,+2.573,-02.7420,-00.3470,-09.0220,-00.271379,-00.213849,+00.056516
+071.946,-016.741,+003.134,+0.359,-1.055,+2.563,-02.7840,-00.7700,-08.9090,-00.247233,-00.238309,+00.044129
+072.024,-017.087,+002.820,+0.363,-1.084,+2.569,-02.8650,-00.3840,-09.0550,-00.266779,-00.341143,+00.102106
+072.173,-017.599,+002.442,+0.363,-1.074,+2.563,-02.7970,-00.3450,-09.0250,-00.304038,-00.510237,+00.163881
+072.361,-018.359,+002.036,+0.393,-1.114,+2.525,-02.7650,-00.2690,-09.0600,-00.314236,-00.761864,+00.187538
+072.565,-019.487,+001.604,+0.432,-1.114,+2.540,-02.9480,-00.3120,-08.9100,-00.319521,-01.121874,+00.217343
+072.805,-021.136,+001.166,+0.474,-1.125,+2.509,-03.1140,-00.4420,-08.8710,-00.304543,-01.658759,+00.239670
+073.053,-023.482,+000.695,+0.536,-1.150,+2.477,-03.4990,-00.8430,-09.5590,-00.296948,-02.278254,+00.241097
+073.473,-026.621,+000.319,+0.626,-1.180,+2.484,-03.3350,-01.5740,-10.6900,-00.078635,-03.024507,+00.492186
+074.453,-030.885,-000.679,+0.736,-1.148,+2.409,-02.2660,-02.7170,-11.2910,-00.776043,-04.130202,+01.020121
+076.888,-036.592,-004.522,+0.862,-1.265,+2.270,-05.1580,-05.0990,-10.6240,-03.066780,-05.718954,+01.960635
+082.035,-043.572,-013.915,+0.974,-1.452,+2.019,-08.2890,-03.4680,-15.7210,-06.061636,-06.966064,+02.737264
+090.515,-049.106,-027.715,+1.038,-1.626,+1.643,-12.3080,-08.4770,-23.4050,-06.761379,-05.558019,+03.232229
+097.583,-051.674,-042.792,+1.024,-1.800,+1.231,-06.9260,-11.9760,-10.9970,-09.383083,-03.366201,+01.167323
+096.808,-053.426,-049.234,+1.083,-1.851,+0.961,-05.9580,-23.3810,-25.0390,-03.886497,+01.062977,-02.755335
+088.104,-055.017,-045.926,+1.263,-1.760,+0.807,-01.8610,-07.4480,-08.4030,-02.732638,+02.595771,-04.190581
+078.962,-056.184,-041.467,+1.433,-1.676,+0.728,-00.8620,-00.1910,-04.9880,-02.625120,+02.174205,-03.669395
+071.286,-056.463,-037.717,+1.585,-1.572,+0.691,-01.3430,+02.1600,-09.8410,-01.991277,+02.316053,-02.600719
+064.342,-055.026,-033.519,+1.696,-1.475,+0.669,-02.6660,-00.8950,-14.8990,-01.014976,+03.507061,-01.744930
+057.461,-051.761,-028.972,+1.790,-1.395,+0.745,-03.3570,-06.8370,-12.2820,-00.833937,+04.673375,-01.597897
+050.214,-047.536,-024.363,+1.899,-1.344,+0.896,-05.2110,-11.3440,-10.6400,-00.772671,+05.367563,-02.360181
+042.098,-042.807,-019.463,+2.079,-1.237,+1.080,-06.7610,-11.4330,-08.8990,-00.724008,+05.832228,-03.497447
+033.860,-037.814,-014.704,+2.206,-1.096,+1.385,-08.1360,-08.5720,-05.6660,-00.318545,+05.635670,-04.167618
+026.337,-032.953,-010.320,+2.306,-0.941,+1.769,-09.6600,-07.4500,-06.5210,+00.146993,+05.099082,-04.342517
+019.685,-028.266,-006.581,+2.224,-0.667,+2.251,-11.2450,-06.9220,-09.5780,+00.386662,+04.621085,-04.330292
+013.850,-023.786,-003.609,+1.953,-0.433,+2.467,-11.0980,-05.8520,-09.3120,+00.262192,+04.047287,-04.100441
+009.016,-019.765,-001.520,+1.709,-0.297,+2.531,-11.7120,-04.9730,-14.2580,+00.319880,+03.598094,-03.548084
+005.057,-015.634,+000.304,+1.548,-0.202,+2.539,-10.6230,-04.6750,-11.9480,+00.650637,+03.589096,-03.083265
+001.894,-011.840,+002.075,+1.452,-0.123,+2.532,-10.0920,-02.2140,-11.9830,+01.052615,+03.078261,-02.512204
-000.256,-008.190,+003.901,+1.397,-0.068,+2.558,-11.0630,+00.1810,-16.6950,+01.441005,+03.165127,-01.669948
-001.220,-004.153,+006.087,+1.332,+0.081,+2.651,-11.7180,+01.6160,-14.4970,+02.004179,+03.562003,-00.835102
-001.223,-000.152,+008.731,+1.220,+0.215,+2.717,-11.5060,+01.8340,-10.6560,+02.494346,+03.354234,-00.279177
-000.858,+003.511,+011.751,+1.094,+0.315,+2.810,-12.8150,-00.0100,-10.6720,+02.588424,+03.113957,-00.296700
-000.612,+006.903,+014.159,+0.946,+0.483,+2.840,-15.2700,-00.5620,-08.0460,+01.668224,+02.814101,-00.563993
-000.566,+009.805,+015.418,+0.815,+0.568,+2.876,-17.6600,+01.7240,-02.4900,+00.892519,+02.202989,-00.600176
-000.713,+011.830,+016.482,+0.716,+0.589,+2.893,-19.0280,+02.5360,+02.8030,+01.028993,+01.275775,-00.639099
-001.518,+012.580,+017.297,+0.680,+0.673,+2.854,-19.4560,+00.5720,+03.1090,+00.602853,-00.091019,-01.011069
-003.092,+012.022,+016.692,+0.696,+0.663,+2.828,-20.2270,+00.8810,+10.1890,-01.199769,-01.645104,-00.923625
-003.943,+009.974,+014.255,+0.772,+0.588,+2.885,+12.4360,+01.7930,-20.7560,-01.766467,-01.289438,+00.347687
-003.086,+007.215,+011.551,+0.864,+0.470,+2.852,-02.3410,+07.9900,-05.4560,-02.452154,-02.369380,+01.571738
-002.578,+003.681,+009.136,+0.983,+0.382,+2.807,-08.4820,+03.0060,-13.0090,-02.167191,-02.763019,+00.620434
-002.742,+000.555,+007.824,+1.084,+0.325,+2.794,-01.4760,-02.0790,-10.2800,-00.364236,-02.767582,-00.041011
-003.313,-002.460,+008.125,+1.195,+0.348,+2.707,-03.7750,-00.1680,-13.1870,+00.524806,-02.543982,-00.150779
-003.956,-005.105,+008.756,+1.285,+0.369,+2.676,-03.1390,-06.4860,-12.0120,+00.405623,-02.269254,-00.273614
-004.775,-007.643,+009.362,+1.365,+0.409,+2.639,-03.0000,-00.5010,-13.3090,+00.514861,-02.363011,-00.294077
-005.389,-010.114,+009.841,+1.457,+0.462,+2.573,-05.9770,-03.0690,-15.4630,+00.051269,-01.831234,-00.186491
-005.717,-011.343,+009.324,+1.494,+0.437,+2.540,-02.0600,+00.0070,-10.8200,-00.429036,-00.839641,+00.010941
-005.750,-012.199,+008.946,+1.522,+0.412,+2.544,-02.6270,-00.7200,-09.9660,-00.269593,-00.675970,+00.120325
-005.753,-012.804,+008.767,+1.545,+0.426,+2.502,-02.5510,-00.9670,-09.6780,-00.096061,-00.450520,+00.041631
-005.822,-013.250,+008.757,+1.554,+0.389,+2.484,-02.1960,-01.6620,-09.0260,-00.005176,-00.370727,-00.026120
-005.947,-013.556,+008.761,+1.563,+0.367,+2.514,-02.5880,-01.6470,-09.2630,-00.051356,-00.189938,-00.083434
-006.055,-013.706,+008.642,+1.568,+0.426,+2.492,-02.5000,-01.8280,-09.1950,-00.142220,-00.127675,-00.039742
-006.050,-013.834,+008.407,+1.568,+0.382,+2.485,-02.4450,-01.4470,-08.9870,-00.220303,-00.095505,+00.055940
-005.977,-013.943,+008.140,+1.581,+0.357,+2.483,-02.5330,-01.3080,-09.0650,-00.217826,-00.082235,+00.076450
-005.887,-014.051,+007.852,+1.577,+0.362,+2.477,-02.6120,-01.2790,-09.0900,-00.249613,-00.078267,+00.098465
-005.770,-014.145,+007.525,+1.584,+0.355,+2.483,-02.5750,-01.2960,-08.9640,-00.251596,-00.065180,+00.116441
-005.631,-014.237,+007.225,+1.581,+0.333,+2.494,-02.5400,-01.3090,-09.0470,-00.231234,-00.061755,+00.133076
-005.500,-014.332,+006.947,+1.577,+0.328,+2.488,-02.5560,-01.2180,-09.0870,-00.202331,-00.073635,+00.109175
-005.387,-014.430,+006.691,+1.586,+0.323,+2.470,-02.5050,-01.3220,-09.0340,-00.202235,-00.075014,+00.109126
-005.256,-014.542,+006.438,+1.581,+0.293,+2.499,-02.6170,-01.2180,-09.0670,-00.180263,-00.089099,+00.126642
-005.111,-014.669,+006.222,+1.595,+0.308,+2.489,-02.6680,-01.1350,-09.0260,-00.141237,-00.101643,+00.136047
-004.995,-014.809,+006.074,+1.607,+0.300,+2.455,-02.6540,-01.0280,-09.0520,-00.080122,-00.114981,+00.092253
-004.924,-014.966,+006.003,+1.613,+0.298,+2.485,-02.6380,-00.8970,-09.0600,-00.030807,-00.134944,+00.061468
-004.883,-015.134,+005.933,+1.613,+0.293,+2.458,-02.5540,-01.0560,-08.9440,-00.077670,-00.148258,+00.049014
-004.807,-015.333,+005.783,+1.618,+0.273,+2.464,-02.2490,-01.0080,-09.0260,-00.137287,-00.166348,+00.101076
-004.649,-015.593,+005.550,+1.618,+0.259,+2.480,-02.6760,-01.0570,-08.9680,-00.189763,-00.241342,+00.171080
-004.473,-015.976,+005.243,+1.641,+0.258,+2.454,-02.6450,-00.9950,-08.9800,-00.241681,-00.373023,+00.173241
-004.369,-016.531,+004.918,+1.655,+0.255,+2.423,-02.6310,-00.9840,-09.0990,-00.263772,-00.533358,+00.099892
-004.389,-017.270,+004.657,+1.673,+0.233,+2.423,-02.9810,-00.7810,-09.0800,-00.202257,-00.714396,-00.017683
-004.621,-018.221,+004.607,+1.691,+0.218,+2.387,-02.5630,-00.7810,-09.1120,-00.060007,-00.924134,-00.191575
-005.146,-019.487,+004.861,+1.731,+0.254,+2.356,-03.3510,-00.9220,-09.1800,+00.162077,-01.300670,-00.473424
-006.053,-021.278,+005.522,+1.784,+0.266,+2.332,-02.5050,-00.9460,-09.4300,+00.395964,-01.809235,-00.614906
-007.177,-023.643,+006.646,+1.862,+0.324,+2.238,-03.1910,-01.0950,-09.0080,+00.696726,-02.355142,-00.722933
-008.741,-026.926,+008.183,+1.931,+0.369,+2.128,-02.2460,-01.7090,-09.5410,+00.746541,-03.437560,-00.883707
-010.453,-031.872,+010.119,+2.055,+0.399,+1.984,-01.0520,-00.8300,-10.5090,+01.132325,-05.144865,-00.279468
-011.893,-038.907,+012.523,+2.193,+0.475,+1.710,-03.1820,-00.8080,-12.2600,+01.606833,-06.845383,+00.616732
-013.276,-048.130,+015.295,+2.324,+0.428,+1.390,-07.0930,-02.7900,-12.9880,+01.308181,-08.639113,+01.316926
-014.850,-058.774,+018.288,+2.418,+0.376,+1.030,-11.6370,-04.6990,-11.8790,+01.629567,-09.340814,+02.121119
-017.953,-069.709,+023.059,+2.417,+0.265,+0.559,-08.4080,-02.3360,-16.4330,+01.965389,-09.414974,+02.432589
-027.613,-080.492,+034.384,+2.349,+0.134,+0.144,-06.7680,-04.0870,-22.1290,+01.526737,-08.449987,+02.722991
-026.185,-085.798,+033.679,+2.268,-0.011,-0.003,-04.9290,-02.9410,-45.3410,+00.484291,-00.689351,+02.295697
+008.946,-084.174,-000.238,+2.268,-0.109,+0.035,+00.1190,-05.3540,-22.5690,+01.074739,+03.302389,+01.875467
+017.533,-079.499,-008.122,+2.277,-0.197,+0.195,+00.4110,-05.8470,-09.8900,+00.154494,+04.131042,+01.029374
+017.042,-074.502,-008.392,+2.291,-0.250,+0.380,-00.1980,-06.8850,-08.5920,-01.169569,+04.441910,+00.233843
+013.922,-069.192,-007.458,+2.305,-0.245,+0.531,-02.3620,-04.9960,-11.6470,-01.927437,+04.962206,-00.434529
+010.099,-062.882,-005.740,+2.336,-0.229,+0.696,-04.1720,-01.8730,-11.3380,-01.174537,+06.000331,-00.827228
+006.828,-055.789,-003.535,+2.352,-0.218,+0.951,-04.6000,-01.3990,-07.9630,-00.244194,+06.360645,-00.982766
+004.417,-048.601,-001.765,+2.357,-0.104,+1.240,-05.5060,-01.9510,-08.2350,-00.118757,+06.262163,-01.018223
+002.559,-041.434,-000.698,+2.284,-0.016,+1.538,-06.8350,-01.6530,-11.1140,-00.242806,+06.328959,-00.977326
+001.275,-034.203,-000.084,+2.119,+0.029,+1.828,-07.7700,-01.2170,-09.9890,-00.056069,+06.261956,-00.743218
+000.626,-027.274,+000.449,+1.921,+0.140,+2.039,-08.8230,-00.7840,-08.4790,+00.331700,+05.843379,-00.338432
+000.528,-021.326,+001.327,+1.765,+0.199,+2.176,-10.1170,-01.9450,-11.1040,+00.947058,+04.754986,-00.054597
+000.758,-015.888,+002.798,+1.590,+0.180,+2.351,-13.1430,-05.1180,-17.5940,+01.538777,+04.844674,-00.025623
+000.742,-010.450,+004.858,+1.374,+0.212,+2.453,-14.9950,-05.9870,-15.2000,+01.926259,+04.623099,-00.539751
+000.254,-005.336,+007.211,+1.229,+0.277,+2.508,-18.6730,-04.9590,-15.1440,+01.991237,+04.276989,-01.079410
-000.468,-000.363,+009.284,+1.084,+0.299,+2.595,-21.5300,-01.7260,-11.5690,+01.630269,+04.136160,-01.299384
-001.267,+004.114,+010.846,+0.928,+0.384,+2.641,-22.4840,-00.3860,-04.2630,+01.183036,+03.378272,-01.417658
-002.369,+007.405,+011.434,+0.831,+0.420,+2.672,-23.4520,+00.4600,+00.3280,+00.268824,+02.165661,-01.515210
-003.470,+009.421,+011.440,+0.771,+0.440,+2.715,-25.8650,+02.3180,+04.9460,+00.172898,+01.135458,-01.101993
-004.559,+009.820,+011.862,+0.757,+0.485,+2.698,-24.5600,+00.7860,+06.5290,+00.732925,-00.455958,-01.003127
-006.391,+007.845,+010.899,+0.822,+0.496,+2.684,-18.0500,-03.7450,+00.8350,-02.805392,-03.073968,-01.492855
-008.432,+006.125,+008.794,+0.905,+0.444,+2.699,+17.1690,+15.7140,-18.9320,-01.077778,-02.188132,-00.610923
-007.763,+002.429,+007.400,+1.043,+0.368,+2.647,-08.5050,+17.4930,-05.9740,+00.029213,-03.699004,+01.522184
-006.977,-001.594,+007.593,+1.162,+0.350,+2.569,-05.5990,-09.1690,-14.7770,+00.082171,-03.063398,+00.636142
-007.663,-004.917,+008.317,+1.277,+0.341,+2.534,-03.4410,-04.1050,-12.5980,+00.747564,-02.850393,-00.390265
-008.319,-008.051,+008.721,+1.388,+0.398,+2.442,-04.1020,-05.5940,-14.6200,+00.016897,-02.900789,-00.095191
-009.059,-010.888,+008.087,+1.471,+0.375,+2.389,-05.7890,+00.9240,-15.6810,-00.983428,-02.158829,-00.232534
-009.169,-012.512,+007.550,+1.526,+0.342,+2.363,-02.9070,-02.9670,-10.4400,-00.316393,-01.135341,+00.143848
-009.073,-013.592,+007.096,+1.563,+0.347,+2.327,-01.7790,+00.0470,-09.8050,-00.251923,-00.844380,+00.291639
-008.741,-014.382,+006.692,+1.583,+0.332,+2.304,-03.1330,-00.9680,-10.0860,-00.330525,-00.513924,+00.355552
-008.484,-014.836,+006.271,+1.599,+0.278,+2.318,-03.4200,-01.5990,-09.4940,-00.338345,-00.299036,+00.199331
-008.314,-015.092,+005.889,+1.609,+0.312,+2.302,-02.8500,-00.7490,-09.0540,-00.258246,-00.149550,+00.135909
-008.220,-015.213,+005.628,+1.609,+0.275,+2.294,-02.7540,-01.0690,-08.9810,-00.191669,-00.092890,+00.068264
-008.154,-015.342,+005.406,+1.613,+0.253,+2.292,-02.7220,-01.1260,-08.9700,-00.166973,-00.116748,+00.072436
-008.088,-015.472,+005.215,+1.627,+0.272,+2.276,-02.7760,-00.7670,-09.0580,-00.140342,-00.097034,+00.048901
-008.039,-015.581,+005.046,+1.622,+0.255,+2.282,-02.7380,-01.1310,-09.0350,-00.141641,-00.095238,+00.068776
-007.925,-015.692,+004.854,+1.627,+0.243,+2.303,-02.8410,-00.8840,-08.9960,-00.137000,-00.078961,+00.111129
-007.818,-015.780,+004.675,+1.618,+0.243,+2.287,-02.8130,-00.7370,-08.9860,-00.127130,-00.064641,+00.086139
-007.741,-015.855,+004.511,+1.629,+0.235,+2.282,-02.8320,-00.7330,-09.0160,-00.116862,-00.057363,+00.063264
-007.654,-015.916,+004.351,+1.627,+0.233,+2.298,-02.7960,-00.7780,-08.9570,-00.121456,-00.044408,+00.092489
-007.493,-015.991,+004.156,+1.636,+0.208,+2.272,-02.7380,-00.9630,-08.9050,-00.136429,-00.063023,+00.176572
-007.233,-016.096,+003.931,+1.631,+0.226,+2.274,-02.8080,-00.7230,-08.9770,-00.123937,-00.082222,+00.251007
-006.925,-016.228,+003.722,+1.641,+0.213,+2.299,-02.7950,-00.6710,-09.0260,-00.097029,-00.108205,+00.268919
-006.611,-016.393,+003.540,+1.645,+0.189,+2.278,-02.8080,-00.6040,-09.0210,-00.077313,-00.136403,+00.275598
-006.282,-016.612,+003.352,+1.647,+0.196,+2.256,-02.6440,-00.4090,-09.1000,-00.082718,-00.196180,+00.291805
-006.008,-016.890,+003.168,+1.654,+0.154,+2.284,-02.9770,-00.3950,-08.9560,-00.102239,-00.282864,+00.214276
-005.856,-017.308,+002.985,+1.659,+0.174,+2.252,-02.9170,-00.4460,-08.9430,-00.129549,-00.406254,+00.096615
-005.881,-017.881,+002.843,+1.687,+0.173,+2.218,-03.0910,-00.5100,-08.8830,-00.128849,-00.571902,-00.056479
-006.118,-018.685,+002.761,+1.705,+0.163,+2.238,-02.7520,-00.5660,-09.0140,-00.136809,-00.783972,-00.215423
-006.480,-019.714,+002.743,+1.728,+0.158,+2.201,-03.5900,-00.4400,-09.0190,-00.079049,-01.018230,-00.264451
-006.922,-021.065,+002.884,+1.769,+0.169,+2.144,-03.1290,-00.4820,-09.0960,+00.045578,-01.279828,-00.303744
-007.593,-022.772,+003.401,+1.806,+0.162,+2.130,-02.9130,-00.2200,-09.2000,+00.332041,-01.691755,-00.589181
-008.699,-024.957,+004.455,+1.871,+0.249,+2.057,-03.2040,-00.7160,-09.1650,+00.648002,-02.165789,-00.835512
-010.395,-027.855,+006.032,+1.921,+0.290,+1.946,-03.8570,-01.0560,-08.9800,+00.769658,-03.030616,-01.250335
-012.697,-032.260,+008.083,+2.018,+0.335,+1.838,+00.1820,-01.2640,-10.8550,+00.802765,-04.698829,-01.131040
-014.748,-038.955,+010.423,+2.147,+0.396,+1.580,-02.3720,-03.0330,-10.3520,+00.929569,-06.774490,-00.177916
-016.070,-048.074,+012.973,+2.268,+0.374,+1.262,-08.8920,-05.0280,-08.0160,+01.425572,-08.700048,+01.130226
-017.797,-058.988,+015.949,+2.339,+0.302,+0.887,-06.2840,-02.8340,-08.0500,+01.554073,-09.870076,+01.912781
-021.149,-070.679,+020.926,+2.352,+0.246,+0.406,-10.1800,-02.7310,-20.9450,+02.257499,-10.012860,+02.157102
-032.092,-081.900,+034.448,+2.271,+0.139,+0.010,-12.2740,-04.6730,-32.9480,+02.465110,-08.737752,+02.795642
-016.160,-084.927,+020.032,+2.250,-0.006,-0.041,-07.7380,+00.0600,-48.1450,+00.910288,+02.659986,+02.061585
+010.387,-081.594,-004.922,+2.305,-0.104,+0.112,+01.8570,-03.3120,-09.5450,+00.980000,+03.478108,+02.245807
+018.548,-077.282,-012.499,+2.314,-0.167,+0.290,+02.1960,-05.7070,-02.5270,+00.046964,+03.400501,+01.595261
+019.504,-073.532,-013.900,+2.278,-0.136,+0.470,+01.2150,-07.3670,-07.6390,-00.615001,+03.171213,+00.533616
+015.938,-069.349,-011.409,+2.218,-0.003,+0.563,-00.9800,-06.4850,-13.2940,-00.803492,+04.249018,-00.583906
+010.356,-063.846,-006.939,+2.214,+0.169,+0.602,-02.7650,-02.6360,-10.8840,-00.386516,+05.439717,-01.399808
+005.515,-057.388,-002.844,+2.339,+0.448,+0.667,-04.3990,+00.2650,-09.0870,+00.009600,+05.932690,-01.621801
+002.215,-050.438,-000.056,+2.570,+0.860,+0.920,-06.1580,+01.3300,-10.0840,+00.105232,+06.196593,-01.479625
+000.244,-043.143,+001.489,+2.611,+1.255,+1.404,-07.8440,+02.7890,-12.5280,+00.116070,+06.468055,-01.081594
-000.474,-035.506,+002.224,+2.407,+1.442,+1.986,-08.8750,+03.4900,-10.9480,+00.304926,+06.709071,-00.447619
-000.153,-028.158,+002.635,+1.831,+1.288,+2.519,-09.3510,+02.9240,-06.9750,+00.642338,+06.093721,+00.197097
+000.647,-022.136,+003.124,+1.214,+0.946,+2.674,-09.6640,+00.0390,-12.1410,+00.628523,+04.824474,+00.414365
+001.592,-016.534,+003.721,+0.771,+0.656,+2.568,-12.7650,-02.2220,-22.9810,+00.910182,+05.209834,+00.452140
+002.324,-010.444,+004.800,+0.545,+0.411,+2.292,-14.2340,-04.4960,-16.4170,+01.162352,+05.279349,+00.061231
+002.634,-004.802,+006.082,+0.561,+0.277,+2.098,-17.0870,-03.7050,-11.7670,+01.137398,+04.667864,-00.323462
+002.529,-000.611,+007.218,+0.664,+0.193,+2.111,-19.1040,-03.7100,-09.4960,+00.549337,+03.551656,-00.653985
+002.163,+003.454,+008.369,+0.738,+0.183,+2.184,-18.8060,-00.4410,-09.2580,+01.508593,+03.415730,-00.831745
+001.722,+006.948,+010.013,+0.717,+0.220,+2.277,-21.6730,+01.2380,-04.8140,+01.365000,+02.708845,-00.831821
+001.341,+009.527,+010.878,+0.687,+0.218,+2.348,-22.8680,+00.3680,+04.2850,+00.489675,+01.682000,-00.677173
+000.699,+010.459,+011.201,+0.706,+0.258,+2.386,-22.7210,+00.7910,+07.5310,+00.460187,+00.069898,-00.726957
-000.461,+009.143,+011.017,+0.768,+0.262,+2.383,-21.8490,-05.7480,+14.5030,-01.183376,-02.744868,-00.790109
-002.574,+005.861,+008.163,+0.899,+0.192,+2.363,+13.6520,+04.7220,-23.8760,-01.366028,-02.981186,-01.710500
-003.297,+001.938,+007.239,+1.037,+0.170,+2.289,-05.9080,+16.6110,-13.8600,-00.478651,-03.539824,+00.631906
-002.918,-002.205,+006.868,+1.171,+0.144,+2.209,-08.9370,+05.8070,-10.0360,-00.321813,-03.721895,+00.884179
-002.957,-005.986,+006.939,+1.290,+0.108,+2.172,-03.1610,-08.9570,-12.0540,+00.147929,-03.045301,-00.074906
-003.592,-009.442,+007.322,+1.401,+0.146,+2.053,-04.8910,-00.0540,-14.8680,+00.164743,-03.093440,-00.044624
-003.963,-012.366,+006.677,+1.477,+0.127,+1.987,-08.7020,-02.9740,-08.7320,-00.407110,-01.644783,+00.043813
-003.875,-014.026,+005.982,+1.520,+0.085,+1.957,-03.7570,-01.1890,-08.7670,-00.393090,-01.081867,+00.338184
-003.582,-014.677,+005.435,+1.539,+0.065,+1.931,-03.0910,-00.6740,-10.7580,-00.464871,-00.402834,+00.284861
-003.150,-015.142,+004.817,+1.550,+0.058,+1.918,-02.9870,-01.6490,-09.8330,-00.486963,-00.311849,+00.474762
-002.646,-015.452,+004.111,+1.548,+0.026,+1.943,-03.5570,+00.2400,-09.0960,-00.437008,-00.177701,+00.356671
-002.417,-015.590,+003.701,+1.562,+0.055,+1.895,-02.5760,+00.2000,-09.0150,-00.222632,-00.083980,+00.143138
-002.362,-015.654,+003.550,+1.552,+0.003,+1.900,-02.7120,+00.1470,-08.9550,-00.068707,-00.036978,-00.008284
-002.386,-015.722,+003.445,+1.566,-0.014,+1.901,-02.7430,-01.3570,-09.1850,-00.124203,-00.080428,+00.009700
-002.266,-015.821,+003.223,+1.566,+0.011,+1.906,-02.7290,-01.3780,-09.0750,-00.189731,-00.080596,+00.163040
-002.005,-015.921,+002.944,+1.564,+0.003,+1.874,-02.6700,-00.5300,-09.0600,-00.167859,-00.072232,+00.242258
-001.698,-016.024,+002.672,+1.566,-0.034,+1.917,-02.7460,-00.2920,-08.9360,-00.156958,-00.084030,+00.270289
-001.422,-016.112,+002.429,+1.561,-0.014,+1.884,-02.8270,-00.2290,-08.9550,-00.135887,-00.057160,+00.207106
-001.198,-016.197,+002.221,+1.564,-0.029,+1.877,-02.8050,-00.3510,-08.8900,-00.119704,-00.071178,+00.186801
-000.954,-016.291,+002.031,+1.561,-0.053,+1.901,-02.2190,+02.0400,-09.3260,-00.080530,-00.066547,+00.211257
-000.682,-016.406,+001.847,+1.571,-0.034,+1.885,-03.2690,-01.3410,-09.1780,-00.077006,-00.093878,+00.244104
-000.358,-016.519,+001.671,+1.575,-0.068,+1.875,-02.8360,-00.2650,-08.8980,-00.064249,-00.091677,+00.292900
+000.035,-016.667,+001.486,+1.575,-0.088,+1.875,-02.8330,-00.1120,-08.9100,-00.065531,-00.134010,+00.350906
+000.457,-016.852,+001.279,+1.571,-0.068,+1.875,-02.8890,-00.2580,-08.8600,-00.078890,-00.167036,+00.360798
+000.880,-017.063,+001.066,+1.573,-0.093,+1.859,-03.0360,-00.0970,-08.8190,-00.074243,-00.179825,+00.346101
+001.250,-017.302,+000.898,+1.589,-0.113,+1.881,-02.9560,-00.0450,-08.8340,-00.046091,-00.227466,+00.299772
+001.587,-017.646,+000.677,+1.593,-0.083,+1.833,-02.6610,-00.2850,-09.0940,-00.146191,-00.358166,+00.276989
+001.806,-018.133,+000.384,+1.593,-0.115,+1.828,-03.1390,-00.4890,-08.9840,-00.215471,-00.461522,+00.118199
+001.802,-018.792,+000.120,+1.612,-0.157,+1.845,-03.4270,-00.0050,-08.7990,-00.233496,-00.639830,-00.082001
+001.512,-019.661,-000.044,+1.626,-0.133,+1.802,-03.6460,+00.6300,-08.5390,-00.169785,-00.808992,-00.342893
+000.794,-020.840,+000.225,+1.653,-0.119,+1.745,-02.9500,-00.3770,-09.5200,+00.121614,-01.224426,-00.653975
-000.267,-022.583,+000.872,+1.685,-0.104,+1.746,-03.0840,-00.4900,-09.8210,+00.281725,-01.711995,-00.923298
-001.535,-025.238,+001.952,+1.750,-0.052,+1.652,-02.8260,-00.7820,-09.8660,+00.578230,-02.670762,-00.901413
-002.724,-029.186,+003.051,+1.812,-0.011,+1.544,-02.7020,-00.9700,-09.5050,+00.390351,-04.060035,-00.637917
-003.300,-035.245,+003.429,+1.897,-0.020,+1.422,-02.4690,-01.9320,-09.7890,-00.170116,-06.123466,+00.276573
-002.244,-043.816,+001.942,+2.002,-0.042,+1.132,-04.1930,+01.2740,-15.7930,-00.566642,-08.268895,+01.632322
+001.075,-054.526,-000.937,+2.053,-0.118,+0.819,-08.7320,-01.1080,-14.8500,-00.070602,-09.694479,+02.014486
+007.743,-065.631,-006.430,+2.066,-0.218,+0.488,-11.4190,-00.9090,-17.3960,+00.762944,-09.731858,+02.522511
+025.559,-075.657,-021.410,+1.991,-0.332,+0.100,-09.7650,-02.5640,-23.3640,+01.496083,-09.455001,+03.149770
+059.882,-079.343,-053.775,+1.929,-0.453,-0.100,-26.8630,-08.2980,-61.6420,+01.432212,-02.290859,+02.591968
+058.974,-077.068,-051.533,+1.986,-0.558,-0.011,+00.1010,-09.1950,-23.6200,+01.236016,+02.499235,+01.016962
+048.542,-074.282,-040.504,+2.097,-0.569,+0.133,+02.5270,-07.1770,-08.2530,+00.565990,+03.511895,-00.246609
+038.095,-071.601,-030.415,+2.208,-0.520,+0.298,+01.8060,-05.1300,-04.8420,-00.149031,+03.393943,-01.144662
+028.258,-068.694,-021.399,+2.300,-0.461,+0.495,-00.8250,-02.0120,-11.2570,-00.158970,+03.794517,-01.691158
+019.284,-064.171,-013.211,+2.374,-0.377,+0.765,-03.5270,+00.2020,-15.9620,+00.062375,+05.283712,-01.853709
+012.509,-057.667,-006.960,+2.384,-0.301,+1.100,-04.7900,+02.5270,-11.1560,+00.405818,+06.411766,-01.784595
+008.310,-050.387,-002.776,+2.288,-0.190,+1.468,-05.6980,+04.0690,-08.3640,+00.825099,+06.494490,-01.478289
+006.007,-042.945,-000.014,+2.118,-0.109,+1.727,-07.1490,+04.3190,-11.4910,+00.963149,+06.587316,-01.043733
+005.117,-035.392,+001.649,+1.923,-0.025,+1.925,-07.8920,+04.5420,-09.9220,+00.961561,+06.516598,-00.491217
+005.246,-028.252,+002.698,+1.764,-0.039,+2.135,-08.2730,+03.2100,-08.0700,+00.985314,+05.979333,+00.049793
+005.843,-022.188,+003.684,+1.613,-0.052,+2.273,-08.8180,+01.3300,-09.7650,+01.059523,+04.877471,+00.193510
+006.640,-016.835,+004.976,+1.470,-0.050,+2.379,-11.9490,+00.6620,-20.3750,+01.550258,+04.867875,+00.341588
+007.507,-011.315,+006.784,+1.355,-0.014,+2.540,-13.0230,-01.6470,-17.3610,+01.865187,+04.770074,+00.130563
+007.956,-006.112,+008.694,+1.194,+0.077,+2.687,-14.8840,-04.6750,-16.1760,+01.514620,+04.405463,-00.486781
+007.775,-001.227,+009.791,+1.001,+0.183,+2.799,-17.2460,-04.7270,-14.0560,+00.639811,+04.042462,-01.027448
+007.160,+003.319,+010.296,+0.799,+0.244,+2.867,-17.9690,-01.6940,-08.5860,+00.469579,+03.639531,-01.304339
+006.429,+007.218,+011.072,+0.601,+0.295,+2.853,-18.6050,+04.1350,-05.1280,+00.979632,+02.982971,-01.119200
+006.311,+010.365,+012.274,+0.476,+0.355,+2.836,-20.1500,+03.2930,+01.5370,+00.996318,+02.392347,-00.407982
+006.312,+012.123,+013.191,+0.403,+0.376,+2.843,-20.4310,+00.9310,+07.1810,+00.631216,+00.893424,-00.406362
+005.466,+012.429,+013.381,+0.389,+0.454,+2.799,-20.8190,-00.8560,+01.2460,+00.117919,-00.265538,-00.999949
+003.691,+011.962,+012.623,+0.410,+0.432,+2.784,-17.8980,-00.7780,+01.0600,-00.548183,-01.083242,-01.590272
+001.386,+010.497,+011.138,+0.458,+0.400,+2.787,+09.4750,-02.6910,-22.2940,-00.891095,-01.909246,-01.539584
+000.994,+008.180,+009.875,+0.541,+0.359,+2.742,+06.9810,+10.4230,-09.7840,-01.224652,-02.652106,+01.099780
+001.376,+003.969,+008.373,+0.676,+0.279,+2.709,-13.5440,+10.4740,-10.6330,-00.336887,-03.982116,+00.965781
+001.459,-000.196,+008.275,+0.812,+0.268,+2.664,-02.3530,+00.0720,-12.9040,+00.422174,-03.452157,+00.480673
+000.979,-004.109,+009.308,+0.950,+0.295,+2.595,-04.2980,-06.5120,-11.9920,+01.057694,-03.324375,-00.136556
+000.196,-008.110,+010.404,+1.061,+0.340,+2.498,-03.0480,-05.5760,-13.3480,+00.699041,-03.879994,+00.008173
-000.500,-011.382,+009.777,+1.148,+0.342,+2.485,-07.4710,+00.0150,-13.2290,-01.153999,-01.650302,-00.140210
-000.650,-012.401,+008.903,+1.199,+0.307,+2.429,-03.5210,-00.6190,-11.1600,-00.472172,-00.545757,+00.063809
-000.656,-012.783,+008.490,+1.197,+0.302,+2.421,-02.1300,-01.0070,-09.4700,-00.281026,-00.240187,+00.076183
-000.513,-013.072,+008.042,+1.208,+0.258,+2.440,-03.5340,-01.0610,-10.6640,-00.428686,-00.148943,+00.179541
-000.417,-013.180,+007.679,+1.213,+0.272,+2.419,-02.6100,-00.6960,-09.4910,-00.234599,-00.072600,+00.041334
-000.428,-013.281,+007.489,+1.219,+0.257,+2.406,-02.2300,-00.9650,-09.1170,-00.137177,-00.098914,-00.013770
-000.503,-013.392,+007.387,+1.222,+0.238,+2.430,-02.3520,-01.4310,-09.0510,-00.096865,-00.112707,-00.061984
-000.560,-013.523,+007.261,+1.222,+0.272,+2.414,-02.3770,-01.6000,-09.1200,-00.143447,-00.119672,-00.005456
-000.520,-013.660,+007.053,+1.224,+0.240,+2.401,-02.4920,-01.2970,-09.0220,-00.181642,-00.110232,+00.074104
-000.429,-013.788,+006.846,+1.231,+0.218,+2.431,-02.5670,-01.0970,-09.0890,-00.155080,-00.098588,+00.090918
-000.347,-013.919,+006.667,+1.236,+0.247,+2.409,-02.5070,-01.2030,-09.0190,-00.136930,-00.107284,+00.082330
-000.243,-014.042,+006.484,+1.240,+0.223,+2.402,-02.5080,-01.0790,-09.0400,-00.141339,-00.092178,+00.107380
-000.127,-014.152,+006.299,+1.231,+0.213,+2.420,-02.4050,-01.1140,-09.0370,-00.136226,-00.079036,+00.111393
+000.013,-014.261,+006.102,+1.245,+0.208,+2.394,-02.5460,-00.9550,-08.9890,-00.146214,-00.086061,+00.132483
+000.164,-014.366,+005.876,+1.249,+0.210,+2.378,-02.5160,-01.0410,-09.0360,-00.176236,-00.073171,+00.142197
+000.355,-014.476,+005.602,+1.245,+0.193,+2.399,-02.4510,-01.0550,-09.0150,-00.211341,-00.090069,+00.195802
+000.606,-014.617,+005.292,+1.258,+0.178,+2.395,-02.6370,-00.8860,-08.9660,-00.208339,-00.107286,+00.228622
+000.873,-014.777,+005.007,+1.252,+0.168,+2.370,-02.5760,-00.8710,-08.9910,-00.175353,-00.123187,+00.241231
+001.143,-014.947,+004.766,+1.268,+0.168,+2.395,-02.5320,-00.7830,-08.9710,-00.136049,-00.135877,+00.238205
+001.411,-015.156,+004.520,+1.268,+0.154,+2.385,-02.6440,-00.8970,-09.0170,-00.166335,-00.186169,+00.239404
+001.697,-015.445,+004.228,+1.263,+0.144,+2.374,-02.5230,-00.7460,-09.0220,-00.198578,-00.257394,+00.267030
+001.978,-015.815,+003.897,+1.272,+0.109,+2.364,-02.6090,-00.7410,-09.0820,-00.231976,-00.345816,+00.252969
+002.163,-016.357,+003.545,+1.304,+0.124,+2.354,-02.6440,-00.6070,-09.0420,-00.271676,-00.533433,+00.134535
+002.149,-017.121,+003.262,+1.323,+0.104,+2.331,-02.6380,-00.4530,-09.0100,-00.229536,-00.768452,-00.033898
+001.929,-018.154,+003.110,+1.332,+0.109,+2.345,-02.4220,-00.3870,-09.0450,-00.150338,-01.028512,-00.191407
+001.436,-019.650,+003.215,+1.383,+0.098,+2.288,-02.0900,-00.1930,-09.3080,+00.015800,-01.543602,-00.441191
+000.553,-021.751,+003.791,+1.447,+0.131,+2.248,-02.5350,-00.5820,-09.4140,+00.368873,-02.100641,-00.705062
-000.715,-024.486,+004.905,+1.516,+0.140,+2.203,-03.0750,-00.9510,-09.3040,+00.604768,-02.739208,-00.922699
-002.565,-028.357,+006.424,+1.631,+0.202,+2.068,-01.6890,-00.9500,-09.8560,+00.622477,-04.028604,-01.129336
-004.482,-034.237,+008.339,+1.771,+0.257,+1.905,-02.9760,-01.7370,-09.4610,+00.972894,-06.042672,-00.380437
-005.585,-042.555,+010.203,+1.930,+0.261,+1.668,-03.8130,-01.1900,-14.1660,+01.348606,-07.991886,+01.055966
-006.047,-053.098,+011.886,+2.100,+0.218,+1.279,-06.0680,-01.4280,-14.2390,+01.364625,-09.525305,+01.787817
-006.316,-064.582,+013.890,+2.198,+0.144,+0.901,-12.4120,-01.4320,-13.4220,+01.635564,-09.844901,+02.205450
-006.140,-076.033,+016.228,+2.214,+0.041,+0.536,-11.3790,-03.7490,-19.4390,+01.930683,-09.575644,+02.742964
+001.858,-084.485,+009.436,+2.190,-0.113,+0.171,-21.0120,-01.3110,-57.3520,+00.680625,-03.502412,+02.691192
+021.648,-083.499,-010.012,+2.213,-0.204,+0.173,+00.1700,-04.7040,-31.0780,+00.093261,+02.573118,+01.705174
+026.066,-079.034,-014.267,+2.268,-0.279,+0.342,+01.8660,-04.1000,-08.6580,+00.118068,+03.944608,+01.195531
+025.572,-074.440,-013.886,+2.305,-0.313,+0.499,+01.4320,-05.3150,-04.3140,-00.256213,+03.866214,+00.662275
+023.026,-070.030,-012.268,+2.356,-0.338,+0.646,-00.4920,-06.3140,-10.0910,-00.936592,+04.050882,-00.062637
+018.894,-064.650,-009.672,+2.398,-0.342,+0.911,-03.9940,-05.3280,-14.8660,-01.057782,+05.472866,-00.699884
+014.520,-057.878,-006.732,+2.361,-0.315,+1.252,-04.7360,-03.0530,-08.2330,-00.547276,+06.308351,-01.086982
+010.945,-050.835,-004.036,+2.228,-0.239,+1.559,-05.1660,-02.5580,-07.3660,-00.013027,+06.226571,-01.301064
+008.063,-043.736,-001.829,+2.021,-0.206,+1.799,-07.0290,-02.1150,-12.3190,+00.098238,+06.380957,-01.402270
+005.865,-036.243,-000.188,+1.801,-0.124,+1.944,-08.1970,-00.8390,-11.5360,+00.303928,+06.607502,-01.292585
+004.494,-028.758,+001.299,+1.628,-0.043,+2.051,-09.2630,+01.6750,-07.6330,+00.873560,+06.364988,-00.883611
+004.061,-022.398,+003.050,+1.506,-0.017,+2.139,-09.8280,+02.0630,-07.2210,+01.442284,+04.927135,-00.387363
+004.524,-017.067,+004.738,+1.442,+0.062,+2.173,-13.1000,+00.1580,-19.3410,+01.685100,+04.805167,+00.266273
+005.331,-011.849,+006.515,+1.429,+0.088,+2.256,-13.7330,-03.8150,-13.4370,+01.735282,+04.332416,+00.126891
+005.601,-007.419,+008.223,+1.397,+0.099,+2.428,-16.2270,-06.9630,-13.5900,+01.303931,+03.598276,-00.547392
+005.153,-003.464,+009.277,+1.323,+0.169,+2.548,-19.4040,-05.3820,-13.5310,+00.720775,+03.269403,-01.085294
+004.270,+000.594,+010.297,+1.224,+0.232,+2.696,-21.5190,-02.1740,-11.5870,+00.993763,+03.465228,-01.528796
+002.936,+004.717,+011.174,+1.080,+0.310,+2.841,-21.2720,+00.9120,-02.6810,+00.558323,+03.095584,-01.952469
+001.443,+007.999,+011.153,+0.942,+0.361,+2.905,-23.0450,+03.2070,+03.1060,-00.123045,+02.183898,-01.713933
-000.027,+009.927,+010.942,+0.845,+0.392,+2.962,-22.8840,+03.6230,+06.8350,+00.159196,+00.930724,-01.522488
-001.753,+010.219,+010.901,+0.827,+0.417,+2.990,-21.1700,+01.5750,+04.1080,+00.170870,-00.573966,-01.514784
-003.395,+008.141,+010.075,+0.919,+0.445,+2.989,-03.7680,+00.6830,-17.0230,-00.982110,-02.140403,-01.010733
-003.741,+005.475,+009.767,+1.039,+0.427,+2.970,+06.0960,+08.7980,-11.3740,-00.401986,-02.935592,+01.181773
-003.017,+001.406,+009.250,+1.195,+0.373,+2.969,-12.5220,+00.0760,-12.6050,+00.087499,-03.414064,+00.964875
-003.046,-002.228,+008.801,+1.370,+0.416,+2.912,-03.1490,-05.9190,-13.3060,-00.221780,-03.015787,+00.257642
-003.647,-005.542,+008.908,+1.503,+0.362,+2.854,-03.4680,-01.6790,-11.7790,+00.154202,-02.873152,-00.114004
-004.110,-008.907,+009.045,+1.632,+0.368,+2.812,-02.8560,-03.5680,-12.0420,-00.006505,-03.217710,+00.085667
-004.463,-011.739,+008.053,+1.761,+0.357,+2.721,-05.3440,+01.3370,-11.0800,-01.033283,-01.671490,+00.117543
-004.408,-013.129,+007.413,+1.819,+0.322,+2.689,-03.3320,-02.3110,-09.5040,-00.445056,-00.911230,+00.186554
-004.276,-013.921,+007.063,+1.858,+0.306,+2.699,-03.2830,-01.0040,-10.1950,-00.222460,-00.540034,+00.191874
-004.126,-014.351,+006.690,+1.862,+0.277,+2.667,-02.8720,-00.8110,-09.5130,-00.321723,-00.287449,+00.166063
-003.990,-014.631,+006.309,+1.881,+0.269,+2.633,-02.6610,-00.8880,-09.1150,-00.293129,-00.210465,+00.130389
-003.894,-014.849,+006.039,+1.890,+0.252,+2.674,-02.6820,-00.7080,-09.0240,-00.164006,-00.159411,+00.074041
-003.889,-014.996,+005.937,+1.899,+0.247,+2.637,-02.4770,-00.6930,-08.9320,-00.046740,-00.110100,-00.012340
-003.954,-015.099,+005.949,+1.885,+0.240,+2.633,-02.5330,-01.0700,-08.9270,+00.008514,-00.091457,-00.057842
-004.000,-015.201,+005.948,+1.885,+0.237,+2.642,-02.6220,-01.2220,-08.9360,-00.029912,-00.088211,-00.000609
-003.946,-015.292,+005.871,+1.899,+0.242,+2.615,-02.5390,-01.1820,-08.9930,-00.067353,-00.068885,+00.092029
-003.808,-015.375,+005.714,+1.904,+0.239,+2.634,-02.8220,-00.9250,-09.0760,-00.113839,-00.052747,+00.127828
-003.688,-015.436,+005.557,+1.904,+0.203,+2.675,-02.8280,-00.7370,-08.9180,-00.101545,-00.032346,+00.086740
-003.577,-015.482,+005.411,+1.908,+0.227,+2.643,-02.5000,-00.9470,-08.9220,-00.106465,-00.035406,+00.116938
-003.403,-015.553,+005.215,+1.908,+0.202,+2.629,-02.6640,-00.8980,-08.9630,-00.141608,-00.058184,+00.170300
-003.209,-015.640,+004.983,+1.917,+0.183,+2.659,-02.8230,-00.8770,-08.9660,-00.166070,-00.056721,+00.163317
-003.018,-015.703,+004.733,+1.917,+0.173,+2.633,-02.8260,-00.8090,-09.0080,-00.175879,-00.029490,+00.170380
-002.795,-015.750,+004.466,+1.920,+0.170,+2.622,-02.7500,-00.7480,-08.9700,-00.181494,-00.027088,+00.205284
-002.515,-015.819,+004.159,+1.922,+0.129,+2.665,-02.6800,-00.9100,-08.9910,-00.212558,-00.058718,+00.264578
-002.181,-015.934,+003.822,+1.922,+0.134,+2.655,-02.8400,-00.7210,-08.9700,-00.202293,-00.090778,+00.292232
-001.865,-016.072,+003.516,+1.924,+0.121,+2.617,-02.8220,-00.5820,-08.9770,-00.180562,-00.114614,+00.263752
-001.555,-016.271,+003.237,+1.936,+0.099,+2.629,-02.7920,-00.5890,-08.9750,-00.163473,-00.186291,+00.274191
-001.210,-016.583,+002.941,+1.945,+0.079,+2.624,-02.5710,-00.4370,-09.1160,-00.185910,-00.295250,+00.304102
-000.953,-017.003,+002.661,+1.949,+0.064,+2.592,-03.0430,-00.3310,-08.9240,-00.170548,-00.414146,+00.191356
-000.863,-017.610,+002.467,+1.977,+0.049,+2.599,-02.8870,-00.3330,-08.9950,-00.135927,-00.612032,+00.044881
-000.947,-018.518,+002.350,+2.000,+0.059,+2.535,-02.6770,-00.3200,-09.0440,-00.107116,-00.933880,-00.085879
-001.247,-019.889,+002.321,+2.053,+0.053,+2.508,-02.1540,-00.5380,-09.1690,-00.121251,-01.389754,-00.253576
-001.694,-021.857,+002.431,+2.115,+0.052,+2.476,-03.8280,-00.4700,-09.4250,+00.054018,-01.971373,-00.269382
-002.274,-024.678,+002.946,+2.198,+0.075,+2.367,-02.5790,-00.8050,-09.8940,+00.385520,-02.768781,-00.363203
-003.051,-028.574,+003.823,+2.303,+0.128,+2.237,-03.0310,-01.3170,-09.7420,+00.411926,-03.926010,-00.421055
-003.790,-034.315,+004.437,+2.423,+0.150,+2.050,-03.3080,-02.2730,-09.3820,+00.012037,-05.797255,+00.041269
-003.855,-042.402,+004.144,+2.584,+0.117,+1.709,-04.5700,-01.2410,-11.0430,-00.565582,-07.791228,+00.765629
-002.534,-052.810,+003.240,+2.721,+0.067,+1.300,-07.4980,-00.9000,-13.1520,+00.328827,-09.696495,+01.661261
+001.149,-064.216,+000.548,+2.780,-0.046,+0.899,-10.6910,-00.5120,-11.0930,+00.514895,-09.991693,+02.289575
+011.309,-075.322,-007.902,+2.743,-0.127,+0.389,-07.7120,-01.9520,-19.6940,+00.838153,-09.933710,+02.521881
+050.835,-082.947,-047.074,+2.622,-0.258,+0.012,-03.6110,-01.6040,-28.3370,-00.737323,-06.890532,+03.054805
+064.625,-081.468,-060.630,+2.567,-0.313,+0.061,+00.1960,-03.6730,-37.4930,+00.874585,+01.750345,+01.559343
+048.323,-077.933,-042.911,+2.530,-0.312,+0.322,+00.6180,-06.6560,-14.7270,+01.432953,+04.657067,+00.280756
+033.447,-073.686,-027.470,+2.480,-0.278,+0.584,+01.4930,-06.3680,-02.5850,+00.368097,+04.711372,-00.898697
+022.651,-069.710,-017.950,+2.434,-0.230,+0.794,-00.4170,-02.7300,-05.0350,-01.106146,+04.177073,-01.605277
+014.271,-065.197,-011.671,+2.366,-0.150,+0.945,-03.7810,+01.2020,-12.0230,-01.217004,+04.886519,-01.695525
+008.400,-059.147,-007.239,+2.299,-0.092,+1.116,-05.1490,+03.4770,-11.1000,-00.332675,+05.965434,-01.318090
+005.030,-052.106,-004.475,+2.256,-0.083,+1.294,-06.1470,+02.5260,-10.2830,+00.094184,+06.414264,-00.860302
+003.119,-044.576,-002.857,+2.247,-0.067,+1.534,-07.7390,+00.1730,-10.8270,+00.141420,+06.740318,-00.641217
+001.772,-036.825,-001.863,+2.220,-0.055,+1.820,-08.1100,-00.5570,-08.8520,+00.094805,+06.746583,-00.606211
+000.795,-029.362,-001.029,+2.087,-0.037,+2.245,-08.7220,+00.9000,-07.3230,+00.363429,+06.354502,-00.477773
+000.418,-022.766,-000.036,+1.756,+0.041,+2.493,-09.4500,+01.2880,-07.7960,+00.904878,+05.323430,-00.112128
+000.609,-017.240,+000.915,+1.482,+0.111,+2.579,-11.6260,+00.5360,-19.8140,+00.935152,+04.787643,+00.305558
+001.270,-011.405,+002.063,+1.272,+0.145,+2.621,-12.9710,-02.1040,-18.0120,+01.280345,+05.176318,+00.418471
+001.789,-005.775,+003.540,+1.084,+0.231,+2.681,-14.3600,-03.8770,-14.3750,+01.344571,+04.730688,+00.050279
+001.894,-000.705,+004.956,+0.932,+0.267,+2.733,-16.0180,-03.3600,-13.0480,+01.195979,+04.234118,-00.406371
+001.532,+003.767,+006.391,+0.748,+0.294,+2.805,-16.7120,-00.4440,-08.5400,+01.321903,+03.586429,-00.865997
+000.872,+007.398,+007.897,+0.592,+0.379,+2.803,-19.1650,+03.8830,-05.2060,+01.398085,+02.764009,-00.914070
+000.412,+010.025,+009.012,+0.493,+0.444,+2.793,-22.1050,+02.5420,+00.3830,+00.748970,+01.853374,-00.650569
-000.098,+011.460,+009.556,+0.431,+0.454,+2.796,-23.1980,+03.1590,+05.1170,+00.532906,+00.731105,-00.679094
-001.073,+011.521,+009.688,+0.417,+0.493,+2.773,-22.1160,+01.8840,+05.1880,+00.037117,-00.605848,-00.921849
-002.405,+010.090,+008.900,+0.456,+0.463,+2.759,-14.3060,+05.0430,+05.5220,-00.847702,-01.942157,-00.661993
-002.965,+007.835,+008.414,+0.513,+0.448,+2.794,+24.8880,+04.2080,-20.9410,+00.062780,-02.163457,+00.563237
-001.992,+004.293,+007.882,+0.647,+0.417,+2.752,-07.8040,+00.3220,+07.0170,-01.327043,-03.449400,+00.821971
-001.961,-000.070,+007.643,+0.780,+0.418,+2.699,-08.3700,-00.4930,-19.3130,-00.395405,-03.517689,+00.234703
-002.240,-003.857,+007.882,+0.891,+0.400,+2.688,-04.0580,-04.2140,-12.5570,+00.526162,-03.293924,+00.054356
-002.813,-007.481,+008.606,+1.015,+0.403,+2.618,-04.6030,-03.3920,-12.1340,+00.538977,-03.245137,-00.011817
-003.433,-011.282,+008.559,+1.135,+0.433,+2.562,-12.4750,-04.1540,-24.2540,-00.600941,-02.798451,-00.032369
-003.526,-013.102,+007.760,+1.190,+0.391,+2.535,-04.3800,-02.1000,-12.7040,-00.301219,-01.166904,+00.258281
-003.434,-014.020,+007.318,+1.227,+0.371,+2.499,-03.3960,+00.5600,-10.4590,-00.227258,-00.607002,+00.178745
-003.325,-014.541,+006.986,+1.240,+0.366,+2.497,-02.5290,-01.0360,-09.3200,-00.308225,-00.351841,+00.159062
-003.182,-014.867,+006.608,+1.245,+0.331,+2.511,-03.0550,-00.7890,-09.2930,-00.266523,-00.246523,+00.122359
-003.141,-015.098,+006.369,+1.250,+0.346,+2.463,-02.5260,-00.7510,-09.0990,-00.159707,-00.168428,+00.037260
-003.104,-015.273,+006.191,+1.261,+0.331,+2.493,-02.6390,-00.9840,-08.9980,-00.148303,-00.136624,+00.057438
-003.058,-015.394,+005.999,+1.277,+0.321,+2.507,-02.7430,-01.0500,-09.0250,-00.155920,-00.089682,+00.041983
-003.003,-015.505,+005.803,+1.263,+0.336,+2.485,-02.7690,-01.0720,-08.9360,-00.167174,-00.090363,+00.074015
-002.890,-015.622,+005.585,+1.273,+0.331,+2.475,-02.7480,-00.9910,-09.0040,-00.157525,-00.094701,+00.111581
-002.778,-015.738,+005.387,+1.277,+0.292,+2.513,-02.7520,-00.9120,-09.0650,-00.138845,-00.087923,+00.103057
-002.645,-015.828,+005.183,+1.273,+0.306,+2.464,-02.8740,-01.0000,-08.9780,-00.151910,-00.059497,+00.130199
-002.483,-015.906,+004.952,+1.279,+0.306,+2.464,-02.8550,-00.8680,-08.9900,-00.166349,-00.055970,+00.145692
-002.298,-015.987,+004.702,+1.291,+0.306,+2.502,-02.7260,-00.8540,-08.9790,-00.181528,-00.057507,+00.172814
-002.070,-016.073,+004.421,+1.277,+0.277,+2.486,-02.8330,-00.7590,-08.9760,-00.197047,-00.060480,+00.208758
-001.800,-016.163,+004.115,+1.284,+0.255,+2.465,-02.9150,-00.6770,-08.9660,-00.199767,-00.064266,+00.243011
-001.505,-016.264,+003.811,+1.282,+0.252,+2.476,-02.8350,-00.7000,-08.9550,-00.186285,-00.076261,+00.258172
-001.193,-016.384,+003.523,+1.291,+0.242,+2.465,-02.8450,-00.6210,-08.9760,-00.170028,-00.095239,+00.270220
-000.879,-016.535,+003.245,+1.302,+0.232,+2.466,-02.8250,-00.6050,-08.9240,-00.159601,-00.130164,+00.267789
-000.573,-016.726,+002.990,+1.305,+0.213,+2.498,-02.9150,-00.5090,-08.9590,-00.141002,-00.169034,+00.259594
-000.311,-016.973,+002.750,+1.314,+0.198,+2.467,-02.8130,-00.3220,-09.0940,-00.153000,-00.227349,+00.193131
-000.168,-017.307,+002.522,+1.318,+0.210,+2.451,-03.0750,-00.4310,-08.9550,-00.167925,-00.347461,+00.108114
-000.133,-017.821,+002.307,+1.337,+0.183,+2.436,-03.0930,-00.4780,-08.9060,-00.179283,-00.511846,+00.013332
-000.210,-018.565,+002.125,+1.360,+0.202,+2.436,-02.5530,-00.2940,-08.9310,-00.180004,-00.756735,-00.077185
-000.382,-019.648,+001.978,+1.392,+0.199,+2.406,-02.8190,-00.3470,-08.9420,-00.171547,-01.069375,-00.115461
-000.618,-021.080,+001.928,+1.424,+0.167,+2.407,-04.3180,-00.2020,-09.0680,-00.074149,-01.394192,-00.210747
-001.115,-023.124,+002.165,+1.493,+0.215,+2.330,-05.1440,-01.0490,-09.0370,+00.144200,-02.081286,-00.411239
