Yaw,Pitch,Roll,MagX,MagY,MagZ,AccelX,AccelY,AccelZ,GyroX,GyroY,GyroZ
-017.563,-000.277,+179.924,-0.125,-0.791,-1.326,-00.0490,-00.0280,+10.2120,-00.000909,-00.000120,-00.000087
-017.563,-000.279,+179.924,-0.135,-0.776,-1.310,-00.0930,-00.0180,+10.2000,+00.000662,-00.000211,-00.000007
-017.563,-000.280,+179.924,-0.130,-0.811,-1.331,-00.0470,-00.0070,+10.2230,-00.000436,-00.000836,-00.000711
-017.563,-000.281,+179.925,-0.130,-0.806,-1.294,-00.0760,+00.0100,+10.2180,-00.000789,-00.000403,-00.000293
-017.562,-000.282,+179.926,-0.135,-0.747,-1.305,-00.0500,+00.0040,+10.1950,-00.000022,+00.000353,-00.000027
-017.563,-000.282,+179.924,-0.130,-0.791,-1.310,-00.0640,-00.0220,+10.2400,-00.000054,-00.000459,+00.000989
-017.563,-000.282,+179.923,-0.125,-0.796,-1.288,-00.0590,-00.0350,+10.2000,-00.000225,-00.000167,+00.000656
-017.562,-000.281,+179.923,-0.130,-0.766,-1.310,-00.0380,+00.0200,+10.2080,-00.001250,+00.000197,-00.000273
-017.563,-000.281,+179.923,-0.135,-0.791,-1.310,-00.0400,-00.0220,+10.2050,-00.000214,-00.000430,+00.000909
-017.564,-000.280,+179.922,-0.125,-0.810,-1.299,-00.0460,-00.0060,+10.2310,-00.000640,-00.001622,+00.000895
-017.564,-000.280,+179.922,-0.135,-0.801,-1.321,-00.0420,-00.0020,+10.2190,-00.000633,-00.000643,-00.000441
-017.564,-000.280,+179.922,-0.125,-0.791,-1.315,-00.0240,-00.0080,+10.2050,-00.000489,+00.002190,+00.000349
-017.564,-000.279,+179.923,-0.125,-0.781,-1.283,-00.0650,-00.0030,+10.2010,-00.000792,-00.001008,+00.000120
-017.564,-000.279,+179.923,-0.121,-0.761,-1.320,-00.0590,-00.0140,+10.2040,+00.000529,-00.000702,-00.001310
-017.565,-000.279,+179.922,-0.125,-0.781,-1.310,-00.0610,-00.0020,+10.2090,-00.002127,-00.001247,+00.000397
-017.565,-000.278,+179.922,-0.135,-0.786,-1.310,-00.0610,-00.0080,+10.1960,-00.000991,-00.001200,+00.000565
-017.565,-000.279,+179.923,-0.125,-0.747,-1.315,-00.0560,+00.0020,+10.1940,-00.000032,+00.000241,-00.000441
-017.565,-000.279,+179.923,-0.135,-0.771,-1.299,-00.0330,-00.0060,+10.2110,-00.000597,+00.001046,-00.001421
-017.565,-000.278,+179.923,-0.130,-0.761,-1.288,-00.0440,+00.0030,+10.2130,-00.000226,-00.001155,-00.000823
-017.565,-000.277,+179.923,-0.130,-0.752,-1.326,-00.0450,+00.0000,+10.2320,-00.000778,-00.000796,+00.000082
-017.565,-000.277,+179.924,-0.139,-0.810,-1.315,-00.0360,+00.0030,+10.2070,-00.001037,+00.000153,+00.000491
-017.566,-000.276,+179.924,-0.130,-0.810,-1.299,-00.0540,-00.0070,+10.1960,+00.000223,-00.001034,+00.001763
-017.566,-000.276,+179.924,-0.139,-0.781,-1.326,-00.0450,-00.0080,+10.1900,+00.000120,-00.000345,+00.000611
-017.567,-000.276,+179.922,-0.130,-0.801,-1.304,-00.0430,-00.0320,+10.2200,-00.000931,+00.000685,+00.000664
-017.567,-000.276,+179.922,-0.130,-0.810,-1.272,-00.0570,-00.0100,+10.2280,-00.000340,-00.000243,-00.000175
-017.566,-000.276,+179.922,-0.130,-0.776,-1.304,-00.0370,-00.0090,+10.2180,-00.000465,-00.001339,+00.000289
-017.567,-000.274,+179.922,-0.135,-0.766,-1.332,-00.0430,+00.0110,+10.2350,+00.000194,-00.001504,+00.000136
-017.568,-000.274,+179.922,-0.125,-0.791,-1.304,-00.0340,-00.0360,+10.1920,-00.000331,-00.000546,+00.001284
-017.568,-000.274,+179.921,-0.125,-0.771,-1.315,-00.0480,-00.0240,+10.1890,-00.001713,-00.000625,+00.000246
-017.568,-000.275,+179.921,-0.135,-0.810,-1.310,-00.0470,-00.0210,+10.2300,-00.000738,+00.000072,+00.001612
-017.568,-000.274,+179.921,-0.125,-0.786,-1.299,-00.0480,-00.0180,+10.2480,+00.000395,-00.000978,-00.000265
-017.568,-000.275,+179.920,-0.130,-0.791,-1.320,-00.0470,-00.0010,+10.1670,-00.000781,+00.000949,+00.000208
-017.569,-000.274,+179.922,-0.135,-0.781,-1.294,-00.0520,-00.0140,+10.2020,+00.001268,-00.000859,-00.000070
-017.569,-000.273,+179.922,-0.135,-0.796,-1.299,-00.0400,-00.0100,+10.2120,-00.000390,+00.000842,+00.001560
-017.570,-000.272,+179.922,-0.130,-0.761,-1.310,-00.0440,+00.0020,+10.2060,-00.000506,-00.000384,-00.000781
-017.570,-000.272,+179.922,-0.139,-0.806,-1.331,-00.0580,-00.0050,+10.1990,+00.001242,-00.000672,+00.000118
-017.571,-000.272,+179.922,-0.135,-0.796,-1.305,-00.0550,-00.0130,+10.2400,-00.001198,-00.000100,+00.001107
-017.571,-000.271,+179.924,-0.125,-0.771,-1.299,-00.0370,-00.0060,+10.2070,+00.000546,-00.000081,+00.000409
-017.570,-000.270,+179.922,-0.130,-0.786,-1.310,-00.0750,-00.0310,+10.2000,+00.000522,+00.000231,-00.000207
-017.570,-000.270,+179.922,-0.135,-0.801,-1.294,-00.0330,-00.0230,+10.2280,+00.000240,-00.000030,+00.000063
-017.570,-000.271,+179.922,-0.130,-0.761,-1.299,-00.0620,-00.0180,+10.2330,+00.000244,+00.000355,-00.000120
-017.571,-000.271,+179.922,-0.139,-0.771,-1.326,-00.0590,+00.0030,+10.2730,-00.000391,+00.000064,+00.000926
-017.571,-000.271,+179.922,-0.135,-0.801,-1.288,-00.0370,-00.0160,+10.1970,+00.000774,-00.001985,-00.000354
-017.571,-000.271,+179.921,-0.121,-0.781,-1.299,-00.0560,-00.0130,+10.2230,-00.000981,+00.000063,-00.000838
-017.571,-000.271,+179.921,-0.135,-0.791,-1.310,-00.0360,-00.0150,+10.2330,-00.000398,-00.001245,+00.000933
-017.571,-000.270,+179.922,-0.125,-0.756,-1.294,-00.0410,+00.0020,+10.2140,+00.000225,-00.001465,-00.000280
-017.571,-000.269,+179.921,-0.121,-0.766,-1.315,-00.0380,-00.0200,+10.1880,+00.001162,-00.000873,-00.000256
-017.572,-000.268,+179.920,-0.125,-0.752,-1.310,-00.0670,-00.0300,+10.2080,-00.000163,-00.000018,-00.000376
-017.572,-000.268,+179.920,-0.130,-0.801,-1.304,-00.0610,+00.0070,+10.2540,-00.000671,-00.000889,-00.000108
-017.572,-000.267,+179.920,-0.135,-0.781,-1.305,-00.0380,-00.0240,+10.2220,-00.001170,-00.000892,-00.000764
-017.573,-000.266,+179.920,-0.125,-0.801,-1.326,-00.0450,-00.0060,+10.2340,+00.000186,-00.000728,+00.000381
-017.573,-000.266,+179.920,-0.125,-0.791,-1.293,-00.0500,-00.0080,+10.2120,-00.001122,-00.001741,+00.000371
-017.573,-000.266,+179.920,-0.125,-0.766,-1.310,-00.0530,-00.0130,+10.2140,-00.000313,-00.000648,+00.001136
-017.573,-000.267,+179.920,-0.125,-0.776,-1.310,-00.0710,-00.0140,+10.2040,+00.000482,-00.000301,+00.000490
-017.574,-000.266,+179.919,-0.135,-0.791,-1.321,-00.0740,-00.0170,+10.2060,-00.000393,-00.001340,-00.000247
-017.575,-000.266,+179.920,-0.125,-0.771,-1.310,-00.0550,+00.0060,+10.1950,-00.000347,+00.000447,+00.000592
-017.574,-000.268,+179.921,-0.135,-0.786,-1.326,-00.1070,-00.0140,+10.2010,+00.000135,+00.000853,-00.000924
-017.575,-000.269,+179.921,-0.135,-0.791,-1.294,-00.0540,-00.0320,+10.1790,-00.000068,+00.000181,-00.000753
-017.575,-000.269,+179.921,-0.135,-0.781,-1.315,-00.0600,-00.0270,+10.2050,-00.000059,-00.000802,-00.000864
-017.575,-000.270,+179.921,-0.130,-0.806,-1.320,-00.0480,-00.0270,+10.2180,+00.000170,-00.001676,+00.000591
-017.574,-000.270,+179.922,-0.121,-0.747,-1.288,-00.0390,+00.0000,+10.2230,-00.000324,-00.000869,-00.000996
-017.574,-000.270,+179.921,-0.121,-0.786,-1.315,-00.0690,-00.0190,+10.2060,-00.000584,+00.000158,+00.000564
-017.575,-000.269,+179.921,-0.125,-0.786,-1.304,-00.0490,-00.0030,+10.2080,+00.000063,+00.000227,-00.000242
-017.575,-000.269,+179.920,-0.125,-0.801,-1.299,-00.0370,-00.0100,+10.2060,-00.000824,-00.000290,+00.000457
-017.575,-000.268,+179.921,-0.130,-0.771,-1.321,-00.0510,+00.0070,+10.2030,+00.000364,-00.000446,+00.000490
-017.576,-000.267,+179.921,-0.116,-0.806,-1.325,-00.0200,-00.0010,+10.2330,+00.000575,+00.000233,-00.000033
-017.576,-000.267,+179.922,-0.139,-0.761,-1.300,-00.0540,-00.0300,+10.2200,-00.000093,+00.000442,+00.000364
-017.576,-000.267,+179.922,-0.130,-0.791,-1.326,-00.0330,-00.0130,+10.1960,-00.000663,-00.000652,-00.000481
-017.576,-000.267,+179.922,-0.125,-0.791,-1.320,-00.0560,-00.0130,+10.2350,-00.000214,+00.000033,-00.000603
-017.575,-000.267,+179.922,-0.130,-0.820,-1.304,-00.0580,-00.0250,+10.1930,-00.000633,+00.000614,+00.000782
-017.576,-000.268,+179.921,-0.125,-0.771,-1.320,-00.0740,-00.0250,+10.1880,+00.000312,-00.000422,+00.000032
-017.575,-000.269,+179.922,-0.139,-0.771,-1.310,-00.0690,-00.0080,+10.2400,-00.000591,-00.000841,-00.000295
-017.576,-000.270,+179.921,-0.130,-0.786,-1.304,-00.0650,-00.0340,+10.2030,-00.000697,+00.000742,+00.000140
-017.576,-000.269,+179.921,-0.135,-0.781,-1.326,-00.0550,+00.0120,+10.1890,-00.000164,-00.001286,-00.000410
-017.576,-000.268,+179.921,-0.125,-0.801,-1.320,-00.0330,+00.0030,+10.1810,+00.000025,+00.000111,+00.000026
-017.576,-000.270,+179.921,-0.121,-0.771,-1.293,-00.0560,-00.0260,+10.1910,+00.000040,+00.000242,-00.000136
-017.576,-000.269,+179.921,-0.130,-0.781,-1.315,-00.0700,-00.0100,+10.1950,-00.001281,-00.000589,-00.000600
-017.576,-000.269,+179.921,-0.130,-0.796,-1.310,-00.0640,-00.0200,+10.2150,-00.000306,-00.000155,+00.000698
-017.576,-000.269,+179.921,-0.139,-0.781,-1.289,-00.0400,-00.0190,+10.2110,-00.000185,+00.000501,+00.000136
-017.576,-000.269,+179.920,-0.135,-0.771,-1.299,-00.0410,-00.0390,+10.1980,-00.001082,-00.000069,-00.000316
-017.576,-000.267,+179.919,-0.130,-0.791,-1.320,-00.0470,-00.0140,+10.2030,+00.001237,-00.000119,-00.001004
-017.576,-000.267,+179.919,-0.135,-0.791,-1.315,-00.0480,-00.0130,+10.2100,-00.000355,-00.001461,+00.000934
-017.576,-000.267,+179.920,-0.125,-0.771,-1.336,-00.0440,-00.0040,+10.2210,-00.001022,-00.001347,-00.000524
-017.576,-000.268,+179.923,-0.125,-0.786,-1.310,-00.0810,+00.0070,+10.2370,+00.000562,+00.001246,-00.000186
-017.576,-000.270,+179.922,-0.130,-0.786,-1.299,-00.0820,+00.0010,+10.2410,+00.000672,-00.000563,-00.000652
-017.577,-000.268,+179.923,-0.125,-0.796,-1.315,-00.0580,+00.0060,+10.2520,+00.000246,-00.000586,+00.000477
-017.577,-000.269,+179.923,-0.125,-0.801,-1.320,-00.0450,-00.0140,+10.2060,+00.000523,-00.000832,-00.000251
-017.577,-000.268,+179.922,-0.121,-0.791,-1.299,-00.0600,-00.0300,+10.2050,+00.000367,-00.000722,+00.000125
-017.578,-000.268,+179.922,-0.130,-0.791,-1.310,-00.0730,-00.0160,+10.2130,-00.000017,-00.000351,-00.000465
-017.577,-000.268,+179.923,-0.125,-0.786,-1.310,-00.0590,+00.0110,+10.2070,-00.001104,+00.000504,-00.000259
-017.577,-000.268,+179.924,-0.130,-0.766,-1.299,-00.0440,-00.0130,+10.2480,-00.000148,+00.000665,-00.000301
-017.577,-000.268,+179.924,-0.121,-0.776,-1.315,-00.0500,-00.0160,+10.1810,-00.000477,-00.000801,-00.000338
-017.577,-000.267,+179.925,-0.125,-0.791,-1.315,-00.0530,-00.0100,+10.2090,+00.000276,-00.000469,+00.000248
-017.577,-000.268,+179.925,-0.135,-0.761,-1.294,-00.0490,+00.0030,+10.2100,+00.000423,-00.000490,-00.000371
-017.577,-000.267,+179.925,-0.116,-0.791,-1.320,-00.0380,-00.0040,+10.1970,-00.000238,+00.000451,-00.000875
-017.578,-000.267,+179.924,-0.144,-0.786,-1.316,-00.0520,-00.0200,+10.2190,-00.000483,-00.000382,+00.000385
-017.578,-000.267,+179.924,-0.116,-0.801,-1.298,-00.0670,-00.0260,+10.2180,-00.000214,-00.000975,-00.000394
-017.577,-000.268,+179.922,-0.125,-0.766,-1.299,-00.0600,-00.0200,+10.1970,-00.001227,-00.000891,-00.000749
-017.578,-000.267,+179.923,-0.125,-0.796,-1.326,-00.0500,-00.0150,+10.2100,+00.001238,+00.000044,-00.000528
-017.578,-000.268,+179.923,-0.139,-0.815,-1.310,-00.0790,+00.0030,+10.2250,-00.000674,-00.000849,+00.001178
-017.578,-000.267,+179.924,-0.116,-0.776,-1.315,-00.0390,-00.0060,+10.2280,+00.000769,-00.000031,+00.000355
-017.579,-000.267,+179.924,-0.130,-0.766,-1.310,-00.0340,-00.0060,+10.1990,+00.000084,+00.000191,-00.000231
-017.578,-000.267,+179.923,-0.125,-0.771,-1.288,-00.0450,-00.0120,+10.2270,-00.001279,-00.001078,-00.000615
-017.578,-000.267,+179.924,-0.135,-0.801,-1.321,-00.0500,-00.0210,+10.1890,-00.000343,-00.000906,-00.000354
-017.579,-000.266,+179.923,-0.144,-0.791,-1.326,-00.0680,-00.0050,+10.2120,-00.000104,-00.001003,-00.000476
-017.579,-000.266,+179.923,-0.125,-0.781,-1.293,-00.0560,-00.0150,+10.2200,+00.000858,-00.000402,+00.000420
-017.579,-000.266,+179.923,-0.112,-0.796,-1.320,-00.0520,-00.0210,+10.2300,-00.000377,+00.000247,-00.000319
-017.579,-000.267,+179.922,-0.130,-0.801,-1.304,-00.0650,-00.0210,+10.2320,-00.001240,-00.000074,+00.001066
-017.579,-000.267,+179.923,-0.135,-0.776,-1.289,-00.0460,+00.0180,+10.2380,-00.001754,-00.000001,+00.001367
-017.579,-000.267,+179.922,-0.130,-0.776,-1.310,-00.0470,-00.0160,+10.1970,-00.000062,+00.000487,-00.000240
-017.579,-000.267,+179.923,-0.125,-0.796,-1.320,-00.0420,+00.0220,+10.1800,+00.000635,-00.000554,-00.000278
-017.579,-000.267,+179.924,-0.121,-0.771,-1.293,-00.0360,-00.0060,+10.2020,-00.000416,+00.000749,+00.000446
-017.579,-000.267,+179.925,-0.130,-0.756,-1.321,-00.0440,-00.0060,+10.2050,-00.000684,-00.000191,+00.000725
-017.580,-000.267,+179.926,-0.130,-0.786,-1.299,-00.0680,-00.0060,+10.2410,+00.000256,+00.000157,-00.000821
-017.580,-000.268,+179.927,-0.130,-0.796,-1.288,-00.0330,-00.0100,+10.2350,-00.000447,-00.000034,+00.000591
-017.580,-000.268,+179.926,-0.116,-0.781,-1.341,-00.0450,-00.0320,+10.1940,-00.000120,-00.000794,+00.000358
-017.579,-000.268,+179.927,-0.130,-0.801,-1.315,-00.0460,+00.0130,+10.2410,-00.000021,-00.000170,-00.000620
-017.580,-000.267,+179.927,-0.144,-0.776,-1.284,-00.0470,-00.0270,+10.1810,+00.000072,-00.000143,-00.000110
-017.580,-000.267,+179.927,-0.130,-0.781,-1.310,-00.0460,-00.0030,+10.2430,+00.001019,-00.000363,-00.000464
-017.580,-000.267,+179.927,-0.121,-0.796,-1.320,-00.0550,+00.0010,+10.2310,-00.000500,-00.000258,+00.001976
-017.580,-000.268,+179.927,-0.121,-0.786,-1.293,-00.0840,-00.0170,+10.2060,+00.000067,-00.000843,+00.000772
-017.580,-000.268,+179.928,-0.139,-0.791,-1.337,-00.0760,+00.0070,+10.2110,-00.000828,-00.000868,+00.000499
-017.580,-000.267,+179.929,-0.135,-0.796,-1.321,-00.0210,-00.0040,+10.2000,-00.000455,-00.000426,-00.001032
-017.580,-000.267,+179.930,-0.139,-0.801,-1.294,-00.0380,+00.0000,+10.2080,-00.000919,-00.000221,-00.000022
-017.581,-000.265,+179.928,-0.130,-0.771,-1.321,-00.0460,-00.0210,+10.1970,-00.000343,-00.000871,+00.000429
-017.581,-000.265,+179.929,-0.121,-0.791,-1.309,-00.0420,-00.0150,+10.2390,-00.000470,-00.000194,-00.000734
-017.581,-000.265,+179.930,-0.125,-0.781,-1.288,-00.0430,+00.0000,+10.2000,-00.000692,-00.000120,-00.000224
-017.580,-000.265,+179.929,-0.121,-0.771,-1.326,-00.0510,-00.0190,+10.2510,-00.000700,+00.001259,-00.000202
-017.580,-000.265,+179.928,-0.130,-0.796,-1.294,-00.0800,+00.0020,+10.2150,-00.000004,-00.001909,+00.001331
-017.580,-000.265,+179.928,-0.121,-0.796,-1.293,-00.0590,-00.0070,+10.2460,+00.000593,-00.000971,+00.000193
-017.581,-000.265,+179.928,-0.130,-0.776,-1.321,-00.0360,+00.0070,+10.2010,+00.000752,-00.000996,+00.000473
-017.581,-000.264,+179.928,-0.125,-0.761,-1.315,-00.0480,-00.0100,+10.1880,+00.000051,+00.000975,+00.000279
-017.580,-000.265,+179.929,-0.135,-0.801,-1.304,-00.0670,-00.0070,+10.2390,-00.000758,-00.000035,+00.000043
-017.581,-000.265,+179.929,-0.125,-0.781,-1.315,-00.0580,+00.0030,+10.2030,+00.000041,-00.001226,+00.000608
-017.582,-000.264,+179.930,-0.125,-0.796,-1.336,-00.0600,+00.0130,+10.2370,+00.000654,+00.000276,+00.000291
-017.582,-000.264,+179.931,-0.125,-0.796,-1.309,-00.0720,-00.0150,+10.2060,+00.000430,-00.000475,-00.000717
-017.581,-000.264,+179.932,-0.116,-0.776,-1.315,-00.0430,-00.0060,+10.2520,-00.001457,-00.000025,-00.000756
-017.581,-000.264,+179.930,-0.121,-0.786,-1.315,-00.0780,-00.0180,+10.1840,-00.000406,-00.001120,+00.000369
-017.580,-000.263,+179.930,-0.130,-0.820,-1.304,-00.0580,+00.0010,+10.2310,-00.000127,-00.000132,+00.001258
-017.581,-000.263,+179.929,-0.139,-0.786,-1.326,-00.0180,-00.0080,+10.2420,-00.000696,-00.000413,+00.000943
-017.580,-000.264,+179.930,-0.130,-0.806,-1.315,-00.0640,+00.0050,+10.1630,+00.000256,+00.000925,-00.000483
-017.580,-000.264,+179.930,-0.125,-0.796,-1.315,-00.0830,+00.0020,+10.2350,+00.000165,-00.000738,+00.001253
-017.581,-000.264,+179.930,-0.130,-0.776,-1.321,-00.0600,-00.0090,+10.2240,-00.000310,-00.001111,-00.000341
-017.581,-000.264,+179.931,-0.125,-0.781,-1.315,-00.0510,-00.0190,+10.1690,-00.000435,-00.000109,-00.001126
-017.581,-000.264,+179.930,-0.130,-0.786,-1.283,-00.0310,+00.0050,+10.2150,-00.000320,-00.000249,-00.000336
-017.581,-000.263,+179.931,-0.116,-0.781,-1.336,-00.0450,-00.0050,+10.1510,+00.000221,-00.000619,-00.000089
-017.582,-000.263,+179.931,-0.125,-0.781,-1.315,-00.0520,-00.0260,+10.1940,-00.000200,-00.000072,+00.000119
-017.581,-000.263,+179.930,-0.135,-0.771,-1.289,-00.0330,-00.0120,+10.2210,-00.000507,-00.000465,+00.000402
-017.581,-000.264,+179.931,-0.125,-0.742,-1.310,-00.0730,+00.0180,+10.2090,-00.000345,-00.000978,-00.000407
-017.581,-000.263,+179.930,-0.121,-0.791,-1.304,-00.0640,-00.0110,+10.2430,-00.000036,-00.001241,-00.001187
-017.581,-000.264,+179.930,-0.116,-0.791,-1.293,-00.0420,-00.0200,+10.1960,-00.000521,-00.000765,+00.000548
-017.581,-000.266,+179.928,-0.121,-0.766,-1.315,-00.0620,-00.0360,+10.2330,-00.001835,+00.000275,+00.000362
-017.582,-000.266,+179.928,-0.130,-0.811,-1.326,-00.0690,-00.0150,+10.1990,+00.000061,-00.000504,+00.000477
-017.582,-000.267,+179.929,-0.135,-0.796,-1.283,-00.0520,+00.0090,+10.2180,+00.000143,+00.000173,+00.000534
-017.583,-000.269,+179.929,-0.130,-0.781,-1.315,-00.0500,+00.0080,+10.1690,+00.000039,-00.000217,-00.000166
-017.583,-000.268,+179.929,-0.130,-0.791,-1.310,-00.0390,-00.0140,+10.2100,+00.000303,+00.000250,+00.000265
-017.583,-000.270,+179.928,-0.125,-0.781,-1.293,-00.0710,-00.0060,+10.2170,-00.000124,-00.000895,-00.000369
-017.583,-000.270,+179.928,-0.125,-0.791,-1.310,-00.0560,+00.0040,+10.2330,-00.000413,-00.000781,+00.000237
-017.583,-000.271,+179.928,-0.125,-0.776,-1.310,-00.0650,-00.0140,+10.2030,+00.000434,-00.000129,+00.000108
-017.583,-000.270,+179.929,-0.135,-0.815,-1.288,-00.0290,-00.0390,+10.2150,+00.000208,-00.000157,-00.000795
-017.583,-000.271,+179.928,-0.121,-0.771,-1.299,-00.0570,-00.0050,+10.2010,-00.000663,-00.000057,+00.000700
-017.583,-000.271,+179.927,-0.125,-0.791,-1.320,-00.0480,-00.0290,+10.2370,-00.000241,-00.000253,+00.000037
-017.583,-000.270,+179.927,-0.130,-0.796,-1.299,-00.0600,-00.0020,+10.2300,-00.000004,-00.000515,-00.000742
-017.583,-000.271,+179.927,-0.125,-0.781,-1.320,-00.0600,-00.0160,+10.2120,-00.000234,-00.000521,+00.000678
-017.582,-000.271,+179.927,-0.130,-0.761,-1.310,-00.0610,-00.0110,+10.2060,+00.000435,-00.000142,-00.000356
-017.583,-000.273,+179.928,-0.112,-0.776,-1.298,-00.0500,+00.0070,+10.2090,+00.000445,-00.000745,+00.000043
-017.583,-000.273,+179.929,-0.125,-0.796,-1.309,-00.0630,-00.0150,+10.2270,+00.000251,+00.000365,-00.000475
-017.583,-000.271,+179.928,-0.135,-0.796,-1.321,-00.0480,-00.0090,+10.2080,+00.000027,+00.000194,-00.000337
-017.584,-000.271,+179.928,-0.130,-0.761,-1.283,-00.0450,-00.0180,+10.2180,+00.000761,-00.000740,-00.000386
-017.584,-000.271,+179.928,-0.121,-0.781,-1.331,-00.0560,-00.0140,+10.1790,+00.000516,-00.002216,+00.000034
-017.583,-000.271,+179.928,-0.126,-0.806,-1.331,-00.0650,-00.0320,+10.1770,+00.000128,-00.000536,+00.000476
-017.583,-000.270,+179.927,-0.135,-0.801,-1.294,-00.0450,-00.0200,+10.2090,-00.000411,-00.000333,-00.000309
-017.583,-000.271,+179.927,-0.130,-0.781,-1.315,-00.0640,-00.0100,+10.2200,-00.000639,-00.001219,-00.000446
-017.583,-000.273,+179.927,-0.125,-0.796,-1.320,-00.0700,-00.0150,+10.2290,-00.000886,-00.000034,+00.000970
-017.583,-000.274,+179.927,-0.135,-0.766,-1.294,-00.0270,-00.0220,+10.2130,+00.000483,-00.000574,-00.000291
-017.583,-000.276,+179.927,-0.130,-0.771,-1.315,-00.0660,-00.0290,+10.2490,-00.001113,-00.000884,-00.000602
-017.583,-000.276,+179.928,-0.125,-0.791,-1.320,-00.0610,+00.0080,+10.2100,-00.000186,-00.000150,+00.000333
-017.583,-000.275,+179.929,-0.135,-0.786,-1.294,-00.0530,-00.0030,+10.2030,-00.000764,+00.000549,+00.000983
-017.583,-000.275,+179.929,-0.130,-0.781,-1.304,-00.0620,-00.0210,+10.2280,-00.000032,-00.001210,+00.000514
-017.584,-000.275,+179.929,-0.135,-0.781,-1.305,-00.0680,+00.0010,+10.1840,-00.000496,+00.000806,+00.000340
-017.584,-000.274,+179.928,-0.130,-0.766,-1.294,-00.0380,-00.0140,+10.2190,-00.001232,-00.001315,-00.001112
-017.584,-000.274,+179.927,-0.125,-0.786,-1.299,-00.0540,-00.0350,+10.2440,-00.000180,-00.001863,-00.000896
-017.584,-000.275,+179.926,-0.130,-0.796,-1.304,-00.0540,-00.0100,+10.1950,-00.000057,-00.000986,-00.000784
-017.585,-000.275,+179.927,-0.135,-0.796,-1.299,-00.0490,-00.0260,+10.2170,+00.000675,+00.000448,+00.000129
-017.585,-000.276,+179.926,-0.121,-0.781,-1.304,-00.0550,-00.0380,+10.1980,-00.000625,-00.000970,+00.000159
-017.585,-000.276,+179.926,-0.135,-0.791,-1.315,-00.0580,+00.0090,+10.2060,-00.001047,+00.001004,+00.000396
-017.585,-000.278,+179.927,-0.135,-0.801,-1.310,-00.0570,-00.0130,+10.1950,-00.000909,+00.000045,-00.000666
-017.585,-000.278,+179.927,-0.121,-0.786,-1.325,-00.0620,+00.0090,+10.2340,-00.000768,-00.000924,-00.000375
-017.585,-000.277,+179.927,-0.130,-0.781,-1.310,-00.0450,+00.0020,+10.1750,+00.000452,+00.000209,-00.000528
-017.585,-000.278,+179.927,-0.121,-0.766,-1.293,-00.0490,+00.0000,+10.1960,-00.000931,+00.000779,-00.000299
-017.585,-000.278,+179.927,-0.112,-0.752,-1.309,-00.0450,-00.0210,+10.2290,-00.000540,-00.001038,+00.000536
-017.584,-000.278,+179.927,-0.125,-0.776,-1.320,-00.0720,+00.0160,+10.2000,-00.001014,-00.000332,-00.000159
-017.583,-000.279,+179.927,-0.121,-0.786,-1.293,-00.0730,-00.0180,+10.1800,-00.000210,-00.000520,+00.000197
-017.583,-000.280,+179.926,-0.130,-0.771,-1.315,-00.0300,-00.0130,+10.2440,-00.000416,-00.000426,-00.000099
-017.583,-000.280,+179.926,-0.125,-0.791,-1.299,-00.0770,-00.0180,+10.2090,-00.000184,-00.000621,+00.000317
-017.583,-000.280,+179.926,-0.121,-0.776,-1.288,-00.0630,-00.0020,+10.1800,+00.000204,+00.000632,-00.001046
-017.582,-000.280,+179.926,-0.121,-0.771,-1.320,-00.0360,-00.0180,+10.1970,-00.000078,-00.000046,-00.000123
-017.582,-000.280,+179.926,-0.125,-0.786,-1.310,-00.0520,+00.0010,+10.2280,-00.000291,-00.000203,+00.001004
-017.583,-000.280,+179.926,-0.135,-0.810,-1.310,-00.0590,-00.0300,+10.2080,+00.000650,+00.000261,+00.000222
-017.582,-000.282,+179.926,-0.130,-0.786,-1.310,-00.0730,-00.0110,+10.2130,-00.000547,+00.000423,-00.001338
-017.582,-000.282,+179.927,-0.130,-0.801,-1.299,-00.0630,-00.0330,+10.2300,+00.000921,+00.000204,-00.001031
-017.582,-000.282,+179.927,-0.130,-0.811,-1.310,-00.0560,-00.0230,+10.2410,-00.000167,+00.000620,-00.000012
-017.582,-000.282,+179.926,-0.125,-0.776,-1.315,-00.0680,-00.0090,+10.2240,+00.000772,+00.000359,-00.001549
-017.583,-000.281,+179.927,-0.139,-0.796,-1.299,-00.0510,-00.0040,+10.2170,-00.000061,-00.001800,+00.000511
-017.583,-000.281,+179.927,-0.125,-0.796,-1.299,-00.0470,-00.0210,+10.2240,+00.000348,+00.000260,-00.000588
-017.583,-000.281,+179.927,-0.130,-0.771,-1.305,-00.0620,-00.0080,+10.1930,-00.001215,-00.000656,+00.001223
-017.584,-000.281,+179.927,-0.116,-0.776,-1.336,-00.0570,+00.0110,+10.1770,-00.000583,-00.001262,-00.000408
-017.584,-000.281,+179.927,-0.130,-0.806,-1.288,-00.0680,+00.0050,+10.2240,-00.001584,-00.000540,+00.000797
-017.583,-000.280,+179.926,-0.121,-0.786,-1.325,-00.0280,+00.0060,+10.1700,-00.000289,-00.000305,-00.000031
-017.583,-000.280,+179.925,-0.125,-0.791,-1.310,-00.0620,+00.0060,+10.2410,-00.001714,+00.000093,+00.000519
-017.583,-000.279,+179.925,-0.130,-0.747,-1.299,-00.0560,-00.0030,+10.2320,+00.000477,-00.001260,-00.001041
-017.583,-000.279,+179.925,-0.121,-0.781,-1.315,-00.0510,-00.0110,+10.2030,-00.000561,+00.000664,-00.000197
-017.584,-000.280,+179.926,-0.116,-0.806,-1.314,-00.0500,+00.0050,+10.2350,-00.000408,-00.000148,+00.000885
-017.584,-000.280,+179.926,-0.130,-0.801,-1.304,-00.0480,+00.0200,+10.2000,-00.000105,-00.000370,+00.000501
-017.583,-000.280,+179.927,-0.112,-0.752,-1.320,-00.0690,+00.0180,+10.1680,+00.000168,-00.002126,-00.000257
-017.583,-000.280,+179.926,-0.125,-0.791,-1.336,-00.0470,-00.0210,+10.2250,+00.000006,+00.000847,-00.000119
-017.583,-000.279,+179.926,-0.135,-0.781,-1.299,-00.0180,-00.0110,+10.2230,-00.000346,-00.001087,-00.000208
-017.583,-000.279,+179.925,-0.116,-0.776,-1.331,-00.0380,-00.0280,+10.1980,+00.000006,+00.000356,+00.001143
-017.583,-000.278,+179.924,-0.135,-0.791,-1.305,-00.0420,-00.0160,+10.2210,-00.000233,+00.000671,+00.000376
-017.583,-000.277,+179.925,-0.125,-0.806,-1.288,-00.0710,-00.0090,+10.2230,-00.000597,-00.001247,-00.000313
-017.583,-000.277,+179.924,-0.130,-0.776,-1.310,-00.0490,-00.0080,+10.1900,+00.000469,-00.001656,+00.000238
-017.583,-000.275,+179.925,-0.125,-0.796,-1.315,-00.0410,+00.0000,+10.2000,-00.000091,-00.000331,-00.000131
-017.583,-000.275,+179.924,-0.121,-0.796,-1.293,-00.0630,-00.0220,+10.2370,-00.000926,-00.001169,-00.000659
-017.582,-000.274,+179.924,-0.130,-0.781,-1.331,-00.0530,+00.0010,+10.2370,+00.000215,-00.000008,-00.001614
-017.582,-000.274,+179.925,-0.121,-0.786,-1.336,-00.0360,-00.0230,+10.2080,-00.000568,-00.000702,-00.000271
-017.582,-000.274,+179.924,-0.125,-0.786,-1.293,-00.0730,-00.0100,+10.2060,-00.000563,+00.000045,+00.000001
-017.582,-000.274,+179.924,-0.130,-0.786,-1.315,-00.0700,-00.0150,+10.2080,-00.000285,+00.000272,+00.000173
-017.582,-000.274,+179.924,-0.121,-0.776,-1.309,-00.0510,-00.0080,+10.2010,+00.000297,-00.000339,-00.000005
-017.582,-000.273,+179.924,-0.135,-0.801,-1.321,-00.0450,-00.0140,+10.2080,-00.000707,+00.000437,-00.000572
-017.582,-000.273,+179.925,-0.135,-0.791,-1.315,-00.0460,-00.0130,+10.2330,-00.000751,-00.000525,-00.000135
-017.582,-000.273,+179.924,-0.130,-0.786,-1.326,-00.0450,-00.0300,+10.2600,-00.000439,-00.001038,+00.000584
-017.580,-000.273,+179.924,-0.125,-0.811,-1.315,-00.0410,-00.0190,+10.2190,-00.000641,-00.000404,-00.001141
-017.580,-000.274,+179.925,-0.121,-0.757,-1.310,-00.0530,-00.0040,+10.2230,+00.000521,-00.000231,-00.000397
-017.580,-000.274,+179.925,-0.121,-0.796,-1.309,-00.0660,-00.0050,+10.2110,+00.000166,-00.000017,-00.000514
-017.580,-000.274,+179.925,-0.135,-0.796,-1.294,-00.0430,-00.0190,+10.1800,-00.000881,-00.000752,+00.000682
-017.581,-000.274,+179.925,-0.125,-0.781,-1.336,-00.0430,-00.0100,+10.1980,-00.000153,-00.000313,+00.000090
-017.581,-000.273,+179.925,-0.130,-0.766,-1.299,-00.0470,+00.0010,+10.2380,-00.000290,-00.001145,+00.000367
-017.581,-000.273,+179.925,-0.130,-0.786,-1.294,-00.0610,-00.0220,+10.2060,-00.000825,-00.000529,-00.000819
-017.581,-000.273,+179.925,-0.130,-0.776,-1.315,-00.0560,-00.0060,+10.2270,+00.000212,-00.001054,+00.000271
-017.582,-000.272,+179.925,-0.116,-0.766,-1.304,-00.0510,-00.0160,+10.2090,+00.000239,-00.000998,+00.000564
-017.582,-000.273,+179.925,-0.135,-0.796,-1.288,-00.0580,-00.0090,+10.2100,-00.000077,-00.000069,+00.000150
-017.583,-000.273,+179.926,-0.130,-0.786,-1.331,-00.0570,+00.0020,+10.1860,+00.000819,+00.001538,+00.000025
-017.583,-000.274,+179.927,-0.130,-0.786,-1.310,-00.0470,-00.0070,+10.2190,+00.000135,-00.000562,+00.000342
-017.584,-000.272,+179.927,-0.125,-0.806,-1.299,-00.0520,+00.0050,+10.2140,-00.000275,-00.001303,+00.000327
-017.583,-000.272,+179.926,-0.125,-0.771,-1.337,-00.0510,-00.0200,+10.2000,+00.000400,-00.000351,+00.000298
-017.583,-000.272,+179.927,-0.130,-0.776,-1.315,-00.0640,-00.0290,+10.2070,+00.000838,-00.000386,-00.000119
-017.583,-000.273,+179.927,-0.125,-0.811,-1.309,-00.0700,-00.0290,+10.1740,-00.000271,-00.000519,+00.001268
-017.583,-000.273,+179.927,-0.125,-0.781,-1.320,-00.0440,-00.0140,+10.2220,+00.000387,-00.000677,+00.000727
-017.583,-000.272,+179.927,-0.130,-0.781,-1.304,-00.0490,-00.0160,+10.2530,+00.000161,-00.000815,+00.000192
-017.584,-000.273,+179.927,-0.135,-0.786,-1.294,-00.0460,-00.0090,+10.2060,-00.000030,+00.000693,+00.000857
-017.584,-000.273,+179.928,-0.130,-0.761,-1.310,-00.0530,-00.0290,+10.2080,-00.000446,-00.001073,+00.000022
-017.583,-000.274,+179.927,-0.130,-0.786,-1.321,-00.0420,-00.0060,+10.2220,-00.000102,+00.002012,-00.000099
-017.584,-000.274,+179.926,-0.135,-0.796,-1.294,-00.0420,-00.0160,+10.2080,+00.000141,-00.002152,-00.000002
-017.584,-000.274,+179.928,-0.125,-0.771,-1.315,-00.0420,-00.0040,+10.1930,+00.000782,-00.000890,+00.000482
-017.584,-000.274,+179.927,-0.125,-0.776,-1.304,-00.0530,-00.0050,+10.2190,+00.000322,-00.000380,+00.001112
-017.584,-000.274,+179.927,-0.121,-0.786,-1.283,-00.0500,-00.0190,+10.1920,-00.000640,-00.000202,+00.000563
-017.584,-000.274,+179.927,-0.116,-0.776,-1.315,-00.0720,-00.0080,+10.2210,-00.000510,-00.000732,+00.000705
-017.585,-000.275,+179.927,-0.135,-0.801,-1.299,-00.0670,-00.0060,+10.2100,-00.000382,-00.001733,+00.000177
-017.584,-000.276,+179.927,-0.130,-0.786,-1.299,-00.0760,-00.0160,+10.1940,+00.000603,+00.000086,-00.000196
-017.584,-000.274,+179.927,-0.121,-0.781,-1.309,-00.0380,-00.0280,+10.2030,-00.000684,-00.001461,-00.000381
-017.585,-000.273,+179.928,-0.130,-0.791,-1.320,-00.0710,-00.0120,+10.2080,+00.000267,-00.000998,+00.000123
-017.585,-000.273,+179.928,-0.125,-0.801,-1.288,-00.0300,-00.0230,+10.2110,+00.000155,+00.000496,-00.000271
-017.584,-000.273,+179.928,-0.130,-0.776,-1.315,-00.0440,-00.0030,+10.2120,-00.000938,+00.000426,-00.000023
-017.585,-000.275,+179.929,-0.135,-0.771,-1.310,-00.0860,-00.0020,+10.2240,-00.000148,+00.000102,+00.001042
-017.585,-000.274,+179.928,-0.130,-0.786,-1.304,-00.0390,-00.0200,+10.2310,-00.000364,-00.000461,+00.000212
-017.585,-000.274,+179.928,-0.139,-0.756,-1.310,-00.0510,-00.0090,+10.1780,-00.000309,-00.000244,+00.000505
-017.586,-000.272,+179.928,-0.125,-0.786,-1.293,-00.0420,+00.0010,+10.2270,-00.000034,-00.000897,-00.000438
-017.586,-000.274,+179.928,-0.125,-0.801,-1.304,-00.0590,-00.0040,+10.2080,+00.000085,-00.000349,+00.001038
-017.587,-000.274,+179.928,-0.125,-0.771,-1.310,-00.0460,+00.0000,+10.2260,+00.000851,-00.000544,+00.000618
-017.586,-000.275,+179.929,-0.130,-0.771,-1.294,-00.0690,-00.0050,+10.1890,-00.000188,-00.000035,+00.000452
-017.586,-000.275,+179.928,-0.125,-0.786,-1.283,-00.0590,-00.0110,+10.2650,+00.000052,+00.000394,-00.000163
-017.587,-000.277,+179.928,-0.130,-0.776,-1.310,-00.0600,-00.0110,+10.2250,-00.000036,+00.000514,+00.000706
-017.587,-000.277,+179.929,-0.139,-0.791,-1.316,-00.0500,+00.0110,+10.2140,-00.000372,-00.000191,-00.000767
-017.588,-000.278,+179.930,-0.130,-0.796,-1.294,-00.0760,+00.0080,+10.2240,-00.000088,-00.001176,+00.001413
-017.589,-000.277,+179.929,-0.125,-0.756,-1.304,-00.0560,-00.0230,+10.1910,+00.000617,+00.000181,+00.000998
-017.588,-000.277,+179.929,-0.125,-0.781,-1.294,-00.0610,-00.0260,+10.2020,+00.000452,+00.000551,-00.001479
-017.588,-000.277,+179.929,-0.125,-0.791,-1.293,-00.0450,-00.0030,+10.2220,-00.000637,+00.000157,+00.000418
-017.589,-000.278,+179.930,-0.144,-0.761,-1.316,-00.0500,+00.0020,+10.2150,-00.000544,-00.000183,+00.000818
-017.590,-000.278,+179.930,-0.130,-0.776,-1.321,-00.0430,-00.0190,+10.1890,-00.000770,-00.000428,+00.000282
-017.590,-000.278,+179.929,-0.139,-0.801,-1.305,-00.0470,-00.0350,+10.2250,+00.000146,+00.000977,-00.000455
-017.590,-000.280,+179.929,-0.125,-0.776,-1.315,-00.0870,-00.0170,+10.2180,-00.000321,-00.000539,-00.000004
-017.589,-000.280,+179.930,-0.130,-0.766,-1.310,-00.0590,+00.0080,+10.2170,-00.000168,-00.001726,+00.000673
-017.590,-000.281,+179.930,-0.125,-0.771,-1.294,-00.0710,-00.0130,+10.2110,+00.000155,-00.000259,+00.000209
-017.590,-000.281,+179.931,-0.135,-0.781,-1.289,-00.0540,+00.0050,+10.1910,-00.000191,-00.001153,-00.000371
-017.591,-000.282,+179.930,-0.135,-0.791,-1.305,-00.0580,-00.0030,+10.2080,-00.000266,-00.000616,+00.000101
-017.591,-000.281,+179.930,-0.121,-0.786,-1.304,-00.0480,-00.0050,+10.1970,-00.000655,+00.000926,+00.000168
-017.591,-000.281,+179.931,-0.125,-0.781,-1.304,-00.0540,-00.0180,+10.2050,-00.001030,-00.000405,+00.000449
-017.591,-000.280,+179.930,-0.130,-0.771,-1.305,-00.0620,-00.0250,+10.2230,-00.000585,-00.000599,+00.000213
-017.591,-000.281,+179.931,-0.130,-0.786,-1.294,-00.0520,-00.0210,+10.2030,-00.000475,-00.000310,+00.001004
-017.591,-000.279,+179.930,-0.125,-0.766,-1.304,-00.0360,-00.0050,+10.2140,-00.000649,-00.000455,-00.001235
-017.592,-000.280,+179.929,-0.125,-0.771,-1.304,-00.0440,-00.0060,+10.2180,-00.000963,+00.000347,+00.000327
-017.591,-000.281,+179.930,-0.125,-0.771,-1.299,-00.0810,-00.0060,+10.2190,-00.000964,-00.000507,-00.000320
-017.591,-000.281,+179.930,-0.130,-0.776,-1.326,-00.0510,-00.0280,+10.2170,-00.000170,+00.000692,+00.000633
-017.591,-000.281,+179.930,-0.125,-0.806,-1.320,-00.0610,-00.0220,+10.1620,+00.000591,-00.000848,+00.000819
-017.591,-000.281,+179.929,-0.125,-0.796,-1.299,-00.0580,-00.0250,+10.2480,-00.000195,+00.000390,-00.000186
-017.591,-000.282,+179.929,-0.130,-0.776,-1.315,-00.0520,-00.0070,+10.1790,-00.000634,-00.000115,+00.000402
-017.592,-000.282,+179.929,-0.139,-0.781,-1.310,-00.0450,-00.0170,+10.1970,-00.000537,+00.000638,+00.000325
-017.593,-000.282,+179.930,-0.130,-0.791,-1.310,-00.0360,-00.0040,+10.2200,-00.000080,-00.000025,+00.000654
-017.593,-000.282,+179.931,-0.130,-0.781,-1.315,-00.0500,-00.0060,+10.1960,-00.001256,-00.001504,-00.000583
-017.593,-000.282,+179.932,-0.130,-0.791,-1.310,-00.0490,-00.0270,+10.2040,-00.000084,-00.001293,+00.000890
-017.594,-000.282,+179.931,-0.125,-0.781,-1.299,-00.0420,-00.0180,+10.2170,-00.000976,+00.000127,+00.000569
-017.595,-000.281,+179.931,-0.135,-0.776,-1.326,-00.0420,-00.0130,+10.2090,+00.000351,-00.000756,+00.000781
-017.595,-000.281,+179.931,-0.116,-0.796,-1.325,-00.0350,-00.0030,+10.2160,-00.000753,-00.000510,-00.000522
-017.595,-000.280,+179.930,-0.139,-0.805,-1.299,-00.0450,-00.0230,+10.2120,-00.000636,-00.000455,+00.000885
-017.594,-000.281,+179.929,-0.121,-0.796,-1.341,-00.0630,-00.0320,+10.2310,+00.000606,+00.000188,+00.001066
-017.594,-000.282,+179.930,-0.121,-0.786,-1.309,-00.0390,+00.0210,+10.2370,-00.000539,+00.000118,+00.000164
-017.594,-000.281,+179.929,-0.121,-0.811,-1.288,-00.0500,-00.0170,+10.2140,-00.000255,-00.000797,+00.000210
-017.592,-000.281,+179.929,-0.116,-0.791,-1.315,-00.0620,-00.0240,+10.1960,-00.000287,+00.000157,-00.000121
-017.592,-000.282,+179.928,-0.125,-0.791,-1.326,-00.0650,-00.0300,+10.2090,-00.001278,+00.000199,+00.000784
-017.593,-000.282,+179.928,-0.135,-0.766,-1.305,-00.0440,-00.0100,+10.2140,+00.000565,-00.000275,+00.001036
-017.592,-000.283,+179.927,-0.125,-0.791,-1.326,-00.0540,-00.0190,+10.2480,-00.000358,-00.000796,-00.001038
-017.592,-000.282,+179.927,-0.121,-0.757,-1.304,-00.0480,-00.0090,+10.2450,+00.000703,+00.000555,-00.000407
-017.592,-000.282,+179.928,-0.135,-0.820,-1.310,-00.0520,-00.0100,+10.2120,+00.000144,-00.000693,-00.000961
-017.591,-000.281,+179.927,-0.125,-0.757,-1.315,-00.0500,-00.0280,+10.2020,-00.000267,-00.000788,-00.000193
-017.592,-000.281,+179.928,-0.130,-0.806,-1.315,-00.0570,-00.0050,+10.2140,+00.000257,+00.001076,+00.000576
-017.592,-000.282,+179.927,-0.130,-0.771,-1.310,-00.0410,-00.0080,+10.1970,-00.000807,-00.000260,+00.000403
-017.592,-000.282,+179.927,-0.130,-0.786,-1.321,-00.0630,-00.0020,+10.2280,-00.001003,-00.000626,+00.000241
-017.593,-000.283,+179.929,-0.130,-0.756,-1.305,-00.0610,+00.0100,+10.2020,-00.000565,-00.000394,-00.000239
-017.593,-000.283,+179.928,-0.121,-0.791,-1.315,-00.0420,-00.0070,+10.1830,-00.001264,-00.000633,-00.000601
-017.593,-000.283,+179.927,-0.121,-0.781,-1.315,-00.0590,-00.0100,+10.2460,+00.000329,-00.000701,+00.000245
-017.593,-000.283,+179.926,-0.130,-0.776,-1.299,-00.0540,-00.0280,+10.2030,-00.000734,+00.000789,+00.001241
-017.593,-000.284,+179.926,-0.135,-0.806,-1.299,-00.0510,-00.0170,+10.2220,-00.000192,+00.000677,-00.000238
-017.594,-000.283,+179.926,-0.121,-0.771,-1.331,-00.0660,-00.0180,+10.2170,-00.000007,+00.000639,+00.000173
-017.593,-000.283,+179.928,-0.135,-0.786,-1.315,-00.0510,+00.0190,+10.2070,-00.000564,+00.000123,+00.000016
-017.593,-000.285,+179.928,-0.125,-0.756,-1.304,-00.0500,-00.0180,+10.2050,-00.000456,+00.000350,+00.000030
-017.593,-000.284,+179.927,-0.126,-0.786,-1.347,-00.0420,-00.0220,+10.2420,-00.000144,-00.000156,+00.000227
-017.593,-000.284,+179.927,-0.121,-0.796,-1.299,-00.0440,-00.0180,+10.1940,-00.000600,+00.000098,-00.000147
-017.593,-000.283,+179.928,-0.130,-0.791,-1.294,-00.0430,-00.0150,+10.2140,-00.000152,-00.000073,-00.000500
-017.593,-000.282,+179.927,-0.125,-0.776,-1.315,-00.0380,-00.0150,+10.2160,-00.000683,-00.000235,+00.000967
-017.594,-000.282,+179.928,-0.135,-0.786,-1.326,-00.0650,-00.0120,+10.2160,+00.000240,-00.000708,+00.000757
-017.594,-000.281,+179.928,-0.130,-0.761,-1.310,-00.0590,-00.0090,+10.2440,+00.000139,-00.000041,-00.000085
-017.594,-000.282,+179.926,-0.121,-0.771,-1.315,-00.0520,-00.0180,+10.2270,+00.000376,+00.000018,-00.000704
-017.595,-000.281,+179.927,-0.125,-0.781,-1.315,-00.0520,-00.0030,+10.2080,-00.000559,-00.000940,+00.001231
-017.595,-000.282,+179.927,-0.125,-0.786,-1.304,-00.0530,-00.0020,+10.2160,-00.002303,+00.000146,+00.002147
-017.595,-000.282,+179.926,-0.125,-0.786,-1.326,-00.0630,-00.0110,+10.2000,+00.000191,-00.000365,-00.000448
-017.595,-000.282,+179.927,-0.121,-0.801,-1.320,-00.0470,+00.0090,+10.2290,-00.000007,-00.000215,-00.000191
-017.595,-000.282,+179.927,-0.130,-0.796,-1.304,-00.0660,-00.0300,+10.2180,-00.000680,-00.000222,+00.000353
-017.595,-000.283,+179.926,-0.130,-0.761,-1.321,-00.0600,-00.0250,+10.2150,-00.000107,+00.001385,+00.000312
-017.596,-000.282,+179.926,-0.130,-0.752,-1.305,-00.0470,-00.0290,+10.2180,+00.001028,-00.000945,+00.001393
-017.596,-000.283,+179.926,-0.130,-0.810,-1.288,-00.0650,-00.0250,+10.2110,-00.000467,+00.000194,+00.000323
-017.597,-000.281,+179.926,-0.130,-0.806,-1.310,-00.0410,-00.0100,+10.2270,+00.000251,-00.001119,+00.000063
-017.597,-000.282,+179.927,-0.125,-0.786,-1.310,-00.0650,-00.0130,+10.1920,-00.000338,-00.000751,+00.000063
-017.597,-000.281,+179.927,-0.125,-0.781,-1.299,-00.0380,-00.0340,+10.2580,+00.000816,-00.000654,+00.000148
-017.598,-000.282,+179.926,-0.135,-0.791,-1.326,-00.0440,-00.0200,+10.2100,-00.000009,-00.000480,-00.000340
-017.599,-000.281,+179.926,-0.135,-0.801,-1.305,-00.0450,+00.0030,+10.1710,-00.000871,-00.000754,+00.000726
-017.599,-000.280,+179.925,-0.121,-0.786,-1.288,-00.0500,-00.0080,+10.2200,-00.002089,+00.000421,-00.000521
-017.598,-000.280,+179.925,-0.116,-0.776,-1.336,-00.0520,-00.0190,+10.2450,-00.001095,-00.001240,-00.000241
-017.598,-000.279,+179.925,-0.121,-0.776,-1.304,-00.0670,-00.0110,+10.2460,+00.000081,-00.000356,+00.001135
-017.599,-000.279,+179.926,-0.144,-0.800,-1.283,-00.0400,+00.0060,+10.2270,-00.000138,-00.000358,-00.001249
-017.598,-000.277,+179.927,-0.121,-0.761,-1.315,-00.0330,-00.0050,+10.2120,-00.000459,-00.000694,-00.000673
-017.598,-000.276,+179.927,-0.135,-0.776,-1.332,-00.0480,-00.0310,+10.1780,-00.000732,-00.000148,-00.000764
-017.599,-000.276,+179.929,-0.130,-0.791,-1.283,-00.0690,+00.0250,+10.1990,-00.000231,-00.000169,-00.000069
-017.599,-000.277,+179.929,-0.130,-0.776,-1.315,-00.0660,-00.0110,+10.1980,-00.000417,-00.000362,+00.000252
-017.599,-000.277,+179.929,-0.130,-0.791,-1.294,-00.0500,+00.0090,+10.2520,-00.000072,+00.000376,+00.000389
-017.599,-000.277,+179.930,-0.135,-0.771,-1.289,-00.0430,-00.0100,+10.1780,+00.000932,+00.000143,-00.000049
-017.599,-000.276,+179.929,-0.130,-0.771,-1.305,-00.0390,-00.0270,+10.2070,+00.000715,-00.000407,+00.000487
-017.600,-000.277,+179.928,-0.121,-0.806,-1.299,-00.0720,-00.0300,+10.2090,-00.000610,+00.000595,+00.000287
-017.599,-000.277,+179.929,-0.121,-0.811,-1.298,-00.0540,-00.0120,+10.1980,+00.000055,-00.001270,-00.000063
-017.599,-000.276,+179.929,-0.125,-0.781,-1.320,-00.0720,-00.0170,+10.2010,+00.000387,-00.000788,+00.000431
-017.600,-000.276,+179.930,-0.125,-0.786,-1.320,-00.0610,-00.0090,+10.2100,-00.000674,-00.000102,+00.000605
-017.599,-000.276,+179.929,-0.125,-0.796,-1.315,-00.0660,-00.0330,+10.2220,-00.000700,-00.001400,+00.000828
-017.599,-000.276,+179.930,-0.130,-0.776,-1.331,-00.0260,-00.0090,+10.2130,-00.000408,-00.001386,-00.000141
-017.599,-000.276,+179.931,-0.121,-0.786,-1.320,-00.0520,-00.0010,+10.2140,+00.000349,-00.000075,+00.000195
-017.599,-000.276,+179.931,-0.116,-0.791,-1.298,-00.0590,+00.0000,+10.2090,-00.000304,+00.000972,+00.000208
-017.599,-000.277,+179.930,-0.121,-0.771,-1.304,-00.0720,-00.0450,+10.2220,-00.000420,-00.001276,+00.000100
-017.598,-000.277,+179.929,-0.121,-0.781,-1.326,-00.0530,-00.0180,+10.2160,-00.000024,-00.000984,+00.000260
-017.598,-000.277,+179.930,-0.130,-0.811,-1.310,-00.0560,-00.0290,+10.2090,+00.000706,-00.000386,-00.000413
-017.598,-000.276,+179.930,-0.125,-0.771,-1.337,-00.0590,-00.0130,+10.2380,-00.000110,+00.000253,-00.000537
-017.598,-000.277,+179.931,-0.125,-0.791,-1.310,-00.0420,+00.0050,+10.2200,+00.000156,+00.000536,-00.001275
-017.598,-000.277,+179.930,-0.139,-0.806,-1.305,-00.0460,-00.0180,+10.1700,-00.000803,-00.001590,+00.000022
-017.599,-000.277,+179.931,-0.135,-0.752,-1.321,-00.0540,+00.0280,+10.1970,-00.000848,-00.000485,-00.000603
-017.599,-000.278,+179.930,-0.144,-0.776,-1.310,-00.0750,-00.0020,+10.1870,-00.000259,+00.001445,+00.000221
-017.599,-000.277,+179.931,-0.130,-0.776,-1.288,-00.0520,+00.0070,+10.2130,-00.000318,+00.000043,-00.000576
-017.599,-000.276,+179.931,-0.121,-0.786,-1.315,-00.0570,-00.0160,+10.1970,-00.000763,-00.001331,+00.000772
-017.599,-000.277,+179.930,-0.125,-0.776,-1.304,-00.0540,-00.0230,+10.2040,+00.000240,-00.001725,-00.000737
-017.599,-000.277,+179.930,-0.125,-0.776,-1.294,-00.0670,-00.0200,+10.1790,+00.000966,-00.001417,+00.000021
-017.599,-000.277,+179.929,-0.135,-0.781,-1.315,-00.0590,-00.0020,+10.2170,-00.000622,+00.000669,+00.000542
-017.600,-000.277,+179.929,-0.139,-0.786,-1.294,-00.0490,-00.0200,+10.1990,+00.001013,+00.000786,+00.000075
-017.600,-000.278,+179.930,-0.135,-0.801,-1.299,-00.0530,+00.0050,+10.2120,+00.000509,-00.000868,+00.000109
-017.600,-000.278,+179.931,-0.130,-0.766,-1.326,-00.0630,-00.0120,+10.2180,-00.000254,-00.000835,+00.000129
-017.600,-000.278,+179.931,-0.125,-0.781,-1.299,-00.0620,-00.0190,+10.1850,-00.000780,-00.000644,+00.000254
-017.599,-000.278,+179.930,-0.121,-0.776,-1.299,-00.0340,-00.0110,+10.1990,+00.000286,-00.000295,-00.000007
-017.600,-000.279,+179.931,-0.121,-0.776,-1.326,-00.0600,+00.0020,+10.1910,-00.000258,+00.001387,+00.000771
-017.600,-000.278,+179.931,-0.135,-0.786,-1.299,-00.0480,+00.0020,+10.2200,+00.000158,+00.000575,+00.000656
-017.600,-000.278,+179.932,-0.130,-0.751,-1.294,-00.0520,-00.0070,+10.1940,-00.000161,-00.000440,-00.000177
-017.600,-000.279,+179.932,-0.125,-0.781,-1.336,-00.0680,-00.0180,+10.2030,+00.000702,+00.000633,+00.000115
-017.601,-000.278,+179.931,-0.135,-0.796,-1.321,-00.0380,+00.0070,+10.2220,-00.000995,-00.001009,+00.000589
-017.600,-000.278,+179.932,-0.135,-0.810,-1.299,-00.0450,+00.0020,+10.2230,-00.000131,+00.000250,+00.000067
-017.600,-000.278,+179.933,-0.135,-0.781,-1.321,-00.0320,-00.0120,+10.1580,-00.000448,-00.000464,-00.000165
-017.600,-000.278,+179.935,-0.130,-0.791,-1.310,-00.0660,+00.0130,+10.2310,+00.000152,+00.000845,+00.000054
-017.600,-000.278,+179.932,-0.130,-0.796,-1.294,-00.0640,-00.0330,+10.1970,-00.000568,+00.000337,+00.001372
-017.600,-000.276,+179.931,-0.125,-0.771,-1.315,-00.0460,-00.0200,+10.2000,-00.000258,-00.001735,+00.000205
-017.600,-000.277,+179.932,-0.121,-0.786,-1.325,-00.0630,+00.0000,+10.1940,-00.000012,+00.000290,+00.001099
-017.600,-000.277,+179.932,-0.125,-0.791,-1.299,-00.0500,-00.0180,+10.2230,+00.000234,+00.000086,+00.000739
-017.601,-000.276,+179.934,-0.116,-0.781,-1.320,-00.0320,+00.0120,+10.1990,-00.000111,-00.001051,-00.000209
-017.601,-000.275,+179.933,-0.130,-0.796,-1.315,-00.0430,-00.0190,+10.2240,-00.000352,-00.001385,+00.001856
-017.601,-000.275,+179.932,-0.125,-0.786,-1.299,-00.0370,-00.0240,+10.2130,-00.000094,-00.000267,-00.000071
-017.601,-000.275,+179.934,-0.125,-0.776,-1.326,-00.0340,+00.0110,+10.1810,+00.001105,-00.001101,-00.000487
-017.601,-000.275,+179.934,-0.125,-0.791,-1.315,-00.0470,-00.0150,+10.1710,-00.000570,-00.000763,+00.000102
-017.601,-000.276,+179.934,-0.130,-0.786,-1.310,-00.0520,+00.0090,+10.2060,-00.001092,+00.000548,+00.000974
-017.601,-000.277,+179.934,-0.130,-0.786,-1.310,-00.0670,+00.0120,+10.1880,+00.000850,+00.000417,-00.000195
-017.601,-000.276,+179.932,-0.135,-0.796,-1.310,-00.0510,-00.0210,+10.2120,-00.000817,+00.000209,+00.000378
-017.602,-000.275,+179.933,-0.125,-0.791,-1.283,-00.0500,-00.0200,+10.2360,-00.000112,-00.001501,-00.000264
-017.602,-000.273,+179.933,-0.139,-0.781,-1.305,-00.0630,-00.0010,+10.2130,+00.000275,-00.001537,-00.000778
-017.602,-000.273,+179.933,-0.135,-0.791,-1.299,-00.0430,-00.0120,+10.2230,+00.001380,-00.001295,-00.000020
-017.603,-000.273,+179.932,-0.125,-0.776,-1.294,-00.0310,-00.0360,+10.2010,+00.000459,-00.000440,+00.001131
-017.602,-000.272,+179.933,-0.121,-0.786,-1.325,-00.0460,+00.0080,+10.2190,+00.000243,+00.000681,-00.000605
-017.603,-000.272,+179.933,-0.135,-0.751,-1.300,-00.0420,-00.0030,+10.1970,-00.001623,-00.000436,+00.000236
-017.603,-000.272,+179.933,-0.135,-0.781,-1.305,-00.0610,-00.0110,+10.2300,+00.000037,-00.000860,+00.000166
-017.604,-000.272,+179.932,-0.135,-0.776,-1.310,-00.0630,-00.0270,+10.2410,-00.000014,+00.001111,-00.000016
-017.604,-000.271,+179.932,-0.116,-0.806,-1.325,-00.0360,-00.0190,+10.1860,+00.000269,+00.000567,-00.000352
-017.604,-000.270,+179.933,-0.130,-0.811,-1.299,-00.0360,+00.0000,+10.2150,+00.000355,-00.000351,-00.000223
-017.604,-000.270,+179.933,-0.139,-0.786,-1.305,-00.0730,-00.0200,+10.2220,-00.000618,-00.000109,+00.000498
-017.604,-000.270,+179.934,-0.125,-0.781,-1.315,-00.0560,-00.0250,+10.1940,+00.000016,-00.000234,+00.000196
-017.604,-000.269,+179.933,-0.130,-0.786,-1.299,-00.0260,-00.0210,+10.2300,-00.001083,-00.000594,-00.000361
-017.604,-000.269,+179.934,-0.121,-0.781,-1.315,-00.0410,+00.0110,+10.1880,-00.000406,-00.000008,+00.000254
-017.604,-000.269,+179.934,-0.130,-0.801,-1.320,-00.0550,-00.0260,+10.1900,-00.000993,-00.001226,-00.000151
-017.604,-000.270,+179.935,-0.121,-0.761,-1.299,-00.0740,-00.0090,+10.2300,-00.000095,-00.000574,+00.000637
-017.604,-000.272,+179.935,-0.125,-0.781,-1.326,-00.0710,-00.0080,+10.2080,-00.000048,+00.000285,+00.000239
-017.605,-000.271,+179.935,-0.135,-0.781,-1.310,-00.0530,-00.0200,+10.1950,-00.001967,-00.000759,+00.000558
-017.605,-000.269,+179.935,-0.135,-0.786,-1.289,-00.0330,+00.0140,+10.1910,-00.000890,-00.002025,+00.000507
-017.605,-000.270,+179.937,-0.125,-0.796,-1.310,-00.0470,+00.0060,+10.2030,+00.000649,-00.000419,+00.000445
-017.605,-000.270,+179.936,-0.121,-0.791,-1.309,-00.0470,-00.0270,+10.2310,+00.000243,+00.000290,-00.000392
-017.605,-000.270,+179.937,-0.121,-0.786,-1.304,-00.0500,-00.0100,+10.2170,+00.000752,-00.000465,+00.001262
-017.604,-000.270,+179.937,-0.121,-0.766,-1.331,-00.0270,-00.0050,+10.2140,-00.000073,-00.000101,-00.001210
-017.604,-000.270,+179.937,-0.130,-0.811,-1.320,-00.0460,-00.0120,+10.2320,+00.000207,+00.000635,-00.000485
-017.604,-000.270,+179.937,-0.125,-0.786,-1.310,-00.0470,+00.0010,+10.2120,+00.000632,-00.001205,+00.000307
-017.604,-000.270,+179.937,-0.125,-0.766,-1.299,-00.0550,-00.0220,+10.2220,+00.000930,+00.000226,+00.000164
-017.604,-000.270,+179.936,-0.125,-0.796,-1.315,-00.0720,-00.0200,+10.1790,-00.001104,-00.001287,-00.001276
-017.604,-000.270,+179.935,-0.139,-0.791,-1.294,-00.0560,+00.0000,+10.2210,-00.000459,-00.001125,+00.000793
-017.604,-000.270,+179.934,-0.121,-0.786,-1.315,-00.0420,-00.0270,+10.2010,-00.001351,+00.000362,-00.000997
-017.604,-000.271,+179.934,-0.125,-0.786,-1.315,-00.0680,-00.0040,+10.2070,+00.000292,-00.000632,+00.000030
-017.605,-000.270,+179.933,-0.130,-0.781,-1.294,-00.0390,-00.0130,+10.2180,-00.000244,-00.000040,-00.000672
-017.604,-000.271,+179.933,-0.121,-0.791,-1.336,-00.0540,-00.0130,+10.2070,+00.000159,-00.000875,-00.000277
-017.605,-000.272,+179.933,-0.121,-0.791,-1.299,-00.0650,+00.0080,+10.2370,+00.000294,+00.000006,+00.000224
-017.605,-000.272,+179.933,-0.135,-0.776,-1.294,-00.0620,-00.0330,+10.2130,-00.000287,-00.000140,+00.000707
-017.604,-000.274,+179.932,-0.116,-0.742,-1.299,-00.0780,-00.0140,+10.2270,+00.000288,-00.000008,+00.000523
-017.605,-000.276,+179.933,-0.130,-0.766,-1.305,-00.0650,+00.0180,+10.2230,+00.000695,-00.000182,+00.000253
-017.605,-000.276,+179.932,-0.135,-0.766,-1.299,-00.0480,-00.0020,+10.1830,-00.000379,-00.000772,-00.000178
-017.606,-000.277,+179.933,-0.121,-0.776,-1.315,-00.0420,-00.0150,+10.2310,-00.000487,-00.000374,+00.001043
-017.605,-000.276,+179.931,-0.126,-0.801,-1.331,-00.0310,-00.0190,+10.1830,-00.000757,+00.000170,-00.000676
-017.606,-000.276,+179.931,-0.125,-0.791,-1.304,-00.0500,-00.0030,+10.1840,+00.000463,+00.000073,+00.001200
-017.606,-000.276,+179.933,-0.125,-0.801,-1.320,-00.0540,-00.0050,+10.2230,+00.000396,-00.000589,+00.000164
-017.606,-000.276,+179.933,-0.130,-0.806,-1.315,-00.0760,-00.0180,+10.1740,+00.000465,-00.000004,+00.001185
-017.606,-000.276,+179.933,-0.121,-0.791,-1.293,-00.0540,+00.0050,+10.2040,-00.000920,-00.000072,+00.000310
-017.605,-000.275,+179.934,-0.130,-0.781,-1.321,-00.0660,-00.0100,+10.2100,-00.000138,-00.002174,+00.000307
-017.605,-000.275,+179.934,-0.125,-0.801,-1.304,-00.0710,-00.0060,+10.1720,-00.000351,-00.000190,-00.000366
-017.606,-000.275,+179.933,-0.130,-0.796,-1.304,-00.0620,-00.0460,+10.2080,+00.000115,-00.000343,+00.000018
-017.605,-000.274,+179.932,-0.116,-0.796,-1.325,-00.0590,-00.0230,+10.1890,-00.000583,-00.001549,+00.000006
-017.604,-000.274,+179.930,-0.116,-0.761,-1.304,-00.0640,-00.0350,+10.2180,-00.000197,-00.000630,-00.000542
-017.604,-000.275,+179.931,-0.125,-0.786,-1.299,-00.0540,-00.0030,+10.2020,-00.000422,+00.000212,-00.000059
-017.604,-000.275,+179.931,-0.121,-0.762,-1.320,-00.0670,-00.0020,+10.2040,-00.000201,-00.000954,+00.001213
-017.604,-000.275,+179.931,-0.135,-0.791,-1.310,-00.0580,-00.0110,+10.1870,+00.000037,-00.000706,+00.000958
-017.604,-000.274,+179.930,-0.130,-0.791,-1.320,-00.0410,-00.0070,+10.1820,-00.000932,+00.000263,-00.000653
-017.603,-000.275,+179.931,-0.130,-0.786,-1.337,-00.0600,-00.0050,+10.2090,-00.000262,-00.000492,-00.000340
-017.604,-000.275,+179.931,-0.121,-0.801,-1.320,-00.0420,-00.0240,+10.2030,+00.000458,-00.001017,+00.000576
-017.604,-000.275,+179.931,-0.130,-0.776,-1.283,-00.0510,-00.0170,+10.2260,+00.000184,-00.000530,+00.000207
-017.604,-000.275,+179.931,-0.135,-0.776,-1.310,-00.0580,-00.0070,+10.2210,-00.000801,-00.000133,-00.000429
-017.603,-000.276,+179.932,-0.130,-0.786,-1.304,-00.0430,+00.0060,+10.2190,-00.000357,-00.000551,+00.000250
-017.603,-000.275,+179.932,-0.130,-0.816,-1.320,-00.0480,-00.0260,+10.2460,-00.000370,-00.001168,+00.000870
-017.603,-000.277,+179.932,-0.130,-0.786,-1.331,-00.0720,+00.0210,+10.2240,-00.000709,-00.000280,+00.000483
-017.603,-000.276,+179.932,-0.130,-0.796,-1.310,-00.0730,-00.0190,+10.2050,-00.000589,-00.000155,-00.000269
-017.603,-000.277,+179.931,-0.125,-0.781,-1.310,-00.0510,-00.0020,+10.2600,-00.000048,+00.000254,-00.000069
-017.603,-000.277,+179.932,-0.130,-0.781,-1.315,-00.0370,+00.0040,+10.1940,-00.000032,-00.000161,+00.000009
-017.604,-000.277,+179.932,-0.126,-0.801,-1.326,-00.0550,-00.0040,+10.2010,-00.000190,+00.000495,-00.000221
-017.603,-000.277,+179.932,-0.125,-0.776,-1.288,-00.0610,-00.0010,+10.1790,-00.000144,-00.000768,+00.000836
-017.603,-000.277,+179.932,-0.130,-0.761,-1.315,-00.0610,-00.0200,+10.2500,+00.000792,-00.000712,+00.000604
-017.602,-000.277,+179.934,-0.125,-0.786,-1.320,-00.0670,-00.0200,+10.2440,+00.001004,-00.000244,-00.001390
-017.603,-000.278,+179.934,-0.135,-0.810,-1.294,-00.0450,-00.0140,+10.2170,-00.000325,-00.000317,-00.000459
-017.603,-000.277,+179.933,-0.125,-0.742,-1.310,-00.0450,-00.0160,+10.2270,-00.000364,+00.000280,-00.000363
-017.603,-000.277,+179.934,-0.130,-0.801,-1.326,-00.0450,-00.0120,+10.2000,-00.000307,+00.000317,-00.000777
-017.602,-000.277,+179.933,-0.121,-0.801,-1.293,-00.0570,-00.0330,+10.1880,-00.000681,-00.000382,-00.000566
-017.603,-000.277,+179.933,-0.130,-0.776,-1.321,-00.0650,-00.0140,+10.2120,-00.000072,-00.000028,-00.000568
-017.603,-000.277,+179.933,-0.130,-0.771,-1.315,-00.0340,-00.0030,+10.1950,+00.000129,+00.000766,-00.000619
-017.603,-000.278,+179.933,-0.139,-0.806,-1.305,-00.0670,-00.0080,+10.2350,+00.000020,-00.000430,-00.000917
-017.602,-000.277,+179.933,-0.135,-0.776,-1.315,-00.0550,-00.0140,+10.2130,+00.000345,-00.000987,+00.000563
-017.602,-000.276,+179.933,-0.139,-0.786,-1.305,-00.0330,+00.0110,+10.2290,+00.000387,-00.000212,-00.000181
-017.602,-000.277,+179.933,-0.125,-0.776,-1.304,-00.0510,-00.0250,+10.2060,+00.000363,+00.000481,+00.000062
-017.602,-000.278,+179.932,-0.125,-0.781,-1.331,-00.0590,-00.0070,+10.2090,-00.000951,-00.001426,+00.000719
-017.602,-000.278,+179.932,-0.125,-0.761,-1.299,-00.0730,-00.0180,+10.2040,-00.000191,-00.000284,-00.000058
-017.602,-000.279,+179.932,-0.135,-0.786,-1.299,-00.0580,-00.0050,+10.2400,-00.000951,-00.001608,-00.000192
-017.602,-000.279,+179.932,-0.116,-0.786,-1.315,-00.0590,-00.0100,+10.2240,-00.000728,-00.000133,+00.000263
-017.603,-000.278,+179.932,-0.135,-0.776,-1.305,-00.0470,-00.0160,+10.1990,+00.000510,+00.000569,-00.000503
-017.603,-000.278,+179.931,-0.135,-0.791,-1.294,-00.0530,-00.0170,+10.2060,-00.000827,+00.000228,-00.000424
-017.602,-000.278,+179.931,-0.121,-0.776,-1.315,-00.0560,-00.0050,+10.2260,-00.000574,-00.000119,+00.000388
-017.602,-000.278,+179.932,-0.130,-0.786,-1.326,-00.0440,-00.0010,+10.2050,-00.000590,-00.000974,-00.000245
-017.602,-000.277,+179.931,-0.135,-0.796,-1.294,-00.0480,-00.0080,+10.2140,+00.000199,-00.001552,+00.000595
-017.601,-000.280,+179.931,-0.125,-0.771,-1.304,-00.0660,-00.0050,+10.2240,-00.000756,+00.000364,-00.000639
-017.602,-000.279,+179.930,-0.139,-0.811,-1.321,-00.0350,-00.0330,+10.2140,-00.000647,-00.001374,+00.000569
-017.601,-000.278,+179.930,-0.135,-0.801,-1.299,-00.0410,-00.0010,+10.1800,-00.001002,-00.001350,+00.000049
-017.602,-000.278,+179.929,-0.130,-0.781,-1.310,-00.0470,-00.0230,+10.2010,-00.001159,-00.000611,+00.000792
-017.603,-000.278,+179.929,-0.135,-0.796,-1.315,-00.0500,-00.0020,+10.2060,-00.001056,-00.001670,+00.000789
-017.603,-000.278,+179.928,-0.121,-0.786,-1.309,-00.0500,-00.0210,+10.2130,-00.000431,-00.000149,+00.000027
-017.602,-000.278,+179.928,-0.116,-0.737,-1.320,-00.0660,+00.0090,+10.2270,-00.000967,+00.000065,-00.000049
-017.603,-000.278,+179.929,-0.121,-0.796,-1.320,-00.0810,-00.0030,+10.2140,-00.000128,-00.000721,+00.001426
-017.602,-000.277,+179.930,-0.125,-0.806,-1.304,-00.0040,-00.0140,+10.2350,+00.000307,+00.000046,+00.000234
-017.602,-000.277,+179.929,-0.135,-0.796,-1.326,-00.0580,+00.0050,+10.2040,-00.000368,-00.000953,+00.000583
-017.601,-000.277,+179.931,-0.125,-0.752,-1.315,-00.0310,+00.0090,+10.2270,-00.001298,-00.000526,-00.000681
-017.601,-000.276,+179.930,-0.125,-0.796,-1.288,-00.0590,-00.0200,+10.2130,-00.000284,+00.000671,-00.000354
-017.602,-000.276,+179.930,-0.139,-0.727,-1.305,-00.0520,-00.0200,+10.2320,-00.000329,-00.001552,+00.000421
-017.602,-000.276,+179.929,-0.135,-0.791,-1.326,-00.0230,-00.0180,+10.1850,-00.001268,+00.000974,+00.000331
-017.602,-000.277,+179.928,-0.125,-0.815,-1.299,-00.0560,-00.0150,+10.2230,-00.001032,+00.000485,+00.000783
-017.602,-000.275,+179.928,-0.125,-0.771,-1.331,-00.0290,+00.0020,+10.1950,+00.000833,-00.000911,+00.000373
-017.602,-000.275,+179.928,-0.121,-0.752,-1.310,-00.0520,-00.0100,+10.2200,+00.000123,-00.000644,+00.000112
-017.602,-000.275,+179.927,-0.125,-0.761,-1.299,-00.0330,-00.0240,+10.1780,+00.000380,+00.000624,-00.000312
-017.602,-000.276,+179.928,-0.135,-0.796,-1.310,-00.0580,-00.0160,+10.1890,-00.001056,+00.000419,-00.000464
-017.602,-000.277,+179.928,-0.130,-0.786,-1.321,-00.0770,-00.0040,+10.2120,+00.000416,-00.000411,+00.000834
-017.602,-000.277,+179.928,-0.135,-0.796,-1.305,-00.0560,-00.0260,+10.1950,-00.000425,+00.000187,-00.000844
-017.602,-000.277,+179.928,-0.130,-0.761,-1.315,-00.0650,+00.0100,+10.1910,-00.000247,-00.000299,+00.000225
-017.602,-000.277,+179.927,-0.130,-0.796,-1.326,-00.0370,-00.0160,+10.1990,-00.000265,+00.000723,-00.000306
-017.602,-000.275,+179.926,-0.130,-0.791,-1.299,-00.0430,-00.0160,+10.2060,-00.001382,-00.001290,-00.000537
-017.603,-000.274,+179.924,-0.125,-0.796,-1.315,-00.0530,-00.0130,+10.2010,-00.000142,-00.000997,+00.000165
-017.603,-000.275,+179.924,-0.130,-0.766,-1.288,-00.0670,-00.0210,+10.2460,+00.000946,-00.001969,+00.000636
-017.603,-000.275,+179.925,-0.130,-0.776,-1.283,-00.0500,+00.0000,+10.1970,-00.001104,-00.001121,+00.000227
-017.603,-000.274,+179.925,-0.116,-0.761,-1.304,-00.0530,-00.0270,+10.1990,+00.000062,-00.000064,-00.000354
-017.603,-000.274,+179.925,-0.130,-0.801,-1.326,-00.0540,-00.0050,+10.1820,-00.000086,-00.000358,+00.000369
-017.604,-000.274,+179.925,-0.135,-0.791,-1.294,-00.0520,-00.0100,+10.2200,+00.000555,-00.001186,+00.000374
-017.604,-000.274,+179.924,-0.125,-0.771,-1.304,-00.0620,-00.0090,+10.1940,-00.000386,+00.000125,+00.000564
-017.604,-000.272,+179.923,-0.125,-0.776,-1.304,-00.0330,-00.0370,+10.2260,-00.000774,-00.000579,+00.000440
-017.604,-000.273,+179.923,-0.130,-0.801,-1.304,-00.0660,-00.0210,+10.2150,-00.000274,-00.000948,+00.000798
-017.605,-000.274,+179.922,-0.135,-0.776,-1.310,-00.0480,-00.0310,+10.1950,-00.000138,-00.000367,-00.000608
-017.606,-000.274,+179.921,-0.130,-0.796,-1.315,-00.0560,-00.0200,+10.1890,-00.000681,-00.000211,+00.001087
-017.606,-000.274,+179.920,-0.125,-0.806,-1.309,-00.0640,+00.0040,+10.2300,-00.000814,-00.000793,+00.000027
-017.605,-000.273,+179.921,-0.121,-0.752,-1.310,-00.0350,+00.0080,+10.2120,-00.000682,-00.000715,+00.000146
-017.605,-000.274,+179.921,-0.125,-0.811,-1.315,-00.0580,-00.0130,+10.2190,-00.000478,+00.000351,-00.000534
-017.605,-000.274,+179.921,-0.130,-0.761,-1.310,-00.0550,-00.0180,+10.2380,-00.000199,-00.000171,+00.000126
-017.605,-000.274,+179.921,-0.125,-0.757,-1.315,-00.0720,-00.0080,+10.1860,+00.001197,-00.000094,-00.000444
-017.605,-000.275,+179.920,-0.125,-0.781,-1.299,-00.0770,-00.0130,+10.2160,-00.000660,+00.001005,+00.000557
-017.605,-000.275,+179.921,-0.130,-0.801,-1.299,-00.0630,-00.0070,+10.2190,-00.000240,+00.000251,-00.000106
-017.604,-000.274,+179.920,-0.125,-0.791,-1.331,-00.0430,-00.0400,+10.2340,-00.000168,-00.000372,+00.000035
-017.604,-000.274,+179.921,-0.125,-0.801,-1.320,-00.0350,+00.0120,+10.2030,-00.000579,-00.001234,+00.001053
-017.604,-000.275,+179.922,-0.135,-0.756,-1.289,-00.0600,-00.0030,+10.2460,-00.000126,-00.000428,+00.000987
-017.604,-000.275,+179.922,-0.116,-0.781,-1.315,-00.0300,-00.0270,+10.2010,+00.000241,+00.000548,+00.000640
-017.605,-000.275,+179.921,-0.121,-0.791,-1.320,-00.0540,-00.0270,+10.1970,-00.000598,+00.000065,+00.000671
-017.605,-000.276,+179.922,-0.144,-0.791,-1.305,-00.0340,+00.0050,+10.1830,+00.000025,+00.000623,+00.001301
-017.606,-000.275,+179.920,-0.125,-0.791,-1.336,-00.0390,-00.0360,+10.2320,+00.000030,-00.000452,+00.000114
-017.606,-000.274,+179.920,-0.116,-0.791,-1.309,-00.0460,-00.0140,+10.2340,-00.000614,-00.000573,-00.000418
-017.605,-000.273,+179.920,-0.139,-0.796,-1.289,-00.0450,-00.0110,+10.1640,-00.000115,-00.001308,+00.000512
-017.605,-000.274,+179.921,-0.121,-0.786,-1.320,-00.0780,-00.0080,+10.1980,-00.000412,-00.000023,+00.000119
-017.606,-000.274,+179.921,-0.130,-0.747,-1.305,-00.0380,-00.0020,+10.2030,+00.000481,-00.000565,+00.000808
-017.607,-000.276,+179.922,-0.130,-0.786,-1.304,-00.0560,+00.0070,+10.2040,+00.000047,-00.000120,+00.001015
-017.608,-000.277,+179.922,-0.135,-0.766,-1.321,-00.0560,-00.0030,+10.1980,-00.000494,-00.000787,-00.000755
-017.608,-000.277,+179.921,-0.130,-0.776,-1.310,-00.0320,-00.0290,+10.2200,-00.000346,+00.000101,+00.000472
-017.607,-000.277,+179.922,-0.121,-0.806,-1.293,-00.0620,+00.0050,+10.2160,+00.000312,-00.000308,-00.000060
-017.607,-000.276,+179.920,-0.135,-0.751,-1.310,-00.0560,-00.0460,+10.2350,-00.000111,-00.000287,+00.000264
-017.606,-000.275,+179.920,-0.130,-0.781,-1.310,-00.0470,-00.0070,+10.2060,-00.001269,-00.000069,-00.001106
-017.606,-000.276,+179.921,-0.125,-0.791,-1.299,-00.0530,-00.0160,+10.2160,+00.000481,-00.001152,-00.000832
-017.606,-000.275,+179.921,-0.135,-0.742,-1.321,-00.0340,+00.0010,+10.2100,-00.000892,-00.000959,-00.000993
-017.606,-000.274,+179.921,-0.130,-0.776,-1.331,-00.0600,-00.0230,+10.2080,-00.000106,+00.000073,-00.000620
-017.606,-000.275,+179.921,-0.135,-0.801,-1.315,-00.0660,+00.0000,+10.2070,-00.001045,-00.000119,+00.000325
-017.605,-000.275,+179.920,-0.121,-0.762,-1.336,-00.0570,-00.0070,+10.2110,-00.000573,-00.001035,-00.000488
-017.605,-000.275,+179.920,-0.121,-0.791,-1.309,-00.0480,-00.0010,+10.2050,-00.000650,-00.000462,-00.000403
-017.605,-000.275,+179.920,-0.125,-0.815,-1.304,-00.0360,-00.0120,+10.2310,-00.000440,+00.000722,-00.000379
-017.605,-000.276,+179.921,-0.135,-0.771,-1.305,-00.0440,-00.0100,+10.2090,-00.000564,+00.000482,-00.001257
-017.606,-000.276,+179.921,-0.125,-0.791,-1.304,-00.0620,+00.0000,+10.2070,-00.000362,-00.000803,+00.000076
-017.606,-000.276,+179.921,-0.130,-0.786,-1.283,-00.0550,-00.0180,+10.1820,+00.000422,-00.000148,+00.000660
-017.606,-000.276,+179.921,-0.135,-0.781,-1.321,-00.0320,-00.0160,+10.1980,-00.000387,-00.000721,-00.000862
-017.606,-000.276,+179.920,-0.126,-0.796,-1.336,-00.0750,-00.0240,+10.2320,-00.000756,+00.000047,+00.001062
-017.606,-000.277,+179.920,-0.112,-0.771,-1.309,-00.0600,-00.0050,+10.2180,-00.000281,-00.000641,-00.000848
-017.606,-000.277,+179.920,-0.130,-0.791,-1.315,-00.0620,-00.0070,+10.2050,+00.000194,+00.001123,-00.000002
-017.607,-000.277,+179.920,-0.135,-0.781,-1.299,-00.0610,-00.0150,+10.2220,-00.000465,-00.000218,+00.000053
-017.607,-000.277,+179.919,-0.130,-0.766,-1.299,-00.0620,-00.0010,+10.1930,-00.000600,-00.001112,+00.000479
-017.607,-000.277,+179.920,-0.121,-0.776,-1.315,-00.0510,-00.0060,+10.2280,-00.001029,-00.000090,-00.000719
-017.607,-000.277,+179.920,-0.135,-0.776,-1.326,-00.0400,-00.0160,+10.1930,+00.000167,+00.000599,+00.000931
-017.607,-000.276,+179.919,-0.130,-0.791,-1.299,-00.0750,-00.0300,+10.2290,-00.000650,-00.000528,+00.000455
-017.607,-000.276,+179.918,-0.125,-0.791,-1.310,-00.0580,-00.0090,+10.1930,-00.000122,-00.000493,+00.000464
-017.607,-000.276,+179.920,-0.125,-0.786,-1.326,-00.0740,-00.0110,+10.1720,-00.000038,+00.000253,+00.000696
-017.607,-000.276,+179.919,-0.121,-0.791,-1.320,-00.0490,-00.0100,+10.2010,-00.001082,+00.000276,-00.000262
-017.607,-000.277,+179.919,-0.116,-0.786,-1.320,-00.0540,+00.0010,+10.1950,-00.001631,+00.000525,-00.000821
-017.607,-000.277,+179.919,-0.126,-0.796,-1.336,-00.0450,-00.0060,+10.2090,-00.000587,-00.000128,-00.000304
-017.607,-000.277,+179.919,-0.130,-0.786,-1.321,-00.0430,+00.0040,+10.2210,+00.000210,-00.000074,+00.000101
-017.607,-000.276,+179.919,-0.125,-0.752,-1.315,-00.0210,-00.0200,+10.2100,-00.000356,-00.002426,-00.000550
-017.607,-000.277,+179.920,-0.139,-0.771,-1.300,-00.0560,+00.0060,+10.2420,+00.000476,+00.000212,-00.000058
-017.607,-000.275,+179.921,-0.135,-0.761,-1.305,-00.0500,-00.0160,+10.2150,+00.000095,-00.000953,+00.001159
-017.608,-000.275,+179.921,-0.130,-0.781,-1.331,-00.0410,-00.0040,+10.1980,-00.000115,+00.001001,+00.001128
-017.608,-000.276,+179.921,-0.130,-0.796,-1.304,-00.0690,-00.0270,+10.2010,+00.000214,+00.000179,+00.000144
-017.609,-000.276,+179.920,-0.139,-0.781,-1.299,-00.0470,-00.0050,+10.2230,-00.001281,-00.000190,-00.000502
-017.609,-000.275,+179.921,-0.121,-0.776,-1.320,-00.0340,+00.0000,+10.2290,-00.001357,-00.000046,-00.000501
-017.609,-000.276,+179.921,-0.130,-0.791,-1.310,-00.0610,-00.0170,+10.2190,-00.001451,-00.000243,+00.000504
-017.610,-000.277,+179.921,-0.130,-0.776,-1.283,-00.0560,-00.0140,+10.2150,-00.000556,-00.000303,+00.000550
-017.610,-000.277,+179.921,-0.121,-0.796,-1.315,-00.0550,-00.0100,+10.2090,-00.000171,-00.000315,+00.000695
-017.610,-000.277,+179.921,-0.139,-0.810,-1.310,-00.0540,+00.0010,+10.2160,-00.000340,+00.000094,-00.000631
-017.609,-000.277,+179.921,-0.125,-0.771,-1.299,-00.0500,-00.0270,+10.1840,+00.000178,-00.000800,-00.000548
-017.610,-000.277,+179.921,-0.130,-0.766,-1.305,-00.0650,-00.0080,+10.1930,-00.000329,-00.000598,+00.000130
-017.611,-000.278,+179.920,-0.125,-0.757,-1.321,-00.0720,-00.0180,+10.2140,-00.000445,+00.000529,+00.001238
-017.611,-000.278,+179.921,-0.135,-0.751,-1.299,-00.0600,-00.0110,+10.1930,-00.000072,+00.000937,-00.000065
-017.611,-000.279,+179.920,-0.125,-0.776,-1.299,-00.0660,-00.0210,+10.2040,+00.000443,+00.000226,+00.000325
-017.611,-000.279,+179.920,-0.116,-0.801,-1.331,-00.0500,-00.0110,+10.1890,+00.000392,-00.001229,-00.000051
-017.611,-000.279,+179.920,-0.130,-0.791,-1.310,-00.0520,-00.0040,+10.1910,+00.000226,-00.000502,-00.000314
-017.611,-000.278,+179.920,-0.130,-0.761,-1.321,-00.0490,-00.0280,+10.2180,+00.000194,-00.001120,-00.000010
-017.612,-000.278,+179.921,-0.144,-0.796,-1.316,-00.0590,-00.0220,+10.2210,+00.000563,+00.000332,+00.001012
-017.612,-000.278,+179.921,-0.125,-0.796,-1.293,-00.0680,+00.0120,+10.2230,-00.000676,-00.000782,+00.001287
-017.612,-000.277,+179.921,-0.130,-0.776,-1.315,-00.0490,-00.0080,+10.2050,+00.000501,-00.000246,+00.000247
-017.613,-000.278,+179.921,-0.125,-0.796,-1.320,-00.0610,-00.0040,+10.2110,-00.001266,-00.000548,+00.000501
-017.613,-000.278,+179.921,-0.116,-0.796,-1.298,-00.0670,-00.0210,+10.1930,-00.001513,-00.000220,+00.000021
-017.612,-000.279,+179.920,-0.125,-0.771,-1.320,-00.0660,-00.0200,+10.2170,-00.001228,-00.001307,+00.000081
-017.613,-000.280,+179.921,-0.135,-0.791,-1.305,-00.0440,+00.0010,+10.2110,-00.000738,+00.000809,+00.000560
-017.613,-000.279,+179.921,-0.130,-0.781,-1.288,-00.0350,+00.0010,+10.2350,+00.000107,-00.000443,-00.001105
-017.613,-000.280,+179.920,-0.130,-0.771,-1.305,-00.0530,-00.0240,+10.2080,-00.000802,-00.000170,+00.000098
-017.612,-000.280,+179.920,-0.121,-0.806,-1.347,-00.0680,-00.0180,+10.2250,+00.000017,-00.000557,-00.000824
-017.612,-000.281,+179.920,-0.135,-0.766,-1.289,-00.0780,+00.0090,+10.2060,-00.000507,+00.000376,+00.000392
-017.612,-000.280,+179.920,-0.130,-0.791,-1.315,-00.0380,-00.0180,+10.1880,-00.000327,-00.000079,+00.000105
-017.612,-000.279,+179.919,-0.139,-0.781,-1.321,-00.0550,-00.0010,+10.2040,-00.000843,-00.000738,+00.000254
-017.613,-000.280,+179.919,-0.135,-0.796,-1.294,-00.0460,-00.0110,+10.1580,-00.000265,+00.000077,+00.000387
-017.613,-000.280,+179.919,-0.125,-0.786,-1.310,-00.0500,-00.0070,+10.2120,-00.001173,-00.000596,+00.000808
-017.613,-000.280,+179.919,-0.130,-0.791,-1.310,-00.0540,-00.0210,+10.2080,-00.000963,-00.000996,+00.000684
-017.613,-000.280,+179.918,-0.139,-0.776,-1.305,-00.0570,-00.0270,+10.1980,-00.000110,+00.000821,+00.000123
-017.614,-000.279,+179.918,-0.125,-0.781,-1.310,-00.0400,-00.0120,+10.1890,+00.000975,-00.001008,-00.000431
-017.614,-000.280,+179.918,-0.130,-0.766,-1.321,-00.0550,-00.0130,+10.2100,-00.000434,-00.001007,-00.000018
-017.614,-000.280,+179.918,-0.135,-0.796,-1.288,-00.0600,-00.0320,+10.1960,+00.000408,+00.000126,+00.000736
-017.615,-000.279,+179.918,-0.121,-0.771,-1.320,-00.0490,-00.0120,+10.1960,-00.000014,-00.000937,+00.000529
-017.615,-000.280,+179.919,-0.126,-0.796,-1.336,-00.0410,-00.0090,+10.2150,-00.000568,+00.001173,-00.000782
-017.615,-000.279,+179.919,-0.125,-0.801,-1.293,-00.0500,-00.0020,+10.2110,+00.000491,-00.000798,+00.000244
-017.615,-000.278,+179.919,-0.130,-0.776,-1.315,-00.0560,+00.0050,+10.2240,-00.001605,+00.000054,+00.000851
-017.615,-000.277,+179.919,-0.130,-0.806,-1.320,-00.0670,-00.0050,+10.2390,+00.000188,-00.000427,+00.000210
-017.615,-000.278,+179.920,-0.121,-0.791,-1.288,-00.0300,+00.0040,+10.1690,+00.000770,+00.000849,+00.000627
-017.616,-000.279,+179.920,-0.130,-0.791,-1.310,-00.0560,-00.0200,+10.1980,-00.000118,-00.000986,-00.000370
-017.615,-000.279,+179.920,-0.121,-0.766,-1.326,-00.0590,-00.0130,+10.2230,-00.000615,+00.000355,-00.000317
-017.614,-000.279,+179.920,-0.130,-0.796,-1.304,-00.0410,-00.0070,+10.2230,-00.000773,+00.000225,-00.000143
-017.614,-000.280,+179.921,-0.125,-0.791,-1.326,-00.0650,+00.0000,+10.2080,+00.000084,-00.000011,+00.000413
-017.614,-000.280,+179.919,-0.125,-0.786,-1.331,-00.0600,-00.0200,+10.2440,-00.000256,+00.000384,+00.000016
-017.615,-000.280,+179.919,-0.135,-0.781,-1.299,-00.0310,-00.0090,+10.2260,-00.001338,+00.000647,+00.000360
-017.615,-000.281,+179.920,-0.130,-0.786,-1.326,-00.0680,+00.0090,+10.1960,-00.000392,-00.001278,-00.000543
-017.615,-000.281,+179.920,-0.125,-0.791,-1.304,-00.0570,-00.0220,+10.2280,-00.000517,+00.000350,-00.000896
-017.616,-000.281,+179.919,-0.135,-0.806,-1.304,-00.0310,-00.0110,+10.2060,-00.000230,+00.000152,+00.000335
-017.615,-000.282,+179.919,-0.130,-0.766,-1.310,-00.0710,-00.0090,+10.2080,-00.001177,-00.000025,-00.000477
-017.615,-000.283,+179.919,-0.121,-0.796,-1.347,-00.0560,+00.0180,+10.1970,-00.000176,-00.000175,-00.000189
-017.615,-000.283,+179.920,-0.125,-0.791,-1.310,-00.0650,-00.0120,+10.2030,-00.000020,-00.000249,+00.000091
-017.614,-000.282,+179.919,-0.125,-0.776,-1.315,-00.0560,-00.0110,+10.2100,+00.000106,+00.000406,-00.001476
-017.614,-000.282,+179.919,-0.125,-0.811,-1.304,-00.0680,-00.0220,+10.2310,-00.000112,-00.000694,-00.000368
-017.614,-000.281,+179.918,-0.125,-0.766,-1.288,-00.0380,-00.0180,+10.2170,-00.000366,-00.000539,-00.000084
-017.614,-000.282,+179.918,-0.135,-0.776,-1.326,-00.0690,-00.0270,+10.2160,-00.000590,-00.000956,+00.000667
-017.615,-000.283,+179.918,-0.130,-0.781,-1.321,-00.0640,-00.0060,+10.2250,-00.000484,-00.000839,+00.000360
-017.615,-000.283,+179.919,-0.135,-0.786,-1.283,-00.0640,-00.0020,+10.2030,+00.000085,-00.001005,+00.000098
-017.615,-000.284,+179.919,-0.135,-0.791,-1.326,-00.0630,-00.0080,+10.2180,+00.000365,+00.000215,+00.000077
-017.615,-000.284,+179.919,-0.144,-0.815,-1.294,-00.0710,+00.0040,+10.2350,+00.000569,-00.000547,+00.000983
-017.615,-000.284,+179.919,-0.121,-0.747,-1.299,-00.0270,-00.0160,+10.2080,-00.000047,-00.000170,+00.000011
-017.616,-000.284,+179.920,-0.121,-0.781,-1.309,-00.0550,-00.0260,+10.2380,+00.000298,+00.000095,+00.000144
-017.615,-000.284,+179.921,-0.125,-0.786,-1.326,-00.0590,+00.0090,+10.1770,-00.000188,+00.000091,-00.000498
-017.615,-000.284,+179.922,-0.130,-0.766,-1.299,-00.0630,+00.0030,+10.2420,+00.000440,-00.000578,-00.000329
-017.615,-000.284,+179.922,-0.130,-0.781,-1.321,-00.0420,-00.0010,+10.1990,-00.000699,+00.000484,-00.001000
-017.615,-000.285,+179.922,-0.125,-0.801,-1.315,-00.0620,-00.0280,+10.2170,+00.000499,+00.000143,-00.000192
-017.614,-000.284,+179.922,-0.125,-0.811,-1.304,-00.0540,-00.0020,+10.2300,+00.001000,+00.000727,+00.000276
-017.613,-000.285,+179.922,-0.112,-0.791,-1.314,-00.0620,-00.0130,+10.2450,-00.000392,-00.001085,-00.000058
-017.613,-000.285,+179.922,-0.130,-0.766,-1.321,-00.0670,-00.0050,+10.1940,-00.000289,+00.000657,+00.000017
-017.613,-000.285,+179.922,-0.130,-0.796,-1.288,-00.0440,-00.0190,+10.2270,+00.000299,-00.000306,-00.000207
-017.614,-000.285,+179.923,-0.130,-0.791,-1.320,-00.0450,-00.0140,+10.2110,-00.000198,+00.000595,-00.000736
-017.614,-000.285,+179.922,-0.130,-0.801,-1.315,-00.0620,-00.0390,+10.1990,+00.000168,+00.000105,+00.000762
-017.613,-000.286,+179.921,-0.130,-0.796,-1.294,-00.0500,-00.0120,+10.2250,-00.000985,+00.001538,-00.001046
-017.614,-000.286,+179.921,-0.139,-0.776,-1.310,-00.0690,-00.0190,+10.2080,-00.000375,-00.000429,+00.000185
-017.614,-000.286,+179.920,-0.139,-0.771,-1.310,-00.0520,-00.0230,+10.2370,-00.000230,-00.000364,+00.000227
-017.615,-000.286,+179.921,-0.130,-0.806,-1.304,-00.0560,-00.0180,+10.2140,-00.000647,+00.000623,+00.000235
-017.615,-000.286,+179.921,-0.121,-0.781,-1.315,-00.0690,-00.0170,+10.2080,-00.001072,+00.000014,+00.000112
-017.615,-000.286,+179.921,-0.125,-0.781,-1.310,-00.0760,-00.0210,+10.2300,-00.000267,+00.000416,+00.001181
-017.615,-000.287,+179.922,-0.135,-0.786,-1.305,-00.0750,-00.0240,+10.2240,+00.000366,-00.000415,-00.000342
-017.615,-000.287,+179.921,-0.125,-0.766,-1.320,-00.0530,-00.0060,+10.1830,+00.000533,+00.000367,+00.000844
-017.615,-000.288,+179.922,-0.112,-0.791,-1.314,-00.0660,-00.0280,+10.1860,+00.000249,+00.000521,+00.000093
-017.614,-000.289,+179.921,-0.130,-0.771,-1.315,-00.0630,-00.0230,+10.2110,-00.000157,+00.001609,-00.000610
-017.615,-000.289,+179.921,-0.130,-0.752,-1.310,-00.0550,+00.0060,+10.2360,+00.000195,+00.000745,+00.001126
-017.616,-000.288,+179.921,-0.135,-0.801,-1.326,-00.0430,+00.0030,+10.1830,+00.000432,-00.000006,+00.000584
-017.616,-000.287,+179.920,-0.130,-0.791,-1.310,-00.0520,-00.0140,+10.1870,-00.000005,+00.000062,+00.000428
-017.616,-000.286,+179.921,-0.125,-0.796,-1.326,-00.0490,-00.0120,+10.2430,+00.000452,-00.000792,+00.000340
-017.616,-000.285,+179.921,-0.135,-0.796,-1.321,-00.0540,+00.0050,+10.1970,+00.000472,-00.000315,-00.000678
-017.617,-000.284,+179.921,-0.125,-0.766,-1.283,-00.0380,-00.0200,+10.2390,+00.000790,+00.000963,-00.000083
-017.618,-000.285,+179.923,-0.130,-0.786,-1.326,-00.0640,+00.0130,+10.1740,+00.000225,+00.000358,-00.000041
-017.619,-000.286,+179.923,-0.135,-0.796,-1.310,-00.0510,+00.0190,+10.2370,-00.000322,-00.000590,+00.000199
-017.619,-000.286,+179.923,-0.130,-0.791,-1.315,-00.0590,+00.0010,+10.2000,+00.000193,-00.000486,+00.000234
-017.619,-000.285,+179.923,-0.121,-0.776,-1.304,-00.0370,+00.0010,+10.2400,-00.000185,+00.000735,+00.000071
-017.619,-000.286,+179.922,-0.130,-0.801,-1.326,-00.0690,-00.0410,+10.2110,-00.000620,+00.000183,+00.000205
-017.619,-000.288,+179.923,-0.130,-0.786,-1.288,-00.0760,-00.0040,+10.2240,+00.000173,+00.000375,+00.000080
-017.619,-000.288,+179.924,-0.125,-0.761,-1.315,-00.0370,-00.0130,+10.2210,+00.000380,-00.000363,-00.001788
-017.619,-000.288,+179.923,-0.130,-0.811,-1.326,-00.0550,-00.0270,+10.2070,-00.001387,-00.000350,-00.000568
-017.619,-000.288,+179.924,-0.130,-0.786,-1.299,-00.0370,-00.0190,+10.2120,+00.000228,+00.001134,+00.000137
-017.620,-000.289,+179.923,-0.130,-0.771,-1.305,-00.0490,-00.0120,+10.1840,-00.000316,+00.000249,+00.000203
-017.620,-000.290,+179.924,-0.139,-0.805,-1.305,-00.0600,+00.0180,+10.2080,+00.000249,-00.000278,-00.000312
-017.620,-000.289,+179.925,-0.125,-0.796,-1.320,-00.0420,+00.0000,+10.2280,-00.000628,-00.001503,+00.000949
-017.621,-000.289,+179.926,-0.130,-0.781,-1.310,-00.0320,-00.0290,+10.2050,-00.000082,-00.000218,+00.000012
-017.621,-000.289,+179.926,-0.135,-0.796,-1.315,-00.0690,-00.0120,+10.2160,-00.000589,+00.000926,+00.000022
-017.622,-000.289,+179.927,-0.135,-0.786,-1.294,-00.0650,+00.0050,+10.1850,-00.000063,-00.000061,+00.000929
-017.622,-000.288,+179.926,-0.135,-0.776,-1.305,-00.0410,-00.0140,+10.1920,-00.001078,+00.000315,-00.000355
-017.622,-000.288,+179.926,-0.130,-0.796,-1.315,-00.0330,+00.0000,+10.2370,-00.000290,-00.000220,-00.000186
-017.622,-000.287,+179.926,-0.135,-0.806,-1.304,-00.0610,-00.0150,+10.2140,-00.000191,-00.001604,+00.000501
-017.623,-000.288,+179.926,-0.139,-0.761,-1.316,-00.0650,+00.0080,+10.2180,-00.000957,-00.000877,+00.000558
-017.623,-000.288,+179.926,-0.125,-0.786,-1.310,-00.0640,-00.0090,+10.2160,+00.000790,-00.001059,-00.001339
-017.623,-000.289,+179.926,-0.139,-0.786,-1.321,-00.0910,-00.0250,+10.2000,+00.000843,-00.000839,-00.000576
-017.623,-000.289,+179.926,-0.125,-0.791,-1.336,-00.0430,-00.0200,+10.2080,+00.000417,-00.001084,+00.000982
-017.623,-000.288,+179.926,-0.125,-0.791,-1.320,-00.0400,-00.0120,+10.1990,-00.000763,-00.000636,-00.000426
-017.623,-000.288,+179.926,-0.130,-0.796,-1.283,-00.0630,-00.0030,+10.1960,-00.000263,-00.000231,-00.000215
-017.623,-000.288,+179.926,-0.130,-0.791,-1.331,-00.0500,+00.0240,+10.2190,-00.000535,-00.001611,+00.000772
-017.622,-000.288,+179.927,-0.125,-0.801,-1.304,-00.0560,+00.0040,+10.2360,+00.000460,-00.000573,+00.000276
-017.622,-000.288,+179.927,-0.121,-0.791,-1.304,-00.0530,-00.0010,+10.2450,+00.000632,-00.000725,-00.000062
-017.622,-000.288,+179.927,-0.130,-0.766,-1.315,-00.0570,-00.0220,+10.2280,+00.000019,-00.000554,-00.000526
-017.622,-000.288,+179.927,-0.121,-0.791,-1.309,-00.0430,-00.0230,+10.2570,-00.000729,-00.000824,-00.000119
-017.622,-000.288,+179.926,-0.139,-0.791,-1.299,-00.0490,-00.0350,+10.2080,-00.000617,-00.000425,-00.001311
-017.624,-000.288,+179.926,-0.135,-0.786,-1.326,-00.0360,-00.0100,+10.2230,+00.000160,+00.000228,+00.000469
-017.625,-000.288,+179.925,-0.130,-0.786,-1.315,-00.0550,+00.0080,+10.2320,-00.000843,+00.000048,+00.000624
-017.625,-000.288,+179.925,-0.135,-0.801,-1.294,-00.0480,-00.0040,+10.2000,+00.000261,-00.000422,-00.000231
-017.625,-000.286,+179.924,-0.130,-0.766,-1.326,-00.0410,-00.0410,+10.2250,+00.000321,-00.001762,+00.000553
-017.626,-000.287,+179.925,-0.130,-0.781,-1.315,-00.0680,-00.0040,+10.2120,-00.000936,-00.000475,-00.000063
-017.626,-000.288,+179.926,-0.135,-0.786,-1.305,-00.0640,-00.0060,+10.2150,-00.000300,-00.000201,-00.000094
-017.625,-000.288,+179.926,-0.135,-0.786,-1.315,-00.0430,-00.0100,+10.1970,+00.000930,+00.000507,-00.001292
-017.625,-000.288,+179.927,-0.126,-0.811,-1.320,-00.0520,+00.0040,+10.1890,-00.000355,-00.001153,-00.001062
-017.626,-000.289,+179.928,-0.125,-0.806,-1.304,-00.0730,+00.0090,+10.2260,+00.000986,+00.001016,-00.000686
-017.625,-000.288,+179.928,-0.130,-0.776,-1.321,-00.0290,-00.0320,+10.1850,+00.000000,-00.000493,+00.000025
-017.626,-000.287,+179.929,-0.130,-0.806,-1.336,-00.0560,-00.0120,+10.1990,-00.000036,-00.000169,+00.000373
-017.626,-000.287,+179.929,-0.139,-0.786,-1.299,-00.0610,-00.0050,+10.2160,-00.000207,+00.000071,+00.000538
-017.626,-000.287,+179.929,-0.135,-0.791,-1.315,-00.0440,-00.0140,+10.1640,+00.000529,-00.000736,-00.000143
-017.626,-000.286,+179.929,-0.130,-0.771,-1.321,-00.0570,-00.0040,+10.1960,-00.000300,-00.000517,+00.000013
-017.626,-000.287,+179.930,-0.144,-0.776,-1.300,-00.0500,-00.0150,+10.2320,+00.000396,-00.000666,+00.000248
-017.628,-000.287,+179.930,-0.130,-0.776,-1.315,-00.0630,-00.0120,+10.2370,+00.000252,-00.000342,+00.000707
-017.629,-000.287,+179.929,-0.135,-0.776,-1.315,-00.0620,+00.0040,+10.1700,-00.000533,+00.000358,-00.000249
-017.630,-000.287,+179.929,-0.125,-0.796,-1.288,-00.0590,-00.0060,+10.2050,-00.000387,+00.000908,+00.000597
-017.629,-000.288,+179.930,-0.121,-0.771,-1.315,-00.0670,+00.0170,+10.2030,-00.000269,+00.000285,-00.000680
-017.629,-000.287,+179.929,-0.125,-0.801,-1.304,-00.0550,-00.0180,+10.2140,-00.000493,+00.000219,-00.000771
-017.630,-000.288,+179.929,-0.135,-0.805,-1.283,-00.0540,-00.0160,+10.1910,-00.000643,-00.000733,-00.000549
-017.629,-000.287,+179.928,-0.130,-0.766,-1.310,-00.0510,-00.0050,+10.2150,+00.000984,+00.000342,-00.001614
-017.630,-000.288,+179.926,-0.130,-0.776,-1.315,-00.0650,-00.0250,+10.2040,-00.000630,-00.000427,+00.000553
-017.630,-000.288,+179.926,-0.130,-0.791,-1.299,-00.0520,-00.0200,+10.2020,+00.000201,-00.000172,+00.000185
-017.631,-000.288,+179.928,-0.121,-0.776,-1.309,-00.0470,-00.0040,+10.2050,+00.000140,+00.000083,+00.001684
-017.631,-000.287,+179.926,-0.121,-0.776,-1.309,-00.0400,-00.0180,+10.1920,+00.000280,+00.000072,+00.000764
-017.631,-000.287,+179.926,-0.130,-0.791,-1.299,-00.0450,-00.0270,+10.2110,-00.000088,-00.000012,+00.000297
-017.630,-000.286,+179.927,-0.130,-0.781,-1.337,-00.0670,-00.0040,+10.2080,-00.000056,+00.000884,-00.000291
-017.630,-000.284,+179.928,-0.125,-0.771,-1.304,-00.0440,-00.0020,+10.2020,-00.000790,-00.001016,-00.000871
-017.630,-000.284,+179.929,-0.121,-0.801,-1.304,-00.0400,-00.0130,+10.2270,+00.000135,-00.000053,+00.000362
-017.630,-000.284,+179.929,-0.130,-0.766,-1.321,-00.0540,+00.0010,+10.2110,+00.000117,+00.000887,+00.000138
-017.630,-000.284,+179.930,-0.121,-0.776,-1.315,-00.0510,-00.0090,+10.2370,+00.000445,+00.000232,-00.001074
-017.630,-000.285,+179.930,-0.135,-0.786,-1.299,-00.0440,-00.0170,+10.1940,+00.000485,+00.001025,+00.000672
-017.631,-000.285,+179.930,-0.130,-0.771,-1.310,-00.0560,-00.0020,+10.2050,+00.000104,+00.001327,-00.000122
-017.631,-000.285,+179.930,-0.130,-0.801,-1.331,-00.0370,-00.0210,+10.2200,-00.000586,+00.000424,-00.000261
-017.631,-000.286,+179.929,-0.135,-0.786,-1.337,-00.0600,+00.0040,+10.1870,-00.000898,+00.000323,-00.001131
-017.632,-000.285,+179.929,-0.130,-0.796,-1.326,-00.0400,-00.0250,+10.1860,-00.000047,-00.000198,+00.000214
-017.632,-000.285,+179.928,-0.135,-0.781,-1.305,-00.0460,-00.0190,+10.2620,-00.000208,-00.000195,+00.000485
-017.633,-000.286,+179.930,-0.135,-0.796,-1.310,-00.0610,-00.0050,+10.2120,+00.000345,-00.000993,+00.000431
-017.634,-000.287,+179.931,-0.125,-0.781,-1.315,-00.0490,-00.0150,+10.2230,+00.000034,+00.000190,+00.000605
-017.633,-000.287,+179.932,-0.125,-0.801,-1.304,-00.0380,+00.0080,+10.2290,-00.000180,-00.000887,-00.000969
-017.633,-000.288,+179.931,-0.135,-0.796,-1.299,-00.0580,-00.0260,+10.2320,-00.000167,+00.001541,-00.000370
-017.633,-000.288,+179.931,-0.130,-0.791,-1.331,-00.0540,-00.0080,+10.2260,-00.001085,-00.000227,-00.001802
-017.633,-000.288,+179.930,-0.130,-0.791,-1.315,-00.0550,-00.0040,+10.2100,-00.000862,+00.000258,+00.000103
-017.633,-000.286,+179.930,-0.130,-0.786,-1.294,-00.0470,-00.0120,+10.1860,-00.000361,-00.000457,-00.000790
-017.633,-000.286,+179.931,-0.125,-0.776,-1.320,-00.0470,-00.0170,+10.2430,-00.000514,-00.001129,+00.000885
-017.633,-000.287,+179.930,-0.130,-0.786,-1.315,-00.0460,-00.0240,+10.1970,-00.001152,+00.000118,+00.000451
-017.633,-000.288,+179.930,-0.130,-0.796,-1.310,-00.0420,+00.0110,+10.2000,+00.000430,+00.000060,+00.000897
-017.633,-000.287,+179.930,-0.121,-0.801,-1.315,-00.0560,-00.0090,+10.2590,-00.000856,-00.001127,+00.000873
-017.633,-000.287,+179.931,-0.130,-0.771,-1.315,-00.0400,+00.0050,+10.1790,-00.000016,-00.000012,+00.000120
-017.633,-000.286,+179.931,-0.135,-0.771,-1.305,-00.0250,-00.0120,+10.1790,+00.000259,+00.000209,-00.000188
-017.634,-000.285,+179.931,-0.121,-0.801,-1.320,-00.0430,-00.0050,+10.2030,-00.000312,+00.000377,+00.000491
-017.634,-000.285,+179.931,-0.135,-0.806,-1.331,-00.0610,+00.0000,+10.2330,-00.001152,-00.000335,+00.000410
-017.633,-000.285,+179.931,-0.125,-0.786,-1.304,-00.0540,-00.0100,+10.2230,+00.000326,-00.000148,-00.001047
-017.633,-000.285,+179.929,-0.116,-0.786,-1.315,-00.0580,-00.0250,+10.1800,+00.000288,+00.000374,+00.000497
-017.633,-000.286,+179.930,-0.125,-0.786,-1.310,-00.0520,+00.0020,+10.2040,-00.000355,+00.000743,-00.000180
-017.633,-000.288,+179.930,-0.135,-0.791,-1.305,-00.0530,-00.0200,+10.2520,+00.000167,-00.000255,-00.000150
-017.634,-000.289,+179.932,-0.135,-0.791,-1.315,-00.0600,+00.0010,+10.2200,-00.000224,+00.000207,-00.000586
-017.634,-000.289,+179.932,-0.130,-0.791,-1.342,-00.0470,-00.0170,+10.2320,-00.000557,-00.000635,+00.001561
-017.634,-000.289,+179.931,-0.130,-0.816,-1.320,-00.0550,-00.0150,+10.2190,-00.000719,-00.000924,-00.000105
-017.634,-000.289,+179.930,-0.125,-0.757,-1.315,-00.0690,-00.0360,+10.2150,-00.001287,+00.000333,-00.000251
-017.633,-000.289,+179.930,-0.126,-0.806,-1.326,-00.0660,+00.0080,+10.2270,-00.000636,+00.000161,+00.000811
-017.633,-000.289,+179.929,-0.130,-0.806,-1.299,-00.0570,-00.0190,+10.1970,-00.000305,+00.000162,-00.000226
-017.633,-000.288,+179.928,-0.116,-0.791,-1.320,-00.0480,-00.0190,+10.2130,-00.000822,+00.000162,+00.000731
-017.632,-000.290,+179.929,-0.130,-0.781,-1.310,-00.0610,+00.0060,+10.1890,-00.000279,+00.000062,+00.000500
-017.633,-000.291,+179.928,-0.135,-0.810,-1.288,-00.0680,-00.0240,+10.2010,-00.001126,+00.000020,+00.000785
-017.633,-000.289,+179.928,-0.130,-0.796,-1.337,-00.0420,-00.0270,+10.2210,-00.000116,-00.001201,+00.000344
-017.633,-000.289,+179.927,-0.125,-0.801,-1.304,-00.0580,-00.0160,+10.2180,-00.000551,-00.001569,+00.000211
-017.633,-000.289,+179.927,-0.125,-0.786,-1.299,-00.0470,-00.0040,+10.2020,+00.000205,-00.000027,-00.000454
-017.633,-000.288,+179.926,-0.125,-0.776,-1.320,-00.0560,-00.0120,+10.2010,-00.000308,-00.000545,-00.000456
-017.633,-000.288,+179.927,-0.130,-0.806,-1.304,-00.0270,+00.0090,+10.2060,+00.000178,-00.001207,-00.001147
-017.633,-000.288,+179.927,-0.139,-0.801,-1.310,-00.0750,-00.0260,+10.1900,-00.000517,-00.000142,-00.000170
-017.635,-000.287,+179.926,-0.135,-0.776,-1.326,-00.0400,-00.0310,+10.1940,+00.000356,+00.001056,+00.000807
-017.635,-000.286,+179.926,-0.135,-0.796,-1.305,-00.0590,+00.0020,+10.1940,-00.000531,-00.000282,-00.000908
-017.635,-000.286,+179.926,-0.130,-0.796,-1.299,-00.0570,+00.0140,+10.2090,+00.000446,-00.000420,-00.000795
-017.635,-000.286,+179.925,-0.125,-0.786,-1.320,-00.0360,-00.0040,+10.1960,-00.000293,-00.000026,-00.000428
-017.635,-000.285,+179.925,-0.125,-0.796,-1.299,-00.0360,-00.0360,+10.2010,-00.000112,-00.000736,-00.000994
-017.635,-000.286,+179.925,-0.125,-0.815,-1.293,-00.0690,+00.0020,+10.1820,-00.001110,-00.000156,-00.000677
-017.635,-000.285,+179.926,-0.125,-0.786,-1.326,-00.0550,+00.0190,+10.2010,-00.000026,+00.000777,+00.000636
-017.635,-000.285,+179.927,-0.139,-0.771,-1.316,-00.0370,-00.0050,+10.2320,+00.000377,-00.000640,-00.000192
-017.636,-000.284,+179.928,-0.139,-0.771,-1.300,-00.0400,-00.0050,+10.2020,+00.001013,+00.000169,+00.000290
-017.636,-000.285,+179.927,-0.130,-0.776,-1.337,-00.0670,-00.0080,+10.2390,+00.000537,+00.000124,+00.000629
-017.636,-000.284,+179.927,-0.135,-0.766,-1.305,-00.0430,-00.0210,+10.1920,+00.000539,+00.000078,-00.001238
-017.637,-000.283,+179.927,-0.130,-0.791,-1.304,-00.0530,-00.0050,+10.1730,+00.000125,-00.000729,-00.000058
-017.637,-000.282,+179.925,-0.130,-0.776,-1.315,-00.0560,-00.0280,+10.2200,-00.000743,-00.001428,+00.000264
-017.637,-000.283,+179.924,-0.130,-0.796,-1.315,-00.0800,-00.0180,+10.2110,+00.000730,+00.000704,-00.001400
-017.637,-000.283,+179.923,-0.121,-0.801,-1.288,-00.0350,-00.0170,+10.2390,+00.000025,+00.000916,+00.000045
-017.636,-000.282,+179.924,-0.125,-0.796,-1.320,-00.0590,+00.0040,+10.2150,-00.001137,-00.000442,+00.000680
-017.636,-000.282,+179.922,-0.125,-0.756,-1.304,-00.0480,-00.0400,+10.1890,-00.000532,+00.000000,-00.000465
-017.635,-000.283,+179.921,-0.130,-0.776,-1.299,-00.0600,-00.0090,+10.2140,+00.000106,+00.000602,-00.000802
-017.635,-000.283,+179.920,-0.125,-0.766,-1.320,-00.0600,-00.0160,+10.2040,-00.000637,+00.000022,+00.000167
-017.635,-000.283,+179.919,-0.135,-0.801,-1.304,-00.0500,-00.0190,+10.2290,-00.001358,+00.001137,-00.000064
-017.634,-000.283,+179.919,-0.130,-0.796,-1.288,-00.0500,+00.0010,+10.1930,-00.000398,-00.000069,-00.001793
-017.634,-000.282,+179.919,-0.121,-0.801,-1.336,-00.0360,-00.0060,+10.2280,-00.000164,-00.000537,-00.000791
-017.634,-000.282,+179.918,-0.130,-0.801,-1.326,-00.0600,-00.0070,+10.2110,+00.000000,-00.001446,+00.000904
-017.635,-000.282,+179.921,-0.121,-0.811,-1.288,-00.0500,+00.0070,+10.2300,+00.000300,+00.000312,+00.000724
-017.634,-000.282,+179.921,-0.130,-0.801,-1.315,-00.0530,+00.0010,+10.2380,-00.000875,-00.000288,+00.000796
-017.634,-000.281,+179.920,-0.125,-0.801,-1.304,-00.0400,-00.0120,+10.1800,+00.000051,-00.000420,-00.000927
-017.634,-000.282,+179.920,-0.139,-0.776,-1.283,-00.0500,-00.0110,+10.2140,-00.000188,+00.000083,-00.000037
-017.634,-000.282,+179.919,-0.139,-0.776,-1.316,-00.0410,-00.0150,+10.1810,-00.000582,+00.000173,-00.000436
-017.636,-000.282,+179.920,-0.135,-0.796,-1.321,-00.0610,+00.0020,+10.2560,-00.000322,-00.000309,+00.000458
-017.635,-000.282,+179.921,-0.135,-0.796,-1.315,-00.0530,-00.0250,+10.2130,-00.000654,-00.001126,-00.000469
-017.635,-000.282,+179.921,-0.135,-0.801,-1.331,-00.0580,-00.0070,+10.2220,-00.000877,-00.000070,-00.000060
-017.636,-000.283,+179.923,-0.125,-0.791,-1.315,-00.0620,-00.0010,+10.2090,+00.000391,+00.000088,+00.001848
-017.636,-000.284,+179.923,-0.130,-0.810,-1.299,-00.0540,-00.0210,+10.2050,+00.000064,-00.000008,+00.000229
-017.636,-000.284,+179.924,-0.130,-0.786,-1.315,-00.0420,-00.0080,+10.2410,+00.000205,-00.000616,+00.000614
-017.636,-000.283,+179.923,-0.130,-0.801,-1.315,-00.0460,+00.0030,+10.2190,+00.000077,-00.000062,+00.000215
-017.636,-000.283,+179.923,-0.125,-0.801,-1.315,-00.0570,-00.0190,+10.2070,-00.000197,+00.000218,-00.000432
-017.637,-000.284,+179.924,-0.130,-0.766,-1.315,-00.0570,-00.0180,+10.2180,+00.000450,+00.000309,+00.000402
-017.636,-000.282,+179.922,-0.121,-0.786,-1.315,-00.0510,-00.0050,+10.2370,-00.001405,-00.001604,+00.000244
-017.636,-000.282,+179.923,-0.130,-0.811,-1.310,-00.0800,+00.0040,+10.2200,-00.000666,+00.000434,-00.000877
-017.636,-000.283,+179.923,-0.125,-0.761,-1.320,-00.0510,-00.0020,+10.2430,-00.000117,-00.000942,+00.000830
-017.636,-000.283,+179.923,-0.125,-0.791,-1.315,-00.0720,-00.0120,+10.2000,-00.000081,-00.000365,-00.000001
-017.635,-000.284,+179.923,-0.130,-0.806,-1.294,-00.0430,-00.0210,+10.1690,+00.000210,-00.000040,+00.000683
-017.635,-000.283,+179.923,-0.130,-0.796,-1.304,-00.0630,+00.0060,+10.1980,+00.001172,-00.000590,+00.000846
-017.634,-000.285,+179.923,-0.121,-0.791,-1.331,-00.0680,-00.0080,+10.2190,-00.000111,-00.000026,-00.001071
-017.634,-000.285,+179.923,-0.135,-0.786,-1.310,-00.0280,-00.0290,+10.2210,-00.000046,+00.002066,+00.000386
-017.634,-000.285,+179.923,-0.130,-0.791,-1.320,-00.0660,-00.0130,+10.1960,+00.000462,-00.000439,-00.001374
-017.635,-000.285,+179.922,-0.135,-0.791,-1.315,-00.0470,-00.0340,+10.1970,+00.000549,-00.000775,+00.000408
-017.635,-000.285,+179.921,-0.135,-0.811,-1.337,-00.0500,-00.0240,+10.2140,-00.000567,+00.000139,-00.000316
-017.635,-000.285,+179.920,-0.125,-0.781,-1.304,-00.0450,-00.0350,+10.1870,+00.000788,-00.000006,+00.000530
-017.636,-000.284,+179.920,-0.121,-0.801,-1.341,-00.0470,-00.0050,+10.2090,-00.000200,+00.000162,+00.000740
-017.636,-000.285,+179.921,-0.125,-0.796,-1.304,-00.0570,+00.0060,+10.1980,+00.000074,-00.000769,+00.000613
-017.636,-000.285,+179.921,-0.130,-0.796,-1.304,-00.0530,-00.0010,+10.1990,+00.000478,+00.000677,-00.000215
-017.636,-000.286,+179.922,-0.130,-0.791,-1.310,-00.0550,-00.0060,+10.2140,-00.000091,-00.000135,-00.000818
-017.636,-000.287,+179.922,-0.130,-0.781,-1.294,-00.0560,-00.0020,+10.2060,+00.000707,-00.000970,+00.000001
-017.636,-000.287,+179.922,-0.130,-0.786,-1.315,-00.0490,-00.0170,+10.2160,-00.000912,-00.000212,+00.000101
-017.636,-000.289,+179.922,-0.116,-0.811,-1.309,-00.0700,-00.0210,+10.2040,-00.001103,+00.000784,+00.000026
-017.635,-000.289,+179.922,-0.121,-0.811,-1.325,-00.0730,-00.0100,+10.2360,+00.000120,-00.000502,-00.000567
-017.634,-000.290,+179.922,-0.125,-0.776,-1.310,-00.0600,-00.0150,+10.2600,-00.000077,+00.000357,-00.001125
-017.634,-000.291,+179.921,-0.121,-0.766,-1.315,-00.0420,-00.0290,+10.2150,-00.000081,-00.000317,+00.000415
-017.634,-000.290,+179.921,-0.130,-0.815,-1.304,-00.0530,-00.0140,+10.2240,+00.000210,-00.000536,-00.001144
-017.634,-000.291,+179.921,-0.135,-0.791,-1.331,-00.0620,-00.0040,+10.2230,+00.000121,-00.000194,-00.000298
-017.634,-000.292,+179.922,-0.130,-0.801,-1.342,-00.0640,+00.0250,+10.2020,+00.000532,+00.000726,+00.000349
-017.635,-000.292,+179.923,-0.130,-0.815,-1.310,-00.0510,-00.0020,+10.1730,+00.001100,+00.000205,+00.000754
-017.635,-000.293,+179.922,-0.130,-0.781,-1.326,-00.0520,-00.0230,+10.2310,-00.000724,+00.000169,-00.000583
-017.635,-000.292,+179.922,-0.135,-0.747,-1.305,-00.0440,-00.0130,+10.1790,+00.000292,+00.000269,+00.000789
-017.635,-000.292,+179.921,-0.125,-0.791,-1.293,-00.0350,-00.0270,+10.2000,-00.000650,-00.000555,+00.001113
-017.635,-000.292,+179.921,-0.135,-0.791,-1.305,-00.0300,-00.0300,+10.2150,+00.000439,+00.000530,-00.000604
-017.635,-000.293,+179.920,-0.126,-0.806,-1.331,-00.0490,-00.0160,+10.1900,-00.001289,+00.000337,-00.000043
-017.635,-000.293,+179.921,-0.130,-0.791,-1.304,-00.0380,+00.0180,+10.1880,-00.000986,+00.000659,+00.000532
-017.635,-000.293,+179.921,-0.125,-0.786,-1.336,-00.0520,-00.0360,+10.2120,+00.000761,-00.001204,-00.000175
-017.636,-000.294,+179.921,-0.130,-0.776,-1.304,-00.0480,-00.0200,+10.2130,+00.000135,+00.001017,+00.001308
-017.636,-000.294,+179.921,-0.135,-0.801,-1.299,-00.0560,+00.0000,+10.1730,+00.000269,+00.000386,-00.000739
-017.638,-000.295,+179.921,-0.130,-0.771,-1.315,-00.0640,-00.0150,+10.2090,+00.000180,+00.001592,+00.001562
-017.637,-000.295,+179.920,-0.125,-0.786,-1.320,-00.0440,-00.0100,+10.2310,+00.000485,-00.001047,-00.000627
-017.637,-000.295,+179.921,-0.139,-0.791,-1.305,-00.0460,+00.0010,+10.2240,-00.000700,+00.000017,-00.001330
-017.638,-000.295,+179.920,-0.130,-0.776,-1.321,-00.0530,-00.0230,+10.1970,-00.000108,-00.000974,+00.000693
-017.638,-000.296,+179.921,-0.135,-0.771,-1.299,-00.0740,-00.0060,+10.1920,+00.000600,+00.000279,-00.000769
-017.638,-000.296,+179.921,-0.139,-0.810,-1.305,-00.0610,+00.0040,+10.2280,+00.000704,+00.000222,+00.000197
-017.638,-000.297,+179.921,-0.125,-0.771,-1.326,-00.0520,-00.0230,+10.2000,-00.000526,-00.000590,-00.000871
-017.639,-000.296,+179.921,-0.130,-0.791,-1.304,-00.0670,-00.0090,+10.1980,+00.000145,-00.000505,+00.001175
-017.639,-000.296,+179.920,-0.125,-0.801,-1.288,-00.0470,+00.0050,+10.2170,-00.001397,-00.000381,+00.000760
-017.639,-000.297,+179.919,-0.130,-0.801,-1.331,-00.0460,-00.0130,+10.2250,+00.000890,+00.000628,-00.000258
-017.639,-000.297,+179.919,-0.126,-0.801,-1.331,-00.0500,-00.0380,+10.2210,+00.000741,-00.000058,-00.000006
-017.639,-000.297,+179.920,-0.135,-0.796,-1.310,-00.0490,-00.0040,+10.1850,-00.000021,+00.000093,-00.000067
-017.640,-000.297,+179.921,-0.135,-0.781,-1.321,-00.0530,-00.0130,+10.2190,-00.000239,-00.000037,+00.000091
-017.640,-000.297,+179.921,-0.135,-0.801,-1.321,-00.0630,+00.0030,+10.2240,-00.000299,-00.000185,-00.000038
-017.640,-000.296,+179.921,-0.125,-0.771,-1.310,-00.0580,-00.0290,+10.2180,-00.000818,-00.001186,+00.000229
-017.640,-000.296,+179.920,-0.121,-0.786,-1.331,-00.0410,-00.0370,+10.1940,-00.000160,-00.001232,-00.000112
-017.641,-000.296,+179.920,-0.130,-0.756,-1.321,-00.0310,-00.0220,+10.2160,-00.000714,-00.000654,+00.000404
-017.640,-000.296,+179.920,-0.135,-0.796,-1.310,-00.0570,-00.0120,+10.2670,+00.000235,-00.000275,-00.000480
-017.640,-000.295,+179.920,-0.130,-0.756,-1.315,-00.0530,-00.0240,+10.2260,-00.000367,-00.000351,+00.000376
-017.640,-000.295,+179.919,-0.135,-0.796,-1.321,-00.0540,-00.0380,+10.1850,-00.000508,-00.000019,+00.000190
-017.640,-000.296,+179.919,-0.130,-0.791,-1.310,-00.0640,-00.0100,+10.2400,+00.000258,+00.000926,+00.001196
-017.642,-000.297,+179.919,-0.130,-0.786,-1.342,-00.0560,-00.0030,+10.1930,+00.000401,+00.000649,+00.001193
-017.643,-000.297,+179.919,-0.135,-0.791,-1.347,-00.0480,-00.0130,+10.2500,-00.000945,+00.000342,+00.000479
-017.643,-000.297,+179.919,-0.125,-0.815,-1.309,-00.0550,-00.0050,+10.2190,-00.000553,-00.000990,+00.000106
-017.643,-000.298,+179.918,-0.121,-0.796,-1.325,-00.0620,+00.0040,+10.2360,+00.000096,+00.000024,+00.000978
-017.643,-000.298,+179.918,-0.130,-0.786,-1.310,-00.0390,-00.0070,+10.1950,-00.001721,+00.000292,+00.000095
-017.643,-000.298,+179.917,-0.130,-0.811,-1.315,-00.0650,-00.0170,+10.2070,+00.000693,+00.000382,+00.000226
-017.644,-000.298,+179.918,-0.139,-0.781,-1.305,-00.0540,-00.0010,+10.1930,-00.000230,+00.000379,+00.000434
-017.644,-000.298,+179.919,-0.135,-0.776,-1.321,-00.0600,+00.0100,+10.1930,+00.000141,+00.000896,+00.000635
-017.645,-000.299,+179.919,-0.135,-0.806,-1.315,-00.0570,-00.0100,+10.2240,-00.000249,+00.000877,-00.000004
-017.645,-000.299,+179.919,-0.130,-0.786,-1.315,-00.0570,-00.0030,+10.2270,-00.000769,+00.000970,+00.000816
-017.644,-000.298,+179.920,-0.130,-0.806,-1.320,-00.0650,+00.0000,+10.2360,+00.001177,-00.000868,+00.000295
-017.645,-000.297,+179.921,-0.135,-0.796,-1.310,-00.0640,-00.0050,+10.1820,-00.000526,+00.001175,+00.000211
-017.646,-000.297,+179.921,-0.130,-0.776,-1.310,-00.0560,-00.0200,+10.1960,-00.000347,+00.000298,+00.000301
-017.646,-000.298,+179.921,-0.135,-0.791,-1.321,-00.0510,-00.0080,+10.1970,+00.000506,-00.000582,+00.000368
-017.646,-000.297,+179.921,-0.130,-0.806,-1.326,-00.0550,-00.0050,+10.2180,-00.000187,+00.000996,+00.000075
-017.646,-000.298,+179.921,-0.135,-0.781,-1.326,-00.0520,-00.0120,+10.2030,-00.000048,+00.000418,-00.000675
-017.647,-000.299,+179.922,-0.130,-0.806,-1.320,-00.0720,+00.0010,+10.2000,-00.000176,-00.000074,+00.000457
-017.648,-000.299,+179.923,-0.144,-0.786,-1.310,-00.0450,+00.0050,+10.2140,+00.000524,+00.000272,+00.000937
-017.648,-000.299,+179.921,-0.121,-0.786,-1.315,-00.0570,-00.0030,+10.2360,-00.000929,-00.000030,+00.001550
-017.648,-000.299,+179.922,-0.125,-0.796,-1.315,-00.0470,+00.0020,+10.1960,-00.000351,-00.000992,+00.000026
-017.647,-000.299,+179.923,-0.125,-0.806,-1.315,-00.0430,+00.0060,+10.2210,+00.000617,-00.000029,-00.000861
-017.647,-000.299,+179.922,-0.121,-0.791,-1.342,-00.0420,-00.0190,+10.2050,-00.000993,-00.000347,-00.000664
-017.647,-000.299,+179.922,-0.130,-0.776,-1.321,-00.0400,-00.0170,+10.2110,-00.000428,-00.000354,+00.000016
-017.647,-000.300,+179.923,-0.130,-0.796,-1.304,-00.0590,+00.0090,+10.2030,+00.000656,-00.000607,-00.000516
-017.647,-000.299,+179.923,-0.130,-0.752,-1.321,-00.0670,-00.0260,+10.2200,-00.000065,-00.001708,+00.000166
-017.647,-000.299,+179.923,-0.135,-0.796,-1.310,-00.0420,-00.0040,+10.1960,+00.000269,-00.001654,+00.000652
-017.647,-000.299,+179.922,-0.125,-0.791,-1.283,-00.0520,+00.0010,+10.1990,-00.000135,-00.000220,+00.000216
-017.647,-000.298,+179.922,-0.125,-0.786,-1.326,-00.0530,+00.0150,+10.1970,+00.000021,-00.000391,+00.000630
-017.647,-000.297,+179.923,-0.139,-0.810,-1.305,-00.0640,-00.0160,+10.2160,-00.000226,-00.000191,-00.000641
-017.647,-000.297,+179.923,-0.130,-0.791,-1.294,-00.0670,+00.0040,+10.2190,-00.000277,-00.000223,-00.001032
-017.646,-000.296,+179.924,-0.116,-0.791,-1.314,-00.0530,+00.0050,+10.2170,+00.000195,-00.000149,+00.000842
-017.646,-000.297,+179.924,-0.135,-0.796,-1.321,-00.0630,-00.0120,+10.2210,+00.000097,+00.001463,+00.000382
-017.646,-000.297,+179.924,-0.135,-0.801,-1.288,-00.0700,-00.0230,+10.2300,+00.000274,+00.000227,+00.001394
-017.646,-000.297,+179.925,-0.130,-0.781,-1.337,-00.0790,-00.0140,+10.2130,-00.000015,-00.000446,+00.000280
-017.646,-000.296,+179.925,-0.125,-0.796,-1.309,-00.0330,-00.0290,+10.2270,-00.000144,+00.000272,-00.000720
-017.645,-000.297,+179.925,-0.125,-0.786,-1.320,-00.0650,-00.0030,+10.1930,-00.000195,+00.000255,+00.000165
-017.644,-000.296,+179.925,-0.130,-0.786,-1.310,-00.0460,-00.0380,+10.2270,-00.000583,-00.000358,-00.000505
-017.644,-000.296,+179.926,-0.125,-0.801,-1.326,-00.0560,+00.0000,+10.1920,+00.000362,+00.001394,+00.000301
-017.645,-000.297,+179.926,-0.125,-0.796,-1.309,-00.0630,-00.0070,+10.1980,-00.000171,+00.000072,+00.000351
-017.645,-000.299,+179.926,-0.121,-0.771,-1.331,-00.0700,-00.0100,+10.1980,-00.000304,-00.000210,+00.000833
-017.645,-000.300,+179.926,-0.125,-0.781,-1.320,-00.0530,-00.0080,+10.2160,+00.000632,-00.000251,+00.000276
-017.646,-000.300,+179.925,-0.135,-0.786,-1.294,-00.0690,-00.0170,+10.2150,-00.001598,-00.000465,+00.000987
-017.646,-000.299,+179.924,-0.130,-0.786,-1.310,-00.0530,+00.0050,+10.2190,-00.000289,-00.000980,+00.000062
-017.646,-000.298,+179.925,-0.130,-0.766,-1.315,-00.0540,-00.0110,+10.2410,-00.000455,-00.001257,-00.000150
-017.647,-000.297,+179.925,-0.125,-0.786,-1.299,-00.0390,+00.0220,+10.1900,+00.000279,+00.000421,-00.000307
-017.647,-000.299,+179.924,-0.130,-0.776,-1.337,-00.0750,-00.0210,+10.2280,+00.000052,-00.000570,-00.000257
-017.647,-000.299,+179.924,-0.125,-0.766,-1.310,-00.0630,-00.0170,+10.1930,+00.000664,+00.000023,+00.000428
-017.647,-000.298,+179.925,-0.125,-0.801,-1.309,-00.0540,-00.0100,+10.1860,-00.000244,+00.000843,-00.000827
-017.647,-000.297,+179.925,-0.135,-0.796,-1.315,-00.0470,+00.0050,+10.1860,-00.001472,+00.000830,+00.000713
-017.647,-000.297,+179.924,-0.125,-0.771,-1.315,-00.0400,-00.0150,+10.2060,-00.000108,-00.000773,-00.000634
-017.647,-000.296,+179.922,-0.130,-0.815,-1.288,-00.0370,-00.0180,+10.2210,-00.000762,+00.000996,+00.000735
-017.647,-000.297,+179.923,-0.116,-0.757,-1.315,-00.0470,-00.0170,+10.2080,-00.000106,-00.000254,-00.000442
-017.647,-000.297,+179.923,-0.144,-0.801,-1.310,-00.0640,-00.0120,+10.2090,-00.000513,+00.001081,+00.000814
-017.648,-000.296,+179.924,-0.130,-0.791,-1.304,-00.0580,-00.0240,+10.1950,-00.000687,-00.000262,+00.000903
-017.648,-000.296,+179.923,-0.125,-0.786,-1.326,-00.0530,-00.0240,+10.1850,-00.001454,-00.000906,+00.000864
-017.647,-000.297,+179.923,-0.125,-0.786,-1.326,-00.0620,-00.0120,+10.2220,-00.000352,+00.000398,-00.000358
-017.647,-000.295,+179.923,-0.121,-0.811,-1.304,-00.0160,-00.0180,+10.2250,-00.000041,+00.000124,+00.000365
-017.647,-000.294,+179.924,-0.125,-0.786,-1.320,-00.0470,-00.0020,+10.2060,+00.000254,+00.000483,+00.000551
-017.648,-000.293,+179.925,-0.130,-0.796,-1.337,-00.0520,+00.0050,+10.1860,-00.000499,-00.000080,-00.000304
-017.648,-000.293,+179.925,-0.125,-0.801,-1.293,-00.0590,+00.0070,+10.1850,+00.000516,-00.000425,+00.000047
-017.650,-000.292,+179.925,-0.135,-0.742,-1.337,-00.0320,-00.0070,+10.2270,+00.000230,-00.001699,-00.000077
-017.650,-000.292,+179.924,-0.135,-0.751,-1.310,-00.0440,-00.0210,+10.2160,+00.000360,+00.000593,-00.000133
-017.651,-000.292,+179.923,-0.125,-0.791,-1.288,-00.0570,-00.0150,+10.2260,-00.001081,-00.000025,+00.000612
-017.651,-000.293,+179.923,-0.125,-0.776,-1.320,-00.0730,-00.0130,+10.1550,-00.000888,+00.001418,+00.000349
-017.651,-000.293,+179.923,-0.125,-0.776,-1.310,-00.0280,-00.0330,+10.2470,+00.000160,+00.000590,-00.000438
-017.651,-000.293,+179.922,-0.125,-0.786,-1.304,-00.0760,-00.0260,+10.2270,-00.000188,-00.000708,+00.000521
-017.651,-000.293,+179.922,-0.125,-0.796,-1.326,-00.0580,+00.0000,+10.2030,-00.001442,-00.000796,+00.001253
-017.651,-000.293,+179.923,-0.126,-0.806,-1.342,-00.0470,+00.0010,+10.2090,+00.000277,-00.000257,-00.000310
-017.651,-000.293,+179.923,-0.116,-0.776,-1.293,-00.0580,-00.0210,+10.2190,+00.000029,+00.000486,+00.000645
-017.652,-000.293,+179.924,-0.121,-0.791,-1.325,-00.0440,-00.0020,+10.2110,+00.000172,-00.000720,+00.000431
-017.652,-000.293,+179.924,-0.125,-0.801,-1.309,-00.0520,-00.0160,+10.2060,+00.000413,+00.000691,+00.000163
-017.653,-000.293,+179.925,-0.125,-0.811,-1.309,-00.0590,-00.0040,+10.2250,-00.000156,+00.000333,+00.001196
-017.652,-000.292,+179.924,-0.125,-0.781,-1.331,-00.0590,-00.0100,+10.2470,-00.000553,-00.000263,-00.000103
-017.652,-000.294,+179.924,-0.130,-0.796,-1.320,-00.0520,-00.0100,+10.2060,+00.001015,+00.000297,+00.000346
-017.652,-000.295,+179.923,-0.125,-0.811,-1.304,-00.0410,-00.0160,+10.1990,-00.000981,+00.001373,+00.000939
-017.652,-000.294,+179.922,-0.126,-0.801,-1.336,-00.0350,-00.0140,+10.2160,-00.000873,-00.000566,+00.000836
-017.652,-000.294,+179.923,-0.139,-0.771,-1.310,-00.0460,-00.0140,+10.2010,+00.000467,-00.001697,+00.000068
-017.652,-000.295,+179.921,-0.121,-0.796,-1.331,-00.0570,-00.0280,+10.2120,-00.000680,+00.000646,-00.000850
-017.652,-000.295,+179.922,-0.125,-0.766,-1.315,-00.0560,-00.0110,+10.1940,-00.000130,-00.000616,-00.000754
-017.652,-000.294,+179.923,-0.135,-0.791,-1.305,-00.0350,+00.0050,+10.2170,-00.000268,-00.001261,+00.000853
-017.652,-000.294,+179.924,-0.121,-0.801,-1.309,-00.0670,-00.0070,+10.2090,-00.000039,-00.000416,+00.000428
-017.651,-000.295,+179.922,-0.130,-0.771,-1.310,-00.0560,-00.0430,+10.1950,-00.000271,+00.000477,-00.000586
-017.652,-000.295,+179.922,-0.139,-0.796,-1.315,-00.0480,-00.0060,+10.1940,-00.000743,+00.001194,-00.000620
-017.652,-000.296,+179.923,-0.125,-0.786,-1.288,-00.0530,-00.0120,+10.2270,-00.000715,+00.000947,+00.000041
-017.652,-000.295,+179.923,-0.125,-0.801,-1.326,-00.0590,-00.0070,+10.2150,+00.000030,+00.000041,-00.000202
-017.651,-000.296,+179.923,-0.121,-0.781,-1.304,-00.0500,+00.0120,+10.2320,+00.000424,+00.000272,+00.000668
-017.652,-000.296,+179.925,-0.139,-0.776,-1.305,-00.0430,-00.0340,+10.2120,+00.001171,-00.001235,+00.000185
-017.653,-000.295,+179.926,-0.116,-0.771,-1.315,-00.0630,-00.0010,+10.2440,-00.000329,-00.000619,+00.001058
-017.653,-000.295,+179.927,-0.135,-0.781,-1.321,-00.0640,-00.0220,+10.2000,+00.000784,-00.000222,-00.000558
-017.652,-000.294,+179.928,-0.130,-0.776,-1.294,-00.0600,-00.0030,+10.2340,-00.000156,-00.000798,-00.000444
-017.652,-000.295,+179.927,-0.125,-0.781,-1.326,-00.0560,-00.0270,+10.2010,-00.000561,+00.000474,+00.000260
-017.652,-000.295,+179.927,-0.126,-0.816,-1.331,-00.0420,-00.0020,+10.1970,+00.000071,+00.000006,+00.000334
-017.652,-000.296,+179.927,-0.135,-0.815,-1.320,-00.0440,-00.0120,+10.2200,-00.000370,-00.000540,-00.000548
-017.652,-000.295,+179.927,-0.130,-0.766,-1.326,-00.0490,-00.0160,+10.2110,-00.000439,+00.001200,-00.000005
-017.652,-000.296,+179.926,-0.125,-0.811,-1.309,-00.0640,-00.0260,+10.1870,-00.000273,-00.000375,+00.000267
-017.652,-000.295,+179.926,-0.135,-0.801,-1.299,-00.0480,-00.0050,+10.1920,-00.000367,-00.000816,-00.001036
-017.652,-000.294,+179.926,-0.125,-0.781,-1.326,-00.0540,-00.0130,+10.2100,+00.000277,+00.000120,+00.000749
-017.652,-000.294,+179.925,-0.126,-0.806,-1.347,-00.0430,-00.0150,+10.2410,-00.000063,-00.000537,-00.000793
-017.652,-000.293,+179.925,-0.135,-0.786,-1.294,-00.0300,-00.0080,+10.2200,-00.000059,+00.000676,+00.000847
-017.652,-000.292,+179.925,-0.121,-0.752,-1.315,-00.0580,-00.0100,+10.1920,-00.000518,+00.000590,+00.000100
-017.652,-000.292,+179.925,-0.125,-0.801,-1.320,-00.0650,+00.0000,+10.2100,-00.000771,-00.000636,+00.000437
-017.651,-000.293,+179.925,-0.125,-0.771,-1.304,-00.0560,+00.0060,+10.2410,-00.000036,+00.000053,+00.000776
-017.651,-000.294,+179.925,-0.135,-0.766,-1.315,-00.0520,-00.0150,+10.1860,-00.000007,-00.000168,-00.000151
-017.651,-000.294,+179.926,-0.130,-0.786,-1.304,-00.0720,-00.0270,+10.2350,+00.000615,+00.000844,+00.000563
-017.651,-000.293,+179.925,-0.126,-0.820,-1.309,-00.0520,-00.0220,+10.2000,-00.001093,-00.000702,+00.000137
-017.652,-000.292,+179.926,-0.139,-0.786,-1.332,-00.0550,+00.0120,+10.2280,-00.001195,-00.000549,-00.000436
-017.652,-000.293,+179.927,-0.130,-0.766,-1.326,-00.0510,+00.0010,+10.1960,+00.000078,-00.001195,+00.000729
-017.653,-000.292,+179.925,-0.116,-0.791,-1.293,-00.0470,-00.0400,+10.2360,-00.000441,+00.000722,-00.000100
-017.653,-000.291,+179.926,-0.125,-0.771,-1.320,-00.0310,-00.0140,+10.1850,+00.000215,+00.000051,+00.000572
-017.652,-000.291,+179.927,-0.125,-0.791,-1.315,-00.0630,+00.0030,+10.2040,+00.000318,+00.001177,-00.000414
-017.651,-000.290,+179.927,-0.125,-0.801,-1.299,-00.0410,-00.0190,+10.2330,-00.000049,-00.000412,-00.000352
-017.651,-000.291,+179.927,-0.121,-0.796,-1.325,-00.0690,-00.0130,+10.2070,-00.001011,-00.000806,+00.000309
-017.650,-000.291,+179.928,-0.130,-0.801,-1.320,-00.0730,+00.0050,+10.1990,-00.000056,-00.000382,-00.000311
-017.650,-000.293,+179.929,-0.121,-0.786,-1.293,-00.0670,+00.0100,+10.1960,-00.000945,-00.001475,-00.000352
-017.650,-000.291,+179.931,-0.121,-0.796,-1.325,-00.0280,+00.0090,+10.2160,+00.000131,+00.000642,+00.000039
-017.650,-000.291,+179.930,-0.135,-0.791,-1.331,-00.0560,-00.0270,+10.1860,-00.001103,+00.001191,-00.000242
-017.650,-000.291,+179.929,-0.125,-0.781,-1.304,-00.0650,-00.0080,+10.2120,+00.000298,-00.000543,-00.000180
-017.650,-000.291,+179.929,-0.125,-0.786,-1.347,-00.0610,-00.0150,+10.2110,-00.000251,+00.000615,+00.000888
-017.650,-000.292,+179.928,-0.130,-0.771,-1.315,-00.0550,-00.0260,+10.2230,-00.001108,+00.000697,+00.000585
-017.650,-000.293,+179.928,-0.130,-0.815,-1.320,-00.0470,-00.0070,+10.2380,-00.000561,+00.000080,-00.000385
-017.650,-000.292,+179.928,-0.116,-0.786,-1.331,-00.0490,+00.0000,+10.2060,+00.000011,+00.000254,+00.000574
-017.650,-000.292,+179.928,-0.135,-0.816,-1.353,-00.0630,-00.0120,+10.2080,-00.000386,+00.000062,+00.001006
-017.650,-000.292,+179.928,-0.121,-0.811,-1.309,-00.0430,-00.0190,+10.1690,-00.000308,+00.000166,+00.000804
-017.650,-000.291,+179.928,-0.130,-0.786,-1.337,-00.0440,-00.0280,+10.2330,-00.001196,-00.001194,-00.000080
-017.651,-000.291,+179.927,-0.130,-0.791,-1.337,-00.0330,-00.0240,+10.2020,+00.000402,-00.000534,+00.000542
-017.652,-000.290,+179.927,-0.139,-0.801,-1.310,-00.0360,-00.0240,+10.1990,-00.000825,-00.000338,+00.000566
-017.652,-000.291,+179.928,-0.126,-0.801,-1.331,-00.0630,-00.0020,+10.2100,-00.000636,+00.000365,+00.000714
-017.651,-000.292,+179.927,-0.139,-0.776,-1.310,-00.0540,-00.0180,+10.1990,-00.000479,-00.000464,-00.000912
-017.652,-000.292,+179.928,-0.130,-0.751,-1.294,-00.0630,-00.0090,+10.2070,+00.000672,+00.000205,+00.000276
-017.652,-000.292,+179.929,-0.121,-0.732,-1.315,-00.0540,-00.0200,+10.2170,-00.000843,+00.000587,+00.000194
-017.652,-000.291,+179.928,-0.139,-0.771,-1.310,-00.0560,-00.0140,+10.2150,-00.000855,-00.001069,-00.000864
-017.652,-000.291,+179.927,-0.135,-0.786,-1.299,-00.0400,-00.0160,+10.2040,-00.000227,+00.000405,-00.000118
-017.653,-000.291,+179.928,-0.135,-0.786,-1.305,-00.0300,-00.0050,+10.2320,-00.000452,-00.000164,-00.000119
-017.653,-000.290,+179.929,-0.130,-0.791,-1.315,-00.0520,+00.0180,+10.2130,+00.000053,+00.000443,-00.000106
-017.653,-000.290,+179.929,-0.130,-0.766,-1.288,-00.0470,-00.0190,+10.1800,-00.000400,-00.000202,+00.000977
-017.654,-000.290,+179.930,-0.116,-0.771,-1.320,-00.0480,+00.0180,+10.2240,-00.001111,-00.000189,+00.000863
-017.653,-000.289,+179.930,-0.130,-0.791,-1.310,-00.0460,+00.0030,+10.1740,-00.000650,-00.000853,-00.000175
-017.653,-000.288,+179.931,-0.121,-0.796,-1.288,-00.0210,-00.0090,+10.2080,+00.000403,-00.000852,+00.000527
-017.653,-000.288,+179.931,-0.130,-0.801,-1.315,-00.0500,+00.0000,+10.2040,+00.000839,-00.000588,-00.000769
-017.653,-000.290,+179.931,-0.130,-0.791,-1.342,-00.0620,-00.0060,+10.2120,-00.000710,-00.001012,-00.000080
-017.654,-000.290,+179.931,-0.135,-0.806,-1.310,-00.0710,+00.0000,+10.1920,+00.000081,+00.000051,+00.000198
-017.654,-000.291,+179.930,-0.130,-0.766,-1.331,-00.0430,-00.0040,+10.1930,-00.000016,-00.000519,+00.000291
-017.654,-000.290,+179.930,-0.121,-0.786,-1.309,-00.0470,-00.0020,+10.1870,+00.000099,-00.001333,+00.000004
-017.654,-000.290,+179.932,-0.139,-0.786,-1.305,-00.0570,+00.0090,+10.2030,+00.000393,-00.000538,+00.001012
-017.654,-000.290,+179.931,-0.125,-0.781,-1.320,-00.0400,-00.0050,+10.2220,-00.000211,+00.000088,-00.000162
-017.654,-000.290,+179.930,-0.125,-0.791,-1.320,-00.0600,-00.0390,+10.2310,-00.000002,-00.000265,+00.000480
-017.654,-000.290,+179.931,-0.130,-0.766,-1.283,-00.0630,+00.0110,+10.1860,+00.000447,-00.000560,+00.000259
-017.654,-000.291,+179.931,-0.125,-0.776,-1.315,-00.0400,-00.0020,+10.2120,+00.001365,-00.000356,-00.000408
-017.654,-000.290,+179.931,-0.125,-0.801,-1.326,-00.0540,+00.0040,+10.2090,+00.000043,+00.000759,+00.000604
-017.654,-000.290,+179.931,-0.125,-0.796,-1.299,-00.0690,-00.0050,+10.1920,-00.000091,-00.000140,-00.000338
-017.654,-000.290,+179.933,-0.125,-0.761,-1.310,-00.0510,-00.0190,+10.2070,+00.000153,-00.001137,+00.000554
-017.654,-000.291,+179.931,-0.125,-0.786,-1.315,-00.0630,-00.0200,+10.2120,-00.001989,-00.000224,-00.000860
-017.654,-000.292,+179.931,-0.125,-0.776,-1.299,-00.0500,+00.0170,+10.1640,-00.001393,+00.000514,+00.000183
-017.654,-000.293,+179.930,-0.125,-0.776,-1.315,-00.0740,-00.0100,+10.2120,+00.000135,+00.000078,+00.000145
-017.653,-000.292,+179.931,-0.130,-0.811,-1.331,-00.0260,-00.0190,+10.2450,+00.000617,-00.000466,-00.000719
-017.653,-000.292,+179.931,-0.121,-0.761,-1.293,-00.0590,-00.0030,+10.2300,+00.000676,+00.000111,-00.000423
-017.653,-000.291,+179.931,-0.135,-0.771,-1.315,-00.0620,+00.0130,+10.2260,-00.000764,-00.000032,+00.000218
-017.653,-000.291,+179.930,-0.125,-0.791,-1.320,-00.0520,-00.0180,+10.2050,+00.000199,-00.000622,+00.000350
-017.653,-000.290,+179.930,-0.130,-0.806,-1.304,-00.0330,-00.0060,+10.1990,-00.000115,+00.000443,+00.000254
-017.653,-000.289,+179.929,-0.135,-0.776,-1.321,-00.0480,-00.0170,+10.1870,+00.000622,+00.000589,+00.000651
-017.654,-000.288,+179.928,-0.135,-0.810,-1.304,-00.0340,-00.0290,+10.2070,-00.001249,+00.000426,+00.000531
-017.654,-000.289,+179.930,-0.139,-0.801,-1.310,-00.0680,-00.0030,+10.1990,+00.000844,-00.001093,-00.000043
-017.654,-000.288,+179.931,-0.125,-0.776,-1.304,-00.0530,+00.0020,+10.1890,-00.000566,-00.000699,+00.000011
-017.655,-000.288,+179.932,-0.139,-0.786,-1.310,-00.0440,-00.0010,+10.1980,+00.000623,-00.000171,+00.000433
-017.654,-000.289,+179.932,-0.135,-0.811,-1.315,-00.0440,-00.0140,+10.1970,-00.001129,+00.000149,+00.000730
-017.654,-000.289,+179.933,-0.130,-0.771,-1.331,-00.0410,-00.0120,+10.2190,-00.000197,-00.000078,-00.000557
-017.653,-000.291,+179.933,-0.130,-0.796,-1.315,-00.0760,-00.0010,+10.2010,-00.000201,-00.000003,+00.000247
-017.653,-000.292,+179.933,-0.130,-0.791,-1.304,-00.0600,-00.0110,+10.1960,-00.000837,-00.000190,+00.000136
-017.654,-000.292,+179.934,-0.116,-0.776,-1.331,-00.0630,-00.0140,+10.2330,-00.000169,-00.000722,+00.000436
-017.653,-000.291,+179.934,-0.125,-0.781,-1.326,-00.0360,+00.0110,+10.2230,-00.000526,-00.000232,-00.000754
-017.653,-000.289,+179.934,-0.121,-0.791,-1.293,-00.0480,-00.0050,+10.2040,+00.000354,+00.001062,+00.001259
-017.654,-000.288,+179.935,-0.135,-0.786,-1.348,-00.0420,+00.0010,+10.2240,+00.000667,-00.000403,-00.001149
-017.654,-000.289,+179.935,-0.130,-0.766,-1.315,-00.0420,-00.0190,+10.1950,+00.000390,-00.000233,-00.000639
-017.654,-000.289,+179.936,-0.139,-0.810,-1.305,-00.0530,-00.0050,+10.1970,+00.000156,-00.000103,-00.000982
-017.654,-000.290,+179.937,-0.125,-0.786,-1.331,-00.0580,-00.0090,+10.2100,-00.000399,-00.000011,-00.000517
-017.654,-000.289,+179.937,-0.125,-0.796,-1.310,-00.0410,-00.0030,+10.2470,+00.000578,+00.000713,-00.000070
-017.654,-000.289,+179.937,-0.125,-0.801,-1.304,-00.0610,-00.0020,+10.2270,+00.000485,-00.000112,-00.000328
-017.653,-000.289,+179.937,-0.130,-0.801,-1.331,-00.0460,+00.0060,+10.2070,-00.000360,+00.000077,-00.000575
-017.653,-000.290,+179.938,-0.135,-0.801,-1.326,-00.0550,+00.0220,+10.2010,+00.000034,-00.000440,-00.000341
-017.653,-000.291,+179.938,-0.135,-0.806,-1.321,-00.0710,+00.0020,+10.2020,-00.000502,-00.000292,-00.000657
-017.653,-000.291,+179.937,-0.135,-0.776,-1.326,-00.0630,-00.0240,+10.1980,-00.000794,+00.000213,+00.000501
-017.654,-000.291,+179.937,-0.135,-0.806,-1.331,-00.0680,-00.0130,+10.1850,-00.000045,-00.000950,-00.000047
-017.654,-000.290,+179.937,-0.139,-0.786,-1.305,-00.0660,-00.0080,+10.2080,+00.000980,-00.000901,+00.001527
-017.654,-000.290,+179.937,-0.121,-0.786,-1.309,-00.0520,-00.0260,+10.1970,-00.000207,-00.001105,+00.000300
-017.654,-000.290,+179.936,-0.130,-0.796,-1.347,-00.0340,-00.0320,+10.1800,+00.001524,-00.000340,-00.000165
-017.654,-000.290,+179.935,-0.135,-0.801,-1.288,-00.0570,-00.0130,+10.2130,-00.000163,-00.000143,-00.000243
-017.654,-000.290,+179.935,-0.125,-0.786,-1.326,-00.0630,-00.0190,+10.2010,-00.001257,+00.000224,+00.001108
-017.654,-000.290,+179.935,-0.135,-0.771,-1.315,-00.0590,+00.0100,+10.2290,+00.000197,+00.000571,-00.000096
-017.654,-000.289,+179.935,-0.135,-0.815,-1.299,-00.0620,-00.0130,+10.1730,+00.000413,-00.000925,+00.000008
-017.655,-000.289,+179.935,-0.125,-0.771,-1.331,-00.0520,-00.0170,+10.2160,-00.000530,+00.000217,-00.000171
-017.654,-000.288,+179.933,-0.139,-0.796,-1.310,-00.0470,-00.0210,+10.2180,-00.001021,-00.000370,-00.000841
-017.654,-000.288,+179.934,-0.135,-0.776,-1.315,-00.0510,-00.0050,+10.1890,-00.000537,-00.000162,+00.001617
-017.654,-000.288,+179.935,-0.135,-0.771,-1.310,-00.0570,+00.0130,+10.2050,+00.000821,-00.000466,-00.000905
-017.654,-000.287,+179.936,-0.125,-0.771,-1.331,-00.0660,+00.0000,+10.1870,+00.001235,-00.000976,+00.000625
-017.654,-000.287,+179.936,-0.135,-0.810,-1.299,-00.0610,+00.0140,+10.2130,-00.000739,+00.000232,-00.000211
-017.655,-000.288,+179.937,-0.121,-0.806,-1.309,-00.0590,-00.0120,+10.2020,-00.000067,+00.000029,-00.000257
-017.654,-000.288,+179.936,-0.139,-0.776,-1.326,-00.0800,-00.0150,+10.1930,+00.000822,-00.000665,+00.000627
-017.655,-000.289,+179.937,-0.139,-0.815,-1.299,-00.0620,+00.0320,+10.2180,-00.000515,-00.000331,-00.000523
-017.655,-000.289,+179.936,-0.130,-0.791,-1.315,-00.0470,-00.0010,+10.2380,-00.000047,+00.001672,-00.000342
-017.656,-000.289,+179.935,-0.130,-0.806,-1.315,-00.0370,+00.0060,+10.2050,-00.000116,+00.000809,-00.000520
-017.656,-000.289,+179.936,-0.130,-0.810,-1.293,-00.0380,+00.0030,+10.2310,+00.000863,-00.000133,+00.002309
-017.657,-000.290,+179.937,-0.135,-0.786,-1.310,-00.0440,-00.0150,+10.2090,+00.001246,-00.001627,-00.000199
-017.657,-000.290,+179.938,-0.116,-0.786,-1.315,-00.0360,+00.0050,+10.1990,+00.000496,-00.000028,+00.000812
-017.657,-000.291,+179.938,-0.135,-0.786,-1.299,-00.0710,+00.0010,+10.2570,-00.000461,+00.000514,+00.000085
-017.657,-000.291,+179.939,-0.135,-0.776,-1.321,-00.0560,-00.0050,+10.2250,+00.000404,-00.001064,-00.000480
-017.657,-000.291,+179.939,-0.121,-0.761,-1.315,-00.0590,+00.0140,+10.1740,-00.001056,-00.000234,+00.000367
-017.657,-000.290,+179.940,-0.130,-0.801,-1.294,-00.0360,-00.0160,+10.2380,-00.000444,-00.000129,-00.000382
-017.658,-000.291,+179.940,-0.130,-0.761,-1.326,-00.0570,+00.0030,+10.2220,-00.000283,-00.001035,+00.000425
-017.658,-000.291,+179.940,-0.121,-0.766,-1.320,-00.0540,-00.0150,+10.2010,+00.000114,-00.000652,+00.000434
-017.658,-000.291,+179.942,-0.130,-0.796,-1.310,-00.0490,-00.0120,+10.1990,+00.000214,-00.000115,-00.001360
-017.659,-000.291,+179.941,-0.135,-0.801,-1.342,-00.0670,-00.0150,+10.2040,-00.001151,-00.000601,+00.000539
-017.660,-000.290,+179.941,-0.121,-0.791,-1.320,-00.0550,-00.0020,+10.2290,+00.000369,+00.000159,-00.000378
-017.660,-000.291,+179.941,-0.135,-0.791,-1.310,-00.0550,-00.0200,+10.2260,+00.000277,+00.000146,+00.000787
-017.660,-000.291,+179.941,-0.125,-0.752,-1.331,-00.0240,-00.0110,+10.1940,-00.000274,+00.000744,-00.000628
-017.659,-000.290,+179.941,-0.130,-0.796,-1.337,-00.0300,+00.0010,+10.2070,-00.000594,-00.000107,+00.000164
-017.660,-000.291,+179.941,-0.135,-0.796,-1.294,-00.0690,-00.0410,+10.2000,-00.000650,-00.001443,+00.000808
-017.661,-000.291,+179.940,-0.135,-0.781,-1.331,-00.0700,-00.0260,+10.2210,+00.000380,-00.000128,+00.001014
-017.662,-000.290,+179.940,-0.130,-0.806,-1.320,-00.0700,-00.0070,+10.2250,-00.000304,-00.000353,+00.000817
-017.661,-000.290,+179.940,-0.125,-0.786,-1.310,-00.0290,-00.0040,+10.1680,-00.000230,-00.000188,+00.000760
-017.661,-000.290,+179.940,-0.121,-0.762,-1.331,-00.0610,-00.0200,+10.2670,+00.000120,+00.000397,-00.000469
-017.661,-000.291,+179.939,-0.130,-0.796,-1.320,-00.0540,-00.0130,+10.2080,-00.000744,-00.001263,-00.000285
-017.661,-000.290,+179.939,-0.139,-0.801,-1.299,-00.0740,-00.0160,+10.1960,-00.000511,+00.000482,+00.000674
-017.660,-000.289,+179.939,-0.121,-0.781,-1.309,-00.0470,+00.0130,+10.2390,+00.000050,-00.000651,-00.000488
-017.660,-000.289,+179.939,-0.130,-0.806,-1.320,-00.0530,-00.0030,+10.2210,+00.000342,-00.000565,+00.000113
-017.659,-000.289,+179.939,-0.130,-0.815,-1.299,-00.0570,-00.0190,+10.1900,+00.001010,+00.001166,-00.000191
-017.659,-000.289,+179.939,-0.135,-0.747,-1.310,-00.0670,-00.0190,+10.2270,+00.000102,-00.000842,+00.000088
-017.659,-000.290,+179.939,-0.144,-0.801,-1.337,-00.0620,+00.0110,+10.1870,-00.000728,-00.000718,+00.000977
-017.660,-000.291,+179.940,-0.130,-0.801,-1.294,-00.0520,-00.0030,+10.1960,-00.000143,+00.000485,+00.001127
-017.660,-000.291,+179.939,-0.139,-0.781,-1.316,-00.0520,-00.0190,+10.2450,+00.000331,+00.000203,-00.000003
-017.659,-000.291,+179.938,-0.125,-0.796,-1.315,-00.0450,-00.0230,+10.1870,+00.000424,-00.000450,-00.001550
-017.658,-000.291,+179.938,-0.125,-0.811,-1.304,-00.0550,-00.0140,+10.2250,+00.000723,-00.000769,-00.000213
-017.659,-000.292,+179.938,-0.139,-0.791,-1.310,-00.0540,-00.0230,+10.1790,+00.000476,+00.000634,+00.000318
-017.660,-000.293,+179.938,-0.135,-0.756,-1.316,-00.0630,-00.0120,+10.2290,-00.000251,+00.000240,+00.000376
-017.660,-000.293,+179.937,-0.135,-0.805,-1.288,-00.0750,-00.0080,+10.2120,-00.001056,-00.000159,-00.000291
-017.660,-000.293,+179.938,-0.125,-0.761,-1.315,-00.0570,-00.0020,+10.2080,-00.000610,-00.000372,-00.000013
-017.660,-000.293,+179.939,-0.139,-0.781,-1.316,-00.0540,+00.0030,+10.2040,-00.000584,+00.000279,-00.000368
-017.660,-000.293,+179.939,-0.139,-0.781,-1.305,-00.0630,+00.0030,+10.2450,-00.000253,-00.000234,+00.000709
-017.660,-000.292,+179.940,-0.130,-0.766,-1.315,-00.0740,-00.0070,+10.2190,+00.000412,+00.000623,+00.000602
-017.661,-000.291,+179.940,-0.135,-0.810,-1.310,-00.0350,-00.0040,+10.2110,-00.000558,-00.000518,+00.000106
-017.661,-000.290,+179.940,-0.135,-0.815,-1.299,-00.0420,-00.0280,+10.2190,-00.000088,-00.001135,+00.000812
-017.661,-000.291,+179.940,-0.125,-0.786,-1.336,-00.0460,+00.0130,+10.1980,+00.000211,-00.000016,+00.000226
-017.660,-000.291,+179.940,-0.130,-0.806,-1.326,-00.0650,-00.0010,+10.1800,+00.000229,+00.000225,-00.000673
-017.660,-000.293,+179.941,-0.130,-0.806,-1.310,-00.0760,-00.0030,+10.2510,-00.000091,+00.000491,+00.000681
-017.660,-000.293,+179.943,-0.121,-0.771,-1.309,-00.0550,+00.0080,+10.2290,+00.000963,+00.000194,+00.000380
-017.659,-000.295,+179.942,-0.130,-0.786,-1.310,-00.0770,+00.0010,+10.2310,-00.000129,+00.000266,+00.000162
-017.659,-000.295,+179.941,-0.135,-0.771,-1.299,-00.0450,-00.0270,+10.2030,-00.000264,+00.000023,+00.000279
-017.660,-000.295,+179.941,-0.135,-0.786,-1.315,-00.0450,-00.0120,+10.2190,+00.000422,-00.000356,-00.000236
-017.660,-000.295,+179.940,-0.130,-0.791,-1.315,-00.0450,+00.0010,+10.2170,+00.001531,+00.000127,-00.000133
-017.660,-000.295,+179.941,-0.139,-0.791,-1.299,-00.0610,+00.0150,+10.2090,+00.000017,+00.000655,+00.000968
-017.661,-000.296,+179.939,-0.139,-0.776,-1.316,-00.0620,-00.0480,+10.2230,-00.000447,+00.000086,-00.000386
-017.661,-000.296,+179.938,-0.130,-0.786,-1.299,-00.0550,-00.0120,+10.2160,+00.000629,-00.000308,+00.000648
