sep=,
DeviceTag:,A,,,,,,,,,,,,,,,,,
FirmwareVersion:,2.2.1,,,,,,,,,,,,,,,,,
AppVersion:,2022.0.1,,,,,,,,,,,,,,,,,
SyncStatus:,Synced,,,,,,,,,,,,,,,,,
OutputRate:,60Hz,,,,,,,,,,,,,,,,,
FilterProfile:,General,,,,,,,,,,,,,,,,,
Measurement Mode:,Inertial Mode - Rate quantities (with mag),,,,,,,,,,,,,,,,,
StartTime:,2022-08-03 10:58:55.699 +0300,,,,,,,,,,,,,,,,,
© Xsens Technologies B. V. 2005-2022,,,,,,,,,,,,,,,,,,,

PacketCounter,SampleTimeFine,Acc_X,Acc_Y,Acc_Z,Gyr_X,Gyr_Y,Gyr_Z,Mag_X,Mag_Y,Mag_Z
1, 3481600394, -4.747101783752441, 1.3980088233947754, 8.502364158630371, -2.511005401611328, -1.378206729888916, -2.305194139480591, 0.484375, -0.378173828125, -0.732666015625
2, 3481617061, -4.765237331390381, 1.3990715742111206, 8.500290870666504, -2.5235164165496826, -1.411848783493042, -2.376499891281128, 0.4853515625, -0.377685546875, -0.732177734375
3, 3481633728, -4.73901891708374, 1.4006930589675903, 8.49395751953125, -2.5899693965911865, -1.5235717296600342, -2.3313064575195312, 0.4853515625, -0.378662109375, -0.732666015625
4, 3481650395, -4.748985290527344, 1.4034920930862427, 8.472444534301758, -2.6537322998046875, -1.521458625793457, -2.360837936401367, 0.4833984375, -0.376708984375, -0.733154296875
5, 3481667062, -4.746934413909912, 1.405501365661621, 8.497976303100586, -2.6158249378204346, -1.6034575700759888, -2.296114683151245, 0.486328125, -0.377685546875, -0.732666015625
6, 3481683729, -4.747101783752441, 1.4055358171463013, 8.477933883666992, -2.6097168922424316, -1.58993399143219, -2.324032783508301, 0.48486328125, -0.378173828125, -0.730712890625
7, 3481700396, -4.73337984085083, 1.4182981252670288, 8.477149963378906, -2.633075714111328, -1.5875906944274902, -2.3717236518859863, 0.487548828125, -0.378662109375, -0.731201171875
8, 3481717063, -4.733646392822266, 1.3949203491210938, 8.491363525390625, -2.673492431640625, -1.5586354732513428, -2.4269189834594727, 0.48583984375, -0.377197265625, -0.731689453125
9, 3481733730, -4.750364780426025, 1.3994348049163818, 8.479351997375488, -2.592799186706543, -1.6000382900238037, -2.291670799255371, 0.4853515625, -0.377685546875, -0.732177734375
10, 3481750397, -4.741998672485352, 1.401197075843811, 8.5098295211792, -2.577893018722534, -1.5826729536056519, -2.33549427986145, 0.484375, -0.376220703125, -0.731689453125
11, 3481767064, -4.750767707824707, 1.407771348953247, 8.485464096069336, -2.5826568603515625, -1.565320372581482, -2.3395795822143555, 0.4853515625, -0.376708984375, -0.732666015625
12, 3481783731, -4.737161159515381, 1.4010958671569824, 8.500499725341797, -2.606835126876831, -1.5196657180786133, -2.3569576740264893, 0.484375, -0.377685546875, -0.733154296875
13, 3481800398, -4.748508930206299, 1.3956245183944702, 8.496581077575684, -2.618258476257324, -1.5652434825897217, -2.368342399597168, 0.486328125, -0.376220703125, -0.735107421875
14, 3481817065, -4.751662731170654, 1.4009183645248413, 8.49118423461914, -2.607667922973633, -1.5785237550735474, -2.3582258224487305, 0.484375, -0.377685546875, -0.729736328125
15, 3481833732, -4.735846519470215, 1.408430576324463, 8.470041275024414, -2.604837656021118, -1.706702470779419, -2.332536220550537, 0.486328125, -0.374755859375, -0.732177734375
16, 3481850399, -4.7480902671813965, 1.407109260559082, 8.486065864562988, -2.5437252521514893, -1.6575772762298584, -2.32218861579895, 0.486328125, -0.375732421875, -0.731689453125
17, 3481867066, -4.740950584411621, 1.400666356086731, 8.49034309387207, -2.5259501934051514, -1.6404935121536255, -2.269195795059204, 0.4853515625, -0.376708984375, -0.732666015625
18, 3481883733, -4.7451934814453125, 1.4161667823791504, 8.482759475708008, -2.5962953567504883, -1.5318572521209717, -2.3406553268432617, 0.4853515625, -0.376708984375, -0.734130859375
19, 3481900400, -4.749342918395996, 1.394376277923584, 8.486434936523438, -2.5499110221862793, -1.5475068092346191, -2.4004993438720703, 0.48388671875, -0.375732421875, -0.731689453125
20, 3481917067, -4.7404890060424805, 1.4002721309661865, 8.501310348510742, -2.581183910369873, -1.5465974807739258, -2.296562671661377, 0.48486328125, -0.375732421875, -0.734619140625
21, 3481933734, -4.739724159240723, 1.385039210319519, 8.486072540283203, -2.5628321170806885, -1.4756373167037964, -2.3841452598571777, 0.48486328125, -0.376708984375, -0.732177734375
22, 3481950401, -4.743197917938232, 1.3963712453842163, 8.49850845336914, -2.5422141551971436, -1.5051559209823608, -2.326260805130005, 0.4853515625, -0.377197265625, -0.732177734375
23, 3481967068, -4.723833084106445, 1.3969688415527344, 8.49277114868164, -2.6230990886688232, -1.4576443433761597, -2.270207405090332, 0.4873046875, -0.376220703125, -0.731689453125
24, 3481983735, -4.750244140625, 1.3870083093643188, 8.487223625183105, -2.5191497802734375, -1.488930344581604, -2.366626501083374, 0.4853515625, -0.375244140625, -0.731689453125
25, 3482000402, -4.752156734466553, 1.395437240600586, 8.499823570251465, -2.526949405670166, -1.4637274742126465, -2.3402836322784424, 0.48388671875, -0.375732421875, -0.730712890625
26, 3482017069, -4.745931625366211, 1.3960809707641602, 8.481321334838867, -2.58756160736084, -1.5255054235458374, -2.273242473602295, 0.48388671875, -0.375244140625, -0.733642578125
27, 3482033736, -4.745361804962158, 1.3968839645385742, 8.502239227294922, -2.4971485137939453, -1.611973762512207, -2.2606024742126465, 0.482421875, -0.378173828125, -0.733154296875
28, 3482050403, -4.741655349731445, 1.3996306657791138, 8.4795560836792, -2.475032091140747, -1.6291979551315308, -2.2637269496917725, 0.48291015625, -0.376708984375, -0.733154296875
29, 3482067070, -4.7433552742004395, 1.3929717540740967, 8.494315147399902, -2.46873140335083, -1.4963964223861694, -2.278505802154541, 0.4833984375, -0.376708984375, -0.732666015625
30, 3482083737, -4.74668550491333, 1.3904132843017578, 8.497763633728027, -2.4987881183624268, -1.4530980587005615, -2.325223207473755, 0.48388671875, -0.375732421875, -0.732666015625
31, 3482100404, -4.727821350097656, 1.3987300395965576, 8.49950885772705, -2.503603219985962, -1.3873759508132935, -2.3052070140838623, 0.4833984375, -0.376220703125, -0.732177734375
32, 3482117071, -4.748049736022949, 1.402509093284607, 8.483641624450684, -2.4389567375183105, -1.3762471675872803, -2.3647313117980957, 0.484375, -0.374267578125, -0.733642578125
33, 3482133738, -4.747682571411133, 1.4007126092910767, 8.497053146362305, -2.4974818229675293, -1.4897115230560303, -2.3599157333374023, 0.48388671875, -0.376220703125, -0.733154296875
34, 3482150405, -4.753310203552246, 1.3950539827346802, 8.495159149169922, -2.558427333831787, -1.4684016704559326, -2.356163740158081, 0.48388671875, -0.377197265625, -0.733154296875
35, 3482167072, -4.740119457244873, 1.3955084085464478, 8.484919548034668, -2.454925775527954, -1.466019630432129, -2.374335527420044, 0.484375, -0.379150390625, -0.733642578125
36, 3482183739, -4.751766681671143, 1.3884488344192505, 8.512276649475098, -2.493870258331299, -1.5893834829330444, -2.3374404907226562, 0.4853515625, -0.375244140625, -0.732177734375
37, 3482200406, -4.745869159698486, 1.389180064201355, 8.489808082580566, -2.438034772872925, -1.5635017156600952, -2.2626516819000244, 0.4833984375, -0.374267578125, -0.732666015625
38, 3482217073, -4.737916946411133, 1.3973735570907593, 8.493738174438477, -2.413177251815796, -1.4352588653564453, -2.366933584213257, 0.4833984375, -0.375732421875, -0.733154296875
39, 3482233740, -4.736935138702393, 1.411755084991455, 8.46696662902832, -2.46932053565979, -1.4406630992889404, -2.3939294815063477, 0.482421875, -0.377197265625, -0.733154296875
40, 3482250407, -4.740392208099365, 1.3948079347610474, 8.474477767944336, -2.4588706493377686, -1.4686834812164307, -2.3313450813293457, 0.48583984375, -0.375732421875, -0.733154296875
41, 3482267074, -4.747376441955566, 1.3980722427368164, 8.484569549560547, -2.547119379043579, -1.448667287826538, -2.369046926498413, 0.48486328125, -0.376708984375, -0.732177734375
42, 3482283741, -4.74111270904541, 1.4011839628219604, 8.501365661621094, -2.468308448791504, -1.4139617681503296, -2.3994617462158203, 0.48291015625, -0.376708984375, -0.734375
43, 3482300408, -4.742018699645996, 1.3968042135238647, 8.47602367401123, -2.4205923080444336, -1.382932186126709, -2.332369565963745, 0.484375, -0.376220703125, -0.733642578125
44, 3482317075, -4.7382917404174805, 1.3961623907089233, 8.475224494934082, -2.4925384521484375, -1.4630870819091797, -2.354396343231201, 0.48388671875, -0.376708984375, -0.731201171875
45, 3482333742, -4.73579216003418, 1.3950598239898682, 8.4794282913208, -2.4754674434661865, -1.421172022819519, -2.3232898712158203, 0.486328125, -0.377685546875, -0.731201171875
46, 3482350409, -4.746800899505615, 1.4088612794876099, 8.509264945983887, -2.475390672683716, -1.363005518913269, -2.352231979370117, 0.48486328125, -0.376220703125, -0.729736328125
47, 3482367076, -4.744220733642578, 1.4032306671142578, 8.511323928833008, -2.5358493328094482, -1.4819763898849487, -2.3581738471984863, 0.48681640625, -0.377197265625, -0.734619140625
48, 3482383743, -4.737624645233154, 1.4135643243789673, 8.49512004852295, -2.5890469551086426, -1.4233874082565308, -2.3174242973327637, 0.484375, -0.377685546875, -0.735107421875
49, 3482400410, -4.741157054901123, 1.3859680891036987, 8.486682891845703, -2.482908010482788, -1.3932796716690063, -2.2889814376831055, 0.484375, -0.378662109375, -0.732177734375
50, 3482417077, -4.74451208114624, 1.4015986919403076, 8.49009895324707, -2.396695852279663, -1.4108244180679321, -2.359365224838257, 0.48583984375, -0.375244140625, -0.732666015625
51, 3482433744, -4.747463226318359, 1.3978804349899292, 8.4935941696167, -2.488785982131958, -1.3680896759033203, -2.391547679901123, 0.48291015625, -0.377685546875, -0.731201171875
52, 3482450411, -4.736369609832764, 1.3895238637924194, 8.504858016967773, -2.4230382442474365, -1.457106590270996, -2.3540377616882324, 0.4833984375, -0.377197265625, -0.731201171875
53, 3482467078, -4.744894027709961, 1.3905891180038452, 8.480876922607422, -2.537616491317749, -1.3754019737243652, -2.265058994293213, 0.4833984375, -0.376220703125, -0.732177734375
54, 3482483745, -4.7413411140441895, 1.3965011835098267, 8.490846633911133, -2.480487585067749, -1.452368140220642, -2.4167120456695557, 0.484375, -0.376220703125, -0.733154296875
55, 3482500412, -4.739144325256348, 1.4026979207992554, 8.474955558776855, -2.5121448040008545, -1.339685082435608, -2.40482759475708, 0.48291015625, -0.378662109375, -0.734130859375
56, 3482517079, -4.7397847175598145, 1.388649344444275, 8.491308212280273, -2.56335711479187, -1.3299137353897095, -2.3358142375946045, 0.4853515625, -0.376708984375, -0.735107421875
57, 3482533746, -4.751777648925781, 1.3905127048492432, 8.490365982055664, -2.5307395458221436, -1.3353180885314941, -2.394083261489868, 0.48486328125, -0.376708984375, -0.733154296875
58, 3482550413, -4.7379841804504395, 1.387634038925171, 8.480648040771484, -2.502937078475952, -1.3193359375, -2.327759027481079, 0.48388671875, -0.377685546875, -0.732177734375
59, 3482567080, -4.7430009841918945, 1.3964170217514038, 8.492025375366211, -2.4170961380004883, -1.3584977388381958, -2.3128397464752197, 0.482421875, -0.376708984375, -0.733154296875
60, 3482583747, -4.7427449226379395, 1.3961395025253296, 8.498774528503418, -2.513681650161743, -1.4153321981430054, -2.3039774894714355, 0.4833984375, -0.376220703125, -0.73486328125
61, 3482600414, -4.7495808601379395, 1.3949795961380005, 8.479625701904297, -2.481806993484497, -1.383073091506958, -2.3076276779174805, 0.484375, -0.377685546875, -0.732666015625
62, 3482617081, -4.726932525634766, 1.3959687948226929, 8.475133895874023, -2.436741352081299, -1.3486239910125732, -2.287726640701294, 0.484375, -0.377197265625, -0.733154296875
63, 3482633748, -4.741199493408203, 1.383201003074646, 8.501688957214355, -2.3607993125915527, -1.1546460390090942, -2.3010318279266357, 0.48388671875, -0.377197265625, -0.732177734375
64, 3482650415, -4.745129108428955, 1.387261152267456, 8.474111557006836, -2.3211889266967773, -1.3001004457473755, -2.239049196243286, 0.4853515625, -0.377197265625, -0.732666015625
65, 3482667082, -4.7484331130981445, 1.4126204252243042, 8.478494644165039, -2.3855414390563965, -1.361712098121643, -2.340604066848755, 0.484375, -0.375244140625, -0.732666015625
66, 3482683749, -4.756176948547363, 1.3857107162475586, 8.481703758239746, -2.361990213394165, -1.3712525367736816, -2.269925355911255, 0.484375, -0.376708984375, -0.732666015625
67, 3482700416, -4.749898433685303, 1.4009138345718384, 8.493027687072754, -2.2746896743774414, -1.4570040702819824, -2.263996124267578, 0.48291015625, -0.376220703125, -0.731689453125
68, 3482717083, -4.735369682312012, 1.3994208574295044, 8.486164093017578, -2.324941635131836, -1.4769819974899292, -2.333995819091797, 0.4853515625, -0.376708984375, -0.733154296875
69, 3482733750, -4.758377552032471, 1.39764404296875, 8.481985092163086, -2.2786083221435547, -1.4924519062042236, -2.210747480392456, 0.484375, -0.376220703125, -0.733154296875
70, 3482750417, -4.749018669128418, 1.3868873119354248, 8.473176956176758, -2.2236945629119873, -1.522444248199463, -2.2137820720672607, 0.486328125, -0.374755859375, -0.732177734375
71, 3482767084, -4.750154972076416, 1.3922730684280396, 8.496081352233887, -2.222336769104004, -1.551668405532837, -2.144256591796875, 0.48388671875, -0.375244140625, -0.73388671875
72, 3482783751, -4.738943099975586, 1.4014430046081543, 8.51201057434082, -2.1979920864105225, -1.4327102899551392, -2.2361037731170654, 0.48291015625, -0.376220703125, -0.733642578125
73, 3482800418, -4.736273288726807, 1.4083088636398315, 8.479670524597168, -2.1749792098999023, -1.4406630992889404, -2.169178009033203, 0.4853515625, -0.376220703125, -0.733642578125
74, 3482817085, -4.745731353759766, 1.3916730880737305, 8.491418838500977, -2.3135437965393066, -1.5165150165557861, -2.21519136428833, 0.48291015625, -0.374755859375, -0.731689453125
75, 3482833752, -4.740221977233887, 1.4163984060287476, 8.493229866027832, -2.2388830184936523, -1.443250060081482, -2.1587281227111816, 0.486328125, -0.376708984375, -0.733154296875
76, 3482850419, -4.737557888031006, 1.4121863842010498, 8.487468719482422, -2.3713901042938232, -1.4056504964828491, -2.208775043487549, 0.48486328125, -0.376220703125, -0.732177734375
77, 3482867086, -4.747990608215332, 1.4120458364486694, 8.478094100952148, -2.419222354888916, -1.3542845249176025, -2.333240509033203, 0.484375, -0.377197265625, -0.73486328125
78, 3482883753, -4.7426323890686035, 1.4122893810272217, 8.498562812805176, -2.5085461139678955, -1.3823045492172241, -2.3112006187438965, 0.48388671875, -0.377685546875, -0.734130859375
79, 3482900420, -4.7508225440979, 1.405948281288147, 8.495363235473633, -2.4807181358337402, -1.4250266551971436, -2.3842990398406982, 0.4833984375, -0.377197265625, -0.734375
80, 3482917087, -4.75416898727417, 1.3994462490081787, 8.491536140441895, -2.5385515689849854, -1.4236180782318115, -2.324160575866699, 0.4853515625, -0.374755859375, -0.731689453125
81, 3482933754, -4.751475811004639, 1.403412103652954, 8.49514102935791, -2.481191873550415, -1.3297858238220215, -2.304912567138672, 0.4853515625, -0.377197265625, -0.734619140625
82, 3482950421, -4.7423787117004395, 1.4101659059524536, 8.503843307495117, -2.4358065128326416, -1.393932819366455, -2.29703688621521, 0.48388671875, -0.376708984375, -0.732177734375
83, 3482967088, -4.743210792541504, 1.3965661525726318, 8.489853858947754, -2.4701530933380127, -1.4553905725479126, -2.2476940155029297, 0.484375, -0.377197265625, -0.731689453125
84, 3482983755, -4.736830711364746, 1.4001487493515015, 8.49087142944336, -2.4730985164642334, -1.3846098184585571, -2.21364164352417, 0.4853515625, -0.375244140625, -0.734130859375
85, 3483000422, -4.744287967681885, 1.3876545429229736, 8.48476505279541, -2.535452365875244, -1.46058988571167, -2.2928872108459473, 0.4833984375, -0.376708984375, -0.732177734375
86, 3483017089, -4.747995853424072, 1.4003278017044067, 8.48464298248291, -2.504089593887329, -1.4670313596725464, -2.2913248538970947, 0.4853515625, -0.375732421875, -0.733642578125
87, 3483033756, -4.736838340759277, 1.4119199514389038, 8.48699951171875, -2.501221179962158, -1.491248369216919, -2.367382049560547, 0.4853515625, -0.376708984375, -0.730712890625
88, 3483050423, -4.735352516174316, 1.4087350368499756, 8.473734855651855, -2.5541622638702393, -1.4212357997894287, -2.3007631301879883, 0.48291015625, -0.379150390625, -0.732666015625
89, 3483067090, -4.735903263092041, 1.414292335510254, 8.487431526184082, -2.6129181385040283, -1.4394595623016357, -2.34938907623291, 0.486328125, -0.376708984375, -0.733154296875
90, 3483083757, -4.732841968536377, 1.3938349485397339, 8.487833976745605, -2.5431745052337646, -1.448654294013977, -2.3197293281555176, 0.486328125, -0.377197265625, -0.734130859375
91, 3483100424, -4.755910396575928, 1.401787281036377, 8.490275382995605, -2.5308802127838135, -1.384212613105774, -2.3795857429504395, 0.484375, -0.376220703125, -0.732177734375
92, 3483117091, -4.739017009735107, 1.4018895626068115, 8.507894515991211, -2.500375747680664, -1.3864538669586182, -2.3546907901763916, 0.4853515625, -0.377685546875, -0.732177734375
93, 3483133758, -4.741048812866211, 1.4126721620559692, 8.494417190551758, -2.50343656539917, -1.3046085834503174, -2.3493378162384033, 0.48388671875, -0.376708984375, -0.733154296875
94, 3483150425, -4.737728118896484, 1.399678111076355, 8.514023780822754, -2.3876545429229736, -1.1647887229919434, -2.307422637939453, 0.48388671875, -0.378662109375, -0.732666015625
95, 3483167092, -4.743727684020996, 1.4082525968551636, 8.492813110351562, -2.325786590576172, -1.1325294971466064, -2.284357786178589, 0.48583984375, -0.376220703125, -0.734130859375
96, 3483183759, -4.74699068069458, 1.4014091491699219, 8.49225902557373, -2.3112258911132812, -1.11461341381073, -2.3193962574005127, 0.4833984375, -0.376708984375, -0.732666015625
97, 3483200426, -4.745650291442871, 1.4106316566467285, 8.49660587310791, -2.4105520248413086, -1.1541211605072021, -2.3077685832977295, 0.486328125, -0.378662109375, -0.733642578125
98, 3483217093, -4.73979377746582, 1.3941559791564941, 8.48746109008789, -2.4887478351593018, -1.2470953464508057, -2.313467264175415, 0.484375, -0.375732421875, -0.731689453125
99, 3483233760, -4.739190101623535, 1.3955750465393066, 8.487415313720703, -2.4546828269958496, -1.2632567882537842, -2.413292646408081, 0.4853515625, -0.378173828125, -0.730712890625
100, 3483250427, -4.754805088043213, 1.4100346565246582, 8.503215789794922, -2.4596004486083984, -1.2960282564163208, -2.3683295249938965, 0.48486328125, -0.377685546875, -0.732666015625
101, 3483267094, -4.755366802215576, 1.412028431892395, 8.492737770080566, -2.431656837463379, -1.3616862297058105, -2.3560993671417236, 0.48388671875, -0.374267578125, -0.7333984375
102, 3483283761, -4.752874851226807, 1.4196361303329468, 8.486452102661133, -2.464569091796875, -1.4244247674942017, -2.308856964111328, 0.48681640625, -0.376708984375, -0.733154296875
103, 3483300428, -4.747317790985107, 1.4165676832199097, 8.483802795410156, -2.5464401245117188, -1.3837387561798096, -2.3698277473449707, 0.48486328125, -0.377685546875, -0.731201171875
104, 3483317095, -4.750880718231201, 1.3976070880889893, 8.485980987548828, -2.524617910385132, -1.3236384391784668, -2.3281941413879395, 0.48583984375, -0.377685546875, -0.731689453125
105, 3483333762, -4.752116680145264, 1.4132673740386963, 8.487326622009277, -2.491936206817627, -1.3726613521575928, -2.394134044647217, 0.48388671875, -0.376220703125, -0.731689453125
106, 3483350429, -4.75523567199707, 1.4192802906036377, 8.474215507507324, -2.5807738304138184, -1.3740060329437256, -2.342076301574707, 0.4833984375, -0.377197265625, -0.731689453125
107, 3483367096, -4.753715991973877, 1.3954768180847168, 8.487768173217773, -2.504845380783081, -1.404395580291748, -2.2847297191619873, 0.4833984375, -0.375244140625, -0.734375
108, 3483383763, -4.761630535125732, 1.4119778871536255, 8.47496223449707, -2.5334291458129883, -1.46257483959198, -2.316054105758667, 0.486328125, -0.376220703125, -0.732177734375
109, 3483400430, -4.7390594482421875, 1.4020309448242188, 8.45075511932373, -2.4943442344665527, -1.534661889076233, -2.2725508213043213, 0.484375, -0.376708984375, -0.732666015625
110, 3483417097, -4.746876239776611, 1.4113223552703857, 8.474306106567383, -2.5297791957855225, -1.4818869829177856, -2.2522270679473877, 0.486328125, -0.376708984375, -0.732177734375
111, 3483433764, -4.752364635467529, 1.4024200439453125, 8.47243595123291, -2.4419405460357666, -1.4601287841796875, -2.283116102218628, 0.484375, -0.378173828125, -0.732666015625
112, 3483450431, -4.7442097663879395, 1.4093494415283203, 8.47187328338623, -2.5065486431121826, -1.3708045482635498, -2.2320315837860107, 0.48486328125, -0.375732421875, -0.733642578125
113, 3483467098, -4.747864723205566, 1.4102782011032104, 8.49594497680664, -2.44564151763916, -1.4569144248962402, -2.2260894775390625, 0.48681640625, -0.374755859375, -0.733154296875
114, 3483483765, -4.742954254150391, 1.3920886516571045, 8.489027976989746, -2.444770574569702, -1.3905264139175415, -2.266608715057373, 0.48388671875, -0.377197265625, -0.732177734375
115, 3483500432, -4.749955654144287, 1.395073413848877, 8.47646713256836, -2.4008445739746094, -1.4160877466201782, -2.228970766067505, 0.4853515625, -0.376708984375, -0.732666015625
116, 3483517099, -4.755727767944336, 1.4050884246826172, 8.493462562561035, -2.4735212326049805, -1.437666416168213, -2.178142547607422, 0.4853515625, -0.376220703125, -0.734130859375
117, 3483533766, -4.74835729598999, 1.406833291053772, 8.47491455078125, -2.416353464126587, -1.4290350675582886, -2.2516891956329346, 0.48486328125, -0.377197265625, -0.732177734375
118, 3483550433, -4.738156795501709, 1.4027907848358154, 8.485923767089844, -2.4607017040252686, -1.4782625436782837, -2.259578227996826, 0.48583984375, -0.378662109375, -0.734130859375
119, 3483567100, -4.752934455871582, 1.395690679550171, 8.481660842895508, -2.455335855484009, -1.539208173751831, -2.2897627353668213, 0.484375, -0.377197265625, -0.732177734375
120, 3483583767, -4.739103317260742, 1.4041978120803833, 8.500163078308105, -2.494882106781006, -1.5823911428451538, -2.3263375759124756, 0.4853515625, -0.378662109375, -0.733642578125
121, 3483600434, -4.757015705108643, 1.3864046335220337, 8.485156059265137, -2.5049092769622803, -1.6009987592697144, -2.288213014602661, 0.48681640625, -0.375732421875, -0.733642578125
122, 3483617101, -4.74899959564209, 1.393906831741333, 8.480520248413086, -2.4329633712768555, -1.6325023174285889, -2.280811071395874, 0.48486328125, -0.375732421875, -0.73486328125
123, 3483633768, -4.741291046142578, 1.4168121814727783, 8.471919059753418, -2.4302992820739746, -1.649752140045166, -2.1822147369384766, 0.48486328125, -0.378662109375, -0.732666015625
124, 3483650435, -4.747788906097412, 1.4211335182189941, 8.495318412780762, -2.5267441272735596, -1.6450780630111694, -2.232261896133423, 0.48583984375, -0.378662109375, -0.734130859375
125, 3483667102, -4.75689172744751, 1.3968089818954468, 8.471638679504395, -2.5879971981048584, -1.6119352579116821, -2.3778319358825684, 0.484375, -0.378173828125, -0.732177734375
126, 3483683769, -4.736199378967285, 1.3997756242752075, 8.489048957824707, -2.5167040824890137, -1.6559635400772095, -2.3087289333343506, 0.484375, -0.376708984375, -0.733642578125
127, 3483700436, -4.7389326095581055, 1.416203260421753, 8.480507850646973, -2.4622256755828857, -1.5181798934936523, -2.281041383743286, 0.48583984375, -0.378173828125, -0.732666015625
128, 3483717103, -4.745296478271484, 1.4035698175430298, 8.50296688079834, -2.6019558906555176, -1.5001357793807983, -2.326042890548706, 0.48486328125, -0.376220703125, -0.730712890625
129, 3483733770, -4.725759506225586, 1.3914070129394531, 8.495288848876953, -2.5507049560546875, -1.6022154092788696, -2.3454833030700684, 0.48779296875, -0.377197265625, -0.730224609375
130, 3483750437, -4.756340503692627, 1.4105205535888672, 8.518282890319824, -2.521045446395874, -1.639763593673706, -2.377819299697876, 0.4853515625, -0.377685546875, -0.733642578125
131, 3483767104, -4.731680393218994, 1.4019676446914673, 8.497076034545898, -2.5659573078155518, -1.7336214780807495, -2.281618118286133, 0.48583984375, -0.379638671875, -0.732666015625
132, 3483783771, -4.74773645401001, 1.413753628730774, 8.48315715789795, -2.5146164894104004, -1.804248332977295, -2.254404306411743, 0.48486328125, -0.376220703125, -0.733642578125
133, 3483800438, -4.745179176330566, 1.4029532670974731, 8.498804092407227, -2.4648125171661377, -1.7607195377349854, -2.257554769515991, 0.484375, -0.380126953125, -0.731689453125
134, 3483817105, -4.728366851806641, 1.4018666744232178, 8.493571281433105, -2.3723766803741455, -1.559442162513733, -2.2282283306121826, 0.48388671875, -0.378662109375, -0.731201171875
135, 3483833772, -4.7543044090271, 1.4296432733535767, 8.494807243347168, -2.3625922203063965, -1.5829542875289917, -2.266108989715576, 0.484375, -0.379638671875, -0.732666015625
136, 3483850439, -4.732026100158691, 1.4103933572769165, 8.463900566101074, -2.3991034030914307, -1.5179367065429688, -2.283282518386841, 0.4853515625, -0.378662109375, -0.731201171875
137, 3483867106, -4.748203754425049, 1.408058762550354, 8.490998268127441, -2.4908738136291504, -1.4796842336654663, -2.2782115936279297, 0.4853515625, -0.375732421875, -0.732666015625
138, 3483883773, -4.736399173736572, 1.413010597229004, 8.47498893737793, -2.4673993587493896, -1.499508261680603, -2.3261325359344482, 0.4833984375, -0.378173828125, -0.732177734375
139, 3483900440, -4.741338729858398, 1.4221864938735962, 8.485174179077148, -2.4622385501861572, -1.456530213356018, -2.26143479347229, 0.4833984375, -0.378173828125, -0.730712890625
140, 3483917107, -4.741796493530273, 1.4086887836456299, 8.491812705993652, -2.467297077178955, -1.4723460674285889, -2.3167967796325684, 0.48486328125, -0.378662109375, -0.731689453125
141, 3483933774, -4.739563465118408, 1.397288203239441, 8.490493774414062, -2.4277381896972656, -1.3977875709533691, -2.315439224243164, 0.48583984375, -0.377685546875, -0.732666015625
142, 3483950441, -4.747849464416504, 1.4143638610839844, 8.468019485473633, -2.390484571456909, -1.4806959629058838, -2.272064447402954, 0.4853515625, -0.377197265625, -0.733154296875
143, 3483967108, -4.7505903244018555, 1.4099175930023193, 8.480217933654785, -2.4622387886047363, -1.4596935510635376, -2.2648544311523438, 0.486328125, -0.377197265625, -0.732666015625
144, 3483983775, -4.7375969886779785, 1.4173650741577148, 8.48108959197998, -2.4877359867095947, -1.404434084892273, -2.287508726119995, 0.48583984375, -0.378173828125, -0.733154296875
145, 3484000442, -4.739700794219971, 1.4199938774108887, 8.484807014465332, -2.535362720489502, -1.4611148834228516, -2.3662421703338623, 0.4833984375, -0.3798828125, -0.732666015625
146, 3484017109, -4.747053146362305, 1.4008761644363403, 8.491528511047363, -2.536604881286621, -1.519729495048523, -2.3633220195770264, 0.484375, -0.377685546875, -0.732666015625
147, 3484033776, -4.740246295928955, 1.4070743322372437, 8.501049041748047, -2.546440362930298, -1.4430965185165405, -2.3245959281921387, 0.4833984375, -0.377197265625, -0.733154296875
148, 3484050443, -4.73709774017334, 1.4140812158584595, 8.471704483032227, -2.5231711864471436, -1.490479826927185, -2.3404500484466553, 0.48486328125, -0.378173828125, -0.731201171875
149, 3484067110, -4.7402448654174805, 1.4013680219650269, 8.50739860534668, -2.5670201778411865, -1.4615631103515625, -2.3451244831085205, 0.4833984375, -0.376220703125, -0.732177734375
150, 3484083777, -4.737412929534912, 1.4140348434448242, 8.482553482055664, -2.5243237018585205, -1.494974970817566, -2.4041361808776855, 0.48583984375, -0.377685546875, -0.734130859375
151, 3484100444, -4.732905387878418, 1.408786416053772, 8.47647762298584, -2.558900833129883, -1.503542423248291, -2.30798602104187, 0.48388671875, -0.377685546875, -0.732177734375
152, 3484117111, -4.742959022521973, 1.4169481992721558, 8.49211597442627, -2.497365951538086, -1.491209864616394, -2.3025050163269043, 0.4833984375, -0.377685546875, -0.732666015625
153, 3484133778, -4.738164901733398, 1.4111560583114624, 8.484806060791016, -2.4933836460113525, -1.5114309787750244, -2.3056552410125732, 0.484375, -0.379638671875, -0.731201171875
154, 3484150445, -4.746048927307129, 1.4031739234924316, 8.494966506958008, -2.513425350189209, -1.4445946216583252, -2.2515993118286133, 0.484375, -0.377197265625, -0.733154296875
155, 3484167112, -4.7441301345825195, 1.4162665605545044, 8.49189567565918, -2.484227418899536, -1.5004048347473145, -2.260589599609375, 0.4853515625, -0.376220703125, -0.733154296875
156, 3484183779, -4.741606712341309, 1.4117480516433716, 8.504056930541992, -2.5356061458587646, -1.668155312538147, -2.313864231109619, 0.4833984375, -0.378173828125, -0.734130859375
157, 3484200446, -4.746532440185547, 1.4078994989395142, 8.491571426391602, -2.5318284034729004, -1.6761976480484009, -2.2773404121398926, 0.48486328125, -0.376220703125, -0.733154296875
158, 3484217113, -4.730910301208496, 1.3961904048919678, 8.491183280944824, -2.514744520187378, -1.6577180624008179, -2.2995083332061768, 0.48486328125, -0.376708984375, -0.734130859375
159, 3484233780, -4.7368011474609375, 1.4102026224136353, 8.483147621154785, -2.497584104537964, -1.4564661979675293, -2.3109443187713623, 0.482421875, -0.375244140625, -0.732177734375
160, 3484250447, -4.736410140991211, 1.4225902557373047, 8.485103607177734, -2.5575435161590576, -1.4660453796386719, -2.2991881370544434, 0.4853515625, -0.378173828125, -0.733642578125
161, 3484267114, -4.735762596130371, 1.4028353691101074, 8.493439674377441, -2.521660089492798, -1.4591939449310303, -2.3459441661834717, 0.4833984375, -0.377685546875, -0.734130859375
162, 3484283781, -4.728396415710449, 1.4080034494400024, 8.482614517211914, -2.6094415187835693, -1.5389329195022583, -2.3062639236450195, 0.48291015625, -0.379150390625, -0.733154296875
163, 3484300448, -4.742618560791016, 1.4061012268066406, 8.486634254455566, -2.611663341522217, -1.608426570892334, -2.3760647773742676, 0.484375, -0.376708984375, -0.730712890625
164, 3484317115, -4.7364277839660645, 1.4106693267822266, 8.483128547668457, -2.5785329341888428, -1.685917615890503, -2.397118330001831, 0.48583984375, -0.379150390625, -0.732177734375
165, 3484333782, -4.741926193237305, 1.4022119045257568, 8.504000663757324, -2.569876194000244, -1.597554087638855, -2.308741807937622, 0.4833984375, -0.376220703125, -0.731689453125
166, 3484350449, -4.73313045501709, 1.4032176733016968, 8.510804176330566, -2.450392723083496, -1.4514974355697632, -2.364180564880371, 0.48291015625, -0.376708984375, -0.733154296875
167, 3484367116, -4.7235260009765625, 1.4130120277404785, 8.498598098754883, -2.4983651638031006, -1.2346729040145874, -2.297318458557129, 0.484375, -0.377685546875, -0.731201171875
168, 3484383783, -4.7554426193237305, 1.4046740531921387, 8.504551887512207, -2.482037305831909, -1.250821828842163, -2.4411211013793945, 0.48291015625, -0.378662109375, -0.730224609375
169, 3484400450, -4.733400344848633, 1.4055544137954712, 8.4810152053833, -2.4497008323669434, -1.2050135135650635, -2.3721072673797607, 0.48193359375, -0.379150390625, -0.733154296875
170, 3484417117, -4.75430154800415, 1.403793454170227, 8.483604431152344, -2.5281145572662354, -1.3299139738082886, -2.4048917293548584, 0.484375, -0.378173828125, -0.733154296875
171, 3484433784, -4.745314121246338, 1.4065321683883667, 8.502192497253418, -2.5892646312713623, -1.3459601402282715, -2.3281171321868896, 0.4853515625, -0.378662109375, -0.734130859375
172, 3484450451, -4.748147487640381, 1.404771089553833, 8.472114562988281, -2.606130838394165, -1.3239206075668335, -2.288008213043213, 0.4833984375, -0.377197265625, -0.731689453125
173, 3484467118, -4.735132217407227, 1.4087613821029663, 8.488838195800781, -2.6232144832611084, -1.4257566928863525, -2.3682656288146973, 0.484375, -0.377197265625, -0.732666015625
174, 3484483785, -4.72833251953125, 1.4085830450057983, 8.490682601928711, -2.5925047397613525, -1.5272212028503418, -2.3679580688476562, 0.48486328125, -0.376220703125, -0.734130859375
175, 3484500452, -4.73868989944458, 1.4038692712783813, 8.485081672668457, -2.567173719406128, -1.5028635263442993, -2.3144659996032715, 0.48291015625, -0.379150390625, -0.731201171875
176, 3484517119, -4.726301670074463, 1.4199721813201904, 8.480648040771484, -2.625391721725464, -1.5362883806228638, -2.3016602993011475, 0.484375, -0.377685546875, -0.731689453125
177, 3484533786, -4.733202934265137, 1.4082456827163696, 8.4881591796875, -2.570298433303833, -1.4503319263458252, -2.2765588760375977, 0.484375, -0.375244140625, -0.733154296875
178, 3484550453, -4.746552467346191, 1.40288507938385, 8.4841947555542, -2.5659444332122803, -1.4464645385742188, -2.2911972999572754, 0.48583984375, -0.377685546875, -0.732177734375
179, 3484567120, -4.743987560272217, 1.4092252254486084, 8.48003101348877, -2.535593032836914, -1.461550235748291, -2.2602055072784424, 0.48388671875, -0.377197265625, -0.732177734375
180, 3484583787, -4.731500625610352, 1.4165784120559692, 8.48398208618164, -2.5485663414001465, -1.4400869607925415, -2.2346699237823486, 0.48291015625, -0.377197265625, -0.732177734375
181, 3484600454, -4.752209186553955, 1.407952070236206, 8.49137020111084, -2.51469349861145, -1.5681631565093994, -2.241149663925171, 0.484375, -0.376708984375, -0.732666015625
182, 3484617121, -4.736910343170166, 1.4067742824554443, 8.492652893066406, -2.560936689376831, -1.5611709356307983, -2.30739688873291, 0.48486328125, -0.375244140625, -0.733154296875
183, 3484633788, -4.749449729919434, 1.4058051109313965, 8.499096870422363, -2.4239859580993652, -1.6053528785705566, -2.2490642070770264, 0.484375, -0.377197265625, -0.73486328125
184, 3484650455, -4.74485969543457, 1.4045734405517578, 8.50595474243164, -2.4676172733306885, -1.726577877998352, -2.216279983520508, 0.48486328125, -0.379638671875, -0.732177734375
185, 3484667122, -4.72406530380249, 1.4139145612716675, 8.499366760253906, -2.52365779876709, -1.6931788921356201, -2.284755229949951, 0.48291015625, -0.377197265625, -0.73486328125
186, 3484683789, -4.720518589019775, 1.4014105796813965, 8.476555824279785, -2.557325839996338, -1.603790521621704, -2.2284460067749023, 0.48291015625, -0.379150390625, -0.729248046875
187, 3484700456, -4.720132827758789, 1.419598937034607, 8.472609519958496, -2.4807820320129395, -1.4895448684692383, -2.269118547439575, 0.4853515625, -0.377197265625, -0.733154296875
188, 3484717123, -4.7435197830200195, 1.4036688804626465, 8.481963157653809, -2.407863140106201, -1.534956455230713, -2.22967529296875, 0.48583984375, -0.377197265625, -0.731201171875
189, 3484733790, -4.728493690490723, 1.4073330163955688, 8.509410858154297, -2.4142658710479736, -1.4756501913070679, -2.321112632751465, 0.482421875, -0.377197265625, -0.73486328125
190, 3484750457, -4.735954284667969, 1.39242684841156, 8.50445556640625, -2.36055588722229, -1.4177525043487549, -2.2489871978759766, 0.482421875, -0.378173828125, -0.733642578125
191, 3484767124, -4.744231224060059, 1.4259636402130127, 8.492118835449219, -2.4098479747772217, -1.4513564109802246, -2.269592761993408, 0.4833984375, -0.376220703125, -0.731689453125
192, 3484783791, -4.7285380363464355, 1.4219999313354492, 8.497980117797852, -2.4509050846099854, -1.463688850402832, -2.2760212421417236, 0.48193359375, -0.376220703125, -0.73388671875
193, 3484800458, -4.72952938079834, 1.414634108543396, 8.510143280029297, -2.528191089630127, -1.5040419101715088, -2.3134801387786865, 0.48388671875, -0.378173828125, -0.732666015625
194, 3484817125, -4.732090950012207, 1.4015648365020752, 8.50694465637207, -2.552203416824341, -1.5657683610916138, -2.329641580581665, 0.4833984375, -0.377685546875, -0.733154296875
195, 3484833792, -4.73571252822876, 1.4056260585784912, 8.4937744140625, -2.4561941623687744, -1.5114696025848389, -2.2938992977142334, 0.484375, -0.379638671875, -0.733642578125
196, 3484850459, -4.742331027984619, 1.4093027114868164, 8.498966217041016, -2.5195083618164062, -1.5633479356765747, -2.2724485397338867, 0.48388671875, -0.379150390625, -0.734130859375
197, 3484867126, -4.7439680099487305, 1.413781762123108, 8.479609489440918, -2.496802568435669, -1.665542483329773, -2.262087821960449, 0.48193359375, -0.378662109375, -0.732666015625
198, 3484883793, -4.727349758148193, 1.4105381965637207, 8.486615180969238, -2.4549646377563477, -1.483321189880371, -2.3153369426727295, 0.4853515625, -0.377685546875, -0.734619140625
199, 3484900460, -4.737974166870117, 1.417497158050537, 8.503449440002441, -2.533621072769165, -1.5250827074050903, -2.284127712249756, 0.484375, -0.377197265625, -0.73486328125
200, 3484917127, -4.734932899475098, 1.4258581399917603, 8.4732027053833, -2.4740333557128906, -1.5115976333618164, -2.293322801589966, 0.484375, -0.377197265625, -0.732177734375
201, 3484933794, -4.737440586090088, 1.410412073135376, 8.494579315185547, -2.5398576259613037, -1.3899115324020386, -2.2897112369537354, 0.48291015625, -0.377197265625, -0.732177734375
202, 3484950461, -4.726456165313721, 1.4158680438995361, 8.49876880645752, -2.5271284580230713, -1.4787620306015015, -2.292797565460205, 0.48486328125, -0.378662109375, -0.734130859375
203, 3484967128, -4.729770660400391, 1.413167119026184, 8.499282836914062, -2.5536246299743652, -1.4964733123779297, -2.2944884300231934, 0.4833984375, -0.377197265625, -0.73486328125
204, 3484983795, -4.73713493347168, 1.4208463430404663, 8.475480079650879, -2.5323405265808105, -1.4533926248550415, -2.301454782485962, 0.4833984375, -0.377685546875, -0.73486328125
205, 3485000462, -4.728175163269043, 1.3998736143112183, 8.48533821105957, -2.4986088275909424, -1.4370388984680176, -2.3361730575561523, 0.48193359375, -0.37939453125, -0.734375
206, 3485017129, -4.730905055999756, 1.4033416509628296, 8.501996994018555, -2.4966366291046143, -1.396852731704712, -2.3031837940216064, 0.482421875, -0.377685546875, -0.732177734375
207, 3485033796, -4.736653804779053, 1.4104127883911133, 8.503437042236328, -2.498077154159546, -1.4328577518463135, -2.29750394821167, 0.48291015625, -0.376220703125, -0.732666015625
208, 3485050463, -4.730256080627441, 1.4056000709533691, 8.490821838378906, -2.530586004257202, -1.467415690422058, -2.2607946395874023, 0.48388671875, -0.378173828125, -0.733642578125
209, 3485067130, -4.724592208862305, 1.4084770679473877, 8.509363174438477, -2.4751856327056885, -1.450818657875061, -2.286638021469116, 0.4833984375, -0.376220703125, -0.732666015625
210, 3485083797, -4.737093448638916, 1.4083220958709717, 8.483231544494629, -2.5730133056640625, -1.4558515548706055, -2.35931396484375, 0.482421875, -0.378173828125, -0.732177734375
211, 3485100464, -4.731221675872803, 1.4169609546661377, 8.499730110168457, -2.5348763465881348, -1.5276951789855957, -2.3594932556152344, 0.482421875, -0.377685546875, -0.73388671875
212, 3485117131, -4.7235846519470215, 1.4233204126358032, 8.48857307434082, -2.571566343307495, -1.4891351461410522, -2.2196733951568604, 0.4833984375, -0.376220703125, -0.733642578125
213, 3485133798, -4.725466251373291, 1.3973265886306763, 8.489442825317383, -2.391240358352661, -1.4222990274429321, -2.243736505508423, 0.484375, -0.376220703125, -0.733154296875
214, 3485150465, -4.731345176696777, 1.4032011032104492, 8.478930473327637, -2.394902467727661, -1.422004222869873, -2.2225546836853027, 0.48193359375, -0.378173828125, -0.733642578125
215, 3485167132, -4.73582649230957, 1.4093647003173828, 8.503763198852539, -2.3509511947631836, -1.3423999547958374, -2.2052533626556396, 0.48291015625, -0.377197265625, -0.73388671875
216, 3485183799, -4.7388200759887695, 1.4231544733047485, 8.49587631225586, -2.2666468620300293, -1.4892246723175049, -2.151735544204712, 0.48388671875, -0.377197265625, -0.732666015625
217, 3485200466, -4.729928016662598, 1.4172297716140747, 8.491823196411133, -2.215242385864258, -1.5342262983322144, -2.149456024169922, 0.48388671875, -0.375732421875, -0.733154296875
218, 3485217133, -4.721450328826904, 1.4153882265090942, 8.489750862121582, -2.0481324195861816, -1.461588740348816, -2.1600470542907715, 0.482421875, -0.377197265625, -0.732177734375
219, 3485233800, -4.726041793823242, 1.4036256074905396, 8.499619483947754, -1.9499841928482056, -1.5496962070465088, -2.078521728515625, 0.48388671875, -0.377685546875, -0.734130859375
220, 3485250467, -4.723777770996094, 1.4257584810256958, 8.491182327270508, -1.8448699712753296, -1.456133246421814, -2.0261566638946533, 0.484375, -0.377685546875, -0.731689453125
221, 3485267134, -4.723475456237793, 1.4044760465621948, 8.505989074707031, -1.934667944908142, -1.4776864051818848, -2.079533338546753, 0.48388671875, -0.379150390625, -0.731201171875
222, 3485283801, -4.729598522186279, 1.414982557296753, 8.493191719055176, -2.018024444580078, -1.5448427200317383, -2.134690046310425, 0.4833984375, -0.3798828125, -0.732177734375
223, 3485300468, -4.7429094314575195, 1.4122204780578613, 8.507647514343262, -1.886592984199524, -1.533765196800232, -2.0517818927764893, 0.482421875, -0.377685546875, -0.733154296875
224, 3485317135, -4.734866142272949, 1.41786789894104, 8.49171257019043, -1.6979427337646484, -1.566421627998352, -2.0369908809661865, 0.48388671875, -0.379150390625, -0.732177734375
225, 3485333802, -4.726224422454834, 1.4232592582702637, 8.489151000976562, -1.8568180799484253, -1.5986422300338745, -2.028282403945923, 0.482421875, -0.3798828125, -0.733154296875
226, 3485350469, -4.720566272735596, 1.4230339527130127, 8.484902381896973, -1.8763351440429688, -1.652787208557129, -2.06038761138916, 0.48291015625, -0.378662109375, -0.732666015625
227, 3485367136, -4.726003646850586, 1.4162436723709106, 8.523853302001953, -1.8270177841186523, -1.6278406381607056, -2.0434322357177734, 0.48193359375, -0.37939453125, -0.733154296875
228, 3485383803, -4.725015163421631, 1.4229283332824707, 8.50479507446289, -1.6051864624023438, -1.7852565050125122, -1.9515084028244019, 0.48291015625, -0.378173828125, -0.732177734375
229, 3485400470, -4.714066028594971, 1.4461146593093872, 8.51416301727295, -1.8570102453231812, -1.7363359928131104, -1.9973547458648682, 0.48193359375, -0.379638671875, -0.730224609375
230, 3485417137, -4.730410099029541, 1.4332897663116455, 8.47074031829834, -2.266519069671631, -1.8150184154510498, -2.0778815746307373, 0.4833984375, -0.379638671875, -0.732666015625
231, 3485433804, -4.715329170227051, 1.4514269828796387, 8.497809410095215, -1.9305570125579834, -1.6874797344207764, -2.001991033554077, 0.482421875, -0.378173828125, -0.732666015625
232, 3485450471, -4.739661693572998, 1.451506495475769, 8.508667945861816, -1.9360382556915283, -1.6453596353530884, -2.0330207347869873, 0.48193359375, -0.38037109375, -0.732177734375
233, 3485467138, -4.709603309631348, 1.4489669799804688, 8.48268985748291, -1.9121671915054321, -1.580329179763794, -2.025273084640503, 0.482421875, -0.38037109375, -0.734619140625
234, 3485483805, -4.703403472900391, 1.4431401491165161, 8.513615608215332, -1.8295280933380127, -1.6018952131271362, -1.94502854347229, 0.4814453125, -0.38037109375, -0.734130859375
235, 3485500472, -4.720863342285156, 1.4435040950775146, 8.474414825439453, -2.0471205711364746, -1.5820579528808594, -2.1065421104431152, 0.48291015625, -0.379638671875, -0.731689453125
236, 3485517139, -4.719803810119629, 1.4439290761947632, 8.489198684692383, -1.8351243734359741, -1.6009347438812256, -1.98775053024292, 0.4794921875, -0.37890625, -0.732177734375
237, 3485533806, -4.716816425323486, 1.4576231241226196, 8.506782531738281, -2.011122226715088, -1.5915347337722778, -1.9923864603042603, 0.48095703125, -0.38037109375, -0.733154296875
238, 3485550473, -4.715061187744141, 1.4626041650772095, 8.483311653137207, -2.088920831680298, -1.552372932434082, -2.0702104568481445, 0.482421875, -0.38134765625, -0.734130859375
239, 3485567140, -4.723544597625732, 1.451479196548462, 8.503028869628906, -1.9598450660705566, -1.579291820526123, -2.1335504055023193, 0.48193359375, -0.380859375, -0.732177734375
240, 3485583807, -4.70266580581665, 1.4483098983764648, 8.501335144042969, -2.1838538646698, -1.5451372861862183, -2.1175811290740967, 0.48095703125, -0.3818359375, -0.730712890625
241, 3485600474, -4.726023197174072, 1.458956241607666, 8.476644515991211, -2.3168222904205322, -1.4017447233200073, -2.193279504776001, 0.4833984375, -0.38232421875, -0.730224609375
242, 3485617141, -4.71351432800293, 1.460882544517517, 8.50773811340332, -2.302696943283081, -1.5063084363937378, -2.1890017986297607, 0.482421875, -0.38134765625, -0.731201171875
243, 3485633808, -4.716331481933594, 1.464045524597168, 8.49453067779541, -2.3197035789489746, -1.5055783987045288, -2.3231613636016846, 0.48095703125, -0.3818359375, -0.731689453125
244, 3485650475, -4.731499195098877, 1.4487509727478027, 8.492884635925293, -2.529433488845825, -1.4653922319412231, -2.3297953605651855, 0.48193359375, -0.38134765625, -0.731201171875
245, 3485667142, -4.709091663360596, 1.461882472038269, 8.477898597717285, -2.5390124320983887, -1.4342857599258423, -2.4107184410095215, 0.4814453125, -0.38134765625, -0.730712890625
246, 3485683809, -4.712134838104248, 1.4447628259658813, 8.48353385925293, -2.6395299434661865, -1.4365012645721436, -2.3398101329803467, 0.48193359375, -0.3798828125, -0.731201171875
247, 3485700476, -4.696827411651611, 1.4498587846755981, 8.492091178894043, -2.7916178703308105, -1.409108281135559, -2.3825571537017822, 0.48095703125, -0.380859375, -0.729248046875
248, 3485717143, -4.71242094039917, 1.4630311727523804, 8.48872184753418, -2.9026365280151367, -1.4115415811538696, -2.432156801223755, 0.482421875, -0.3818359375, -0.732666015625
249, 3485733810, -4.695651531219482, 1.448430061340332, 8.498379707336426, -2.968921422958374, -1.346216082572937, -2.458908796310425, 0.48193359375, -0.38037109375, -0.733642578125
250, 3485750477, -4.704636096954346, 1.4346752166748047, 8.505645751953125, -3.028291940689087, -1.314686894416809, -2.4858148097991943, 0.48291015625, -0.38232421875, -0.732177734375
251, 3485767144, -4.707034587860107, 1.4499465227127075, 8.495564460754395, -3.054826498031616, -1.2424207925796509, -2.487518310546875, 0.48193359375, -0.38134765625, -0.730712890625
252, 3485783811, -4.710807800292969, 1.4508477449417114, 8.489279747009277, -3.136467218399048, -1.0915107727050781, -2.537475824356079, 0.4814453125, -0.3798828125, -0.732177734375
253, 3485800478, -4.726339340209961, 1.4398871660232544, 8.488530158996582, -3.2825875282287598, -1.1461427211761475, -2.4927046298980713, 0.4814453125, -0.3818359375, -0.734619140625
254, 3485817145, -4.732056617736816, 1.4403419494628906, 8.488364219665527, -3.1992180347442627, -1.2259517908096313, -2.563459634780884, 0.48291015625, -0.379638671875, -0.733154296875
255, 3485833812, -4.725990295410156, 1.4324064254760742, 8.51446533203125, -3.131715774536133, -1.1493698358535767, -2.4688589572906494, 0.48046875, -0.378662109375, -0.732177734375
256, 3485850479, -4.7291107177734375, 1.4378666877746582, 8.511956214904785, -2.949469566345215, -1.1784149408340454, -2.405545234680176, 0.48095703125, -0.380859375, -0.734375
257, 3485867146, -4.7238383293151855, 1.4356343746185303, 8.497380256652832, -3.046887159347534, -1.1598327159881592, -2.420323371887207, 0.48193359375, -0.378662109375, -0.734375
258, 3485883813, -4.721687316894531, 1.4255622625350952, 8.486729621887207, -2.82287859916687, -1.2324832677841187, -2.349184274673462, 0.482421875, -0.3798828125, -0.733154296875
259, 3485900480, -4.741880416870117, 1.4409043788909912, 8.510270118713379, -2.81596302986145, -1.2953240871429443, -2.433321952819824, 0.4814453125, -0.3798828125, -0.732177734375
260, 3485917147, -4.720955848693848, 1.433361291885376, 8.480019569396973, -2.799865484237671, -1.315929651260376, -2.483996868133545, 0.4833984375, -0.378662109375, -0.734130859375
261, 3485933814, -4.720904350280762, 1.4377351999282837, 8.498051643371582, -2.8042967319488525, -1.1926426887512207, -2.409745454788208, 0.482421875, -0.378662109375, -0.734375
262, 3485950481, -4.723737716674805, 1.4287923574447632, 8.490039825439453, -2.6833276748657227, -1.1719732284545898, -2.396298885345459, 0.48046875, -0.37939453125, -0.734375
263, 3485967148, -4.727336406707764, 1.4396060705184937, 8.504138946533203, -2.584244728088379, -1.190222144126892, -2.3718643188476562, 0.48193359375, -0.38037109375, -0.733642578125
264, 3485983815, -4.727794647216797, 1.4381227493286133, 8.513667106628418, -2.4813969135284424, -1.1205939054489136, -2.315106153488159, 0.482421875, -0.378173828125, -0.734130859375
265, 3486000482, -4.725554466247559, 1.4389647245407104, 8.508440017700195, -2.525963306427002, -1.1638795137405396, -2.3596596717834473, 0.48095703125, -0.38037109375, -0.731689453125
266, 3486017149, -4.72747802734375, 1.422932505607605, 8.489824295043945, -2.5674426555633545, -1.1846129894256592, -2.3831593990325928, 0.482421875, -0.378662109375, -0.732177734375
267, 3486033816, -4.728604793548584, 1.4205321073532104, 8.49691390991211, -2.5529205799102783, -1.1820902824401855, -2.3471736907958984, 0.482421875, -0.3798828125, -0.732666015625
268, 3486050483, -4.737359523773193, 1.434662938117981, 8.497053146362305, -2.5335187911987305, -1.287793755531311, -2.3418843746185303, 0.48291015625, -0.379150390625, -0.731689453125
269, 3486067150, -4.7369914054870605, 1.4400577545166016, 8.47574520111084, -2.6863884925842285, -1.3816132545471191, -2.44785737991333, 0.4833984375, -0.38134765625, -0.732177734375
270, 3486083817, -4.731634140014648, 1.443697452545166, 8.490848541259766, -2.6194496154785156, -1.3842387199401855, -2.420848846435547, 0.48095703125, -0.37939453125, -0.731689453125
271, 3486100484, -4.746628284454346, 1.4274593591690063, 8.483219146728516, -2.6988744735717773, -1.4496021270751953, -2.3698277473449707, 0.48291015625, -0.377197265625, -0.732666015625
272, 3486117151, -4.728021144866943, 1.433942437171936, 8.516026496887207, -2.610459566116333, -1.461998701095581, -2.37953519821167, 0.48388671875, -0.380859375, -0.733642578125
273, 3486133818, -4.72520112991333, 1.423352837562561, 8.491082191467285, -2.62888765335083, -1.3908463716506958, -2.3707244396209717, 0.48388671875, -0.379638671875, -0.733642578125
274, 3486150485, -4.729696273803711, 1.4245270490646362, 8.498048782348633, -2.7126667499542236, -1.3859161138534546, -2.3781521320343018, 0.48193359375, -0.3818359375, -0.732666015625
275, 3486167152, -4.720705986022949, 1.4220740795135498, 8.490778923034668, -2.648941993713379, -1.3209364414215088, -2.3688671588897705, 0.4833984375, -0.3798828125, -0.732666015625
276, 3486183819, -4.727321147918701, 1.4319956302642822, 8.497081756591797, -2.61763072013855, -1.373429775238037, -2.3297059535980225, 0.48388671875, -0.379638671875, -0.733154296875
277, 3486200486, -4.7166571617126465, 1.4356322288513184, 8.478018760681152, -2.6197056770324707, -1.3295809030532837, -2.391496181488037, 0.482421875, -0.3798828125, -0.734619140625
278, 3486217153, -4.734748840332031, 1.4210810661315918, 8.50550365447998, -2.5347094535827637, -1.292224645614624, -2.3836328983306885, 0.48486328125, -0.378662109375, -0.733154296875
279, 3486233820, -4.734930515289307, 1.4171843528747559, 8.491921424865723, -2.602980136871338, -1.3132014274597168, -2.339143753051758, 0.482421875, -0.379638671875, -0.730224609375
280, 3486250487, -4.7266526222229, 1.423482060432434, 8.488012313842773, -2.6050808429718018, -1.423912763595581, -2.4227054119110107, 0.4833984375, -0.38037109375, -0.732666015625
281, 3486267154, -4.739685535430908, 1.4338823556900024, 8.48892879486084, -2.5201101303100586, -1.4298673868179321, -2.4613802433013916, 0.4833984375, -0.377685546875, -0.730224609375
282, 3486283821, -4.725180149078369, 1.4345879554748535, 8.474493980407715, -2.5740764141082764, -1.3990041017532349, -2.3891525268554688, 0.48388671875, -0.378662109375, -0.729248046875
283, 3486300488, -4.736635208129883, 1.4206697940826416, 8.514264106750488, -2.5966670513153076, -1.40558660030365, -2.375117301940918, 0.4814453125, -0.38037109375, -0.733154296875
284, 3486317155, -4.718614101409912, 1.4076489210128784, 8.510247230529785, -2.6379802227020264, -1.3422720432281494, -2.299994945526123, 0.48291015625, -0.379638671875, -0.732177734375
285, 3486333822, -4.739611625671387, 1.423606276512146, 8.475099563598633, -2.569645643234253, -1.4880467653274536, -2.4048023223876953, 0.48193359375, -0.379150390625, -0.732666015625
286, 3486350489, -4.716118812561035, 1.4345581531524658, 8.512446403503418, -2.5964367389678955, -1.4006050825119019, -2.4255614280700684, 0.48486328125, -0.379638671875, -0.729736328125
287, 3486367156, -4.731578350067139, 1.4209303855895996, 8.493390083312988, -2.6171698570251465, -1.3284540176391602, -2.3086647987365723, 0.4833984375, -0.378173828125, -0.730224609375
288, 3486383823, -4.726716995239258, 1.4263877868652344, 8.502744674682617, -2.522005796432495, -1.2427153587341309, -2.35298752784729, 0.48193359375, -0.378173828125, -0.733642578125
289, 3486400490, -4.738107204437256, 1.4355347156524658, 8.48945140838623, -2.5191500186920166, -1.312561273574829, -2.351745367050171, 0.4833984375, -0.378173828125, -0.731201171875
290, 3486417157, -4.729114055633545, 1.4253413677215576, 8.496621131896973, -2.596372127532959, -1.345383882522583, -2.4110898971557617, 0.48095703125, -0.377685546875, -0.729736328125
291, 3486433824, -4.721019744873047, 1.4315451383590698, 8.469335556030273, -2.6756696701049805, -1.4262818098068237, -2.3831725120544434, 0.4833984375, -0.377685546875, -0.732666015625
292, 3486450491, -4.7237162590026855, 1.431970477104187, 8.493486404418945, -2.5875492095947266, -1.4381662607192993, -2.478938341140747, 0.48486328125, -0.379150390625, -0.731201171875
293, 3486467158, -4.744051933288574, 1.4379856586456299, 8.489527702331543, -2.758180856704712, -1.4638044834136963, -2.457141876220703, 0.48291015625, -0.378173828125, -0.732177734375
294, 3486483825, -4.731495380401611, 1.4039472341537476, 8.490574836730957, -2.687361717224121, -1.3317581415176392, -2.4241015911102295, 0.48291015625, -0.379150390625, -0.730712890625
295, 3486500492, -4.735158443450928, 1.4311752319335938, 8.47146987915039, -2.6447551250457764, -1.222340703010559, -2.491194248199463, 0.48291015625, -0.378662109375, -0.733154296875
296, 3486517159, -4.7315802574157715, 1.4320632219314575, 8.495570182800293, -2.662658452987671, -1.2595301866531372, -2.501528739929199, 0.48095703125, -0.37939453125, -0.733642578125
297, 3486533826, -4.745419502258301, 1.4242019653320312, 8.490058898925781, -2.5647151470184326, -1.3359330892562866, -2.5173444747924805, 0.484375, -0.380126953125, -0.733154296875
298, 3486550493, -4.736988067626953, 1.3989338874816895, 8.490065574645996, -2.586165428161621, -1.254522681236267, -2.380610704421997, 0.48291015625, -0.378662109375, -0.732177734375
299, 3486567160, -4.7312445640563965, 1.4071115255355835, 8.494415283203125, -2.476773977279663, -1.2235827445983887, -2.381366491317749, 0.48583984375, -0.376708984375, -0.731201171875
300, 3486583827, -4.746703624725342, 1.4287630319595337, 8.499337196350098, -2.560027599334717, -1.3441802263259888, -2.317206621170044, 0.482421875, -0.375732421875, -0.730224609375
301, 3486600494, -4.731145858764648, 1.413017749786377, 8.493354797363281, -2.603492498397827, -1.415152907371521, -2.3837740421295166, 0.482421875, -0.376708984375, -0.730712890625
302, 3486617161, -4.72930908203125, 1.415958046913147, 8.509103775024414, -2.5104925632476807, -1.4719363451004028, -2.2719616889953613, 0.482421875, -0.378173828125, -0.731201171875
303, 3486633828, -4.736785411834717, 1.4157087802886963, 8.4885892868042, -2.5166656970977783, -1.4191100597381592, -2.3463027477264404, 0.484375, -0.379150390625, -0.731689453125
304, 3486650495, -4.73325252532959, 1.4222822189331055, 8.49139404296875, -2.557466745376587, -1.4464387893676758, -2.3902668952941895, 0.4853515625, -0.380126953125, -0.733154296875
305, 3486667162, -4.730959415435791, 1.4176658391952515, 8.491646766662598, -2.5318922996520996, -1.5173090696334839, -2.299853801727295, 0.4833984375, -0.379638671875, -0.731689453125
306, 3486683829, -4.734236717224121, 1.412743330001831, 8.478336334228516, -2.522197961807251, -1.4769692420959473, -2.276840925216675, 0.48388671875, -0.3798828125, -0.732666015625
307, 3486700496, -4.731090068817139, 1.4304213523864746, 8.486871719360352, -2.5440070629119873, -1.6132670640945435, -2.2820661067962646, 0.48193359375, -0.378662109375, -0.733642578125
308, 3486717163, -4.741283416748047, 1.4309866428375244, 8.499567985534668, -2.499953508377075, -1.4650721549987793, -2.2758548259735107, 0.48388671875, -0.378662109375, -0.733642578125
309, 3486733830, -4.735961437225342, 1.4182134866714478, 8.472173690795898, -2.4463586807250977, -1.418623447418213, -2.3280792236328125, 0.4853515625, -0.379638671875, -0.730712890625
310, 3486750497, -4.730169773101807, 1.4135903120040894, 8.481475830078125, -2.514949321746826, -1.417701244354248, -2.268440008163452, 0.48388671875, -0.378662109375, -0.731201171875
311, 3486767164, -4.738007545471191, 1.430756688117981, 8.493931770324707, -2.534965753555298, -1.4859721660614014, -2.380585193634033, 0.48388671875, -0.378662109375, -0.731689453125
312, 3486783831, -4.728761196136475, 1.4357943534851074, 8.482706069946289, -2.5130670070648193, -1.4013606309890747, -2.33276629447937, 0.4833984375, -0.375732421875, -0.731201171875
313, 3486800498, -4.730345726013184, 1.4318310022354126, 8.473816871643066, -2.554802894592285, -1.4105299711227417, -2.3621058464050293, 0.48388671875, -0.378662109375, -0.733154296875
314, 3486817165, -4.735599994659424, 1.425614833831787, 8.486842155456543, -2.505946636199951, -1.4248217344284058, -2.290544033050537, 0.484375, -0.378173828125, -0.729736328125
315, 3486833832, -4.736863136291504, 1.4247465133666992, 8.482522964477539, -2.4651710987091064, -1.4785314798355103, -2.2825398445129395, 0.482421875, -0.3798828125, -0.736328125
316, 3486850499, -4.734020233154297, 1.4215490818023682, 8.51656723022461, -2.520673990249634, -1.422772765159607, -2.381673812866211, 0.484375, -0.379638671875, -0.733154296875
317, 3486867166, -4.714607238769531, 1.4223568439483643, 8.49790096282959, -2.6117658615112305, -1.385685682296753, -2.382723808288574, 0.48486328125, -0.379150390625, -0.733154296875
318, 3486883833, -4.743383407592773, 1.4148849248886108, 8.489472389221191, -2.493165969848633, -1.4079045057296753, -2.4471144676208496, 0.4833984375, -0.3798828125, -0.733154296875
319, 3486900500, -4.731408596038818, 1.4138699769973755, 8.494782447814941, -2.5577995777130127, -1.3168257474899292, -2.3628101348876953, 0.4833984375, -0.379638671875, -0.730224609375
320, 3486917167, -4.7267680168151855, 1.4117006063461304, 8.490842819213867, -2.4493041038513184, -1.240666389465332, -2.34828782081604, 0.4853515625, -0.378662109375, -0.732666015625
321, 3486933834, -4.732840538024902, 1.4245649576187134, 8.50145149230957, -2.447524070739746, -1.2669450044631958, -2.324519157409668, 0.484375, -0.377685546875, -0.732177734375
322, 3486950501, -4.7190141677856445, 1.4222075939178467, 8.48487377166748, -2.5413308143615723, -1.3789366483688354, -2.310175895690918, 0.48193359375, -0.38037109375, -0.731201171875
323, 3486967168, -4.731227874755859, 1.4193806648254395, 8.501714706420898, -2.6152615547180176, -1.388336420059204, -2.377255916595459, 0.482421875, -0.379638671875, -0.729736328125
324, 3486983835, -4.743423938751221, 1.417051076889038, 8.494979858398438, -2.594604730606079, -1.407840371131897, -2.3370304107666016, 0.48388671875, -0.378662109375, -0.732177734375
325, 3487000502, -4.741817951202393, 1.413325309753418, 8.502145767211914, -2.606015682220459, -1.4835132360458374, -2.3405911922454834, 0.4853515625, -0.378173828125, -0.733154296875
326, 3487017169, -4.734579563140869, 1.4177545309066772, 8.500277519226074, -2.5100955963134766, -1.3827911615371704, -2.2556846141815186, 0.484375, -0.379150390625, -0.731689453125
327, 3487033836, -4.744908332824707, 1.4152288436889648, 8.494035720825195, -2.4838812351226807, -1.492055058479309, -2.278979778289795, 0.484375, -0.377685546875, -0.731201171875
328, 3487050503, -4.735568523406982, 1.4203146696090698, 8.504752159118652, -2.5076496601104736, -1.3908848762512207, -2.2951924800872803, 0.4814453125, -0.378662109375, -0.730224609375
329, 3487067170, -4.736924648284912, 1.421143889427185, 8.469347953796387, -2.519111394882202, -1.3441033363342285, -2.3680734634399414, 0.484375, -0.376708984375, -0.732666015625
330, 3487083837, -4.7454400062561035, 1.4242634773254395, 8.50395679473877, -2.531789779663086, -1.2592867612838745, -2.3465075492858887, 0.48291015625, -0.379150390625, -0.733154296875
331, 3487100504, -4.75130558013916, 1.4167380332946777, 8.493279457092285, -2.486621856689453, -1.2898812294006348, -2.329385757446289, 0.484375, -0.377685546875, -0.732666015625
332, 3487117171, -4.7335405349731445, 1.4290295839309692, 8.482494354248047, -2.446345806121826, -1.2937231063842773, -2.3367233276367188, 0.48388671875, -0.378173828125, -0.733154296875
333, 3487133838, -4.737995624542236, 1.4208781719207764, 8.471253395080566, -2.5671865940093994, -1.4356430768966675, -2.311302900314331, 0.48291015625, -0.377197265625, -0.733154296875
334, 3487150505, -4.741166591644287, 1.419979453086853, 8.489388465881348, -2.4583585262298584, -1.4050743579864502, -2.3222780227661133, 0.4833984375, -0.379638671875, -0.729736328125
335, 3487167172, -4.729008197784424, 1.4261729717254639, 8.46674919128418, -2.4650943279266357, -1.4700409173965454, -2.3018264770507812, 0.48291015625, -0.378173828125, -0.731689453125
336, 3487183839, -4.738124370574951, 1.4161556959152222, 8.473740577697754, -2.507342576980591, -1.385058045387268, -2.2864201068878174, 0.48291015625, -0.378173828125, -0.732666015625
337, 3487200506, -4.737257480621338, 1.4264789819717407, 8.48987865447998, -2.505549430847168, -1.3608026504516602, -2.184903860092163, 0.48291015625, -0.379150390625, -0.731689453125
338, 3487217173, -4.728747367858887, 1.424590826034546, 8.469788551330566, -2.4934351444244385, -1.4007201194763184, -2.343024253845215, 0.48291015625, -0.378662109375, -0.731689453125
339, 3487233840, -4.74479866027832, 1.4205572605133057, 8.48565673828125, -2.58593487739563, -1.466301441192627, -2.283602476119995, 0.48388671875, -0.377685546875, -0.731689453125
340, 3487250507, -4.733437538146973, 1.4277961254119873, 8.46399211883545, -2.5552637577056885, -1.5537177324295044, -2.3450989723205566, 0.48583984375, -0.378173828125, -0.733642578125
341, 3487267174, -4.745553016662598, 1.4178118705749512, 8.495776176452637, -2.5140016078948975, -1.3989527225494385, -2.333432197570801, 0.484375, -0.377685546875, -0.733154296875
342, 3487283841, -4.7241668701171875, 1.4184494018554688, 8.490045547485352, -2.5617051124572754, -1.397416114807129, -2.2870090007781982, 0.4833984375, -0.379638671875, -0.730224609375
343, 3487300508, -4.7287092208862305, 1.4220963716506958, 8.483755111694336, -2.5860886573791504, -1.3872478008270264, -2.352539300918579, 0.4853515625, -0.378662109375, -0.732666015625
344, 3487317175, -4.737059116363525, 1.4190531969070435, 8.490411758422852, -2.5373990535736084, -1.4096078872680664, -2.385477304458618, 0.486328125, -0.378662109375, -0.732177734375
345, 3487333842, -4.74401330947876, 1.428921103477478, 8.490487098693848, -2.5224030017852783, -1.449807047843933, -2.3391952514648438, 0.486328125, -0.379150390625, -0.731689453125
346, 3487350509, -4.744930744171143, 1.4184911251068115, 8.480711936950684, -2.5336341857910156, -1.4305332899093628, -2.312929391860962, 0.484375, -0.376220703125, -0.73486328125
347, 3487367176, -4.7434892654418945, 1.4205445051193237, 8.484748840332031, -2.550550937652588, -1.44294273853302, -2.4030988216400146, 0.48046875, -0.379150390625, -0.732177734375
348, 3487383843, -4.737163543701172, 1.4205105304718018, 8.482124328613281, -2.5007858276367188, -1.4685041904449463, -2.387436866760254, 0.48486328125, -0.379638671875, -0.732666015625
349, 3487400510, -4.744911193847656, 1.4133609533309937, 8.485128402709961, -2.457090139389038, -1.4646620750427246, -2.403585195541382, 0.48486328125, -0.379638671875, -0.732666015625
350, 3487417177, -4.733916759490967, 1.4319615364074707, 8.494315147399902, -2.5169858932495117, -1.5096765756607056, -2.3575081825256348, 0.484375, -0.379638671875, -0.731689453125
351, 3487433844, -4.753681659698486, 1.4132839441299438, 8.516509056091309, -2.5260140895843506, -1.4358733892440796, -2.3015828132629395, 0.484375, -0.378662109375, -0.729736328125
352, 3487450511, -4.7410688400268555, 1.4102387428283691, 8.486956596374512, -2.4941518306732178, -1.4749327898025513, -2.3546905517578125, 0.48681640625, -0.377197265625, -0.733154296875
353, 3487467178, -4.7322678565979, 1.4117505550384521, 8.506093978881836, -2.4961369037628174, -1.3239332437515259, -2.2782626152038574, 0.48388671875, -0.379638671875, -0.730224609375
354, 3487483845, -4.743147850036621, 1.424262523651123, 8.471704483032227, -2.511082172393799, -1.376183271408081, -2.2697722911834717, 0.48291015625, -0.378173828125, -0.732666015625
355, 3487500512, -4.73890495300293, 1.4210693836212158, 8.491616249084473, -2.5109920501708984, -1.4432626962661743, -2.301544427871704, 0.48388671875, -0.378173828125, -0.731689453125
356, 3487517179, -4.74505615234375, 1.4347864389419556, 8.47719669342041, -2.548438310623169, -1.5277336835861206, -2.396158218383789, 0.48486328125, -0.377197265625, -0.733642578125
357, 3487533846, -4.7494797706604, 1.4212558269500732, 8.50334358215332, -2.5102880001068115, -1.6304917335510254, -2.3365185260772705, 0.4833984375, -0.379150390625, -0.729736328125
358, 3487550513, -4.743404865264893, 1.4229422807693481, 8.48145580291748, -2.467412233352661, -1.586181640625, -2.3056297302246094, 0.48193359375, -0.378662109375, -0.733154296875
359, 3487567180, -4.742953777313232, 1.409662127494812, 8.487626075744629, -2.517254590988159, -1.4983046054840088, -2.218431234359741, 0.48388671875, -0.377685546875, -0.733642578125
360, 3487583847, -4.740103244781494, 1.4147840738296509, 8.487725257873535, -2.5001065731048584, -1.5400660037994385, -2.3129546642303467, 0.484375, -0.378173828125, -0.732177734375
361, 3487600514, -4.741509914398193, 1.4335466623306274, 8.493790626525879, -2.545761823654175, -1.5982327461242676, -2.355651617050171, 0.482421875, -0.378662109375, -0.732666015625
362, 3487617181, -4.7405877113342285, 1.425025224685669, 8.491717338562012, -2.607565402984619, -1.534649133682251, -2.363527536392212, 0.48291015625, -0.377685546875, -0.732177734375
363, 3487633848, -4.730405807495117, 1.4082108736038208, 8.491668701171875, -2.5878050327301025, -1.4735115766525269, -2.3652307987213135, 0.4833984375, -0.377197265625, -0.731689453125
364, 3487650515, -4.730486869812012, 1.414710283279419, 8.520381927490234, -2.556711435317993, -1.5058091878890991, -2.412870407104492, 0.482421875, -0.378173828125, -0.734130859375
365, 3487667182, -4.741879463195801, 1.4161008596420288, 8.467084884643555, -2.468334436416626, -1.46000075340271, -2.265532970428467, 0.484375, -0.378173828125, -0.732177734375
366, 3487683849, -4.747515678405762, 1.413851261138916, 8.477648735046387, -2.5519216060638428, -1.481963872909546, -2.2825143337249756, 0.4833984375, -0.377685546875, -0.733642578125
367, 3487700516, -4.732811450958252, 1.417352318763733, 8.486330032348633, -2.4463205337524414, -1.4607949256896973, -2.370788335800171, 0.48486328125, -0.378173828125, -0.731689453125
368, 3487717183, -4.738009929656982, 1.4248557090759277, 8.495906829833984, -2.568915605545044, -1.4329538345336914, -2.2561843395233154, 0.4853515625, -0.380126953125, -0.734130859375
369, 3487733850, -4.73175048828125, 1.4133189916610718, 8.498595237731934, -2.6153769493103027, -1.4954360723495483, -2.338132381439209, 0.48291015625, -0.378662109375, -0.732177734375
370, 3487750517, -4.745967864990234, 1.4194762706756592, 8.495147705078125, -2.658918857574463, -1.5414749383926392, -2.402036190032959, 0.4833984375, -0.379150390625, -0.734130859375
371, 3487767184, -4.737480640411377, 1.4316035509109497, 8.495221138000488, -2.6115736961364746, -1.5401813983917236, -2.361644983291626, 0.48291015625, -0.378173828125, -0.731689453125
372, 3487783851, -4.7337565422058105, 1.4187538623809814, 8.476421356201172, -2.5443527698516846, -1.5674973726272583, -2.414663076400757, 0.48291015625, -0.378662109375, -0.730712890625
373, 3487800518, -4.727417945861816, 1.4169573783874512, 8.489045143127441, -2.5962700843811035, -1.5306919813156128, -2.4017159938812256, 0.48291015625, -0.377685546875, -0.732177734375
374, 3487817185, -4.732291221618652, 1.4174916744232178, 8.50115966796875, -2.546952486038208, -1.51985764503479, -2.2862918376922607, 0.48388671875, -0.378173828125, -0.733642578125
375, 3487833852, -4.729687213897705, 1.4207656383514404, 8.489469528198242, -2.5450189113616943, -1.5099711418151855, -2.3155033588409424, 0.48388671875, -0.378662109375, -0.733642578125
376, 3487850519, -4.731592178344727, 1.4230343103408813, 8.486226081848145, -2.5402419567108154, -1.5232897996902466, -2.3780369758605957, 0.4833984375, -0.38037109375, -0.731201171875
377, 3487867186, -4.734889984130859, 1.420485258102417, 8.479375839233398, -2.517254590988159, -1.4637527465820312, -2.286919355392456, 0.4833984375, -0.378662109375, -0.733154296875
378, 3487883853, -4.730434894561768, 1.4206831455230713, 8.475260734558105, -2.526923656463623, -1.5780625343322754, -2.317155361175537, 0.484375, -0.378662109375, -0.732666015625
379, 3487900520, -4.741572380065918, 1.4090404510498047, 8.485455513000488, -2.5890727043151855, -1.607120156288147, -2.270156145095825, 0.4814453125, -0.378173828125, -0.734375
380, 3487917187, -4.73109245300293, 1.424914002418518, 8.495502471923828, -2.398578405380249, -1.5629255771636963, -2.2290475368499756, 0.48291015625, -0.380859375, -0.731201171875
381, 3487933854, -4.7325568199157715, 1.4119715690612793, 8.497933387756348, -2.4448602199554443, -1.4541867971420288, -2.2482316493988037, 0.48388671875, -0.377685546875, -0.734619140625
382, 3487950521, -4.737955570220947, 1.4155133962631226, 8.494384765625, -2.4413132667541504, -1.50669264793396, -2.2791974544525146, 0.48193359375, -0.378173828125, -0.736328125
383, 3487967188, -4.741380214691162, 1.4215418100357056, 8.48740005493164, -2.357802629470825, -1.6139330863952637, -2.2633047103881836, 0.484375, -0.377685546875, -0.732177734375
384, 3487983855, -4.736727237701416, 1.411205530166626, 8.488319396972656, -2.557812452316284, -1.5676254034042358, -2.2384860515594482, 0.48388671875, -0.380126953125, -0.732177734375
385, 3488000522, -4.720323085784912, 1.4174240827560425, 8.498547554016113, -2.4609198570251465, -1.5624901056289673, -2.236898183822632, 0.484375, -0.378173828125, -0.733154296875
386, 3488017189, -4.735150337219238, 1.4121047258377075, 8.487752914428711, -2.5289340019226074, -1.5502983331680298, -2.2440309524536133, 0.4833984375, -0.377685546875, -0.731689453125
387, 3488033856, -4.738567352294922, 1.410505771636963, 8.490096092224121, -2.4786179065704346, -1.5613247156143188, -2.2802350521087646, 0.4833984375, -0.377685546875, -0.733154296875
388, 3488050523, -4.727748394012451, 1.4136407375335693, 8.503216743469238, -2.3134031295776367, -1.4912097454071045, -2.22231125831604, 0.4833984375, -0.377685546875, -0.732666015625
389, 3488067190, -4.7340922355651855, 1.4223012924194336, 8.494041442871094, -2.165374279022217, -1.5876288414001465, -2.058607816696167, 0.48193359375, -0.376708984375, -0.731201171875
390, 3488083857, -4.741211414337158, 1.4343514442443848, 8.485021591186523, -2.259949207305908, -1.5351482629776, -2.0874602794647217, 0.48193359375, -0.3798828125, -0.734130859375
391, 3488100524, -4.72668981552124, 1.4277271032333374, 8.488852500915527, -2.1767334938049316, -1.6754931211471558, -2.124176502227783, 0.482421875, -0.3798828125, -0.733642578125
392, 3488117191, -4.73236608505249, 1.4004321098327637, 8.492905616760254, -1.9780817031860352, -1.5850547552108765, -2.016897678375244, 0.48291015625, -0.377197265625, -0.732177734375
393, 3488133858, -4.7274885177612305, 1.4328140020370483, 8.476290702819824, -1.9856884479522705, -1.5836588144302368, -2.0413835048675537, 0.48388671875, -0.380126953125, -0.732177734375
394, 3488150525, -4.720577239990234, 1.4356639385223389, 8.48282241821289, -2.190948724746704, -1.4728070497512817, -2.171060562133789, 0.484375, -0.379150390625, -0.734619140625
395, 3488167192, -4.727122783660889, 1.4450138807296753, 8.488407135009766, -2.3881537914276123, -1.452957272529602, -2.282552480697632, 0.482421875, -0.37939453125, -0.734130859375
396, 3488183859, -4.71998405456543, 1.4387660026550293, 8.49070930480957, -2.413817882537842, -1.5129934549331665, -2.339207887649536, 0.4833984375, -0.380859375, -0.733642578125
397, 3488200526, -4.717502593994141, 1.4302302598953247, 8.48916244506836, -2.4947025775909424, -1.5169121026992798, -2.419618844985962, 0.484375, -0.379150390625, -0.731689453125
398, 3488217193, -4.723675727844238, 1.4289084672927856, 8.500395774841309, -2.605029582977295, -1.47104012966156, -2.3990650177001953, 0.4853515625, -0.379150390625, -0.732666015625
399, 3488233860, -4.7321929931640625, 1.4277887344360352, 8.48909854888916, -2.641745090484619, -1.4506009817123413, -2.35247540473938, 0.48095703125, -0.377685546875, -0.73291015625
400, 3488250527, -4.732041835784912, 1.4332244396209717, 8.50424575805664, -2.557492256164551, -1.432070255279541, -2.2418923377990723, 0.48193359375, -0.377685546875, -0.73583984375
401, 3488267194, -4.734447479248047, 1.4269498586654663, 8.494089126586914, -2.6052472591400146, -1.3105123043060303, -2.3208436965942383, 0.4833984375, -0.38232421875, -0.732177734375
402, 3488283861, -4.73951530456543, 1.4248020648956299, 8.49035930633545, -2.605215072631836, -1.3565703630447388, -2.381680488586426, 0.4833984375, -0.377685546875, -0.733642578125
403, 3488300528, -4.7180562019348145, 1.4245373010635376, 8.499515533447266, -2.7246153354644775, -1.4069570302963257, -2.359788179397583, 0.48388671875, -0.379150390625, -0.732177734375
404, 3488317195, -4.729374408721924, 1.4299288988113403, 8.497515678405762, -2.6880528926849365, -1.41014564037323, -2.3510282039642334, 0.4833984375, -0.379150390625, -0.732666015625
405, 3488333862, -4.722244739532471, 1.4383976459503174, 8.489526748657227, -2.69911789894104, -1.356013536453247, -2.397592544555664, 0.48388671875, -0.379638671875, -0.732666015625
406, 3488350529, -4.736688613891602, 1.4362095594406128, 8.511240005493164, -2.6625173091888428, -1.452547550201416, -2.3771533966064453, 0.4833984375, -0.379638671875, -0.734130859375
407, 3488367196, -4.732923984527588, 1.4135509729385376, 8.49658203125, -2.659290313720703, -1.39654541015625, -2.403982639312744, 0.48291015625, -0.38037109375, -0.735107421875
408, 3488383863, -4.741632461547852, 1.4219986200332642, 8.49319076538086, -2.6867854595184326, -1.4093005657196045, -2.4222445487976074, 0.4833984375, -0.378662109375, -0.734130859375
409, 3488400530, -4.73689079284668, 1.4098832607269287, 8.497420310974121, -2.6333189010620117, -1.3403894901275635, -2.4391746520996094, 0.48046875, -0.37890625, -0.733154296875
410, 3488417197, -4.72387170791626, 1.434823751449585, 8.490521430969238, -2.619321346282959, -1.3806397914886475, -2.4042000770568848, 0.48291015625, -0.379150390625, -0.733154296875
411, 3488433864, -4.737369060516357, 1.4178504943847656, 8.503682136535645, -2.6589057445526123, -1.399977445602417, -2.4098479747772217, 0.4833984375, -0.377197265625, -0.733154296875
412, 3488450531, -4.737637042999268, 1.4315961599349976, 8.489336013793945, -2.4738924503326416, -1.404677152633667, -2.3480825424194336, 0.4853515625, -0.378662109375, -0.732666015625
413, 3488467198, -4.733669757843018, 1.426190733909607, 8.502484321594238, -2.547170639038086, -1.4132959842681885, -2.324941635131836, 0.48193359375, -0.3798828125, -0.733642578125
414, 3488483865, -4.734612464904785, 1.4193758964538574, 8.493571281433105, -2.6033260822296143, -1.3540410995483398, -2.328860282897949, 0.4833984375, -0.378662109375, -0.731689453125
415, 3488500532, -4.73274040222168, 1.4249067306518555, 8.501762390136719, -2.5579404830932617, -1.3647087812423706, -2.448612928390503, 0.48486328125, -0.378662109375, -0.732666015625
416, 3488517199, -4.725763320922852, 1.4335240125656128, 8.504711151123047, -2.619795083999634, -1.296412467956543, -2.373772621154785, 0.4833984375, -0.378662109375, -0.733154296875
417, 3488533866, -4.725858211517334, 1.414410948753357, 8.505966186523438, -2.5413818359375, -1.3250603675842285, -2.3076276779174805, 0.484375, -0.380859375, -0.732666015625
418, 3488550533, -4.716909885406494, 1.425179123878479, 8.484590530395508, -2.57300066947937, -1.259709358215332, -2.391893148422241, 0.4833984375, -0.379150390625, -0.731689453125
419, 3488567200, -4.740699768066406, 1.4088466167449951, 8.5291748046875, -2.519303798675537, -1.1587058305740356, -2.44350266456604, 0.48486328125, -0.378173828125, -0.733154296875
420, 3488583867, -4.72552490234375, 1.4266414642333984, 8.484094619750977, -2.432501792907715, -1.1586800813674927, -2.3332912921905518, 0.484375, -0.377197265625, -0.732666015625
421, 3488600534, -4.7247209548950195, 1.4080572128295898, 8.498441696166992, -2.5740890502929688, -1.2388094663619995, -2.4116790294647217, 0.484375, -0.380859375, -0.734619140625
422, 3488617201, -4.741514205932617, 1.4239580631256104, 8.513739585876465, -2.5176258087158203, -1.312727689743042, -2.406236410140991, 0.4833984375, -0.378173828125, -0.734619140625
423, 3488633868, -4.740551948547363, 1.4113222360610962, 8.489665985107422, -2.5451719760894775, -1.257032871246338, -2.367023229598999, 0.484375, -0.376708984375, -0.733642578125
424, 3488650535, -4.737117290496826, 1.4294633865356445, 8.499739646911621, -2.562025785446167, -1.3434630632400513, -2.3356988430023193, 0.48291015625, -0.377685546875, -0.732177734375
425, 3488667202, -4.730747699737549, 1.4186335802078247, 8.493254661560059, -2.5969486236572266, -1.514747977256775, -2.3497986793518066, 0.484375, -0.3798828125, -0.734130859375
426, 3488683869, -4.721978187561035, 1.4115166664123535, 8.47945499420166, -2.545403003692627, -1.4514331817626953, -2.3208818435668945, 0.4833984375, -0.377685546875, -0.732666015625
427, 3488700536, -4.734353542327881, 1.4216557741165161, 8.496225357055664, -2.475364923477173, -1.4873168468475342, -2.3062827587127686, 0.4853515625, -0.38037109375, -0.733154296875
428, 3488717203, -4.735445022583008, 1.4141056537628174, 8.501470565795898, -2.533019542694092, -1.5042723417282104, -2.2196733951568604, 0.48486328125, -0.377685546875, -0.731689453125
429, 3488733870, -4.7389912605285645, 1.42070734500885, 8.489502906799316, -2.4927690029144287, -1.5007762908935547, -2.3396308422088623, 0.48095703125, -0.378662109375, -0.731689453125
430, 3488750537, -4.7347025871276855, 1.4140241146087646, 8.485912322998047, -2.5074448585510254, -1.3992217779159546, -2.381251096725464, 0.48583984375, -0.379638671875, -0.733154296875
431, 3488767204, -4.724040508270264, 1.41724693775177, 8.487584114074707, -2.584257125854492, -1.427152395248413, -2.2580156326293945, 0.48291015625, -0.377685546875, -0.731689453125
432, 3488783871, -4.731265544891357, 1.40769624710083, 8.506712913513184, -2.529676914215088, -1.3289533853530884, -2.307051420211792, 0.48095703125, -0.376708984375, -0.7353515625
433, 3488800538, -4.750643253326416, 1.4188536405563354, 8.511466979980469, -2.5359132289886475, -1.398824691772461, -2.3463408946990967, 0.4833984375, -0.376708984375, -0.732177734375
434, 3488817205, -4.74677038192749, 1.4199671745300293, 8.491435050964355, -2.4842658042907715, -1.445375919342041, -2.354217290878296, 0.48291015625, -0.378662109375, -0.732177734375
435, 3488833872, -4.728826522827148, 1.420462727546692, 8.49262809753418, -2.4320285320281982, -1.548249363899231, -2.2036144733428955, 0.482421875, -0.379150390625, -0.732666015625
436, 3488850539, -4.742928981781006, 1.4070078134536743, 8.486310005187988, -2.412447690963745, -1.5155675411224365, -2.338413953781128, 0.48388671875, -0.378662109375, -0.731201171875
437, 3488867206, -4.73584508895874, 1.420292854309082, 8.484641075134277, -2.527679204940796, -1.690771460533142, -2.295999526977539, 0.48193359375, -0.377685546875, -0.731689453125
438, 3488883873, -4.724575996398926, 1.4218977689743042, 8.491229057312012, -2.439366340637207, -1.656783103942871, -2.313441753387451, 0.48193359375, -0.37939453125, -0.732666015625
439, 3488900540, -4.720780372619629, 1.421176552772522, 8.492459297180176, -2.6038384437561035, -1.589345097541809, -2.3135056495666504, 0.48388671875, -0.379150390625, -0.732666015625
440, 3488917207, -4.720286846160889, 1.4250320196151733, 8.489534378051758, -2.688680410385132, -1.601549506187439, -2.3901262283325195, 0.48388671875, -0.378173828125, -0.731201171875
441, 3488933874, -4.741357803344727, 1.4288218021392822, 8.494463920593262, -2.6694841384887695, -1.5580079555511475, -2.3551008701324463, 0.48193359375, -0.379150390625, -0.733154296875
442, 3488950541, -4.736220359802246, 1.4178231954574585, 8.507351875305176, -2.6469063758850098, -1.4542893171310425, -2.3891146183013916, 0.4853515625, -0.378662109375, -0.732666015625
443, 3488967208, -4.727201461791992, 1.4253978729248047, 8.494091033935547, -2.7407896518707275, -1.5765386819839478, -2.516845226287842, 0.48486328125, -0.375732421875, -0.733154296875
444, 3488983875, -4.7223711013793945, 1.4162724018096924, 8.494601249694824, -2.7577710151672363, -1.572863221168518, -2.4236018657684326, 0.48291015625, -0.376708984375, -0.733642578125
445, 3489000542, -4.726800918579102, 1.4029242992401123, 8.506380081176758, -2.776212215423584, -1.61942720413208, -2.4276487827301025, 0.48388671875, -0.379150390625, -0.733154296875
446, 3489017209, -4.725792407989502, 1.4194800853729248, 8.490893363952637, -2.724961280822754, -1.6181082725524902, -2.4146249294281006, 0.482421875, -0.378662109375, -0.733642578125
447, 3489033876, -4.729512691497803, 1.4205923080444336, 8.507882118225098, -2.6674346923828125, -1.5658453702926636, -2.413151741027832, 0.4833984375, -0.377197265625, -0.732666015625
448, 3489050543, -4.725742340087891, 1.4127466678619385, 8.51025390625, -2.612316370010376, -1.4162670373916626, -2.342921733856201, 0.4833984375, -0.378662109375, -0.732177734375
449, 3489067210, -4.725494861602783, 1.4127484560012817, 8.504372596740723, -2.6670892238616943, -1.4457218647003174, -2.3886148929595947, 0.48388671875, -0.378173828125, -0.731689453125
450, 3489083877, -4.726784706115723, 1.4157845973968506, 8.487829208374023, -2.5201103687286377, -1.4690932035446167, -2.317962169647217, 0.4853515625, -0.378173828125, -0.734130859375
451, 3489100544, -4.7216315269470215, 1.4129931926727295, 8.503486633300781, -2.524080753326416, -1.4303157329559326, -2.3565990924835205, 0.4814453125, -0.377685546875, -0.7333984375
452, 3489117211, -4.7232465744018555, 1.4087026119232178, 8.496683120727539, -2.4586269855499268, -1.4904414415359497, -2.3460593223571777, 0.4833984375, -0.377685546875, -0.733642578125
453, 3489133878, -4.7328972816467285, 1.4177374839782715, 8.487906455993652, -2.310739278793335, -1.4937710762023926, -2.2874317169189453, 0.48388671875, -0.378662109375, -0.732177734375
454, 3489150545, -4.727837562561035, 1.4109026193618774, 8.50633430480957, -2.1760292053222656, -1.4773916006088257, -2.3001868724823, 0.48095703125, -0.376220703125, -0.732421875
455, 3489167212, -4.731875419616699, 1.4041498899459839, 8.504341125488281, -2.2555949687957764, -1.4645981788635254, -2.2178804874420166, 0.48193359375, -0.377197265625, -0.734375
456, 3489183879, -4.731904029846191, 1.4173648357391357, 8.481179237365723, -2.3446507453918457, -1.446105718612671, -2.235105037689209, 0.48095703125, -0.377197265625, -0.7333984375
457, 3489200546, -4.7148003578186035, 1.4324002265930176, 8.497663497924805, -2.3880772590637207, -1.4994571208953857, -2.2100045680999756, 0.484375, -0.379638671875, -0.732177734375
458, 3489217213, -4.732036590576172, 1.4128048419952393, 8.487149238586426, -2.445039749145508, -1.5634760856628418, -2.2734217643737793, 0.48388671875, -0.378662109375, -0.733154296875
459, 3489233880, -4.7284770011901855, 1.4161417484283447, 8.498869895935059, -2.440288782119751, -1.541500449180603, -2.2906336784362793, 0.4833984375, -0.377197265625, -0.733642578125
460, 3489250547, -4.7318339347839355, 1.4205834865570068, 8.475284576416016, -2.4962007999420166, -1.6085928678512573, -2.3041183948516846, 0.48388671875, -0.378173828125, -0.732177734375
461, 3489267214, -4.728619575500488, 1.4172031879425049, 8.488629341125488, -2.564215660095215, -1.552270770072937, -2.376269817352295, 0.48291015625, -0.377685546875, -0.734130859375
462, 3489283881, -4.7247395515441895, 1.4063270092010498, 8.505257606506348, -2.6258397102355957, -1.4389855861663818, -2.3402583599090576, 0.48193359375, -0.378173828125, -0.732177734375
463, 3489300548, -4.726696014404297, 1.4086495637893677, 8.492387771606445, -2.7024476528167725, -1.4083528518676758, -2.334930658340454, 0.48193359375, -0.377685546875, -0.731689453125
464, 3489317215, -4.7274909019470215, 1.4122782945632935, 8.50455379486084, -2.687246322631836, -1.3668218851089478, -2.35512638092041, 0.48291015625, -0.378173828125, -0.733154296875
465, 3489333882, -4.733839988708496, 1.4164336919784546, 8.499321937561035, -2.718327283859253, -1.4485135078430176, -2.364462375640869, 0.48388671875, -0.377197265625, -0.733642578125
466, 3489350549, -4.715754985809326, 1.420073390007019, 8.494181632995605, -2.7600760459899902, -1.25631582736969, -2.455566883087158, 0.4833984375, -0.376708984375, -0.732666015625
467, 3489367216, -4.728514194488525, 1.4096522331237793, 8.497769355773926, -2.7650322914123535, -1.345537781715393, -2.4172885417938232, 0.4814453125, -0.377197265625, -0.734375
468, 3489383883, -4.718416690826416, 1.4122964143753052, 8.494935989379883, -2.803053855895996, -1.2900989055633545, -2.425433397293091, 0.48388671875, -0.37939453125, -0.735107421875
469, 3489400550, -4.733355522155762, 1.4070091247558594, 8.506608009338379, -2.813991069793701, -1.337264895439148, -2.4254589080810547, 0.484375, -0.378173828125, -0.732666015625
470, 3489417217, -4.7306809425354, 1.4095443487167358, 8.509291648864746, -2.824927568435669, -1.272772192955017, -2.4314522743225098, 0.48291015625, -0.376220703125, -0.733642578125
471, 3489433884, -4.723073482513428, 1.4098824262619019, 8.499954223632812, -2.8070755004882812, -1.2851046323776245, -2.41233229637146, 0.48388671875, -0.376220703125, -0.732177734375
472, 3489450551, -4.729763507843018, 1.4227828979492188, 8.480712890625, -2.7410202026367188, -1.3660279512405396, -2.358020544052124, 0.48583984375, -0.377685546875, -0.733642578125
473, 3489467218, -4.71581506729126, 1.4050291776657104, 8.487857818603516, -2.6472008228302, -1.323164939880371, -2.3716721534729004, 0.48095703125, -0.37890625, -0.73486328125
474, 3489483885, -4.7255024909973145, 1.4018007516860962, 8.482033729553223, -2.696415901184082, -1.2232627868652344, -2.41167950630188, 0.48291015625, -0.377197265625, -0.733642578125
475, 3489500552, -4.722772598266602, 1.4037903547286987, 8.489667892456055, -2.681227445602417, -1.2456353902816772, -2.4242806434631348, 0.48486328125, -0.378173828125, -0.734619140625
476, 3489517219, -4.729048728942871, 1.3958510160446167, 8.467373847961426, -2.6530025005340576, -1.3340376615524292, -2.453479290008545, 0.48388671875, -0.377197265625, -0.733154296875
477, 3489533886, -4.733686447143555, 1.4041248559951782, 8.506860733032227, -2.6173362731933594, -1.3065807819366455, -2.385439157485962, 0.48486328125, -0.379150390625, -0.733642578125
478, 3489550553, -4.733891010284424, 1.4077088832855225, 8.50743293762207, -2.6275172233581543, -1.435950517654419, -2.398181200027466, 0.4833984375, -0.377685546875, -0.734375
479, 3489567220, -4.717348098754883, 1.4092305898666382, 8.499338150024414, -2.705533742904663, -1.4040499925613403, -2.3778579235076904, 0.484375, -0.377197265625, -0.734130859375
480, 3489583887, -4.721510887145996, 1.3926053047180176, 8.520318031311035, -2.5852434635162354, -1.3064014911651611, -2.3179240226745605, 0.482421875, -0.378173828125, -0.732666015625
481, 3489600554, -4.716334342956543, 1.3970392942428589, 8.506061553955078, -2.5581326484680176, -1.354297161102295, -2.433372974395752, 0.484375, -0.378173828125, -0.734130859375
482, 3489617221, -4.72824239730835, 1.3970098495483398, 8.477389335632324, -2.6301684379577637, -1.3585233688354492, -2.3974387645721436, 0.48291015625, -0.375244140625, -0.732666015625
483, 3489633888, -4.736068248748779, 1.4016612768173218, 8.505717277526855, -2.6263389587402344, -1.3196431398391724, -2.298509359359741, 0.48486328125, -0.374755859375, -0.733642578125
484, 3489650555, -4.7236247062683105, 1.4007424116134644, 8.508072853088379, -2.5435714721679688, -1.2890230417251587, -2.344996213912964, 0.484375, -0.375244140625, -0.734375
485, 3489667222, -4.741227626800537, 1.403216004371643, 8.507868766784668, -2.5685439109802246, -1.2319579124450684, -2.2900443077087402, 0.48583984375, -0.377197265625, -0.734130859375
486, 3489683889, -4.737832546234131, 1.4218357801437378, 8.500092506408691, -2.5968589782714844, -1.2537416219711304, -2.3497090339660645, 0.4833984375, -0.376708984375, -0.733154296875
487, 3489700556, -4.749171733856201, 1.394654631614685, 8.512887954711914, -2.5252201557159424, -1.3216667175292969, -2.274510383605957, 0.482421875, -0.377685546875, -0.732666015625
488, 3489717223, -4.7423787117004395, 1.3929297924041748, 8.505062103271484, -2.5476572513580322, -1.4545453786849976, -2.3011093139648438, 0.48388671875, -0.376708984375, -0.733642578125
489, 3489733890, -4.7296295166015625, 1.41204035282135, 8.470510482788086, -2.603287696838379, -1.6159437894821167, -2.251113176345825, 0.48388671875, -0.377685546875, -0.733154296875
490, 3489750557, -4.7300286293029785, 1.3845324516296387, 8.48854923248291, -2.562256097793579, -1.4617936611175537, -2.3087031841278076, 0.484375, -0.376708984375, -0.73583984375
491, 3489767224, -4.722901344299316, 1.4015483856201172, 8.503215789794922, -2.5540857315063477, -1.41985285282135, -2.3705708980560303, 0.482421875, -0.377685546875, -0.73388671875
492, 3489783891, -4.721737384796143, 1.3920924663543701, 8.49661636352539, -2.4951765537261963, -1.3993114233016968, -2.3162589073181152, 0.4833984375, -0.376708984375, -0.731689453125
493, 3489800558, -4.7288498878479, 1.3911582231521606, 8.477164268493652, -2.4475111961364746, -1.3930236101150513, -2.3818273544311523, 0.48193359375, -0.377197265625, -0.7333984375
494, 3489817225, -4.731385707855225, 1.4141325950622559, 8.495484352111816, -2.4586269855499268, -1.3411449193954468, -2.407081365585327, 0.48291015625, -0.376220703125, -0.733642578125
495, 3489833892, -4.718343734741211, 1.4045279026031494, 8.494361877441406, -2.3972718715667725, -1.376592993736267, -2.339284658432007, 0.48486328125, -0.376220703125, -0.732666015625
496, 3489850559, -4.728821754455566, 1.398579478263855, 8.489471435546875, -2.501246929168701, -1.2611052989959717, -2.3406293392181396, 0.484375, -0.376220703125, -0.733642578125
497, 3489867226, -4.728902816772461, 1.3984323740005493, 8.512545585632324, -2.4514553546905518, -1.1721524000167847, -2.366651773452759, 0.4853515625, -0.376220703125, -0.735107421875
498, 3489883893, -4.724343776702881, 1.4131388664245605, 8.491442680358887, -2.5202255249023438, -1.2543563842773438, -2.3743228912353516, 0.482421875, -0.376220703125, -0.7333984375
499, 3489900560, -4.735579490661621, 1.4032459259033203, 8.498207092285156, -2.558683395385742, -1.256994605064392, -2.435626983642578, 0.4833984375, -0.378173828125, -0.734130859375
500, 3489917227, -4.726332187652588, 1.3992090225219727, 8.51218032836914, -2.5273845195770264, -1.2416141033172607, -2.375910997390747, 0.484375, -0.378662109375, -0.730224609375
501, 3489933894, -4.731917858123779, 1.3919533491134644, 8.500089645385742, -2.5351579189300537, -1.281659483909607, -2.4374582767486572, 0.48291015625, -0.376708984375, -0.733154296875
502, 3489950561, -4.737668037414551, 1.4152796268463135, 8.482097625732422, -2.5268850326538086, -1.2112629413604736, -2.3088185787200928, 0.484375, -0.378173828125, -0.732666015625
503, 3489967228, -4.731837749481201, 1.3972800970077515, 8.497750282287598, -2.4930763244628906, -1.240128517150879, -2.2824244499206543, 0.48193359375, -0.377197265625, -0.732666015625
504, 3489983895, -4.7332377433776855, 1.4118107557296753, 8.498265266418457, -2.4675915241241455, -1.219343900680542, -2.3657426834106445, 0.48486328125, -0.377197265625, -0.733642578125
505, 3490000562, -4.741010665893555, 1.404888391494751, 8.500885963439941, -2.476376533508301, -1.3720465898513794, -2.2860870361328125, 0.48193359375, -0.378173828125, -0.733154296875
506, 3490017229, -4.73671293258667, 1.398268699645996, 8.473679542541504, -2.5582220554351807, -1.352388858795166, -2.3036062717437744, 0.48388671875, -0.373291015625, -0.732666015625
507, 3490033896, -4.734284400939941, 1.4096126556396484, 8.479866027832031, -2.5319817066192627, -1.3729431629180908, -2.4093737602233887, 0.48486328125, -0.375244140625, -0.731201171875
508, 3490050563, -4.746225833892822, 1.3980154991149902, 8.476613998413086, -2.573077440261841, -1.4525986909866333, -2.3270418643951416, 0.48388671875, -0.376220703125, -0.732177734375
509, 3490067230, -4.741467475891113, 1.3967499732971191, 8.47647762298584, -2.6049656867980957, -1.419494390487671, -2.387910842895508, 0.48388671875, -0.376708984375, -0.731201171875
510, 3490083897, -4.74126672744751, 1.4028655290603638, 8.499608039855957, -2.5635242462158203, -1.5250444412231445, -2.3747332096099854, 0.48291015625, -0.376220703125, -0.731201171875
511, 3490100564, -4.729798316955566, 1.3913111686706543, 8.493094444274902, -2.5455825328826904, -1.4745488166809082, -2.291184425354004, 0.484375, -0.375732421875, -0.733642578125
512, 3490117231, -4.741858005523682, 1.3956482410430908, 8.492086410522461, -2.5445451736450195, -1.5256205797195435, -2.3927001953125, 0.4853515625, -0.376708984375, -0.734619140625
513, 3490133898, -4.728002071380615, 1.396834373474121, 8.512909889221191, -2.6308088302612305, -1.533150553703308, -2.313262701034546, 0.48583984375, -0.375244140625, -0.732177734375
514, 3490150565, -4.739370822906494, 1.3931541442871094, 8.503400802612305, -2.5772652626037598, -1.3789108991622925, -2.323673963546753, 0.48388671875, -0.377197265625, -0.730712890625
515, 3490167232, -4.736956596374512, 1.3892523050308228, 8.499134063720703, -2.559861421585083, -1.421043872833252, -2.329334259033203, 0.48486328125, -0.376220703125, -0.733642578125
516, 3490183899, -4.72635555267334, 1.3957518339157104, 8.504305839538574, -2.5746402740478516, -1.4089163541793823, -2.440173387527466, 0.4833984375, -0.377197265625, -0.733642578125
517, 3490200566, -4.742809295654297, 1.3946826457977295, 8.500419616699219, -2.6026668548583984, -1.3969104290008545, -2.4302680492401123, 0.482421875, -0.375732421875, -0.732666015625
518, 3490217233, -4.7467217445373535, 1.3930754661560059, 8.505273818969727, -2.6051318645477295, -1.4754964113235474, -2.3476345539093018, 0.482421875, -0.374755859375, -0.734375
519, 3490233900, -4.733964920043945, 1.4087029695510864, 8.490849494934082, -2.6553328037261963, -1.4042930603027344, -2.3543708324432373, 0.48486328125, -0.376708984375, -0.734619140625
520, 3490250567, -4.738205432891846, 1.395622730255127, 8.50074291229248, -2.6149160861968994, -1.5272343158721924, -2.3249804973602295, 0.48486328125, -0.376220703125, -0.732666015625
521, 3490267234, -4.732463359832764, 1.3848665952682495, 8.505215644836426, -2.5307908058166504, -1.5848370790481567, -2.2938477993011475, 0.48291015625, -0.376220703125, -0.732666015625
522, 3490283901, -4.732860565185547, 1.3899040222167969, 8.496707916259766, -2.5552639961242676, -1.5092540979385376, -2.2787623405456543, 0.4833984375, -0.374755859375, -0.73388671875
523, 3490300568, -4.734197616577148, 1.3950432538986206, 8.501562118530273, -2.509045362472534, -1.435322880744934, -2.323110342025757, 0.484375, -0.377685546875, -0.734130859375
524, 3490317235, -4.728301525115967, 1.3981897830963135, 8.480232238769531, -2.57873797416687, -1.463266372680664, -2.321932315826416, 0.48681640625, -0.377197265625, -0.730712890625
525, 3490333902, -4.74267053604126, 1.4072761535644531, 8.47966480255127, -2.5685181617736816, -1.4035886526107788, -2.3406803607940674, 0.48388671875, -0.377197265625, -0.733154296875
526, 3490350569, -4.720446586608887, 1.3847668170928955, 8.493878364562988, -2.5539190769195557, -1.4586942195892334, -2.3778700828552246, 0.48583984375, -0.376220703125, -0.73583984375
527, 3490367236, -4.7354912757873535, 1.3768445253372192, 8.490105628967285, -2.47512149810791, -1.4150502681732178, -2.370058059692383, 0.484375, -0.377685546875, -0.731201171875
528, 3490383903, -4.723823547363281, 1.4000775814056396, 8.488312721252441, -2.527538299560547, -1.3842768669128418, -2.2691445350646973, 0.48388671875, -0.377685546875, -0.731201171875
529, 3490400570, -4.738205909729004, 1.4106730222702026, 8.48836898803711, -2.592824697494507, -1.343795895576477, -2.292208671569824, 0.4833984375, -0.376708984375, -0.733154296875
530, 3490417237, -4.725618362426758, 1.401095986366272, 8.48908805847168, -2.5256173610687256, -1.2377722263336182, -2.3143506050109863, 0.48388671875, -0.375732421875, -0.733154296875
531, 3490433904, -4.7526702880859375, 1.4053629636764526, 8.48507022857666, -2.534824848175049, -1.2383867502212524, -2.3447272777557373, 0.48583984375, -0.376220703125, -0.733154296875
532, 3490450571, -4.745680332183838, 1.4018481969833374, 8.493138313293457, -2.4493300914764404, -1.3190926313400269, -2.37534761428833, 0.482421875, -0.375732421875, -0.732666015625
533, 3490467238, -4.741026401519775, 1.4038450717926025, 8.488222122192383, -2.5569546222686768, -1.3572299480438232, -2.315375566482544, 0.482421875, -0.376708984375, -0.733154296875
534, 3490483905, -4.743448257446289, 1.397790789604187, 8.506452560424805, -2.6082308292388916, -1.3799738883972168, -2.3126091957092285, 0.48486328125, -0.375732421875, -0.733642578125
535, 3490500572, -4.739307403564453, 1.4016016721725464, 8.4667387008667, -2.5438406467437744, -1.3986839056015015, -2.3308582305908203, 0.48486328125, -0.377197265625, -0.732666015625
536, 3490517239, -4.735212802886963, 1.404416561126709, 8.48432445526123, -2.5854995250701904, -1.4550318717956543, -2.3567399978637695, 0.482421875, -0.376708984375, -0.733154296875
537, 3490533906, -4.724786758422852, 1.3935494422912598, 8.498315811157227, -2.5136561393737793, -1.4600006341934204, -2.336787223815918, 0.48486328125, -0.374755859375, -0.734130859375
538, 3490550573, -4.748135089874268, 1.4082497358322144, 8.506980895996094, -2.595449686050415, -1.3739420175552368, -2.3936731815338135, 0.48486328125, -0.375244140625, -0.732177734375
539, 3490567240, -4.729330539703369, 1.3916112184524536, 8.494986534118652, -2.5710411071777344, -1.3518894910812378, -2.2845120429992676, 0.4853515625, -0.376220703125, -0.734130859375
540, 3490583907, -4.7482123374938965, 1.3885000944137573, 8.498208045959473, -2.5901999473571777, -1.431929349899292, -2.342576265335083, 0.48583984375, -0.376708984375, -0.731689453125
541, 3490600574, -4.744654655456543, 1.3906484842300415, 8.488312721252441, -2.4889395236968994, -1.4405606985092163, -2.327028751373291, 0.4853515625, -0.376708984375, -0.734130859375
542, 3490617241, -4.737626552581787, 1.3973116874694824, 8.498774528503418, -2.5664186477661133, -1.5387599468231201, -2.3554978370666504, 0.48291015625, -0.378173828125, -0.732666015625
543, 3490633908, -4.727202415466309, 1.3819973468780518, 8.513294219970703, -2.6028780937194824, -1.5582128763198853, -2.3351614475250244, 0.4853515625, -0.378173828125, -0.733154296875
544, 3490650575, -4.72329568862915, 1.4020198583602905, 8.505152702331543, -2.526411294937134, -1.5446507930755615, -2.3021080493927, 0.484375, -0.375732421875, -0.732666015625
545, 3490667242, -4.738015651702881, 1.3990001678466797, 8.474601745605469, -2.515423536300659, -1.389950156211853, -2.3906641006469727, 0.4833984375, -0.375732421875, -0.733154296875
546, 3490683909, -4.747498035430908, 1.3884849548339844, 8.506105422973633, -2.5393073558807373, -1.4126429557800293, -2.338580369949341, 0.486328125, -0.373779296875, -0.732666015625
547, 3490700576, -4.729785442352295, 1.3994086980819702, 8.493413925170898, -2.543686866760254, -1.4352844953536987, -2.3098301887512207, 0.4833984375, -0.376220703125, -0.733642578125
548, 3490717243, -4.735233783721924, 1.396524429321289, 8.484109878540039, -2.4544646739959717, -1.3102561235427856, -2.324634313583374, 0.484375, -0.375244140625, -0.733642578125
549, 3490733910, -4.745067119598389, 1.4046313762664795, 8.48750114440918, -2.4945104122161865, -1.3564741611480713, -2.305450439453125, 0.48486328125, -0.375244140625, -0.734130859375
550, 3490750577, -4.749904155731201, 1.406075119972229, 8.495038986206055, -2.631359338760376, -1.3853141069412231, -2.356586217880249, 0.4853515625, -0.376708984375, -0.732177734375
551, 3490767244, -4.747236728668213, 1.3940403461456299, 8.504220962524414, -2.6107542514801025, -1.4012326002120972, -2.4023947715759277, 0.484375, -0.377197265625, -0.732666015625
552, 3490783911, -4.745204448699951, 1.3892751932144165, 8.474376678466797, -2.664041519165039, -1.4870095252990723, -2.3680479526519775, 0.48291015625, -0.375732421875, -0.733154296875
553, 3490800578, -4.751797676086426, 1.4006303548812866, 8.488231658935547, -2.658355236053467, -1.491837501525879, -2.414663076400757, 0.48486328125, -0.375244140625, -0.734130859375
554, 3490817245, -4.7422404289245605, 1.3891140222549438, 8.495564460754395, -2.5146803855895996, -1.537043571472168, -2.391355037689209, 0.48388671875, -0.377685546875, -0.733642578125
555, 3490833912, -4.738801956176758, 1.3956955671310425, 8.480978012084961, -2.496469736099243, -1.4127326011657715, -2.3642446994781494, 0.486328125, -0.376220703125, -0.732666015625
556, 3490850579, -4.727279186248779, 1.390861988067627, 8.472027778625488, -2.508251667022705, -1.4086600542068481, -2.294731378555298, 0.486328125, -0.375732421875, -0.732177734375
557, 3490867246, -4.739643573760986, 1.3946025371551514, 8.505589485168457, -2.5169217586517334, -1.4287406206130981, -2.3906638622283936, 0.4853515625, -0.374755859375, -0.733154296875
558, 3490883913, -4.740937232971191, 1.382137656211853, 8.497591972351074, -2.576201915740967, -1.4016804695129395, -2.35937762260437, 0.48583984375, -0.374755859375, -0.734619140625
559, 3490900580, -4.740500450134277, 1.391647458076477, 8.497846603393555, -2.5494112968444824, -1.429368019104004, -2.325786828994751, 0.484375, -0.378662109375, -0.732666015625
560, 3490917247, -4.734179496765137, 1.3937766551971436, 8.50775146484375, -2.503602981567383, -1.318733811378479, -2.36114501953125, 0.486328125, -0.377685546875, -0.732666015625
561, 3490933914, -4.74398136138916, 1.398944616317749, 8.471917152404785, -2.5478105545043945, -1.2778432369232178, -2.354844570159912, 0.48388671875, -0.378173828125, -0.734130859375
562, 3490950581, -4.734255313873291, 1.3849554061889648, 8.503178596496582, -2.522005796432495, -1.3056330680847168, -2.3416924476623535, 0.48583984375, -0.375732421875, -0.734619140625
563, 3490967248, -4.740351676940918, 1.4020912647247314, 8.478792190551758, -2.540254831314087, -1.337969183921814, -2.3465585708618164, 0.4853515625, -0.376708984375, -0.732666015625
564, 3490983915, -4.751514911651611, 1.3867746591567993, 8.503944396972656, -2.455515146255493, -1.3012148141860962, -2.3059756755828857, 0.482421875, -0.375244140625, -0.731201171875
565, 3491000582, -4.7421064376831055, 1.3863022327423096, 8.489676475524902, -2.5257580280303955, -1.3281978368759155, -2.3172450065612793, 0.486328125, -0.376220703125, -0.733154296875
566, 3491017249, -4.7454633712768555, 1.3927890062332153, 8.474108695983887, -2.457359552383423, -1.3127789497375488, -2.2989578247070312, 0.48583984375, -0.377685546875, -0.730224609375
567, 3491033916, -4.743762969970703, 1.3944270610809326, 8.482850074768066, -2.4602408409118652, -1.2753971815109253, -2.293860673904419, 0.48486328125, -0.375732421875, -0.732177734375
568, 3491050583, -4.74728536605835, 1.3945205211639404, 8.480308532714844, -2.4951765537261963, -1.3547966480255127, -2.364718437194824, 0.486328125, -0.375732421875, -0.732666015625
569, 3491067250, -4.737184524536133, 1.3867573738098145, 8.47999382019043, -2.5009522438049316, -1.4113879203796387, -2.2882773876190186, 0.48583984375, -0.378173828125, -0.734619140625
570, 3491083917, -4.724310398101807, 1.4015620946884155, 8.501465797424316, -2.5273845195770264, -1.5283739566802979, -2.2905185222625732, 0.486328125, -0.375244140625, -0.734130859375
571, 3491100584, -4.7505879402160645, 1.3920832872390747, 8.488635063171387, -2.528780460357666, -1.5071154832839966, -2.2930283546447754, 0.48486328125, -0.375732421875, -0.732177734375
572, 3491117251, -4.7336745262146, 1.422234058380127, 8.467340469360352, -2.430901288986206, -1.3573449850082397, -2.1991827487945557, 0.48583984375, -0.373779296875, -0.732666015625
573, 3491133918, -4.739094257354736, 1.38892662525177, 8.48315143585205, -2.542726516723633, -1.4680687189102173, -2.3005712032318115, 0.48486328125, -0.376708984375, -0.733642578125
574, 3491150585, -4.74695348739624, 1.3828151226043701, 8.501984596252441, -2.5514347553253174, -1.4367188215255737, -2.28202748298645, 0.4833984375, -0.375244140625, -0.7333984375
575, 3491167252, -4.754915237426758, 1.395631194114685, 8.478584289550781, -2.482395887374878, -1.5847474336624146, -2.3080244064331055, 0.48583984375, -0.378662109375, -0.732177734375
576, 3491183919, -4.750786781311035, 1.3935152292251587, 8.494702339172363, -2.4190428256988525, -1.5387983322143555, -2.299060106277466, 0.48486328125, -0.376220703125, -0.731689453125
577, 3491200586, -4.742589473724365, 1.385748028755188, 8.483840942382812, -2.4664132595062256, -1.4368467330932617, -2.3312036991119385, 0.48583984375, -0.377197265625, -0.732177734375
578, 3491217253, -4.729259014129639, 1.3951679468154907, 8.506683349609375, -2.4241011142730713, -1.4313145875930786, -2.292119026184082, 0.48388671875, -0.377197265625, -0.734619140625
579, 3491233920, -4.731672286987305, 1.3968085050582886, 8.499761581420898, -2.500452995300293, -1.408442497253418, -2.3190507888793945, 0.48388671875, -0.375732421875, -0.733642578125
580, 3491250587, -4.744913578033447, 1.3899067640304565, 8.510586738586426, -2.370762825012207, -1.4242967367172241, -2.2874958515167236, 0.484375, -0.377197265625, -0.733154296875
581, 3491267254, -4.750285625457764, 1.4006662368774414, 8.48480224609375, -2.464735746383667, -1.3900909423828125, -2.3194990158081055, 0.484375, -0.376708984375, -0.73486328125
582, 3491283921, -4.736639022827148, 1.3930243253707886, 8.494564056396484, -2.5205585956573486, -1.283939242362976, -2.307537794113159, 0.486328125, -0.376708984375, -0.734619140625
583, 3491300588, -4.75448751449585, 1.4015743732452393, 8.500109672546387, -2.4783554077148438, -1.4129183292388916, -2.2506070137023926, 0.48486328125, -0.377685546875, -0.735107421875
584, 3491317255, -4.746201038360596, 1.3995178937911987, 8.474340438842773, -2.4463586807250977, -1.3628005981445312, -2.3244807720184326, 0.486328125, -0.375732421875, -0.733154296875
585, 3491333922, -4.756756782531738, 1.3993518352508545, 8.493009567260742, -2.484304189682007, -1.3884389400482178, -2.3744382858276367, 0.4853515625, -0.376220703125, -0.732666015625
586, 3491350589, -4.748586654663086, 1.400028109550476, 8.495440483093262, -2.433821201324463, -1.458860993385315, -2.292848825454712, 0.48388671875, -0.375732421875, -0.732177734375
587, 3491367256, -4.738864421844482, 1.3932878971099854, 8.486979484558105, -2.417390823364258, -1.46713387966156, -2.3024282455444336, 0.4833984375, -0.376220703125, -0.733642578125
588, 3491383923, -4.741289138793945, 1.406970739364624, 8.46070671081543, -2.400857925415039, -1.483077883720398, -2.3209333419799805, 0.48291015625, -0.375732421875, -0.7333984375
589, 3491400590, -4.745815753936768, 1.399012565612793, 8.495457649230957, -2.442171096801758, -1.5078836679458618, -2.2923879623413086, 0.484375, -0.376708984375, -0.730224609375
590, 3491417257, -4.749366760253906, 1.4001246690750122, 8.475624084472656, -2.323289632797241, -1.482898473739624, -2.3125576972961426, 0.484375, -0.375732421875, -0.733154296875
591, 3491433924, -4.731964111328125, 1.3822156190872192, 8.490036964416504, -2.3977460861206055, -1.3508906364440918, -2.2938733100891113, 0.48486328125, -0.375732421875, -0.734130859375
592, 3491450591, -4.746359348297119, 1.4053281545639038, 8.47885513305664, -2.5052809715270996, -1.4355406761169434, -2.3278231620788574, 0.48486328125, -0.377685546875, -0.732666015625
593, 3491467258, -4.765513896942139, 1.4034790992736816, 8.467245101928711, -2.542341947555542, -1.496934175491333, -2.300507068634033, 0.484375, -0.374267578125, -0.733642578125
594, 3491483925, -4.747666358947754, 1.3992342948913574, 8.477030754089355, -2.474302291870117, -1.5717360973358154, -2.2600648403167725, 0.48486328125, -0.376220703125, -0.734619140625
595, 3491500592, -4.733856201171875, 1.4005792140960693, 8.49978256225586, -2.512605905532837, -1.6065053939819336, -2.2982277870178223, 0.48583984375, -0.377685546875, -0.731689453125
596, 3491517259, -4.747771739959717, 1.4004127979278564, 8.474165916442871, -2.487940788269043, -1.542755365371704, -2.335404634475708, 0.48388671875, -0.375732421875, -0.732666015625
597, 3491533926, -4.739892482757568, 1.3990991115570068, 8.473445892333984, -2.5829639434814453, -1.5870397090911865, -2.2399585247039795, 0.48291015625, -0.375732421875, -0.7333984375
598, 3491550593, -4.734766006469727, 1.3950830698013306, 8.495285987854004, -2.5134763717651367, -1.5402580499649048, -2.3813533782958984, 0.4833984375, -0.375244140625, -0.731689453125
599, 3491567260, -4.748559474945068, 1.3962143659591675, 8.481206893920898, -2.538231611251831, -1.655669093132019, -2.287060499191284, 0.48681640625, -0.375732421875, -0.732666015625
600, 3491583927, -4.737715721130371, 1.3984938859939575, 8.503931045532227, -2.488555431365967, -1.488891839981079, -2.239497661590576, 0.4853515625, -0.376220703125, -0.73583984375
601, 3491600594, -4.738349437713623, 1.4045875072479248, 8.486023902893066, -2.6040306091308594, -1.4779423475265503, -2.338477849960327, 0.4853515625, -0.375244140625, -0.733642578125
602, 3491617261, -4.74036979675293, 1.4019235372543335, 8.461701393127441, -2.469576597213745, -1.4664167165756226, -2.244274377822876, 0.48291015625, -0.376708984375, -0.732666015625
603, 3491633928, -4.744564533233643, 1.4109677076339722, 8.50495433807373, -2.5067789554595947, -1.5159261226654053, -2.3582253456115723, 0.48388671875, -0.375244140625, -0.73388671875
604, 3491650595, -4.752082824707031, 1.3956354856491089, 8.492310523986816, -2.5745112895965576, -1.4831289052963257, -2.3149523735046387, 0.48681640625, -0.376220703125, -0.730224609375
605, 3491667262, -4.743590831756592, 1.4020518064498901, 8.493988990783691, -2.6206536293029785, -1.5571242570877075, -2.323085308074951, 0.4873046875, -0.376708984375, -0.730712890625
606, 3491683929, -4.746023178100586, 1.3950693607330322, 8.49657154083252, -2.477362871170044, -1.5364675521850586, -2.2662246227264404, 0.484375, -0.376708984375, -0.733154296875
607, 3491700596, -4.740047931671143, 1.3958220481872559, 8.474239349365234, -2.529292345046997, -1.5962729454040527, -2.2623696327209473, 0.48486328125, -0.375732421875, -0.734130859375
608, 3491717263, -4.734694004058838, 1.3984346389770508, 8.509600639343262, -2.473175048828125, -1.4492816925048828, -2.277160882949829, 0.4853515625, -0.375732421875, -0.73486328125
609, 3491733930, -4.738582134246826, 1.3947268724441528, 8.484210014343262, -2.490309953689575, -1.5538073778152466, -2.309561252593994, 0.48486328125, -0.372802734375, -0.733154296875
610, 3491750597, -4.734625339508057, 1.4053655862808228, 8.502822875976562, -2.443810224533081, -1.48845636844635, -2.188157081604004, 0.48583984375, -0.376220703125, -0.733642578125
611, 3491767264, -4.740812301635742, 1.4003573656082153, 8.46131420135498, -2.3853490352630615, -1.4751121997833252, -2.378420829772949, 0.48291015625, -0.376220703125, -0.731689453125
612, 3491783931, -4.727938652038574, 1.3958966732025146, 8.492509841918945, -2.396759510040283, -1.3869917392730713, -2.2464640140533447, 0.48486328125, -0.377197265625, -0.735107421875
613, 3491800598, -4.722325325012207, 1.4061241149902344, 8.492918968200684, -2.4974048137664795, -1.367334008216858, -2.3008785247802734, 0.484375, -0.377197265625, -0.733642578125
614, 3491817265, -4.733792781829834, 1.4000484943389893, 8.500876426696777, -2.472048282623291, -1.4332866668701172, -2.2590529918670654, 0.4833984375, -0.375732421875, -0.732666015625
615, 3491833932, -4.734642505645752, 1.3978768587112427, 8.499367713928223, -2.3910350799560547, -1.4624083042144775, -2.3844528198242188, 0.48583984375, -0.376708984375, -0.735107421875
616, 3491850599, -4.7539801597595215, 1.39569091796875, 8.496694564819336, -2.5201101303100586, -1.381472110748291, -2.288750648498535, 0.484375, -0.376708984375, -0.733642578125
617, 3491867266, -4.739930152893066, 1.3916897773742676, 8.499896049499512, -2.4263553619384766, -1.5086138248443604, -2.3275158405303955, 0.48388671875, -0.376220703125, -0.733154296875
618, 3491883933, -4.732341289520264, 1.3905185461044312, 8.49716854095459, -2.4104623794555664, -1.5529108047485352, -2.3352253437042236, 0.484375, -0.374755859375, -0.732666015625
619, 3491900600, -4.737637996673584, 1.3897686004638672, 8.4776029586792, -2.3974382877349854, -1.483346700668335, -2.250946283340454, 0.48681640625, -0.375732421875, -0.732666015625
620, 3491917267, -4.736563682556152, 1.3991376161575317, 8.472960472106934, -2.4396228790283203, -1.4769821166992188, -2.305117607116699, 0.484375, -0.374267578125, -0.734375
621, 3491933934, -4.730216026306152, 1.408078670501709, 8.503286361694336, -2.422628402709961, -1.4368340969085693, -2.257631540298462, 0.48486328125, -0.376708984375, -0.733642578125
622, 3491950601, -4.747314929962158, 1.4008039236068726, 8.494161605834961, -2.432220458984375, -1.5336244106292725, -2.377178907394409, 0.48681640625, -0.376708984375, -0.733642578125
623, 3491967268, -4.7346415519714355, 1.409847617149353, 8.49497127532959, -2.480487108230591, -1.3750689029693604, -2.2706298828125, 0.48681640625, -0.376708984375, -0.736083984375
624, 3491983935, -4.729303359985352, 1.39369535446167, 8.498579978942871, -2.415738582611084, -1.3947523832321167, -2.3131086826324463, 0.48486328125, -0.375244140625, -0.734375
625, 3492000602, -4.732946395874023, 1.387268304824829, 8.496973037719727, -2.409553050994873, -1.4256668090820312, -2.382774829864502, 0.48388671875, -0.376708984375, -0.733154296875
626, 3492017269, -4.724705696105957, 1.3917378187179565, 8.494064331054688, -2.352680206298828, -1.457580327987671, -2.2245912551879883, 0.48388671875, -0.377197265625, -0.733642578125
627, 3492033936, -4.739723205566406, 1.3919504880905151, 8.487847328186035, -2.404597282409668, -1.3701131343841553, -2.3360705375671387, 0.48291015625, -0.376708984375, -0.731201171875
628, 3492050603, -4.731439590454102, 1.4050021171569824, 8.487570762634277, -2.402714729309082, -1.322908878326416, -2.34027099609375, 0.4853515625, -0.374755859375, -0.733642578125
629, 3492067270, -4.750564098358154, 1.3939458131790161, 8.467447280883789, -2.47682523727417, -1.375901460647583, -2.3649487495422363, 0.48388671875, -0.377197265625, -0.73486328125
630, 3492083937, -4.735422134399414, 1.4069242477416992, 8.480886459350586, -2.418325662612915, -1.384801983833313, -2.3061931133270264, 0.484375, -0.376220703125, -0.732666015625
631, 3492100604, -4.75083589553833, 1.3891297578811646, 8.511781692504883, -2.3633992671966553, -1.309321403503418, -2.2186105251312256, 0.484375, -0.376708984375, -0.731201171875
632, 3492117271, -4.73161506652832, 1.389803409576416, 8.47624683380127, -2.359736204147339, -1.3627748489379883, -2.274599552154541, 0.484375, -0.377685546875, -0.734619140625
633, 3492133938, -4.7361650466918945, 1.3974133729934692, 8.502718925476074, -2.3476598262786865, -1.3518253564834595, -2.3024919033050537, 0.48388671875, -0.376708984375, -0.734130859375
634, 3492150605, -4.751641750335693, 1.3926043510437012, 8.49373722076416, -2.452416181564331, -1.3917943239212036, -2.3600311279296875, 0.48486328125, -0.377685546875, -0.734619140625
635, 3492167272, -4.741474628448486, 1.3968733549118042, 8.492667198181152, -2.4773755073547363, -1.4230800867080688, -2.2862789630889893, 0.4853515625, -0.376708984375, -0.733642578125
636, 3492183939, -4.739054203033447, 1.3897240161895752, 8.487833023071289, -2.4782590866088867, -1.3923447132110596, -2.315810441970825, 0.48486328125, -0.376220703125, -0.732666015625
637, 3492200606, -4.737796783447266, 1.403043270111084, 8.48415470123291, -2.4454493522644043, -1.4011300802230835, -2.239267110824585, 0.48583984375, -0.376708984375, -0.732177734375
638, 3492217273, -4.755410194396973, 1.3896048069000244, 8.506933212280273, -2.419145345687866, -1.4207236766815186, -2.297088146209717, 0.48486328125, -0.376708984375, -0.734130859375
639, 3492233940, -4.733811855316162, 1.4029512405395508, 8.483750343322754, -2.375117301940918, -1.5083062648773193, -2.305386543273926, 0.4853515625, -0.379638671875, -0.734619140625
640, 3492250607, -4.732904434204102, 1.3931876420974731, 8.49280071258545, -2.419785499572754, -1.4694006443023682, -2.1928186416625977, 0.484375, -0.377685546875, -0.731689453125
641, 3492267274, -4.741128921508789, 1.4045242071151733, 8.500214576721191, -2.3924570083618164, -1.557098627090454, -2.2969343662261963, 0.484375, -0.377685546875, -0.732177734375
642, 3492283941, -4.744335651397705, 1.3989139795303345, 8.495352745056152, -2.4720869064331055, -1.5523474216461182, -2.2152040004730225, 0.48486328125, -0.378173828125, -0.732666015625
643, 3492300608, -4.7360124588012695, 1.3951736688613892, 8.489055633544922, -2.383504867553711, -1.503068447113037, -2.2525980472564697, 0.48583984375, -0.377685546875, -0.730712890625
644, 3492317275, -4.75081205368042, 1.3891358375549316, 8.483404159545898, -2.314171314239502, -1.506564736366272, -2.2525856494903564, 0.4833984375, -0.375244140625, -0.731689453125
645, 3492333942, -4.733957290649414, 1.4094754457473755, 8.492321968078613, -2.313185214996338, -1.50323486328125, -2.2437491416931152, 0.48388671875, -0.378662109375, -0.734130859375
646, 3492350609, -4.730312347412109, 1.427855134010315, 8.495233535766602, -2.432758092880249, -1.4429553747177124, -2.279863119125366, 0.4853515625, -0.378662109375, -0.731201171875
647, 3492367276, -4.740573406219482, 1.4099558591842651, 8.477193832397461, -2.3799450397491455, -1.4465669393539429, -2.358494520187378, 0.4833984375, -0.376708984375, -0.733154296875
648, 3492383943, -4.7458696365356445, 1.4125361442565918, 8.501921653747559, -2.4077858924865723, -1.456709623336792, -2.24526047706604, 0.484375, -0.378173828125, -0.732177734375
649, 3492400610, -4.749539852142334, 1.4014999866485596, 8.499043464660645, -2.497366189956665, -1.4467203617095947, -2.2253339290618896, 0.484375, -0.378662109375, -0.732666015625
650, 3492417277, -4.746443748474121, 1.4139915704727173, 8.487608909606934, -2.425586700439453, -1.5163999795913696, -2.3013782501220703, 0.48486328125, -0.377197265625, -0.733154296875
651, 3492433944, -4.740423202514648, 1.3940120935440063, 8.467962265014648, -2.4489455223083496, -1.5229568481445312, -2.32460880279541, 0.48388671875, -0.376708984375, -0.734375
