sep=,
DeviceTag:,A,,,,,,,,,,,,,,,,,
FirmwareVersion:,2.2.1,,,,,,,,,,,,,,,,,
AppVersion:,2022.0.1,,,,,,,,,,,,,,,,,
SyncStatus:,Synced,,,,,,,,,,,,,,,,,
OutputRate:,60Hz,,,,,,,,,,,,,,,,,
FilterProfile:,General,,,,,,,,,,,,,,,,,
Measurement Mode:,Inertial Mode - Rate quantities (with mag),,,,,,,,,,,,,,,,,
StartTime:,2022-08-03 10:37:51.984 +0300,,,,,,,,,,,,,,,,,
© Xsens Technologies B. V. 2005-2022,,,,,,,,,,,,,,,,,,,

PacketCounter,SampleTimeFine,Acc_X,Acc_Y,Acc_Z,Gyr_X,Gyr_Y,Gyr_Z,Mag_X,Mag_Y,Mag_Z
1, 2217875120, -5.017613887786865, 1.6396223306655884, 8.302092552185059, -2.4981086254119873, -1.6914242506027222, -2.2662241458892822, 0.468994140625, -0.414794921875, -0.73193359375
2, 2217891787, -5.022222518920898, 1.6327617168426514, 8.290398597717285, -2.6424624919891357, -1.7145270109176636, -2.2068030834198, 0.469970703125, -0.411865234375, -0.7294921875
3, 2217908454, -5.004458904266357, 1.6338235139846802, 8.276042938232422, -2.5154361724853516, -1.7323919534683228, -2.2219016551971436, 0.468017578125, -0.415283203125, -0.732421875
4, 2217925121, -4.994808197021484, 1.6558974981307983, 8.274781227111816, -2.6196672916412354, -1.749091625213623, -2.211528778076172, 0.468505859375, -0.413330078125, -0.73095703125
5, 2217941788, -4.994932651519775, 1.6573078632354736, 8.277929306030273, -2.4767098426818848, -1.6599847078323364, -2.1490724086761475, 0.468017578125, -0.414306640625, -0.73291015625
6, 2217958455, -5.0076680183410645, 1.6627997159957886, 8.293030738830566, -2.4779775142669678, -1.8085384368896484, -2.0811984539031982, 0.468505859375, -0.412353515625, -0.7314453125
7, 2217975122, -4.995214939117432, 1.683801293373108, 8.263175010681152, -2.45255708694458, -1.6760693788528442, -2.114494800567627, 0.468994140625, -0.413818359375, -0.73291015625
8, 2217991789, -5.001057147979736, 1.657304048538208, 8.273514747619629, -2.535004138946533, -1.6830618381500244, -2.2072255611419678, 0.468505859375, -0.412841796875, -0.73193359375
9, 2218008456, -4.999510765075684, 1.6528581380844116, 8.300267219543457, -2.510864496231079, -1.694331407546997, -2.13297438621521, 0.468505859375, -0.413818359375, -0.73193359375
10, 2218025123, -4.999080181121826, 1.6510462760925293, 8.282958030700684, -2.533787727355957, -1.500788927078247, -2.2412776947021484, 0.467529296875, -0.412841796875, -0.73046875
11, 2218041790, -5.007648944854736, 1.6577038764953613, 8.299004554748535, -2.4901177883148193, -1.6180436611175537, -2.2537124156951904, 0.467529296875, -0.414794921875, -0.733642578125
12, 2218058457, -4.99948787689209, 1.6658629179000854, 8.287853240966797, -2.575190544128418, -1.543626308441162, -2.276456832885742, 0.466552734375, -0.413330078125, -0.732666015625
13, 2218075124, -4.974265098571777, 1.67318856716156, 8.278159141540527, -2.5798392295837402, -1.5152984857559204, -2.314056158065796, 0.466064453125, -0.413818359375, -0.733154296875
14, 2218091791, -4.990126132965088, 1.6520620584487915, 8.275638580322266, -2.526641845703125, -1.4531621932983398, -2.2552623748779297, 0.467529296875, -0.413330078125, -0.733154296875
15, 2218108458, -4.998171806335449, 1.6492704153060913, 8.274251937866211, -2.610126256942749, -1.4706045389175415, -2.294257640838623, 0.468994140625, -0.413818359375, -0.733642578125
16, 2218125125, -5.007534027099609, 1.6476356983184814, 8.2831392288208, -2.5927226543426514, -1.459296464920044, -2.2922470569610596, 0.469482421875, -0.414306640625, -0.7314453125
17, 2218141792, -5.0013556480407715, 1.6541016101837158, 8.289572715759277, -2.596372604370117, -1.525607943534851, -2.337428331375122, 0.465087890625, -0.413330078125, -0.732177734375
18, 2218158459, -5.005330562591553, 1.651091456413269, 8.28621768951416, -2.5375144481658936, -1.5342007875442505, -2.3375303745269775, 0.467529296875, -0.415283203125, -0.735107421875
19, 2218175126, -4.9911298751831055, 1.6591509580612183, 8.279227256774902, -2.6301045417785645, -1.5978996753692627, -2.3750405311584473, 0.468017578125, -0.413818359375, -0.734130859375
20, 2218191793, -4.997857093811035, 1.651085376739502, 8.287322998046875, -2.610036849975586, -1.622564673423767, -2.3779218196868896, 0.468994140625, -0.411376953125, -0.735107421875
21, 2218208460, -4.9935431480407715, 1.6522892713546753, 8.279301643371582, -2.6542575359344482, -1.6722278594970703, -2.325159788131714, 0.466552734375, -0.415771484375, -0.732421875
22, 2218225127, -4.9921956062316895, 1.6536900997161865, 8.28416919708252, -2.6633238792419434, -1.5970031023025513, -2.3229310512542725, 0.467041015625, -0.412353515625, -0.732177734375
23, 2218241794, -5.0021891593933105, 1.658213496208191, 8.285406112670898, -2.6240084171295166, -1.6320286989212036, -2.3324849605560303, 0.467529296875, -0.415771484375, -0.732421875
24, 2218258461, -4.985434055328369, 1.6556329727172852, 8.316641807556152, -2.6378777027130127, -1.566716194152832, -2.3369028568267822, 0.465087890625, -0.415283203125, -0.731689453125
25, 2218275128, -4.985937595367432, 1.647541880607605, 8.272994995117188, -2.50740647315979, -1.4219019412994385, -2.3696486949920654, 0.465087890625, -0.415283203125, -0.732177734375
26, 2218291795, -4.982356071472168, 1.6460371017456055, 8.304312705993652, -2.57712459564209, -1.3824583292007446, -2.3911759853363037, 0.468505859375, -0.416259765625, -0.73193359375
27, 2218308462, -4.998271942138672, 1.6542234420776367, 8.305562973022461, -2.545262098312378, -1.3054282665252686, -2.3516812324523926, 0.465576171875, -0.414794921875, -0.732666015625
28, 2218325129, -4.985570430755615, 1.6515530347824097, 8.31578254699707, -2.483497142791748, -1.3289790153503418, -2.3908944129943848, 0.467529296875, -0.412353515625, -0.733154296875
29, 2218341796, -4.995782375335693, 1.654496669769287, 8.297636032104492, -2.4522111415863037, -1.3754276037216187, -2.357969045639038, 0.468017578125, -0.415771484375, -0.732421875
30, 2218358463, -4.9995622634887695, 1.6618285179138184, 8.294858932495117, -2.506702184677124, -1.3164288997650146, -2.339707612991333, 0.468017578125, -0.414306640625, -0.732421875
31, 2218375130, -5.004047870635986, 1.646808385848999, 8.302337646484375, -2.5055880546569824, -1.3632615804672241, -2.257349729537964, 0.468505859375, -0.412841796875, -0.7314453125
32, 2218391797, -4.998494625091553, 1.6407315731048584, 8.290459632873535, -2.3800599575042725, -1.418277621269226, -2.2912352085113525, 0.468994140625, -0.414794921875, -0.734130859375
33, 2218408464, -5.004920482635498, 1.6546478271484375, 8.264392852783203, -2.4212582111358643, -1.400259017944336, -2.269426107406616, 0.468017578125, -0.413330078125, -0.732666015625
34, 2218425131, -4.994533061981201, 1.661378264427185, 8.285861015319824, -2.449662685394287, -1.4385885000228882, -2.2561333179473877, 0.467529296875, -0.413330078125, -0.73193359375
35, 2218441798, -5.003561973571777, 1.6697521209716797, 8.282266616821289, -2.4488046169281006, -1.5292576551437378, -2.289929151535034, 0.467041015625, -0.413818359375, -0.73193359375
36, 2218458465, -5.002388000488281, 1.6439379453659058, 8.2753267288208, -2.4953558444976807, -1.4649568796157837, -2.271308660507202, 0.468505859375, -0.413818359375, -0.734130859375
37, 2218475132, -4.989891529083252, 1.6679474115371704, 8.280609130859375, -2.4528510570526123, -1.4096332788467407, -2.197274923324585, 0.468017578125, -0.415771484375, -0.73193359375
38, 2218491799, -4.995731353759766, 1.6902917623519897, 8.279837608337402, -2.509941816329956, -1.431339979171753, -2.303772449493408, 0.467041015625, -0.413818359375, -0.7314453125
39, 2218508466, -4.989353656768799, 1.656765103340149, 8.323941230773926, -2.5019896030426025, -1.4394466876983643, -2.3678431510925293, 0.465576171875, -0.413818359375, -0.734130859375
40, 2218525133, -4.999046325683594, 1.6538232564926147, 8.286852836608887, -2.5169472694396973, -1.4095052480697632, -2.3143763542175293, 0.468017578125, -0.413330078125, -0.732666015625
41, 2218541800, -4.986879825592041, 1.661678671836853, 8.288392066955566, -2.4143428802490234, -1.282671332359314, -2.229841709136963, 0.466552734375, -0.415283203125, -0.733642578125
42, 2218558467, -4.985346794128418, 1.6478593349456787, 8.283287048339844, -2.479552984237671, -1.185394287109375, -2.3074228763580322, 0.467529296875, -0.409912109375, -0.732666015625
43, 2218575134, -5.003565788269043, 1.6512278318405151, 8.265942573547363, -2.404994249343872, -1.2377722263336182, -2.310701370239258, 0.468994140625, -0.414306640625, -0.733642578125
44, 2218591801, -4.98040246963501, 1.6583539247512817, 8.295019149780273, -2.367125988006592, -1.12351393699646, -2.3155548572540283, 0.469482421875, -0.413330078125, -0.734619140625
45, 2218608468, -5.001163959503174, 1.6616730690002441, 8.292004585266113, -2.3674585819244385, -1.2008769512176514, -2.2040112018585205, 0.466552734375, -0.413330078125, -0.7314453125
46, 2218625135, -5.001304626464844, 1.6617485284805298, 8.259716033935547, -2.4641849994659424, -1.2979108095169067, -2.3523216247558594, 0.465576171875, -0.414306640625, -0.732666015625
47, 2218641802, -5.009317398071289, 1.6472423076629639, 8.293035507202148, -2.5211477279663086, -1.4287149906158447, -2.324096441268921, 0.468017578125, -0.414306640625, -0.73095703125
48, 2218658469, -5.007962226867676, 1.645902395248413, 8.301396369934082, -2.5467355251312256, -1.5632073879241943, -2.356804132461548, 0.467041015625, -0.415283203125, -0.733154296875
49, 2218675136, -4.993223190307617, 1.659756064414978, 8.296765327453613, -2.4925127029418945, -1.5326255559921265, -2.334277629852295, 0.469482421875, -0.414794921875, -0.734130859375
50, 2218691803, -5.002158164978027, 1.6591953039169312, 8.298013687133789, -2.5507819652557373, -1.6074020862579346, -2.3259153366088867, 0.466064453125, -0.414794921875, -0.731689453125
51, 2218708470, -5.004756450653076, 1.6482617855072021, 8.302411079406738, -2.5067660808563232, -1.5222523212432861, -2.341320753097534, 0.468994140625, -0.414794921875, -0.73095703125
52, 2218725137, -5.003735065460205, 1.633924961090088, 8.297659873962402, -2.4668872356414795, -1.54868483543396, -2.2524192333221436, 0.466552734375, -0.414306640625, -0.732666015625
53, 2218741804, -4.98150634765625, 1.6393905878067017, 8.285728454589844, -2.4199905395507812, -1.468106985092163, -2.218367099761963, 0.467041015625, -0.414794921875, -0.73193359375
54, 2218758471, -4.9837646484375, 1.6710143089294434, 8.269251823425293, -2.3886404037475586, -1.4607690572738647, -2.2643930912017822, 0.467529296875, -0.414306640625, -0.7314453125
55, 2218775138, -4.985585689544678, 1.6519484519958496, 8.295873641967773, -2.4324636459350586, -1.401283621788025, -2.251189708709717, 0.469482421875, -0.414306640625, -0.73291015625
56, 2218791805, -4.9918951988220215, 1.6599200963974, 8.248761177062988, -2.454413890838623, -1.4510362148284912, -2.2925546169281006, 0.465087890625, -0.413330078125, -0.734130859375
57, 2218808472, -5.015240669250488, 1.6351908445358276, 8.316909790039062, -2.4375221729278564, -1.2752817869186401, -2.245849370956421, 0.467041015625, -0.413818359375, -0.733642578125
58, 2218825139, -5.00112771987915, 1.6949869394302368, 8.252923011779785, -2.5482590198516846, -1.5597494840621948, -2.2832953929901123, 0.467529296875, -0.415771484375, -0.73193359375
59, 2218841806, -5.006964206695557, 1.6727746725082397, 8.301859855651855, -2.5431361198425293, -1.4790180921554565, -2.319319725036621, 0.468994140625, -0.414794921875, -0.732421875
60, 2218858473, -4.988378047943115, 1.6494872570037842, 8.297575950622559, -2.571425437927246, -1.544356107711792, -2.33115291595459, 0.465576171875, -0.411865234375, -0.733642578125
61, 2218875140, -5.002383232116699, 1.6444902420043945, 8.279695510864258, -2.587228536605835, -1.5690468549728394, -2.363680839538574, 0.468017578125, -0.413818359375, -0.732421875
62, 2218891807, -4.991901397705078, 1.6732800006866455, 8.277947425842285, -2.615095376968384, -1.5855543613433838, -2.368983030319214, 0.466552734375, -0.415283203125, -0.732421875
63, 2218908474, -4.992195129394531, 1.6459319591522217, 8.293767929077148, -2.6670124530792236, -1.6808977127075195, -2.2986888885498047, 0.467041015625, -0.414794921875, -0.732666015625
64, 2218925141, -4.999378204345703, 1.6477442979812622, 8.29969310760498, -2.5462231636047363, -1.6322975158691406, -2.355395555496216, 0.466552734375, -0.414306640625, -0.733154296875
65, 2218941808, -4.984989643096924, 1.666698694229126, 8.27023696899414, -2.69801664352417, -1.6340136528015137, -2.3324849605560303, 0.468505859375, -0.414306640625, -0.7314453125
66, 2218958475, -5.001288414001465, 1.65985107421875, 8.286388397216797, -2.793987274169922, -1.6267396211624146, -2.4524803161621094, 0.466064453125, -0.415283203125, -0.732177734375
67, 2218975142, -4.990213394165039, 1.6410155296325684, 8.312067985534668, -2.8405375480651855, -1.6937165260314941, -2.426265239715576, 0.467041015625, -0.413330078125, -0.733642578125
68, 2218991809, -4.996350288391113, 1.6531963348388672, 8.296085357666016, -2.8997929096221924, -1.6144963502883911, -2.5171520709991455, 0.467041015625, -0.413330078125, -0.732666015625
69, 2219008476, -5.005978107452393, 1.6469396352767944, 8.287386894226074, -2.8991522789001465, -1.7516652345657349, -2.483893871307373, 0.468017578125, -0.414306640625, -0.733642578125
70, 2219025143, -5.002701759338379, 1.6417832374572754, 8.307406425476074, -2.9897830486297607, -1.7891494035720825, -2.521634101867676, 0.466064453125, -0.413818359375, -0.731689453125
71, 2219041810, -4.994659900665283, 1.6508433818817139, 8.316145896911621, -2.7763912677764893, -1.6104627847671509, -2.4034576416015625, 0.465576171875, -0.413818359375, -0.734130859375
72, 2219058477, -4.994912624359131, 1.64094078540802, 8.290571212768555, -2.664796829223633, -1.557137131690979, -2.299675226211548, 0.467041015625, -0.413330078125, -0.733154296875
73, 2219075144, -4.976733207702637, 1.6359474658966064, 8.286628723144531, -2.663477659225464, -1.5839279890060425, -2.285088300704956, 0.465576171875, -0.413330078125, -0.733154296875
74, 2219091811, -4.987771511077881, 1.646114706993103, 8.291484832763672, -2.5865631103515625, -1.693204641342163, -2.247309923171997, 0.466552734375, -0.413818359375, -0.732177734375
75, 2219108478, -4.993042469024658, 1.6332333087921143, 8.305342674255371, -2.5178568363189697, -1.87730872631073, -2.247527599334717, 0.466064453125, -0.413818359375, -0.732666015625
76, 2219125145, -4.985769271850586, 1.6533281803131104, 8.292729377746582, -2.413087844848633, -1.9167908430099487, -2.2620625495910645, 0.465576171875, -0.411865234375, -0.734130859375
77, 2219141812, -4.9805779457092285, 1.6452716588974, 8.28686809539795, -2.449687957763672, -1.800060510635376, -2.216881513595581, 0.466064453125, -0.412353515625, -0.731689453125
78, 2219158479, -4.983768463134766, 1.643906593322754, 8.295455932617188, -2.4472808837890625, -1.6745840311050415, -2.160956382751465, 0.466064453125, -0.412841796875, -0.733642578125
79, 2219175146, -4.970370769500732, 1.6652677059173584, 8.28918170928955, -2.477810859680176, -1.3878751993179321, -2.1712396144866943, 0.466552734375, -0.412841796875, -0.731689453125
80, 2219191813, -4.976317405700684, 1.6636263132095337, 8.293947219848633, -2.4010496139526367, -1.1634567975997925, -2.174492597579956, 0.467041015625, -0.413818359375, -0.734130859375
81, 2219208480, -4.985632419586182, 1.657365083694458, 8.302543640136719, -2.5072526931762695, -1.3023290634155273, -2.3013908863067627, 0.466064453125, -0.411376953125, -0.732666015625
82, 2219225147, -4.980639457702637, 1.6507576704025269, 8.309171676635742, -2.4877231121063232, -1.3519407510757446, -2.2509207725524902, 0.466064453125, -0.413818359375, -0.732177734375
83, 2219241814, -4.985032081604004, 1.6485968828201294, 8.29675579071045, -2.5419065952301025, -1.3424383401870728, -2.233760356903076, 0.465087890625, -0.414794921875, -0.734130859375
84, 2219258481, -4.991967678070068, 1.6361870765686035, 8.286052703857422, -2.545607805252075, -1.4247832298278809, -2.314760208129883, 0.464599609375, -0.413330078125, -0.731689453125
85, 2219275148, -4.988780498504639, 1.6581790447235107, 8.281822204589844, -2.567878484725952, -1.4689780473709106, -2.2467591762542725, 0.465087890625, -0.415771484375, -0.734130859375
86, 2219291815, -4.979168891906738, 1.6485990285873413, 8.301915168762207, -2.5202383995056152, -1.4199168682098389, -2.3522446155548096, 0.467529296875, -0.414794921875, -0.733154296875
87, 2219308482, -4.983273506164551, 1.639824628829956, 8.30200481414795, -2.4880306720733643, -1.3629671335220337, -2.3149397373199463, 0.465087890625, -0.414306640625, -0.734619140625
88, 2219325149, -4.980896949768066, 1.6421422958374023, 8.321693420410156, -2.4794886112213135, -1.31558358669281, -2.31203293800354, 0.468994140625, -0.412841796875, -0.73291015625
89, 2219341816, -4.98153018951416, 1.642319917678833, 8.301148414611816, -2.4927432537078857, -1.434464931488037, -2.301006555557251, 0.467529296875, -0.413330078125, -0.733642578125
90, 2219358483, -4.975983619689941, 1.6399855613708496, 8.296185493469238, -2.442113161087036, -1.3456975221633911, -2.372318744659424, 0.465087890625, -0.414306640625, -0.732666015625
91, 2219375150, -4.980162620544434, 1.6499546766281128, 8.285537719726562, -2.4555792808532715, -1.3294657468795776, -2.2954742908477783, 0.465576171875, -0.411376953125, -0.732177734375
92, 2219391817, -4.986127853393555, 1.6464715003967285, 8.301460266113281, -2.421476125717163, -1.3381741046905518, -2.302300453186035, 0.467529296875, -0.412841796875, -0.732666015625
93, 2219408484, -4.980257034301758, 1.6517220735549927, 8.304769515991211, -2.4726760387420654, -1.3432070016860962, -2.3208439350128174, 0.467041015625, -0.412841796875, -0.736572265625
94, 2219425151, -4.978488922119141, 1.6507753133773804, 8.290919303894043, -2.465529680252075, -1.2800586223602295, -2.242366313934326, 0.466064453125, -0.413330078125, -0.734130859375
95, 2219441818, -4.981945991516113, 1.6602293252944946, 8.312857627868652, -2.4719841480255127, -1.3693702220916748, -2.331639528274536, 0.465087890625, -0.414794921875, -0.733642578125
96, 2219458485, -4.977423191070557, 1.643023133277893, 8.300315856933594, -2.5551486015319824, -1.390231728553772, -2.3575849533081055, 0.464599609375, -0.413330078125, -0.734619140625
97, 2219475152, -4.976711273193359, 1.6582218408584595, 8.286635398864746, -2.584334373474121, -1.3453967571258545, -2.4239988327026367, 0.466064453125, -0.411865234375, -0.736083984375
98, 2219491819, -4.989542484283447, 1.6553138494491577, 8.307990074157715, -2.450751304626465, -1.231061577796936, -2.3765130043029785, 0.465087890625, -0.413818359375, -0.734130859375
99, 2219508486, -4.995224952697754, 1.641068935394287, 8.288656234741211, -2.506791830062866, -1.1058924198150635, -2.4347307682037354, 0.466552734375, -0.412841796875, -0.734619140625
100, 2219525153, -5.007618427276611, 1.650164246559143, 8.303458213806152, -2.431605815887451, -1.2689173221588135, -2.333714246749878, 0.466064453125, -0.413818359375, -0.731689453125
101, 2219541820, -4.9953389167785645, 1.6574243307113647, 8.309191703796387, -2.509032964706421, -1.347855567932129, -2.349888324737549, 0.465576171875, -0.414794921875, -0.733642578125
102, 2219558487, -4.988668918609619, 1.6488897800445557, 8.292157173156738, -2.461726188659668, -1.4427889585494995, -2.288264036178589, 0.466064453125, -0.415283203125, -0.734130859375
103, 2219575154, -4.9739670753479, 1.6468629837036133, 8.308541297912598, -2.400947093963623, -1.4514076709747314, -2.3478009700775146, 0.466552734375, -0.414794921875, -0.732666015625
104, 2219591821, -4.990651607513428, 1.6548678874969482, 8.308159828186035, -2.4969310760498047, -1.3824199438095093, -2.3731961250305176, 0.465087890625, -0.415283203125, -0.732177734375
105, 2219608488, -4.987670421600342, 1.649634838104248, 8.300869941711426, -2.597460985183716, -1.500417709350586, -2.3706860542297363, 0.465087890625, -0.413330078125, -0.732177734375
106, 2219625155, -4.983304500579834, 1.6299123764038086, 8.31529712677002, -2.582759380340576, -1.5077815055847168, -2.4422736167907715, 0.467041015625, -0.413330078125, -0.734619140625
107, 2219641822, -4.998035907745361, 1.655879020690918, 8.322586059570312, -2.508558750152588, -1.3700231313705444, -2.3484411239624023, 0.467041015625, -0.414794921875, -0.733154296875
108, 2219658489, -4.98893928527832, 1.6452524662017822, 8.299212455749512, -2.5456974506378174, -1.4784034490585327, -2.3944032192230225, 0.466064453125, -0.414306640625, -0.734130859375
109, 2219675156, -4.9874372482299805, 1.6382575035095215, 8.299816131591797, -2.5155513286590576, -1.4205827713012695, -2.3772687911987305, 0.468017578125, -0.415283203125, -0.734130859375
110, 2219691823, -4.975015163421631, 1.6412639617919922, 8.296737670898438, -2.4702811241149902, -1.3738781213760376, -2.3210487365722656, 0.466064453125, -0.413818359375, -0.733642578125
111, 2219708490, -4.9774699211120605, 1.6484365463256836, 8.28961181640625, -2.4874796867370605, -1.3094878196716309, -2.311981678009033, 0.468017578125, -0.413330078125, -0.732666015625
112, 2219725157, -4.99287748336792, 1.6465859413146973, 8.306440353393555, -2.585294723510742, -1.3159165382385254, -2.3775758743286133, 0.466552734375, -0.412353515625, -0.734619140625
113, 2219741824, -4.996870517730713, 1.6419991254806519, 8.323164939880371, -2.5673274993896484, -1.444812536239624, -2.317629098892212, 0.465576171875, -0.414306640625, -0.733154296875
114, 2219758491, -4.989442825317383, 1.6535741090774536, 8.29765510559082, -2.6143908500671387, -1.551284670829773, -2.36902117729187, 0.466552734375, -0.413330078125, -0.733642578125
115, 2219775158, -5.00155782699585, 1.6462552547454834, 8.264763832092285, -2.6524386405944824, -1.6116280555725098, -2.3628616333007812, 0.466552734375, -0.415771484375, -0.734619140625
116, 2219791825, -4.988607406616211, 1.64656400680542, 8.299067497253418, -2.5976145267486572, -1.5904334783554077, -2.3187179565429688, 0.467041015625, -0.411865234375, -0.732666015625
117, 2219808492, -4.981977939605713, 1.6436861753463745, 8.309087753295898, -2.577726125717163, -1.5419869422912598, -2.3054375648498535, 0.466064453125, -0.412353515625, -0.732666015625
118, 2219825159, -4.987952709197998, 1.6426676511764526, 8.321288108825684, -2.5351452827453613, -1.5933661460876465, -2.2285993099212646, 0.466064453125, -0.411376953125, -0.732177734375
119, 2219841826, -4.98380184173584, 1.6415414810180664, 8.30517292022705, -2.419003963470459, -1.514107346534729, -2.3204333782196045, 0.465087890625, -0.411376953125, -0.733154296875
120, 2219858493, -4.982762336730957, 1.6531180143356323, 8.291219711303711, -2.5446088314056396, -1.4861512184143066, -2.3275797367095947, 0.465576171875, -0.412841796875, -0.735595703125
121, 2219875160, -4.972388744354248, 1.6435340642929077, 8.311288833618164, -2.588944673538208, -1.5301668643951416, -2.316899299621582, 0.466064453125, -0.412841796875, -0.734619140625
122, 2219891827, -4.978724956512451, 1.6408089399337769, 8.29398250579834, -2.5726423263549805, -1.551976203918457, -2.3435754776000977, 0.467041015625, -0.415771484375, -0.734619140625
123, 2219908494, -4.984227180480957, 1.636313796043396, 8.302667617797852, -2.190218925476074, -1.6435413360595703, -2.256696939468384, 0.465576171875, -0.413818359375, -0.735107421875
124, 2219925161, -5.002967834472656, 1.6438329219818115, 8.321823120117188, -1.7767785787582397, -1.6920260190963745, -2.1291451454162598, 0.464599609375, -0.411865234375, -0.734130859375
125, 2219941828, -4.999146938323975, 1.6491812467575073, 8.287610054016113, -1.85738205909729, -1.8259936571121216, -2.171534776687622, 0.468017578125, -0.414794921875, -0.73193359375
126, 2219958495, -4.99393892288208, 1.652266025543213, 8.298311233520508, -2.1442439556121826, -1.7862296104431152, -2.226755380630493, 0.465576171875, -0.414794921875, -0.735595703125
127, 2219975162, -4.978869438171387, 1.6316009759902954, 8.318275451660156, -2.566213846206665, -1.8005857467651367, -2.286318063735962, 0.466064453125, -0.413818359375, -0.734130859375
128, 2219991829, -5.005309104919434, 1.6381417512893677, 8.316122055053711, -2.75462007522583, -1.8304628133773804, -2.4269185066223145, 0.465087890625, -0.413818359375, -0.731201171875
129, 2220008496, -4.936555862426758, 1.6745473146438599, 8.301928520202637, -2.6047861576080322, -1.8070147037506104, -2.3810336589813232, 0.464599609375, -0.414306640625, -0.734130859375
130, 2220025163, -4.970306873321533, 1.6672641038894653, 8.291128158569336, -2.7874810695648193, -1.8524256944656372, -2.4322714805603027, 0.465087890625, -0.414306640625, -0.733154296875
131, 2220041830, -4.985687732696533, 1.650093674659729, 8.309080123901367, -2.718071222305298, -1.649214744567871, -2.4370105266571045, 0.465576171875, -0.414306640625, -0.732177734375
132, 2220058497, -4.967770099639893, 1.6573247909545898, 8.309845924377441, -2.5656497478485107, -1.7393330335617065, -2.4007551670074463, 0.465576171875, -0.414306640625, -0.734619140625
133, 2220075164, -4.983377456665039, 1.6323866844177246, 8.3070068359375, -2.577828884124756, -1.645808219909668, -2.3880131244659424, 0.466552734375, -0.414306640625, -0.735595703125
134, 2220091831, -4.964809894561768, 1.6436201333999634, 8.297926902770996, -2.3391568660736084, -1.633731722831726, -2.366088628768921, 0.466064453125, -0.412353515625, -0.734619140625
135, 2220108498, -4.979860782623291, 1.6556354761123657, 8.310087203979492, -2.4050965309143066, -1.6996972560882568, -2.3968236446380615, 0.464111328125, -0.414306640625, -0.732666015625
136, 2220125165, -4.968545913696289, 1.653559923171997, 8.327911376953125, -2.26997709274292, -1.9884166717529297, -2.4282636642456055, 0.463134765625, -0.413818359375, -0.735107421875
137, 2220141832, -4.9526472091674805, 1.7057029008865356, 8.263937950134277, -2.171534776687622, -2.2519969940185547, -2.393904209136963, 0.463623046875, -0.413330078125, -0.732666015625
138, 2220158499, -4.964358329772949, 1.6138361692428589, 8.321307182312012, -2.315324306488037, -1.6138179302215576, -2.4116790294647217, 0.465087890625, -0.416259765625, -0.733642578125
139, 2220175166, -4.980035781860352, 1.6162973642349243, 8.325005531311035, -2.0986404418945312, -1.4818098545074463, -2.2313907146453857, 0.466552734375, -0.411376953125, -0.733154296875
140, 2220191833, -4.972545623779297, 1.6592278480529785, 8.309122085571289, -1.7922868728637695, -1.697174310684204, -2.1026487350463867, 0.462646484375, -0.414306640625, -0.733154296875
141, 2220208500, -4.956429481506348, 1.6486736536026, 8.302519798278809, -1.6921796798706055, -1.777841329574585, -2.1521196365356445, 0.463134765625, -0.413330078125, -0.734619140625
142, 2220225167, -4.945223808288574, 1.6652483940124512, 8.31436538696289, -2.0968480110168457, -1.691603660583496, -2.2494866847991943, 0.462646484375, -0.415283203125, -0.734130859375
143, 2220241834, -4.964596271514893, 1.6626466512680054, 8.295077323913574, -1.9951138496398926, -1.6967772245407104, -2.2060859203338623, 0.464111328125, -0.413818359375, -0.735107421875
144, 2220258501, -4.95837926864624, 1.652130365371704, 8.32813549041748, -2.107515811920166, -1.6868653297424316, -2.2328639030456543, 0.465087890625, -0.413818359375, -0.734130859375
145, 2220275168, -4.942615032196045, 1.688789963722229, 8.300094604492188, -2.3009939193725586, -1.61155104637146, -2.2417643070220947, 0.464599609375, -0.415283203125, -0.735107421875
146, 2220291835, -4.963163375854492, 1.659958004951477, 8.305699348449707, -2.46175217628479, -1.5600697994232178, -2.3530516624450684, 0.466064453125, -0.416259765625, -0.733154296875
147, 2220308502, -4.971832275390625, 1.6675472259521484, 8.296459197998047, -2.5108001232147217, -1.5399123430252075, -2.243800401687622, 0.465087890625, -0.413330078125, -0.736083984375
148, 2220325169, -4.954352378845215, 1.661611557006836, 8.302753448486328, -2.602839708328247, -1.4821559190750122, -2.3716979026794434, 0.465576171875, -0.414794921875, -0.733642578125
149, 2220341836, -4.961796760559082, 1.6581116914749146, 8.30968189239502, -2.6010725498199463, -1.3301315307617188, -2.3063852787017822, 0.464111328125, -0.414794921875, -0.735107421875
150, 2220358503, -4.9608025550842285, 1.6521488428115845, 8.309659957885742, -2.3921751976013184, -1.2578014135360718, -2.203294515609741, 0.466064453125, -0.414794921875, -0.734619140625
151, 2220375170, -4.968946933746338, 1.6617377996444702, 8.321878433227539, -2.310790538787842, -1.4089288711547852, -2.173570394515991, 0.463623046875, -0.414306640625, -0.734130859375
152, 2220391837, -4.964620590209961, 1.682310938835144, 8.310629844665527, -2.541714906692505, -1.3894379138946533, -2.297574758529663, 0.465576171875, -0.414306640625, -0.735107421875
153, 2220408504, -4.9558892250061035, 1.6750798225402832, 8.287997245788574, -2.7027804851531982, -1.3993244171142578, -2.4130754470825195, 0.464111328125, -0.414306640625, -0.735595703125
154, 2220425171, -4.966155529022217, 1.658757209777832, 8.309675216674805, -2.786508560180664, -1.2566872835159302, -2.3307178020477295, 0.467041015625, -0.415283203125, -0.735107421875
155, 2220441838, -4.96372127532959, 1.6552153825759888, 8.29169750213623, -2.748204469680786, -1.207907795906067, -2.321484088897705, 0.463134765625, -0.416259765625, -0.732666015625
156, 2220458505, -4.974680423736572, 1.6622726917266846, 8.310916900634766, -2.8419599533081055, -1.2507067918777466, -2.365832567214966, 0.467041015625, -0.415771484375, -0.734619140625
157, 2220475172, -4.968092918395996, 1.6626607179641724, 8.311735153198242, -2.938058853149414, -1.2779457569122314, -2.4592037200927734, 0.466552734375, -0.414794921875, -0.736083984375
158, 2220491839, -4.9518961906433105, 1.6541246175765991, 8.325883865356445, -3.1384263038635254, -1.1775822639465332, -2.5130667686462402, 0.465087890625, -0.415771484375, -0.732666015625
159, 2220508506, -4.9709930419921875, 1.6617333889007568, 8.306928634643555, -3.2365100383758545, -1.1156505346298218, -2.5683517456054688, 0.465087890625, -0.411376953125, -0.732177734375
160, 2220525173, -4.968131065368652, 1.656675934791565, 8.297584533691406, -3.0926692485809326, -1.1128077507019043, -2.602365493774414, 0.464599609375, -0.412353515625, -0.734130859375
161, 2220541840, -4.965667247772217, 1.6347084045410156, 8.324504852294922, -2.9570505619049072, -1.0213193893432617, -2.4920010566711426, 0.465576171875, -0.413330078125, -0.733154296875
162, 2220558507, -4.978085994720459, 1.6432393789291382, 8.322440147399902, -2.991333246231079, -1.1127312183380127, -2.4590885639190674, 0.464111328125, -0.413330078125, -0.736083984375
163, 2220575174, -4.980924129486084, 1.6551531553268433, 8.30691146850586, -3.0210046768188477, -1.2191132307052612, -2.549820899963379, 0.465576171875, -0.414306640625, -0.734130859375
164, 2220591841, -4.969461441040039, 1.6496782302856445, 8.317423820495605, -2.7920408248901367, -1.2690069675445557, -2.521775722503662, 0.467041015625, -0.414306640625, -0.734130859375
165, 2220608508, -4.99021053314209, 1.6467641592025757, 8.302428245544434, -2.77213978767395, -1.2189981937408447, -2.4712932109832764, 0.466064453125, -0.412353515625, -0.735595703125
166, 2220625175, -4.969133377075195, 1.6456753015518188, 8.290911674499512, -2.8219950199127197, -1.2349165678024292, -2.3972339630126953, 0.466064453125, -0.413818359375, -0.734619140625
167, 2220641842, -4.9752960205078125, 1.6496295928955078, 8.302793502807617, -2.743875741958618, -1.2505015134811401, -2.454221725463867, 0.464599609375, -0.413330078125, -0.733154296875
168, 2220658509, -4.971811294555664, 1.6403075456619263, 8.303753852844238, -2.769603967666626, -1.3243046998977661, -2.5187790393829346, 0.465087890625, -0.413330078125, -0.735595703125
169, 2220675176, -4.968471050262451, 1.63137686252594, 8.313243865966797, -2.7783119678497314, -1.3470743894577026, -2.4412875175476074, 0.465087890625, -0.414306640625, -0.733642578125
170, 2220691843, -4.975395202636719, 1.6365545988082886, 8.30117416381836, -2.7568745613098145, -1.4202371835708618, -2.483458995819092, 0.466064453125, -0.413330078125, -0.736083984375
171, 2220708510, -4.979475975036621, 1.6392462253570557, 8.30674934387207, -2.7101314067840576, -1.4461188316345215, -2.4564759731292725, 0.465576171875, -0.412841796875, -0.735595703125
172, 2220725177, -4.975456714630127, 1.6403803825378418, 8.285825729370117, -2.7206966876983643, -1.4123998880386353, -2.4947798252105713, 0.466064453125, -0.412841796875, -0.734619140625
173, 2220741844, -4.948502540588379, 1.638668179512024, 8.31418514251709, -2.7056360244750977, -1.3623394966125488, -2.4397122859954834, 0.464599609375, -0.411376953125, -0.737548828125
174, 2220758511, -4.9652252197265625, 1.6309583187103271, 8.304855346679688, -2.6347532272338867, -1.3731354475021362, -2.4064033031463623, 0.464599609375, -0.413330078125, -0.736083984375
175, 2220775178, -4.97020959854126, 1.6438319683074951, 8.322857856750488, -2.5254251956939697, -1.2421008348464966, -2.471343994140625, 0.464111328125, -0.413330078125, -0.738037109375
176, 2220791845, -4.977752685546875, 1.6392114162445068, 8.31779956817627, -2.5277044773101807, -1.2082533836364746, -2.403252363204956, 0.466064453125, -0.414306640625, -0.734130859375
177, 2220808512, -4.9775238037109375, 1.6391855478286743, 8.306746482849121, -2.488529920578003, -1.199583649635315, -2.480462074279785, 0.465087890625, -0.410888671875, -0.735595703125
178, 2220825179, -4.983882904052734, 1.6467597484588623, 8.319275856018066, -2.473431348800659, -1.1545052528381348, -2.446371555328369, 0.466552734375, -0.411865234375, -0.735595703125
179, 2220841846, -4.980309963226318, 1.6463488340377808, 8.319038391113281, -2.4810638427734375, -1.1104003190994263, -2.373541831970215, 0.466064453125, -0.411865234375, -0.733642578125
180, 2220858513, -4.967763900756836, 1.630491018295288, 8.312503814697266, -2.454785108566284, -1.111629605293274, -2.369302749633789, 0.465576171875, -0.412841796875, -0.734130859375
181, 2220875180, -4.976714134216309, 1.6428577899932861, 8.298580169677734, -2.2650206089019775, -1.1656084060668945, -2.3986165523529053, 0.466064453125, -0.411865234375, -0.732666015625
182, 2220891847, -4.973962306976318, 1.6474977731704712, 8.302846908569336, -2.3430752754211426, -1.094558596611023, -2.3335089683532715, 0.467041015625, -0.411376953125, -0.734619140625
183, 2220908514, -5.006689071655273, 1.6364120244979858, 8.27866268157959, -2.496073007583618, -1.2954519987106323, -2.4182872772216797, 0.464599609375, -0.413330078125, -0.736572265625
184, 2220925181, -4.96605110168457, 1.6300182342529297, 8.313617706298828, -2.324160575866699, -1.3049287796020508, -2.2897753715515137, 0.466552734375, -0.412841796875, -0.732666015625
185, 2220941848, -4.984246730804443, 1.64469313621521, 8.309662818908691, -2.350400686264038, -1.2917125225067139, -2.3263373374938965, 0.466064453125, -0.413818359375, -0.734130859375
186, 2220958515, -4.977483749389648, 1.6406452655792236, 8.302783966064453, -2.4579739570617676, -1.398504614830017, -2.2874832153320312, 0.465087890625, -0.413330078125, -0.735595703125
187, 2220975182, -4.9823994636535645, 1.6351253986358643, 8.328619956970215, -2.362797260284424, -1.4694774150848389, -2.271923303604126, 0.465576171875, -0.413330078125, -0.736083984375
188, 2220991849, -4.972504138946533, 1.6462295055389404, 8.30263900756836, -2.421334743499756, -1.475432276725769, -2.3155670166015625, 0.467041015625, -0.412841796875, -0.735107421875
189, 2221008516, -4.9780097007751465, 1.6280255317687988, 8.308577537536621, -2.4947028160095215, -1.4888406991958618, -2.352168083190918, 0.467529296875, -0.411865234375, -0.734619140625
190, 2221025183, -4.974826335906982, 1.6368978023529053, 8.319546699523926, -2.512349843978882, -1.4145253896713257, -2.3364803791046143, 0.465087890625, -0.413330078125, -0.733642578125
191, 2221041850, -4.973334312438965, 1.6420148611068726, 8.290667533874512, -2.662747621536255, -1.531741976737976, -2.3764233589172363, 0.466552734375, -0.412353515625, -0.734130859375
192, 2221058517, -4.970454692840576, 1.6424567699432373, 8.324250221252441, -2.6971709728240967, -1.4642908573150635, -2.419952154159546, 0.465087890625, -0.413330078125, -0.735595703125
193, 2221075184, -4.976696491241455, 1.6515343189239502, 8.316089630126953, -2.475480318069458, -1.213184118270874, -2.4267780780792236, 0.466064453125, -0.412353515625, -0.734130859375
194, 2221091851, -4.975351333618164, 1.6558587551116943, 8.29241943359375, -2.474263906478882, -1.3060429096221924, -2.260051965713501, 0.465576171875, -0.411865234375, -0.734130859375
195, 2221108518, -4.965994358062744, 1.6443169116973877, 8.29965591430664, -2.365255832672119, -1.2144389152526855, -2.3656017780303955, 0.466064453125, -0.413818359375, -0.732666015625
196, 2221125185, -4.971792221069336, 1.6404266357421875, 8.307894706726074, -2.4574620723724365, -1.1750339269638062, -2.37475848197937, 0.464599609375, -0.409423828125, -0.734619140625
197, 2221141852, -4.982481479644775, 1.6450194120407104, 8.315459251403809, -2.446512222290039, -1.3400051593780518, -2.4424779415130615, 0.466064453125, -0.411865234375, -0.733154296875
198, 2221158519, -4.995759010314941, 1.6401588916778564, 8.285954475402832, -2.5046534538269043, -1.2980005741119385, -2.404853343963623, 0.468017578125, -0.413330078125, -0.733154296875
199, 2221175186, -4.982122898101807, 1.64180326461792, 8.302302360534668, -2.5558016300201416, -1.2766650915145874, -2.4372406005859375, 0.464111328125, -0.414306640625, -0.732666015625
200, 2221191853, -4.994078159332275, 1.6171163320541382, 8.324941635131836, -2.6290924549102783, -1.3666808605194092, -2.4622514247894287, 0.466552734375, -0.411865234375, -0.735107421875
201, 2221208520, -4.973761081695557, 1.6369727849960327, 8.308517456054688, -2.5563910007476807, -1.1898764371871948, -2.4044950008392334, 0.465087890625, -0.411865234375, -0.734619140625
202, 2221225187, -4.979501247406006, 1.6416772603988647, 8.324891090393066, -2.5302016735076904, -1.383943796157837, -2.4080934524536133, 0.467041015625, -0.411865234375, -0.734130859375
203, 2221241854, -4.986794471740723, 1.6299586296081543, 8.318070411682129, -2.550832986831665, -1.2907264232635498, -2.3857078552246094, 0.466552734375, -0.413818359375, -0.735107421875
204, 2221258521, -4.974545955657959, 1.620392918586731, 8.289754867553711, -2.562653064727783, -1.3033406734466553, -2.419644594192505, 0.467041015625, -0.413818359375, -0.732666015625
205, 2221275188, -4.978627681732178, 1.6590875387191772, 8.272244453430176, -2.750778913497925, -1.4559413194656372, -2.419811487197876, 0.467529296875, -0.412353515625, -0.735107421875
206, 2221291855, -4.993947982788086, 1.624943494796753, 8.287849426269531, -2.657573699951172, -1.560287356376648, -2.3918421268463135, 0.467041015625, -0.414306640625, -0.732177734375
207, 2221308522, -4.97052526473999, 1.6265888214111328, 8.294448852539062, -2.4968795776367188, -1.5033119916915894, -2.254686117172241, 0.465087890625, -0.412841796875, -0.735595703125
208, 2221325189, -4.983696937561035, 1.6360896825790405, 8.307887077331543, -2.487684726715088, -1.3910771608352661, -2.2307639122009277, 0.467041015625, -0.412353515625, -0.733642578125
209, 2221341856, -4.97984504699707, 1.6386908292770386, 8.294553756713867, -2.48577618598938, -1.4730502367019653, -2.257323980331421, 0.467041015625, -0.411376953125, -0.732177734375
210, 2221358523, -4.977396488189697, 1.65523362159729, 8.298029899597168, -2.403303384780884, -1.4037550687789917, -2.207174301147461, 0.466552734375, -0.411865234375, -0.735595703125
211, 2221375190, -4.967615127563477, 1.6430187225341797, 8.269315719604492, -2.510556936264038, -1.4948084354400635, -2.2669034004211426, 0.467529296875, -0.411376953125, -0.734619140625
212, 2221391857, -4.995996952056885, 1.635062336921692, 8.326627731323242, -2.5671613216400146, -1.5436903238296509, -2.3038878440856934, 0.466552734375, -0.410888671875, -0.735107421875
213, 2221408524, -4.9723052978515625, 1.6376444101333618, 8.318324089050293, -2.6103315353393555, -1.4642270803451538, -2.421694040298462, 0.464599609375, -0.412353515625, -0.734130859375
214, 2221425191, -4.977558135986328, 1.6302838325500488, 8.28574275970459, -2.625340223312378, -1.498010277748108, -2.4330661296844482, 0.467529296875, -0.412841796875, -0.735107421875
215, 2221441858, -4.979085922241211, 1.6383482217788696, 8.318626403808594, -2.517421007156372, -1.4478987455368042, -2.2912354469299316, 0.466064453125, -0.414794921875, -0.735595703125
216, 2221458525, -4.9775471687316895, 1.642921805381775, 8.310406684875488, -2.476466417312622, -1.4484751224517822, -2.318243980407715, 0.465576171875, -0.411865234375, -0.734619140625
217, 2221475192, -4.971380233764648, 1.6339101791381836, 8.315446853637695, -2.7035746574401855, -1.5933918952941895, -2.360159397125244, 0.464111328125, -0.412841796875, -0.732666015625
218, 2221491859, -4.9881110191345215, 1.638869047164917, 8.296209335327148, -2.632678747177124, -1.5971568822860718, -2.3150041103363037, 0.466064453125, -0.411376953125, -0.734130859375
219, 2221508526, -4.97081995010376, 1.654535174369812, 8.299599647521973, -2.7235138416290283, -1.7929917573928833, -2.351578950881958, 0.466552734375, -0.411865234375, -0.734619140625
220, 2221525193, -4.988335609436035, 1.6268932819366455, 8.300298690795898, -2.563652276992798, -1.806515097618103, -2.3341240882873535, 0.466552734375, -0.413330078125, -0.735595703125
221, 2221541860, -4.966733455657959, 1.644740104675293, 8.32172966003418, -2.744913101196289, -1.7295360565185547, -2.495112419128418, 0.467529296875, -0.411865234375, -0.735595703125
222, 2221558527, -4.9946370124816895, 1.6045100688934326, 8.301959037780762, -2.6228177547454834, -1.7753574848175049, -2.404572010040283, 0.466064453125, -0.411376953125, -0.734619140625
223, 2221575194, -4.9789814949035645, 1.6293323040008545, 8.300324440002441, -2.5158207416534424, -1.721596360206604, -2.2793128490448, 0.465087890625, -0.410888671875, -0.732666015625
224, 2221591861, -4.976145267486572, 1.6340879201889038, 8.28941535949707, -2.401677370071411, -1.8515549898147583, -2.0703771114349365, 0.464111328125, -0.411376953125, -0.736572265625
225, 2221608528, -4.947953224182129, 1.6454352140426636, 8.300094604492188, -2.562563896179199, -1.8048759698867798, -2.1867101192474365, 0.464111328125, -0.412353515625, -0.736083984375
226, 2221625195, -4.962769031524658, 1.6520771980285645, 8.313304901123047, -2.748677968978882, -1.819398045539856, -2.4331421852111816, 0.466552734375, -0.410400390625, -0.735107421875
227, 2221641862, -4.947545051574707, 1.659155011177063, 8.289359092712402, -3.060615301132202, -1.7872540950775146, -2.671135663986206, 0.466064453125, -0.413330078125, -0.735107421875
228, 2221658529, -4.963133335113525, 1.6364338397979736, 8.319535255432129, -2.842292308807373, -1.5843629837036133, -2.615812063217163, 0.465087890625, -0.412353515625, -0.736083984375
229, 2221675196, -4.96231746673584, 1.6263349056243896, 8.323007583618164, -2.5458898544311523, -1.6590243577957153, -2.440006971359253, 0.463134765625, -0.410400390625, -0.736083984375
230, 2221691863, -4.943471431732178, 1.6424840688705444, 8.282984733581543, -1.8935468196868896, -1.5627459287643433, -2.278761625289917, 0.466064453125, -0.413330078125, -0.735107421875
231, 2221708530, -4.939720153808594, 1.6450623273849487, 8.28034782409668, -2.2842681407928467, -1.411413311958313, -2.5767526626586914, 0.463623046875, -0.409912109375, -0.735107421875
232, 2221725197, -4.974407196044922, 1.6376081705093384, 8.300660133361816, -2.1610589027404785, -1.5725557804107666, -2.491962194442749, 0.466064453125, -0.412353515625, -0.734130859375
233, 2221741864, -4.922111988067627, 1.602591633796692, 8.323935508728027, -1.7293310165405273, -2.149712324142456, -2.198171377182007, 0.464111328125, -0.411865234375, -0.735595703125
234, 2221758531, -4.943089485168457, 1.5904163122177124, 8.30246353149414, 1.276697039604187, -1.8139939308166504, -1.012649416923523, 0.463134765625, -0.410400390625, -0.735595703125
235, 2221775198, -4.981213092803955, 1.6237739324569702, 8.29521369934082, 0.12330592423677444, -0.6729736328125, -1.1107330322265625, 0.466552734375, -0.413818359375, -0.734130859375
236, 2221791865, -4.984543323516846, 1.6351169347763062, 8.311058044433594, -0.5249579548835754, -0.9561989903450012, -1.4686193466186523, 0.465576171875, -0.414794921875, -0.734619140625
237, 2221808532, -4.989738941192627, 1.720221757888794, 8.265233039855957, -0.8041234612464905, -2.260077714920044, -1.7299330234527588, 0.465576171875, -0.415283203125, -0.734130859375
238, 2221825199, -4.969277858734131, 1.648006558418274, 8.317821502685547, -1.5416669845581055, -2.9895403385162354, -2.11033296585083, 0.466552734375, -0.415283203125, -0.736083984375
239, 2221841866, -4.960498332977295, 1.633840799331665, 8.305903434753418, -1.3958156108856201, -3.2148165702819824, -1.6201443672180176, 0.464599609375, -0.416748046875, -0.734130859375
240, 2221858533, -4.95753288269043, 1.6867834329605103, 8.307435035705566, -0.33821573853492737, -2.81081485748291, -1.095442533493042, 0.463134765625, -0.415283203125, -0.733642578125
241, 2221875200, -4.911679744720459, 1.694033145904541, 8.316034317016602, 0.4431701600551605, -2.2832183837890625, -0.726273775100708, 0.463134765625, -0.41748046875, -0.734619140625
242, 2221891867, -4.943728923797607, 1.670436978340149, 8.308972358703613, 0.8905855417251587, -1.5301538705825806, -0.5535928606987, 0.464111328125, -0.41748046875, -0.733154296875
243, 2221908534, -4.976974010467529, 1.7721233367919922, 8.292899131774902, 0.36658814549446106, -1.5188714265823364, -0.7726326584815979, 0.463134765625, -0.41845703125, -0.732177734375
244, 2221925201, -4.963001251220703, 1.712131142616272, 8.329991340637207, -0.01255022268742323, -1.9547357559204102, -1.3021241426467896, 0.462646484375, -0.4189453125, -0.732177734375
245, 2221941868, -4.920460224151611, 1.6707959175109863, 8.352229118347168, -0.12358125299215317, -1.2856165170669556, -1.340069055557251, 0.461181640625, -0.4208984375, -0.734130859375
246, 2221958535, -4.884395599365234, 1.66731858253479, 8.364930152893066, 1.2032910585403442, -0.4209831655025482, -0.7397972941398621, 0.463134765625, -0.4208984375, -0.73193359375
247, 2221975202, -4.882002353668213, 1.6980162858963013, 8.304360389709473, 1.6727970838546753, 1.0271395444869995, -0.5327696204185486, 0.463134765625, -0.42041015625, -0.73193359375
248, 2221991869, -4.971158504486084, 1.8074097633361816, 8.27318000793457, 1.0509082078933716, 1.3313032388687134, -0.8235378265380859, 0.46337890625, -0.423828125, -0.73046875
249, 2222008536, -4.967611789703369, 1.7277474403381348, 8.286256790161133, 0.5484511852264404, 0.7373960018157959, -0.965854823589325, 0.461669921875, -0.423828125, -0.73095703125
250, 2222025203, -4.974355220794678, 1.7665342092514038, 8.295548439025879, 0.3378891050815582, 0.9472920894622803, -0.6082888245582581, 0.462646484375, -0.423828125, -0.72998046875
251, 2222041870, -4.881906032562256, 1.7688349485397339, 8.275161743164062, 0.8313817381858826, 1.3149495124816895, -0.3540443181991577, 0.462890625, -0.4248046875, -0.7294921875
252, 2222058537, -4.811397552490234, 1.7513251304626465, 8.288352966308594, 1.5092988014221191, 2.114757537841797, -0.5460243821144104, 0.4619140625, -0.42724609375, -0.7265625
253, 2222075204, -4.957655429840088, 1.8152345418930054, 8.245600700378418, 1.1160669326782227, 2.919905185699463, -1.2862440347671509, 0.46533203125, -0.42578125, -0.725830078125
254, 2222091871, -5.039525508880615, 1.7919281721115112, 8.251541137695312, 0.5359392762184143, 3.1524558067321777, -1.3217048645019531, 0.46484375, -0.4267578125, -0.725341796875
255, 2222108538, -5.037580490112305, 1.7763012647628784, 8.271769523620605, 0.7337653636932373, 3.4978621006011963, -0.8517246246337891, 0.46875, -0.42724609375, -0.724365234375
256, 2222125205, -5.089521884918213, 1.7774308919906616, 8.248892784118652, 0.6569336652755737, 3.2145280838012695, -0.7139796018600464, 0.46826171875, -0.42919921875, -0.723876953125
257, 2222141872, -4.982378005981445, 1.8288899660110474, 8.234025955200195, 0.6344586610794067, 2.974665880203247, -0.4980902075767517, 0.46630859375, -0.43017578125, -0.722900390625
258, 2222158539, -4.828968524932861, 1.9170384407043457, 8.246724128723145, 0.8870893716812134, 3.792811870574951, -1.2229934930801392, 0.469482421875, -0.4306640625, -0.72216796875
259, 2222175206, -5.049376487731934, 1.773913860321045, 8.251886367797852, 0.9783859848976135, 5.335964202880859, -2.286010265350342, 0.471923828125, -0.43310546875, -0.72216796875
260, 2222191873, -5.083339214324951, 1.738394856452942, 8.225744247436523, 0.1200019046664238, 6.305764198303223, -2.076178550720215, 0.472412109375, -0.43212890625, -0.720703125
261, 2222208540, -5.070423603057861, 1.871252417564392, 8.148551940917969, -2.525937795639038, 6.790933132171631, -2.539128303527832, 0.474853515625, -0.43408203125, -0.716552734375
262, 2222225207, -5.1402740478515625, 2.039990186691284, 8.079360008239746, -6.104712009429932, 5.383413314819336, -5.222072601318359, 0.475830078125, -0.4306640625, -0.717529296875
263, 2222241874, -5.148384094238281, 2.0054209232330322, 8.142245292663574, -9.698651313781738, 2.5714075565338135, -8.417912483215332, 0.476806640625, -0.4306640625, -0.716064453125
264, 2222258541, -4.973943710327148, 2.0418076515197754, 8.140865325927734, -15.256585121154785, 1.4167749881744385, -12.656495094299316, 0.478271484375, -0.4248046875, -0.719482421875
265, 2222275208, -5.014740467071533, 1.888383388519287, 8.135088920593262, -13.584880828857422, 2.878288984298706, -14.843849182128906, 0.481201171875, -0.422607421875, -0.720458984375
266, 2222291875, -4.884539604187012, 1.7029942274093628, 8.187948226928711, -8.75833511352539, 6.837451457977295, -14.4634428024292, 0.486083984375, -0.422119140625, -0.720458984375
267, 2222308542, -4.775012493133545, 1.7450047731399536, 8.160785675048828, -5.543467998504639, 14.169807434082031, -15.469878196716309, 0.489013671875, -0.4169921875, -0.718505859375
268, 2222325209, -4.907797336578369, 1.7715599536895752, 8.278461456298828, -4.924105644226074, 21.80864906311035, -15.840752601623535, 0.493408203125, -0.41357421875, -0.71484375
269, 2222341876, -5.205228328704834, 1.635258674621582, 8.134016990661621, -5.815118312835693, 30.3400936126709, -15.192978858947754, 0.50146484375, -0.409423828125, -0.7138671875
270, 2222358543, -5.088322162628174, 1.7542380094528198, 8.10900592803955, -6.6657867431640625, 39.19635772705078, -17.00657081604004, 0.511474609375, -0.409423828125, -0.70654296875
271, 2222375210, -5.300418853759766, 1.6167900562286377, 8.034035682678223, -2.8904757499694824, 51.816925048828125, -19.58501434326172, 0.523681640625, -0.40478515625, -0.69873046875
272, 2222391877, -5.440609931945801, 1.5010383129119873, 8.0405855178833, 1.55018949508667, 65.48553466796875, -20.60018539428711, 0.539306640625, -0.401611328125, -0.69140625
273, 2222408544, -5.4660844802856445, 1.3134673833847046, 8.136613845825195, 1.8962116241455078, 80.43534851074219, -20.55048942565918, 0.5546875, -0.40185546875, -0.675537109375
274, 2222425211, -5.713393211364746, 1.419286847114563, 7.997952938079834, 0.5230867266654968, 95.66343688964844, -22.478776931762695, 0.575439453125, -0.397705078125, -0.6591796875
275, 2222441878, -5.909121513366699, 1.4148428440093994, 7.895347595214844, -0.8364580869674683, 109.44039916992188, -23.46124267578125, 0.598876953125, -0.396484375, -0.64208984375
276, 2222458545, -6.058809757232666, 1.4511278867721558, 7.781014442443848, -4.548583507537842, 123.25305938720703, -25.23013687133789, 0.624755859375, -0.390625, -0.619384765625
277, 2222475212, -6.425601005554199, 1.3729690313339233, 7.5207905769348145, -11.025907516479492, 139.78062438964844, -27.72772979736328, 0.651123046875, -0.387451171875, -0.59521484375
278, 2222491879, -6.763524055480957, 1.5046474933624268, 7.240023612976074, -19.290082931518555, 161.59107971191406, -30.43588638305664, 0.682861328125, -0.376708984375, -0.566162109375
279, 2222508546, -6.8064470291137695, 1.077704668045044, 6.957308769226074, -30.668256759643555, 195.31875610351562, -35.73158645629883, 0.711181640625, -0.36962890625, -0.52978515625
280, 2222525213, -6.728497505187988, 1.400752305984497, 7.6251726150512695, -28.747241973876953, 245.19288635253906, -38.05973815917969, 0.7529296875, -0.356689453125, -0.47998046875
281, 2222541880, -7.216727256774902, 1.627036690711975, 7.872387886047363, -12.91301155090332, 315.0152282714844, -42.30987548828125, 0.79296875, -0.3466796875, -0.416259765625
282, 2222558547, -9.28234577178955, 1.1867259740829468, 8.529983520507812, -1.0144623517990112, 387.17523193359375, -50.60395431518555, 0.839599609375, -0.33447265625, -0.325927734375
283, 2222575214, -12.769035339355469, 0.38760823011398315, 10.269007682800293, 12.8273286819458, 413.5618896484375, -51.412532806396484, 0.878173828125, -0.3232421875, -0.22265625
284, 2222591881, -13.083402633666992, 1.292832612991333, 10.577425003051758, 23.541095733642578, 417.67559814453125, -49.1661491394043, 0.901611328125, -0.314208984375, -0.112060546875
285, 2222608548, -13.283756256103516, 2.3837730884552, 10.001433372497559, 13.318359375, 441.22515869140625, -57.42498779296875, 0.916015625, -0.301513671875, 0.0068359375
286, 2222625215, -15.03387451171875, 3.093676805496216, 10.617576599121094, 5.021411895751953, 464.1675720214844, -76.04021453857422, 0.91162109375, -0.283447265625, 0.1318359375
287, 2222641882, -15.3603515625, 2.76115345954895, 15.777812004089355, -1.252126932144165, 399.05987548828125, -76.91665649414062, 0.897216796875, -0.2626953125, 0.24169921875
288, 2222658549, -19.052549362182617, 3.4115209579467773, 20.640274047851562, 5.906946659088135, 191.1420440673828, -52.410099029541016, 0.880859375, -0.247802734375, 0.306884765625
289, 2222675216, -26.065793991088867, 3.2201955318450928, 36.51398468017578, 25.043628692626953, -62.2337532043457, -66.75260925292969, 0.881591796875, -0.2294921875, 0.308837890625
290, 2222691883, -6.357144355773926, 2.9979727268218994, 16.536731719970703, -3.2010538578033447, -255.07920837402344, -82.54161071777344, 0.90576171875, -0.2099609375, 0.25048828125
291, 2222708550, 0.1406075805425644, 1.264093279838562, 6.143892288208008, -9.47610855102539, -242.2090606689453, -101.10346221923828, 0.9248046875, -0.183349609375, 0.1845703125
292, 2222725217, 0.2659229040145874, 1.9973676204681396, 4.8160858154296875, 10.662590980529785, -193.97525024414062, -95.40406036376953, 0.9384765625, -0.156005859375, 0.1318359375
293, 2222741884, -3.1009178161621094, 3.4520058631896973, 9.215666770935059, 15.89587688446045, -186.68955993652344, -77.783203125, 0.949462890625, -0.134033203125, 0.081787109375
294, 2222758551, -6.8581061363220215, 4.635733127593994, 13.156354904174805, 8.92943000793457, -247.13133239746094, -49.90151596069336, 0.955810546875, -0.116943359375, 0.019287109375
295, 2222775218, -6.431312084197998, 4.1664533615112305, 11.375977516174316, 2.6904633045196533, -323.65924072265625, -14.820304870605469, 0.957763671875, -0.11279296875, -0.0654296875
296, 2222791885, -4.605583667755127, 3.438070774078369, 7.45553731918335, 11.908912658691406, -359.3836364746094, 19.132343292236328, 0.94384765625, -0.11279296875, -0.1591796875
297, 2222808552, -5.180970191955566, 3.554252862930298, 6.21368932723999, 15.857636451721191, -358.1912536621094, 42.633480072021484, 0.923828125, -0.125732421875, -0.254638671875
298, 2222825219, -7.781522750854492, 2.9678726196289062, 8.759109497070312, 12.871548652648926, -358.2254638671875, 56.5594367980957, 0.8896484375, -0.141845703125, -0.34716796875
299, 2222841886, -8.965628623962402, 1.8328191041946411, 10.284415245056152, 19.754566192626953, -384.2223205566406, 65.0556869506836, 0.84765625, -0.16162109375, -0.44140625
300, 2222858553, -8.38970947265625, 0.4506816565990448, 9.448047637939453, 39.900390625, -399.6578369140625, 66.03258514404297, 0.787353515625, -0.183837890625, -0.533935546875
301, 2222875220, -8.1443452835083, -1.1186895370483398, 7.1526641845703125, 73.26409912109375, -375.7743225097656, 59.3419075012207, 0.723876953125, -0.208251953125, -0.61181640625
302, 2222891887, -9.865453720092773, -3.1331212520599365, 6.953988552093506, 112.75888061523438, -302.8780212402344, 44.58194351196289, 0.66064453125, -0.23779296875, -0.667236328125
303, 2222908554, -16.944623947143555, -2.7269198894500732, 15.974780082702637, 134.6376953125, -269.4981689453125, 10.785601615905762, 0.60693359375, -0.2705078125, -0.70556640625
304, 2222925221, -18.299684524536133, -2.2422351837158203, 14.120793342590332, 160.12496948242188, -282.2862243652344, -8.549250602722168, 0.548095703125, -0.302978515625, -0.741455078125
305, 2222941888, -19.0119571685791, -1.6389678716659546, 10.072859764099121, 182.7713165283203, -251.05836486816406, 6.694087982177734, 0.491455078125, -0.343505859375, -0.76416015625
306, 2222958555, -23.994606018066406, -0.2156582772731781, 11.34751033782959, 179.2352294921875, -226.09170532226562, 29.12783432006836, 0.438232421875, -0.388671875, -0.771728515625
307, 2222975222, -26.92146110534668, -0.8723713755607605, 11.035261154174805, 141.9529571533203, -250.06814575195312, 50.17059326171875, 0.375, -0.4306640625, -0.783447265625
308, 2222991889, -23.318931579589844, -1.2897541522979736, 2.2248268127441406, 80.85330200195312, -263.6653747558594, 72.36431884765625, 0.310302734375, -0.460205078125, -0.797607421875
309, 2223008556, -22.001317977905273, -1.6653251647949219, -3.6927807331085205, 13.055418014526367, -214.48097229003906, 85.8589859008789, 0.2451171875, -0.4736328125, -0.810791015625
310, 2223025223, -23.215652465820312, -2.6195902824401855, -7.189443111419678, -23.388748168945312, -155.89805603027344, 96.61260223388672, 0.189208984375, -0.478515625, -0.822265625
311, 2223041890, -24.475391387939453, -4.2226786613464355, -10.02778148651123, -11.761831283569336, -95.07447052001953, 103.43053436279297, 0.14990234375, -0.47998046875, -0.830322265625
312, 2223058557, -25.602054595947266, -3.466493844985962, -7.396421909332275, -3.5563323497772217, -35.456703186035156, 121.53536224365234, 0.11865234375, -0.486083984375, -0.829833984375
313, 2223075224, -24.05161476135254, -4.31385612487793, -2.7164406776428223, -77.63871765136719, -15.895636558532715, 123.28335571289062, 0.095458984375, -0.478271484375, -0.83935546875
314, 2223091891, 3.950397491455078, -15.825033187866211, 4.824685096740723, -133.860595703125, 34.603206634521484, 25.842309951782227, 0.091796875, -0.444580078125, -0.857666015625
315, 2223108558, 13.103117942810059, -3.945707321166992, 22.071626663208008, 39.45867919921875, 173.51942443847656, -41.1468391418457, 0.12841796875, -0.444580078125, -0.850830078125
316, 2223125225, -4.992010116577148, -2.4099836349487305, -0.24569840729236603, 38.2835578918457, 265.17449951171875, -83.25203704833984, 0.19775390625, -0.4541015625, -0.834228515625
317, 2223141892, -17.95949935913086, 4.560754776000977, 19.632793426513672, 62.120079040527344, 261.8962707519531, -3.921511650085449, 0.26904296875, -0.469970703125, -0.80322265625
318, 2223158559, -5.522915840148926, 5.049901008605957, 9.16246509552002, 67.50578308105469, 207.81411743164062, 3.7652459144592285, 0.318603515625, -0.484375, -0.77685546875
319, 2223175226, -6.7831549644470215, 0.9694548845291138, 12.034954071044922, 54.045997619628906, 185.10911560058594, -5.495284557342529, 0.361328125, -0.4990234375, -0.74951171875
320, 2223191893, -11.402302742004395, 10.19294261932373, 11.66719913482666, -5.332693099975586, 147.33065795898438, -28.369699478149414, 0.398193359375, -0.500732421875, -0.729248046875
321, 2223208560, -9.329431533813477, 0.8030125498771667, 12.249388694763184, -48.77185821533203, 100.54222106933594, -30.769363403320312, 0.427490234375, -0.485595703125, -0.724853515625
322, 2223225227, -6.863006591796875, 0.4106762111186981, 11.27022933959961, -42.61207580566406, 41.39065933227539, -16.842382431030273, 0.443115234375, -0.474365234375, -0.7236328125
323, 2223241894, -5.295087814331055, 2.4452648162841797, 9.090513229370117, -30.751571655273438, 23.95499610900879, -13.524969100952148, 0.451904296875, -0.466796875, -0.7236328125
324, 2223258561, -4.695913314819336, 1.73753023147583, 8.88856029510498, -21.092687606811523, 11.95759391784668, -10.250164031982422, 0.454345703125, -0.4619140625, -0.72509765625
325, 2223275228, -5.0367655754089355, 1.0397684574127197, 9.528995513916016, -5.0944719314575195, 11.781754493713379, -3.293257713317871, 0.456787109375, -0.458740234375, -0.724609375
326, 2223291895, -4.523047924041748, 1.883903980255127, 8.685803413391113, 6.65852165222168, 15.282647132873535, 4.201966762542725, 0.45947265625, -0.462158203125, -0.720458984375
327, 2223308562, -4.871374130249023, 2.080594301223755, 8.562819480895996, 8.82291316986084, 16.212879180908203, 5.700593948364258, 0.4619140625, -0.46728515625, -0.71630859375
328, 2223325229, -4.711038112640381, 2.425058603286743, 8.296029090881348, 8.69378662109375, 16.768238067626953, 5.1506757736206055, 0.463623046875, -0.46875, -0.713134765625
329, 2223341896, -5.061490058898926, 2.4478073120117188, 8.379524230957031, 8.054208755493164, 14.858318328857422, 2.0829997062683105, 0.468017578125, -0.47314453125, -0.7099609375
330, 2223358563, -4.903997898101807, 2.3529350757598877, 8.180798530578613, 5.603312969207764, 12.52841567993164, -0.7455477118492126, 0.47021484375, -0.47314453125, -0.7060546875
331, 2223375230, -5.121964454650879, 2.274030923843384, 8.370817184448242, 4.8316969871521, 10.385096549987793, -1.8052223920822144, 0.47509765625, -0.47607421875, -0.703857421875
332, 2223391897, -4.790201187133789, 2.2937521934509277, 8.193787574768066, 4.126290798187256, 8.12978744506836, -2.46286678314209, 0.47607421875, -0.47509765625, -0.7001953125
333, 2223408564, -4.611231803894043, 2.4262256622314453, 8.04930591583252, 0.8435481190681458, 8.156270027160645, -5.642723083496094, 0.479248046875, -0.4765625, -0.6982421875
334, 2223425231, -4.6547980308532715, 2.387728452682495, 7.9751691818237305, -3.551945686340332, 8.32433032989502, -8.890711784362793, 0.479736328125, -0.47802734375, -0.69921875
335, 2223441898, -4.62626314163208, 2.4391896724700928, 7.9568562507629395, -10.248753547668457, 9.77595043182373, -12.02217960357666, 0.485107421875, -0.472900390625, -0.69775390625
336, 2223458565, -4.8785505294799805, 2.255380153656006, 8.158417701721191, -16.61214828491211, 11.78448486328125, -14.828272819519043, 0.488037109375, -0.468505859375, -0.697509765625
337, 2223475232, -5.075931072235107, 2.083031415939331, 8.205657005310059, -19.071775436401367, 9.990327835083008, -15.211624145507812, 0.493896484375, -0.462890625, -0.696533203125
338, 2223491899, -4.757861614227295, 2.214082717895508, 8.163196563720703, -14.214892387390137, 11.031606674194336, -12.862898826599121, 0.496826171875, -0.46142578125, -0.698974609375
339, 2223508566, -4.757855415344238, 2.2417304515838623, 8.364569664001465, -12.067941665649414, 12.2682466506958, -13.615822792053223, 0.500732421875, -0.454833984375, -0.697998046875
340, 2223525233, -4.585986614227295, 2.1249337196350098, 8.287250518798828, -12.761638641357422, 19.852359771728516, -15.649834632873535, 0.504638671875, -0.452392578125, -0.695068359375
341, 2223541900, -4.638497352600098, 1.9629770517349243, 8.437260627746582, -9.482566833496094, 33.859046936035156, -18.799419403076172, 0.51416015625, -0.44873046875, -0.693359375
342, 2223558567, -5.169691562652588, 1.827909231185913, 8.272944450378418, -7.980427265167236, 46.27666473388672, -19.16961669921875, 0.52392578125, -0.4462890625, -0.687255859375
343, 2223575234, -5.102787017822266, 1.6979482173919678, 8.044685363769531, 0.08396613597869873, 64.66600799560547, -14.60732650756836, 0.539306640625, -0.44091796875, -0.6767578125
344, 2223591901, -5.210552215576172, 1.8966397047042847, 8.112638473510742, 5.796972751617432, 86.94247436523438, -14.279202461242676, 0.556396484375, -0.44384765625, -0.662841796875
345, 2223608568, -5.489632606506348, 1.7703886032104492, 8.142501831054688, 4.985451698303223, 105.9276351928711, -16.260906219482422, 0.575927734375, -0.442626953125, -0.644775390625
346, 2223625235, -5.403426647186279, 1.6358988285064697, 8.063287734985352, 8.321956634521484, 130.5269317626953, -17.862321853637695, 0.601318359375, -0.43994140625, -0.624267578125
347, 2223641902, -5.624425411224365, 1.794148564338684, 8.10872745513916, 8.867327690124512, 154.125, -18.762889862060547, 0.630615234375, -0.44140625, -0.592041015625
348, 2223658569, -5.791984558105469, 2.1994681358337402, 7.986443519592285, -2.106236219406128, 180.47618103027344, -20.759275436401367, 0.66357421875, -0.437744140625, -0.55810546875
349, 2223675236, -6.353031158447266, 1.7611027956008911, 7.7739129066467285, -10.492814064025879, 232.26571655273438, -20.375268936157227, 0.699951171875, -0.4345703125, -0.515625
350, 2223691903, -6.255720615386963, 2.1471261978149414, 7.8250555992126465, -1.8024739027023315, 336.4940490722656, -23.1312198638916, 0.74365234375, -0.4306640625, -0.451904296875
351, 2223708570, -6.7032551765441895, 1.3983474969863892, 9.654241561889648, 35.496578216552734, 473.8172912597656, -41.56231689453125, 0.79931640625, -0.42431640625, -0.34619140625
352, 2223725237, -11.977645874023438, 1.0840661525726318, 14.512445449829102, 64.7984390258789, 542.9832763671875, -39.09593200683594, 0.84814453125, -0.42138671875, -0.209716796875
353, 2223741904, -14.50388240814209, 0.8654014468193054, 13.921791076660156, 57.55596160888672, 539.5991821289062, -34.7593994140625, 0.876220703125, -0.416015625, -0.065673828125
354, 2223758571, -15.979681015014648, 4.637876033782959, 14.546549797058105, 63.11629104614258, 566.5167846679688, -33.11240768432617, 0.881103515625, -0.41259765625, 0.087890625
355, 2223775238, -18.94269561767578, 4.559773921966553, 15.841225624084473, 50.52947235107422, 550.5498046875, -65.4022216796875, 0.860595703125, -0.395751953125, 0.236083984375
356, 2223791905, -8.10995101928711, 3.4641687870025635, 19.44304847717285, 70.11563873291016, 444.0843505859375, -59.398773193359375, 0.82568359375, -0.37451171875, 0.362548828125
357, 2223808572, -38.46622085571289, 6.2004313468933105, 31.11383056640625, 61.00733184814453, 221.91395568847656, -74.55608367919922, 0.79931640625, -0.353759765625, 0.43408203125
358, 2223825239, -20.064077377319336, 7.136142253875732, 37.9819221496582, 27.94525718688965, -115.92992401123047, -82.30015563964844, 0.808837890625, -0.32763671875, 0.43212890625
359, 2223841906, -4.666291236877441, 2.4815521240234375, 16.027109146118164, -27.86720848083496, -311.2045593261719, -84.8502426147461, 0.84814453125, -0.310791015625, 0.356689453125
360, 2223858573, -0.2410469949245453, 0.7918722033500671, 6.032978534698486, -45.3137092590332, -295.07684326171875, -134.32101440429688, 0.88720703125, -0.285400390625, 0.277587890625
361, 2223875240, 0.6814094185829163, 0.907616376876831, 3.5562117099761963, -34.44803237915039, -251.04234313964844, -158.82521057128906, 0.91748046875, -0.2470703125, 0.208984375
362, 2223891907, -3.22511887550354, 3.3046700954437256, 7.037388324737549, -13.772709846496582, -242.2887725830078, -153.36236572265625, 0.94091796875, -0.206787109375, 0.14306640625
363, 2223908574, -6.3746538162231445, 5.79435920715332, 10.558760643005371, -17.175617218017578, -288.7002868652344, -135.99859619140625, 0.957763671875, -0.169189453125, 0.063232421875
364, 2223925241, -7.668126583099365, 6.608397483825684, 10.557621955871582, -23.563478469848633, -354.3404846191406, -95.1566390991211, 0.96630859375, -0.140380859375, -0.029541015625
365, 2223941908, -7.797041893005371, 6.1877593994140625, 8.796737670898438, -8.247488975524902, -405.3675231933594, -39.5075569152832, 0.959228515625, -0.1259765625, -0.142578125
366, 2223958575, -7.590174674987793, 6.269105911254883, 6.932048797607422, 5.682260513305664, -429.01141357421875, 7.645159721374512, 0.935791015625, -0.126220703125, -0.262451171875
367, 2223975242, -7.639962673187256, 5.482138156890869, 6.363204479217529, 8.135534286499023, -428.3833312988281, 41.933692932128906, 0.895751953125, -0.136962890625, -0.373291015625
368, 2223991909, -9.21541976928711, 2.9572787284851074, 7.754003524780273, 26.33995819091797, -410.6929016113281, 64.84765625, 0.84228515625, -0.157958984375, -0.478271484375
369, 2224008576, -12.502409934997559, 0.5560661554336548, 12.35780143737793, 69.26283264160156, -419.207275390625, 69.35987854003906, 0.7783203125, -0.181640625, -0.5703125
370, 2224025243, -14.279151916503906, -1.3926116228103638, 10.765508651733398, 131.22720336914062, -434.5151062011719, 64.2215576171875, 0.69580078125, -0.21923828125, -0.658203125
371, 2224041910, -14.706562995910645, -2.9082624912261963, 8.272151947021484, 186.4869384765625, -378.6175231933594, 49.550846099853516, 0.61669921875, -0.265380859375, -0.718017578125
372, 2224058577, -20.737064361572266, -1.1434301137924194, 13.137972831726074, 196.146240234375, -325.4414367675781, 33.247745513916016, 0.538330078125, -0.3134765625, -0.755615234375
373, 2224075244, -24.649250030517578, -1.576288104057312, 13.797492980957031, 179.15745544433594, -318.6902160644531, 42.19288635253906, 0.46435546875, -0.362548828125, -0.78515625
374, 2224091911, -25.76229476928711, -2.0686557292938232, 9.24838924407959, 138.58543395996094, -300.3047180175781, 61.21419906616211, 0.38525390625, -0.4072265625, -0.8046875
375, 2224108578, -27.045856475830078, -1.9368778467178345, 5.621657371520996, 76.17459106445312, -259.4288024902344, 75.2472152709961, 0.311279296875, -0.435302734375, -0.819580078125
376, 2224125245, -28.305185317993164, -2.3114867210388184, -0.04819446802139282, 40.83567810058594, -227.44158935546875, 95.01904296875, 0.2431640625, -0.454345703125, -0.83056640625
377, 2224141912, -29.260581970214844, 1.1690536737442017, -8.303064346313477, 3.819715976715088, -177.6133575439453, 114.06868743896484, 0.1826171875, -0.4658203125, -0.83837890625
378, 2224158579, -28.286161422729492, -1.8394674062728882, -13.68095588684082, -33.28028869628906, -88.39424896240234, 126.3663558959961, 0.13623046875, -0.466552734375, -0.848388671875
379, 2224175246, -27.468809127807617, -5.3550615310668945, -13.744232177734375, 4.964722633361816, 0.3420366644859314, 140.67947387695312, 0.1123046875, -0.470703125, -0.84912109375
380, 2224191913, -26.29446792602539, -4.062564849853516, -7.132262229919434, 4.321786880493164, 75.04777526855469, 144.89715576171875, 0.10498046875, -0.478759765625, -0.84716796875
381, 2224208580, -9.870527267456055, -4.970363616943359, 8.970353126525879, -81.65518951416016, 63.0152702331543, 114.54158782958984, 0.1083984375, -0.471435546875, -0.849853515625
382, 2224225247, 12.66030216217041, -11.375837326049805, 18.134775161743164, -12.497056007385254, 142.65310668945312, -2.0734593868255615, 0.12353515625, -0.459716796875, -0.8515625
383, 2224241914, 1.8318746089935303, -6.6003217697143555, 6.216588497161865, 80.67630004882812, 288.3215637207031, -78.56848907470703, 0.1962890625, -0.47216796875, -0.831298828125
384, 2224258581, -19.66266441345215, 8.019108772277832, 11.354896545410156, 95.87036895751953, 315.124267578125, -34.29265213012695, 0.2802734375, -0.494384765625, -0.793212890625
385, 2224275248, -11.508231163024902, 3.697913646697998, 14.926478385925293, 41.77095413208008, 236.82138061523438, -19.81732177734375, 0.341796875, -0.503662109375, -0.761962890625
386, 2224291915, -9.521485328674316, 5.2894606590271, 12.786118507385254, 11.878448486328125, 195.6401824951172, -32.439903259277344, 0.389892578125, -0.5078125, -0.734375
387, 2224308582, -14.320557594299316, 5.969910621643066, 12.693692207336426, -40.99665451049805, 140.70169067382812, -40.345821380615234, 0.4296875, -0.4970703125, -0.72265625
388, 2224325249, -8.584617614746094, -2.155552625656128, 13.625845909118652, -60.100223541259766, 60.57664108276367, -29.786338806152344, 0.451171875, -0.482421875, -0.71728515625
389, 2224341916, -6.254356384277344, 3.560316324234009, 9.176426887512207, -57.14908981323242, 24.55813217163086, -21.035083770751953, 0.462890625, -0.466796875, -0.722900390625
390, 2224358583, -5.113647937774658, 1.7266550064086914, 8.947134017944336, -43.16646957397461, 6.728898525238037, -16.519935607910156, 0.46435546875, -0.453857421875, -0.72705078125
391, 2224375250, -4.868481636047363, 1.7945324182510376, 8.727740287780762, -28.338584899902344, -0.118190236389637, -15.061897277832031, 0.47119140625, -0.44677734375, -0.73046875
392, 2224391917, -4.759960651397705, 1.3882640600204468, 8.681055068969727, -20.455907821655273, -0.002433211775496602, -13.479044914245605, 0.470458984375, -0.44189453125, -0.733154296875
393, 2224408584, -4.873442649841309, 1.2095825672149658, 8.727010726928711, -9.161538124084473, 3.9282279014587402, -7.15936803817749, 0.472900390625, -0.438720703125, -0.734619140625
394, 2224425251, -4.720170974731445, 1.5117892026901245, 8.484687805175781, -6.952300071716309, 7.837399005889893, -3.918283700942993, 0.474609375, -0.439697265625, -0.733642578125
395, 2224441918, -4.81137228012085, 1.5642260313034058, 8.534343719482422, -8.337733268737793, 10.983942031860352, -2.9893882274627686, 0.474365234375, -0.435791015625, -0.731689453125
396, 2224458585, -4.936337947845459, 1.8050220012664795, 8.429229736328125, -8.957742691040039, 12.883692741394043, -3.801760673522949, 0.47998046875, -0.436279296875, -0.7314453125
397, 2224475252, -4.982299327850342, 1.8525453805923462, 8.301236152648926, -13.302445411682129, 10.676687240600586, -7.986907482147217, 0.4853515625, -0.43310546875, -0.73095703125
398, 2224491919, -5.057106018066406, 1.9282121658325195, 8.342777252197266, -19.133291244506836, 5.840841293334961, -14.251513481140137, 0.48388671875, -0.427734375, -0.73046875
399, 2224508586, -5.115264415740967, 1.6044448614120483, 8.516708374023438, -20.24632453918457, -0.9109691381454468, -17.486103057861328, 0.48828125, -0.421142578125, -0.73193359375
400, 2224525253, -5.070761203765869, 1.7211480140686035, 8.392587661743164, -23.609912872314453, -7.706236839294434, -21.477853775024414, 0.491455078125, -0.4140625, -0.735595703125
401, 2224541920, -4.987072944641113, 1.6632288694381714, 8.265395164489746, -23.16651725769043, -9.360201835632324, -24.886751174926758, 0.488525390625, -0.408203125, -0.7421875
402, 2224558587, -4.961047172546387, 1.1260098218917847, 8.443678855895996, -17.613754272460938, -6.799514293670654, -23.293733596801758, 0.49169921875, -0.400634765625, -0.742919921875
403, 2224575254, -4.8246378898620605, 1.2133007049560547, 8.453506469726562, -15.435032844543457, -1.1183686256408691, -21.858983993530273, 0.4931640625, -0.395263671875, -0.746337890625
404, 2224591921, -4.696266174316406, 1.2376242876052856, 8.477754592895508, -13.866735458374023, 6.745319366455078, -21.843843460083008, 0.49755859375, -0.38818359375, -0.745361328125
405, 2224608588, -4.664616584777832, 1.0135200023651123, 8.464649200439453, -9.788348197937012, 19.251893997192383, -20.944110870361328, 0.5029296875, -0.38427734375, -0.742919921875
406, 2224625255, -4.5110554695129395, 0.7298657894134521, 8.484720230102539, -4.527302265167236, 36.26589584350586, -19.16815948486328, 0.512451171875, -0.377685546875, -0.73828125
407, 2224641922, -4.611648082733154, 0.7639230489730835, 8.52840805053711, 3.9933371543884277, 59.876129150390625, -16.301603317260742, 0.5244140625, -0.37939453125, -0.729248046875
408, 2224658589, -4.70396614074707, 0.7327361702919006, 8.570672035217285, 8.643211364746094, 84.25640869140625, -15.441978454589844, 0.54345703125, -0.378662109375, -0.717529296875
409, 2224675256, -4.810214042663574, 0.8934120535850525, 8.63097858428955, 11.279803276062012, 113.47897338867188, -16.305679321289062, 0.56689453125, -0.380615234375, -0.69775390625
410, 2224691923, -5.022041320800781, 0.9746076464653015, 8.4567232131958, 11.250354766845703, 142.06842041015625, -20.052005767822266, 0.595703125, -0.377685546875, -0.674560546875
411, 2224708590, -5.0680623054504395, 1.0153119564056396, 8.396490097045898, 8.6871337890625, 170.4422607421875, -22.537893295288086, 0.627685546875, -0.376953125, -0.642822265625
412, 2224725257, -5.585324287414551, 0.8457540273666382, 8.112051963806152, 3.258646249771118, 201.66387939453125, -24.703392028808594, 0.6640625, -0.376953125, -0.602294921875
413, 2224741924, -6.280235290527344, 0.5994492173194885, 7.405317306518555, -5.894951820373535, 236.47300720214844, -24.52274513244629, 0.707763671875, -0.373291015625, -0.55517578125
414, 2224758591, -6.335033416748047, 0.8903818130493164, 7.57588005065918, -22.125085830688477, 298.8984375, -22.090280532836914, 0.754150390625, -0.367919921875, -0.499267578125
415, 2224775258, -6.610139846801758, 2.205554962158203, 8.544259071350098, -20.328269958496094, 414.7698669433594, -29.76712989807129, 0.806640625, -0.357666015625, -0.412353515625
416, 2224791925, -9.74533462524414, 2.9237754344940186, 12.926959037780762, -10.907003402709961, 555.6046142578125, -60.97863006591797, 0.865234375, -0.345703125, -0.281494140625
417, 2224808592, -17.584197998046875, 1.7083184719085693, 16.410192489624023, -11.077286720275879, 584.6499633789062, -83.82711791992188, 0.91015625, -0.32421875, -0.1328125
418, 2224825259, -16.526073455810547, 2.789506435394287, 15.383249282836914, -25.77036476135254, 573.7891845703125, -90.32343292236328, 0.9287109375, -0.30322265625, 0.022705078125
419, 2224841926, -19.30610466003418, 5.6821112632751465, 17.514659881591797, -50.20476531982422, 592.11376953125, -116.65191650390625, 0.923095703125, -0.277099609375, 0.17626953125
420, 2224858593, -13.585213661193848, 5.3148932456970215, 23.958267211914062, -39.27321243286133, 494.5834045410156, -101.2953109741211, 0.89501953125, -0.250244140625, 0.3173828125
421, 2224875260, -28.394554138183594, 2.280632734298706, 29.881816864013672, 11.134417533874512, 254.19854736328125, -48.039459228515625, 0.86328125, -0.237548828125, 0.39453125
422, 2224891927, -23.374143600463867, 8.058738708496094, 38.62489700317383, 68.2893295288086, -55.86891555786133, -20.55071258544922, 0.862548828125, -0.22314453125, 0.406494140625
423, 2224908594, -5.145759582519531, 6.388006210327148, 18.772735595703125, -3.2614450454711914, -272.9865417480469, -10.798428535461426, 0.889404296875, -0.2197265625, 0.342041015625
424, 2224925261, 0.4438684582710266, 2.5616204738616943, 8.111342430114746, -37.32389450073242, -277.61505126953125, -29.838897705078125, 0.913818359375, -0.2177734375, 0.26708984375
425, 2224941928, -0.2636527419090271, 1.2170544862747192, 5.865818977355957, -26.527135848999023, -255.56546020507812, -33.15514373779297, 0.934814453125, -0.20947265625, 0.19580078125
426, 2224958595, -3.6604745388031006, 2.0570600032806396, 9.064522743225098, 5.779972076416016, -274.6469421386719, -23.683799743652344, 0.94921875, -0.202392578125, 0.1240234375
427, 2224975262, -6.459061145782471, 2.2679080963134766, 10.720817565917969, 13.316385269165039, -334.8889465332031, -12.392662048339844, 0.959716796875, -0.19775390625, 0.037109375
428, 2224991929, -6.015804767608643, 1.8364111185073853, 8.625123023986816, 19.336517333984375, -385.70257568359375, 1.2669386863708496, 0.958251953125, -0.19921875, -0.068603515625
429, 2225008596, -6.456526279449463, 1.1803501844406128, 7.48289680480957, 25.70844841003418, -403.35699462890625, 8.023642539978027, 0.945068359375, -0.2001953125, -0.1796875
430, 2225025263, -7.61945104598999, 1.1529539823532104, 7.869121551513672, 39.733909606933594, -414.4612731933594, 22.480276107788086, 0.917236328125, -0.20849609375, -0.289794921875
431, 2225041930, -8.536542892456055, 1.4831451177597046, 9.302184104919434, 41.86249923706055, -424.27093505859375, 33.688514709472656, 0.872802734375, -0.22119140625, -0.393310546875
432, 2225058597, -10.439684867858887, 0.3671390116214752, 11.623259544372559, 45.287391662597656, -439.80792236328125, 41.61433410644531, 0.817138671875, -0.238037109375, -0.499755859375
433, 2225075264, -11.835411071777344, -1.1000092029571533, 11.779553413391113, 68.10811614990234, -461.96527099609375, 36.765777587890625, 0.74462890625, -0.2568359375, -0.595703125
434, 2225091931, -11.747469902038574, -5.524934768676758, 9.15886402130127, 116.97879028320312, -432.366943359375, 23.924598693847656, 0.657958984375, -0.281494140625, -0.67822265625
435, 2225108598, -16.249303817749023, -4.899194717407227, 12.635451316833496, 183.85504150390625, -371.04827880859375, 14.643895149230957, 0.57763671875, -0.318603515625, -0.734130859375
436, 2225125265, -22.392927169799805, -0.22452744841575623, 17.921688079833984, 176.65625, -354.838134765625, -0.15355633199214935, 0.499755859375, -0.361328125, -0.769287109375
437, 2225141932, -25.424623489379883, -2.2348792552948, 15.043682098388672, 160.6384735107422, -355.5886535644531, 21.263246536254883, 0.41552734375, -0.39794921875, -0.79736328125
438, 2225158599, -27.220109939575195, -2.4096174240112305, 10.781990051269531, 158.99267578125, -335.4250793457031, 58.942710876464844, 0.3310546875, -0.444091796875, -0.8134765625
439, 2225175266, -28.416351318359375, -1.0933650732040405, 6.2292609214782715, 99.39948272705078, -311.2357482910156, 74.77220916748047, 0.2451171875, -0.477783203125, -0.8232421875
440, 2225191933, -28.0738525390625, -1.7002209424972534, -1.7706323862075806, 24.03522300720215, -268.03204345703125, 85.2022705078125, 0.1640625, -0.495361328125, -0.831787109375
441, 2225208600, -28.69739532470703, -1.845393180847168, -8.79871654510498, -27.423372268676758, -195.16990661621094, 102.06414794921875, 0.09912109375, -0.494873046875, -0.840576171875
442, 2225225267, -32.17177963256836, -3.560504913330078, -13.099620819091797, -38.90513229370117, -113.07528686523438, 104.72501373291016, 0.047607421875, -0.48779296875, -0.850830078125
443, 2225241934, -30.671079635620117, -3.6115753650665283, -15.873087882995605, -31.51331901550293, -1.3256077766418457, 109.82992553710938, 0.025634765625, -0.4814453125, -0.855224609375
444, 2225258601, -25.7319278717041, -3.4159398078918457, -7.7177228927612305, -56.87333679199219, 110.13291931152344, 129.75555419921875, 0.0263671875, -0.471435546875, -0.859130859375
445, 2225275268, 5.278934955596924, -10.321921348571777, 15.317215919494629, -57.10011672973633, 160.1688690185547, 53.02029800415039, 0.05029296875, -0.455810546875, -0.86669921875
446, 2225291935, 7.677919387817383, -10.954902648925781, 15.18295669555664, 31.944990158081055, 265.5445556640625, -65.2348403930664, 0.11572265625, -0.459228515625, -0.8603515625
447, 2225308602, -17.069595336914062, -5.353203773498535, 11.456695556640625, 83.21388244628906, 315.443115234375, -67.9718246459961, 0.2021484375, -0.474609375, -0.831787109375
448, 2225325269, -14.886857032775879, 8.236717224121094, 17.58176612854004, 41.014686584472656, 250.81260681152344, -32.25588607788086, 0.272216796875, -0.48486328125, -0.806884765625
449, 2225341936, -6.606955051422119, 8.238091468811035, 8.198665618896484, 32.51791000366211, 217.59397888183594, -15.466166496276855, 0.32568359375, -0.490966796875, -0.78125
450, 2225358603, -5.608410835266113, 0.004532688297331333, 11.590043067932129, 8.724127769470215, 197.861083984375, -27.708498001098633, 0.375732421875, -0.492919921875, -0.758056640625
451, 2225375270, -15.96695613861084, 7.9755754470825195, 14.027636528015137, -38.560386657714844, 153.2567138671875, -41.96321487426758, 0.41845703125, -0.483642578125, -0.74267578125
452, 2225391937, -8.256556510925293, -3.699916362762451, 14.488054275512695, -62.39070510864258, 64.66036224365234, -30.81992530822754, 0.440673828125, -0.466064453125, -0.73681640625
453, 2225408604, -6.516870498657227, 4.099592685699463, 9.265217781066895, -53.33972930908203, 23.58729362487793, -17.866167068481445, 0.451904296875, -0.452392578125, -0.741455078125
454, 2225425271, -5.256217956542969, 0.7501958012580872, 9.38149642944336, -42.129249572753906, 4.203066825866699, -13.798783302307129, 0.45849609375, -0.44091796875, -0.743896484375
455, 2225441938, -4.769825458526611, 1.4218395948410034, 8.93549919128418, -32.90885925292969, -2.211512327194214, -12.016301155090332, 0.45751953125, -0.43505859375, -0.74853515625
456, 2225458605, -4.580177307128906, 1.8156338930130005, 8.674738883972168, -31.046110153198242, -4.022516250610352, -13.199455261230469, 0.458740234375, -0.426025390625, -0.754150390625
457, 2225475272, -4.7355146408081055, 1.5278103351593018, 8.649689674377441, -24.238475799560547, -4.029604911804199, -12.269308090209961, 0.459716796875, -0.41845703125, -0.75634765625
458, 2225491939, -4.439694881439209, 1.7108917236328125, 8.600008964538574, -19.29167366027832, -2.6322598457336426, -10.6284818649292, 0.458740234375, -0.41650390625, -0.7568359375
459, 2225508606, -4.428049564361572, 1.5042471885681152, 8.614457130432129, -18.78430938720703, -2.748746395111084, -11.395147323608398, 0.46044921875, -0.408935546875, -0.762939453125
460, 2225525273, -4.434673309326172, 1.4924851655960083, 8.631562232971191, -18.60659408569336, -3.7308802604675293, -11.359366416931152, 0.46484375, -0.404541015625, -0.763916015625
461, 2225541940, -4.564050197601318, 1.505913257598877, 8.562034606933594, -17.814762115478516, -4.638428688049316, -11.27356243133545, 0.4609375, -0.400146484375, -0.76611328125
462, 2225558607, -4.534039497375488, 1.469673991203308, 8.589861869812012, -17.62975311279297, -5.473815441131592, -12.916840553283691, 0.46240234375, -0.39453125, -0.76904296875
463, 2225575274, -4.531767845153809, 1.1648643016815186, 8.608156204223633, -18.003128051757812, -6.179050445556641, -14.056161880493164, 0.46337890625, -0.392578125, -0.771240234375
464, 2225591941, -4.423887252807617, 1.1209940910339355, 8.68211555480957, -17.129819869995117, -6.37355375289917, -14.782718658447266, 0.462646484375, -0.385986328125, -0.7734375
465, 2225608608, -4.2565460205078125, 1.1070051193237305, 8.69640827178955, -15.891223907470703, -4.982806205749512, -16.336654663085938, 0.46044921875, -0.380126953125, -0.775390625
466, 2225625275, -4.49288272857666, 1.0933895111083984, 8.64986515045166, -15.362007141113281, -2.2038626670837402, -19.478490829467773, 0.467041015625, -0.3759765625, -0.7783203125
467, 2225641942, -4.488331317901611, 1.0474251508712769, 8.660093307495117, -11.991374969482422, 2.203855276107788, -19.88827133178711, 0.4677734375, -0.37158203125, -0.77783203125
468, 2225658609, -4.43917989730835, 0.9815730452537537, 8.715198516845703, -7.118885517120361, 11.507163047790527, -19.689416885375977, 0.47119140625, -0.367431640625, -0.77490234375
469, 2225675276, -4.235939025878906, 1.0224632024765015, 8.781915664672852, -5.112862586975098, 24.636735916137695, -20.1660099029541, 0.476318359375, -0.362548828125, -0.77392578125
470, 2225691943, -4.594760417938232, 0.631902813911438, 8.80765151977539, -0.20109954476356506, 38.87858200073242, -22.27202606201172, 0.487060546875, -0.36181640625, -0.7685546875
471, 2225708610, -3.903088092803955, 0.0808921754360199, 8.752117156982422, 9.601739883422852, 59.744361877441406, -17.13855743408203, 0.501708984375, -0.359375, -0.7578125
472, 2225725277, -4.307132720947266, 0.46976757049560547, 8.868088722229004, 16.972124099731445, 90.6091079711914, -11.074485778808594, 0.5185546875, -0.363525390625, -0.745849609375
473, 2225741944, -4.545757293701172, 0.9249504804611206, 9.038125038146973, 15.639497756958008, 122.86036682128906, -10.527507781982422, 0.548583984375, -0.3671875, -0.722412109375
474, 2225758611, -4.74656343460083, 0.9800620675086975, 8.741066932678223, 10.6353759765625, 152.73568725585938, -14.936396598815918, 0.5771484375, -0.367431640625, -0.701171875
475, 2225775278, -4.894037246704102, 0.9806344509124756, 8.587738990783691, 7.502424240112305, 181.2285614013672, -21.187482833862305, 0.615966796875, -0.3681640625, -0.667724609375
476, 2225791945, -5.358665943145752, 0.715221107006073, 8.138399124145508, 3.0255930423736572, 211.18968200683594, -27.516010284423828, 0.654296875, -0.364501953125, -0.626220703125
477, 2225808612, -5.9306817054748535, 0.595666766166687, 7.752979278564453, -4.847304344177246, 245.5355987548828, -32.454002380371094, 0.700439453125, -0.357666015625, -0.58056640625
478, 2225825279, -5.918079376220703, 0.784824013710022, 8.001025199890137, -20.533451080322266, 312.32080078125, -28.68586540222168, 0.747802734375, -0.349853515625, -0.519287109375
479, 2225841946, -6.188815116882324, 2.1752963066101074, 9.00857925415039, -11.383322715759277, 444.2743835449219, -32.1372184753418, 0.807373046875, -0.342529296875, -0.423583984375
480, 2225858613, -10.776124000549316, 2.1004128456115723, 15.6838960647583, 7.191591739654541, 587.376953125, -50.78419876098633, 0.87060546875, -0.33251953125, -0.28564453125
481, 2225875280, -16.87567901611328, -0.694901168346405, 17.201221466064453, -2.9228222370147705, 594.052734375, -64.90042114257812, 0.91650390625, -0.317138671875, -0.127197265625
482, 2225891947, -18.24073600769043, 7.582128524780273, 17.11077117919922, -40.3466911315918, 597.0423583984375, -94.6606674194336, 0.93359375, -0.29833984375, 0.030517578125
483, 2225908614, -18.88997459411621, 6.732118129730225, 18.34478759765625, -70.65716552734375, 582.979736328125, -143.2595977783203, 0.92822265625, -0.263671875, 0.187255859375
484, 2225925281, -7.507803440093994, 3.940009117126465, 23.614614486694336, -29.138690948486328, 430.5506591796875, -102.14728546142578, 0.90283203125, -0.23681640625, 0.311767578125
485, 2225941948, -38.46051788330078, 6.026296138763428, 32.719905853271484, 11.859628677368164, 259.3279724121094, -48.24880599975586, 0.87451171875, -0.22119140625, 0.39111328125
486, 2225958615, -16.390100479125977, 10.021421432495117, 36.826759338378906, 30.937746047973633, -121.31076049804688, -0.1003560945391655, 0.878173828125, -0.213623046875, 0.383056640625
487, 2225975282, -3.4770562648773193, 4.670514106750488, 15.530731201171875, -66.7297592163086, -273.24603271484375, -21.70343780517578, 0.90576171875, -0.21728515625, 0.314697265625
488, 2225991949, 1.8313814401626587, 0.012072816491127014, 6.740546703338623, -79.9886245727539, -262.3346252441406, -49.594364166259766, 0.9306640625, -0.208984375, 0.23486328125
489, 2226008616, 0.551136314868927, -1.6322215795516968, 5.111547946929932, -19.18462371826172, -242.26519775390625, -54.429718017578125, 0.947021484375, -0.197509765625, 0.167724609375
490, 2226025283, -3.093284845352173, 0.1818796694278717, 8.353927612304688, 55.831932067871094, -265.5538635253906, -49.353729248046875, 0.96044921875, -0.181396484375, 0.099853515625
491, 2226041950, -5.843801498413086, 3.0682473182678223, 10.120617866516113, 82.50291442871094, -324.8532409667969, -41.44435119628906, 0.96923828125, -0.164794921875, 0.015625
492, 2226058617, -6.299282073974609, 4.877524375915527, 8.652255058288574, 58.320430755615234, -375.7342224121094, -27.5791072845459, 0.97021484375, -0.15771484375, -0.086669921875
493, 2226075284, -6.843776702880859, 4.585466384887695, 7.436309337615967, 31.073413848876953, -400.8249816894531, -7.622265815734863, 0.955810546875, -0.15380859375, -0.194091796875
494, 2226091951, -7.37178897857666, 4.25037145614624, 7.238169193267822, 22.25165557861328, -412.4103698730469, 15.193231582641602, 0.9248046875, -0.156494140625, -0.306640625
495, 2226108618, -7.7198309898376465, 3.5714054107666016, 7.938104629516602, 29.840099334716797, -417.256103515625, 41.95883560180664, 0.88134765625, -0.168701171875, -0.41552734375
496, 2226125285, -9.300352096557617, 3.0711660385131836, 9.975741386413574, 49.68020248413086, -421.9187316894531, 69.33256530761719, 0.8173828125, -0.190673828125, -0.51806640625
497, 2226141952, -11.201271057128906, 1.6001063585281372, 11.54438304901123, 70.28321075439453, -426.5435791015625, 81.99242401123047, 0.744140625, -0.221435546875, -0.609375
498, 2226158619, -11.738761901855469, -3.131293773651123, 9.817870140075684, 122.7531967163086, -403.3915100097656, 84.74969482421875, 0.660400390625, -0.2568359375, -0.6865234375
499, 2226175286, -17.277313232421875, -3.994973659515381, 13.404581069946289, 192.37367248535156, -347.58380126953125, 78.77936553955078, 0.57568359375, -0.310791015625, -0.731201171875
500, 2226191953, -23.932188034057617, -2.012924909591675, 18.28762435913086, 184.5789794921875, -333.9942932128906, 50.43251419067383, 0.499755859375, -0.3642578125, -0.764404296875
501, 2226208620, -27.692081451416016, -5.028740882873535, 16.73818016052246, 162.38818359375, -355.5967712402344, 40.5634765625, 0.4169921875, -0.406494140625, -0.791015625
502, 2226225287, -27.189064025878906, -4.623929977416992, 9.024648666381836, 139.38536071777344, -353.0443420410156, 48.814022064208984, 0.326171875, -0.45068359375, -0.8115234375
503, 2226241954, -30.326364517211914, -1.9732993841171265, 3.6412880420684814, 66.8010482788086, -314.3528747558594, 45.47451400756836, 0.24072265625, -0.474853515625, -0.826416015625
504, 2226258621, -31.804012298583984, -1.5271574258804321, -5.704184532165527, 6.24464225769043, -268.2864685058594, 51.33205032348633, 0.166015625, -0.48193359375, -0.837890625
505, 2226275288, -31.53017234802246, -1.3993494510650635, -15.131781578063965, -27.934947967529297, -171.67909240722656, 69.20403289794922, 0.1064453125, -0.48193359375, -0.849609375
506, 2226291955, -33.609962463378906, -5.246860504150391, -15.929598808288574, -23.585006713867188, -51.906776428222656, 106.09765625, 0.072509765625, -0.478515625, -0.85693359375
507, 2226308622, -33.55837631225586, -2.3422961235046387, -15.795397758483887, -64.64269256591797, 68.9134750366211, 150.95326232910156, 0.0595703125, -0.47509765625, -0.857666015625
508, 2226325289, -3.4353280067443848, -14.306523323059082, 2.0514724254608154, -137.84823608398438, 199.68064880371094, 71.57794189453125, 0.09130859375, -0.439453125, -0.874267578125
509, 2226341956, 5.361799240112305, -22.784570693969727, 29.724742889404297, -9.593941688537598, 251.15977478027344, -68.20376586914062, 0.154052734375, -0.42724609375, -0.869140625
510, 2226358623, -13.898210525512695, -9.54269027709961, 6.45903205871582, 47.4553108215332, 290.2713623046875, -86.44867706298828, 0.23388671875, -0.435546875, -0.84716796875
511, 2226375290, -16.282508850097656, 12.950807571411133, 17.232389450073242, 50.20860290527344, 250.55587768554688, -14.93856143951416, 0.303466796875, -0.4453125, -0.819580078125
512, 2226391957, -4.58969259262085, 7.470924377441406, 7.244822978973389, 25.404796600341797, 218.09817504882812, -12.373106956481934, 0.358154296875, -0.453857421875, -0.792724609375
513, 2226408624, -8.010955810546875, -0.3331327736377716, 12.176745414733887, -15.920555114746094, 192.69390869140625, -32.9870719909668, 0.40576171875, -0.449462890625, -0.771484375
514, 2226425291, -18.60979652404785, 5.536911964416504, 17.132526397705078, -61.02260971069336, 113.6565170288086, -33.662193298339844, 0.446533203125, -0.43115234375, -0.7587890625
515, 2226441958, -5.3712286949157715, -2.221357822418213, 11.040518760681152, -56.90503692626953, 46.35249328613281, -25.15279197692871, 0.461669921875, -0.4150390625, -0.75927734375
516, 2226458625, -6.485254764556885, 1.7146008014678955, 9.50339412689209, -33.8004150390625, 16.665285110473633, -13.63393497467041, 0.470458984375, -0.409912109375, -0.76025390625
517, 2226475292, -5.29423189163208, 0.9928866028785706, 9.058813095092773, -27.373680114746094, 1.7174582481384277, -9.966123580932617, 0.472412109375, -0.40087890625, -0.764404296875
518, 2226491959, -4.679452896118164, 0.8679698705673218, 8.807415962219238, -17.605640411376953, -1.898044228553772, -7.693795680999756, 0.47021484375, -0.39599609375, -0.765869140625
519, 2226508626, -4.688392639160156, 1.3801230192184448, 8.646187782287598, -14.468103408813477, -1.4528688192367554, -8.987709999084473, 0.4716796875, -0.392578125, -0.7666015625
520, 2226525293, -4.46221923828125, 1.1441510915756226, 8.655976295471191, -13.35439682006836, 0.6992337703704834, -8.537796020507812, 0.47216796875, -0.389404296875, -0.7685546875
521, 2226541960, -4.380450248718262, 1.4765225648880005, 8.537697792053223, -12.859672546386719, 2.493391990661621, -9.206108093261719, 0.47412109375, -0.385009765625, -0.76904296875
522, 2226558627, -4.593835830688477, 1.4773396253585815, 8.56233024597168, -14.917658805847168, 1.3352490663528442, -10.715775489807129, 0.4755859375, -0.381591796875, -0.77197265625
523, 2226575294, -4.69852876663208, 1.4455517530441284, 8.601580619812012, -17.09501838684082, -1.6108490228652954, -12.67597484588623, 0.478515625, -0.37744140625, -0.76953125
524, 2226591961, -4.675561428070068, 1.2513686418533325, 8.567875862121582, -15.979813575744629, -1.5807031393051147, -14.535998344421387, 0.478271484375, -0.3720703125, -0.773193359375
525, 2226608628, -4.897285461425781, 1.026288390159607, 8.59929084777832, -13.369873046875, -0.824589192867279, -14.93492603302002, 0.478759765625, -0.368408203125, -0.773681640625
526, 2226625295, -4.607862949371338, 0.7220382690429688, 8.646197319030762, -11.403875350952148, -1.0746331214904785, -14.990272521972656, 0.480224609375, -0.363525390625, -0.774658203125
527, 2226641962, -4.567307472229004, 0.756712019443512, 8.614988327026367, -9.64310359954834, 1.3799306154251099, -14.83975887298584, 0.484619140625, -0.35986328125, -0.775634765625
528, 2226658629, -4.63193416595459, 0.947974443435669, 8.5812406539917, -8.197737693786621, 3.821989059448242, -15.773480415344238, 0.485595703125, -0.3583984375, -0.7763671875
529, 2226675296, -4.774535655975342, 0.792499303817749, 8.53803825378418, -5.655021667480469, 8.455511093139648, -16.313669204711914, 0.489013671875, -0.3525390625, -0.775146484375
530, 2226691963, -4.629815578460693, 0.8063965439796448, 8.629188537597656, -3.9033946990966797, 15.68923282623291, -14.908447265625, 0.494873046875, -0.351318359375, -0.772216796875
531, 2226708630, -4.480815410614014, 1.0147603750228882, 8.659876823425293, -3.9637949466705322, 23.80741310119629, -16.033111572265625, 0.5, -0.349853515625, -0.76904296875
532, 2226725297, -4.6612725257873535, 0.865576982498169, 8.640572547912598, -2.9188778400421143, 34.90283203125, -18.98282814025879, 0.50927734375, -0.34765625, -0.764404296875
533, 2226741964, -4.323466777801514, 0.4050504267215729, 8.650899887084961, -2.618316173553467, 55.508338928222656, -20.234588623046875, 0.521728515625, -0.3447265625, -0.757080078125
534, 2226758631, -4.840996742248535, 0.3980327248573303, 8.544353485107422, 3.4043734073638916, 80.04800415039062, -17.265045166015625, 0.540283203125, -0.342041015625, -0.74560546875
535, 2226775298, -4.752643585205078, 0.765524685382843, 8.879085540771484, 7.336090087890625, 110.4509048461914, -17.109655380249023, 0.564697265625, -0.341796875, -0.728515625
536, 2226791965, -4.750743865966797, 0.6937670707702637, 8.732696533203125, 9.73619556427002, 146.0872344970703, -21.627878189086914, 0.592041015625, -0.34130859375, -0.702392578125
537, 2226808632, -4.707806587219238, 0.06988955289125443, 8.53243350982666, 12.124396324157715, 185.0933074951172, -20.71463966369629, 0.63134765625, -0.340087890625, -0.669921875
538, 2226825299, -5.0429840087890625, 0.08330443501472473, 8.41128921508789, 14.409038543701172, 226.44337463378906, -17.114482879638672, 0.67333984375, -0.342041015625, -0.625244140625
539, 2226841966, -5.514983177185059, 0.35136252641677856, 8.136865615844727, 4.686756134033203, 269.0633239746094, -16.775468826293945, 0.71826171875, -0.34033203125, -0.572509765625
540, 2226858633, -6.242759704589844, 0.6776483654975891, 7.341814994812012, -15.452350616455078, 327.5766296386719, -21.418066024780273, 0.771484375, -0.336669921875, -0.505859375
541, 2226875300, -6.339386940002441, 2.5051333904266357, 9.097686767578125, -15.066601753234863, 445.6327209472656, -27.49249267578125, 0.8271484375, -0.329345703125, -0.410400390625
542, 2226891967, -10.882745742797852, 3.2066285610198975, 14.267020225524902, -4.371462821960449, 588.3367919921875, -63.185184478759766, 0.89013671875, -0.3154296875, -0.26611328125
543, 2226908634, -18.128707885742188, 1.3229560852050781, 18.684368133544922, -12.277542114257812, 595.09521484375, -91.65180206298828, 0.9287109375, -0.29736328125, -0.107177734375
544, 2226925301, -18.916919708251953, 7.0280609130859375, 19.849273681640625, -49.19275665283203, 586.1549682617188, -123.89012908935547, 0.945556640625, -0.26806640625, 0.0478515625
545, 2226941968, -12.180001258850098, 10.281524658203125, 19.85865020751953, -84.68512725830078, 542.111083984375, -158.35028076171875, 0.937744140625, -0.2294921875, 0.20166015625
546, 2226958635, -15.248188018798828, 1.859829068183899, 17.362415313720703, -57.44321060180664, 437.4595947265625, -135.5181884765625, 0.9150390625, -0.1982421875, 0.317138671875
547, 2226975302, -39.18476104736328, 9.039623260498047, 40.7249755859375, 33.246429443359375, 229.16119384765625, -48.40095901489258, 0.884765625, -0.178955078125, 0.400146484375
548, 2226991969, -14.291658401489258, 12.207018852233887, 33.94255828857422, 17.583253860473633, -149.4026641845703, 17.659059524536133, 0.8896484375, -0.177001953125, 0.381103515625
549, 2227008636, -3.901097297668457, 4.7250847816467285, 15.716964721679688, -57.24262237548828, -258.7735290527344, 22.746864318847656, 0.911865234375, -0.186767578125, 0.31591796875
550, 2227025303, 0.18572816252708435, -0.05613061040639877, 8.359583854675293, -61.151580810546875, -264.15185546875, 6.959167957305908, 0.93310546875, -0.196533203125, 0.239990234375
551, 2227041970, -0.9630064964294434, -1.657666802406311, 6.8651814460754395, -20.824583053588867, -265.6295166015625, -11.831514358520508, 0.949462890625, -0.196533203125, 0.165771484375
552, 2227058637, -3.246567726135254, -1.6391476392745972, 8.803146362304688, 35.17134094238281, -296.8076171875, -28.999208450317383, 0.964599609375, -0.189453125, 0.08642578125
553, 2227075304, -5.594484806060791, -0.10567065328359604, 9.715794563293457, 74.6717300415039, -347.4443359375, -32.627479553222656, 0.969970703125, -0.17822265625, -0.004150390625
554, 2227091971, -6.271596431732178, 2.103206157684326, 9.019515991210938, 83.90449523925781, -390.73974609375, -24.201169967651367, 0.9658203125, -0.1748046875, -0.1044921875
555, 2227108638, -7.684737205505371, 3.5196568965911865, 9.200455665588379, 67.19196319580078, -420.35687255859375, -3.0080199241638184, 0.946533203125, -0.17529296875, -0.216796875
556, 2227125305, -9.237616539001465, 3.8181052207946777, 10.048199653625488, 44.31584930419922, -448.0699768066406, 26.830528259277344, 0.911376953125, -0.18408203125, -0.333984375
557, 2227141972, -10.722841262817383, 3.578815460205078, 10.107649803161621, 22.96394157409668, -472.5466003417969, 53.72996139526367, 0.85595703125, -0.199951171875, -0.44970703125
558, 2227158639, -10.4539794921875, 1.7195650339126587, 10.650728225708008, 21.316421508789062, -480.9784851074219, 70.38705444335938, 0.784423828125, -0.220458984375, -0.563720703125
559, 2227175306, -11.465697288513184, -1.3647080659866333, 10.296710968017578, 62.00120544433594, -472.8157043457031, 80.29837799072266, 0.693603515625, -0.2451171875, -0.661865234375
560, 2227191973, -12.940736770629883, -4.743533611297607, 8.700337409973145, 121.7770004272461, -404.91619873046875, 69.49585723876953, 0.60302734375, -0.280517578125, -0.730712890625
561, 2227208640, -19.54210662841797, -4.46690559387207, 17.495431900024414, 167.98963928222656, -333.5044250488281, 46.29567337036133, 0.521484375, -0.3271484375, -0.7705078125
562, 2227225307, -28.678991317749023, -4.322025775909424, 22.454679489135742, 172.94459533691406, -359.1470031738281, 23.66805648803711, 0.44189453125, -0.372314453125, -0.801025390625
563, 2227241974, -27.403615951538086, -5.675584316253662, 13.107027053833008, 175.56459045410156, -373.23187255859375, 28.6369686126709, 0.34912109375, -0.420166015625, -0.823486328125
564, 2227258641, -29.85735511779785, -2.0495896339416504, 7.511364459991455, 141.56651306152344, -334.5066223144531, 49.0908088684082, 0.2587890625, -0.458740234375, -0.831787109375
565, 2227275308, -34.62723159790039, -0.2497483491897583, 0.9516441822052002, 52.75371170043945, -309.0731506347656, 62.66911697387695, 0.177001953125, -0.4833984375, -0.8427734375
566, 2227291975, -32.61578369140625, -4.8218207359313965, -14.253921508789062, 10.286150932312012, -240.20240783691406, 81.66553497314453, 0.099609375, -0.490478515625, -0.8505859375
567, 2227308642, -37.24369430541992, -6.459082126617432, -18.09933090209961, 27.35887908935547, -117.98197174072266, 91.95172119140625, 0.04833984375, -0.498291015625, -0.84619140625
568, 2227325309, -36.12950897216797, -4.518695831298828, -16.862159729003906, -0.1770174354314804, -15.742626190185547, 112.63439178466797, 0.0224609375, -0.50439453125, -0.845458984375
569, 2227341976, -29.811710357666016, -4.126617431640625, -8.133869171142578, -86.69171905517578, 76.3556900024414, 138.9683837890625, 0.013916015625, -0.489501953125, -0.853515625
570, 2227358643, 16.245512008666992, -9.906785011291504, 19.102718353271484, -158.48919677734375, 118.53316497802734, 43.02181625366211, 0.026123046875, -0.446044921875, -0.87744140625
571, 2227375310, 14.731592178344727, -10.66146183013916, 7.031958103179932, -6.41916036605835, 286.99468994140625, -69.91618347167969, 0.093017578125, -0.444091796875, -0.87353515625
572, 2227391977, -23.224300384521484, -12.332728385925293, 15.527181625366211, 100.36035919189453, 386.27728271484375, -58.323875427246094, 0.201416015625, -0.460205078125, -0.846435546875
573, 2227408644, -20.52687644958496, 6.723644256591797, 23.17951202392578, 48.90029525756836, 259.55816650390625, -35.000205993652344, 0.2744140625, -0.472900390625, -0.816162109375
574, 2227425311, -7.033851146697998, 9.957796096801758, 8.926774024963379, 14.819840431213379, 198.31182861328125, -16.442358016967773, 0.32958984375, -0.478515625, -0.79638671875
575, 2227441978, -5.049859523773193, -2.7954256534576416, 10.840306282043457, -7.779323577880859, 176.963134765625, -31.160146713256836, 0.372802734375, -0.47314453125, -0.77783203125
576, 2227458645, -12.115531921386719, 9.79088020324707, 12.173518180847168, -53.12542724609375, 140.02890014648438, -41.71808624267578, 0.41357421875, -0.461181640625, -0.763671875
577, 2227475312, -9.284687042236328, -5.088366985321045, 15.141450881958008, -62.963951110839844, 68.07356262207031, -30.162521362304688, 0.438720703125, -0.444580078125, -0.764404296875
578, 2227491979, -5.8211445808410645, 4.078848838806152, 9.135262489318848, -52.288795471191406, 24.483335494995117, -19.234359741210938, 0.448974609375, -0.43017578125, -0.763427734375
579, 2227508646, -5.541585922241211, 0.48961400985717773, 9.829190254211426, -32.67153549194336, 4.195053577423096, -15.873953819274902, 0.4521484375, -0.419677734375, -0.76806640625
580, 2227525313, -4.867379188537598, 1.5383954048156738, 9.147924423217773, -19.18244743347168, -1.6389724016189575, -12.057546615600586, 0.45263671875, -0.41357421875, -0.7685546875
581, 2227541980, -4.530685901641846, 1.006058692932129, 8.991169929504395, -14.475197792053223, -0.16716144979000092, -9.035553932189941, 0.45654296875, -0.41015625, -0.773681640625
582, 2227558647, -4.424904823303223, 1.0381264686584473, 8.920336723327637, -8.330994606018066, 5.627681732177734, -2.9224483966827393, 0.45654296875, -0.408203125, -0.77099609375
583, 2227575314, -4.4388651847839355, 1.602488398551941, 8.648807525634766, -5.826071262359619, 7.459938049316406, -1.2956827878952026, 0.45751953125, -0.40869140625, -0.76904296875
584, 2227591981, -4.644371032714844, 1.5436714887619019, 8.660015106201172, -5.68814754486084, 6.927910804748535, -2.50177264213562, 0.4609375, -0.405517578125, -0.77099609375
585, 2227608648, -4.626668930053711, 1.4810223579406738, 8.65234088897705, -6.330271244049072, 6.464898109436035, -3.6111743450164795, 0.4619140625, -0.407958984375, -0.76904296875
586, 2227625315, -4.551287651062012, 1.4684698581695557, 8.570775032043457, -7.253033638000488, 5.837054252624512, -5.346973896026611, 0.46435546875, -0.403564453125, -0.7685546875
587, 2227641982, -4.537431716918945, 1.5200179815292358, 8.57133960723877, -8.913532257080078, 4.247791767120361, -7.993164539337158, 0.467529296875, -0.401611328125, -0.766845703125
588, 2227658649, -4.43667459487915, 1.2628941535949707, 8.61915397644043, -8.959365844726562, 3.392589569091797, -9.786643981933594, 0.466796875, -0.401123046875, -0.77001953125
589, 2227675316, -4.474501609802246, 1.1364628076553345, 8.659812927246094, -5.458132743835449, 4.5522050857543945, -9.256036758422852, 0.46875, -0.3994140625, -0.77001953125
590, 2227691983, -4.508663654327393, 1.1730597019195557, 8.68575668334961, -3.478423595428467, 5.658660888671875, -9.65081787109375, 0.473876953125, -0.3984375, -0.769287109375
591, 2227708650, -4.499834060668945, 1.2429847717285156, 8.625133514404297, -2.3407845497131348, 7.134761333465576, -10.896854400634766, 0.475830078125, -0.39404296875, -0.767333984375
592, 2227725317, -4.741820812225342, 1.044164776802063, 8.629181861877441, -0.9845784902572632, 10.231596946716309, -11.138434410095215, 0.479248046875, -0.39453125, -0.766845703125
593, 2227741984, -4.268764019012451, 1.3225219249725342, 8.698119163513184, -3.2688002586364746, 17.136632919311523, -11.676131248474121, 0.484619140625, -0.392822265625, -0.7646484375
594, 2227758651, -4.44456148147583, 1.2778925895690918, 8.664749145507812, -7.571923732757568, 27.306894302368164, -16.516347885131836, 0.48876953125, -0.389892578125, -0.76220703125
595, 2227775318, -3.997025728225708, 0.7509680986404419, 8.629185676574707, -4.70852518081665, 45.695613861083984, -17.025840759277344, 0.502197265625, -0.388671875, -0.7548828125
596, 2227791985, -4.383303165435791, 1.198763132095337, 8.704007148742676, 3.761596918106079, 70.63591003417969, -19.02312660217285, 0.517578125, -0.387939453125, -0.741943359375
597, 2227808652, -4.795498847961426, 1.2041022777557373, 8.850404739379883, 5.414247512817383, 97.34007263183594, -21.969846725463867, 0.537353515625, -0.38623046875, -0.72705078125
598, 2227825319, -4.895299911499023, 1.3255462646484375, 8.68128776550293, 2.852803945541382, 127.13346862792969, -28.181222915649414, 0.56494140625, -0.382080078125, -0.708984375
599, 2227841986, -4.801088809967041, 0.9094834327697754, 8.779243469238281, -0.2534615099430084, 159.35023498535156, -36.74710464477539, 0.59912109375, -0.377197265625, -0.68115234375
600, 2227858653, -4.86625337600708, 0.707474946975708, 8.67361831665039, -6.8566060066223145, 195.6137237548828, -42.75880432128906, 0.639404296875, -0.369873046875, -0.648681640625
601, 2227875320, -5.782477378845215, 0.09968458861112595, 8.02089786529541, -13.639701843261719, 230.82772827148438, -41.45451354980469, 0.6845703125, -0.3603515625, -0.60595703125
602, 2227891987, -5.843611717224121, 0.530242383480072, 8.353483200073242, -24.150222778320312, 278.76934814453125, -39.20964431762695, 0.734375, -0.34912109375, -0.552734375
603, 2227908654, -6.160221576690674, 1.1016390323638916, 7.761588096618652, -38.14111328125, 368.2939758300781, -36.97552490234375, 0.791015625, -0.33740234375, -0.478759765625
604, 2227925321, -7.6646342277526855, 2.7016139030456543, 10.442604064941406, -24.28392219543457, 509.9006652832031, -50.25937271118164, 0.85009765625, -0.326171875, -0.364990234375
605, 2227941988, -14.386079788208008, 1.605244755744934, 16.115131378173828, -6.102910041809082, 595.893798828125, -72.88648223876953, 0.908935546875, -0.30859375, -0.214599609375
606, 2227958655, -16.748254776000977, 1.4737203121185303, 16.88865852355957, -11.66958236694336, 582.3289184570312, -89.31407165527344, 0.93994140625, -0.2880859375, -0.05517578125
607, 2227975322, -18.67101287841797, 6.3712849617004395, 16.297082901000977, -38.021095275878906, 588.3975830078125, -120.66751861572266, 0.9453125, -0.2568359375, 0.10498046875
608, 2227991989, -14.903157234191895, 5.0183210372924805, 18.377017974853516, -33.25093460083008, 527.30517578125, -125.41637420654297, 0.931640625, -0.225830078125, 0.249755859375
609, 2228008656, -16.734224319458008, 4.085570335388184, 23.8426456451416, -0.7796773910522461, 340.1146545410156, -76.69660186767578, 0.900146484375, -0.2041015625, 0.35400390625
610, 2228025323, -36.04069137573242, 7.694187641143799, 41.54469299316406, 47.61917495727539, 87.1825942993164, -17.274219512939453, 0.88330078125, -0.191650390625, 0.39990234375
611, 2228041990, -12.047222137451172, 7.158382892608643, 27.208534240722656, -12.599566459655762, -252.1675567626953, 0.20483878254890442, 0.900390625, -0.190185546875, 0.346923828125
612, 2228058657, -0.44095367193222046, 0.46624189615249634, 10.17409610748291, -51.67256546020508, -298.7006530761719, -28.271427154541016, 0.930908203125, -0.190185546875, 0.267578125
613, 2228075324, 1.7120529413223267, -1.2258833646774292, 4.443424701690674, -22.19535255432129, -257.4305114746094, -50.63668441772461, 0.951171875, -0.179931640625, 0.191162109375
614, 2228091991, -1.551625370979309, 0.2967078685760498, 6.73811149597168, 19.773622512817383, -234.63864135742188, -64.06055450439453, 0.965576171875, -0.162353515625, 0.126220703125
615, 2228108658, -5.708817481994629, 3.3858771324157715, 10.557777404785156, 32.49795150756836, -283.0455627441406, -69.5958023071289, 0.97509765625, -0.1416015625, 0.05419921875
616, 2228125325, -6.117825508117676, 5.5044121742248535, 9.810226440429688, 13.50842571258545, -349.33917236328125, -60.420631408691406, 0.97998046875, -0.1240234375, -0.04248046875
617, 2228141992, -5.577754974365234, 5.855507850646973, 7.102763652801514, 3.468693733215332, -382.3339538574219, -27.606935501098633, 0.969970703125, -0.114501953125, -0.147705078125
618, 2228158659, -6.104294776916504, 6.604185581207275, 6.369912147521973, 6.010648250579834, -390.75091552734375, 15.835187911987305, 0.947509765625, -0.11376953125, -0.25537109375
619, 2228175326, -8.10241413116455, 7.155636787414551, 7.846497058868408, 6.99751091003418, -395.3790588378906, 59.284915924072266, 0.9111328125, -0.13232421875, -0.363037109375
620, 2228191993, -10.055611610412598, 7.054618835449219, 9.901408195495605, 6.508397579193115, -411.2189636230469, 100.16172790527344, 0.862060546875, -0.153076171875, -0.468017578125
621, 2228208660, -11.356853485107422, 5.158170700073242, 10.908502578735352, 11.881662368774414, -428.93121337890625, 128.4251251220703, 0.789794921875, -0.18701171875, -0.56396484375
622, 2228225327, -13.013236045837402, 2.1931772232055664, 11.531675338745117, 42.87343978881836, -443.5244140625, 138.1274871826172, 0.705322265625, -0.22265625, -0.660400390625
623, 2228241994, -14.323403358459473, -1.9158070087432861, 10.160514831542969, 99.87092590332031, -414.5999450683594, 119.45063781738281, 0.608642578125, -0.264404296875, -0.73388671875
624, 2228258661, -17.420917510986328, -3.387726068496704, 11.241544723510742, 164.7272491455078, -348.9849548339844, 76.80509185791016, 0.521240234375, -0.312255859375, -0.7802734375
625, 2228275328, -24.648910522460938, -4.336674213409424, 18.52854347229004, 204.74981689453125, -319.6567687988281, 39.521488189697266, 0.4443359375, -0.36376953125, -0.80322265625
626, 2228291995, -27.98658561706543, -3.609347343444824, 15.486292839050293, 225.9719696044922, -349.2384338378906, 46.82627487182617, 0.359130859375, -0.423583984375, -0.817138671875
627, 2228308662, -26.939300537109375, -2.969449520111084, 6.892067909240723, 182.48995971679688, -326.7171325683594, 67.4111328125, 0.2685546875, -0.47802734375, -0.8203125
628, 2228325329, -31.064496994018555, -2.7432260513305664, 1.3436366319656372, 112.08360290527344, -269.220703125, 86.87621307373047, 0.189453125, -0.5146484375, -0.8203125
629, 2228341996, -32.180362701416016, -2.4818122386932373, -7.155501365661621, 28.74997329711914, -207.69854736328125, 97.98448944091797, 0.121826171875, -0.531494140625, -0.821044921875
630, 2228358663, -34.088985443115234, -6.068238735198975, -11.945408821105957, -40.98325729370117, -132.63052368164062, 90.12318420410156, 0.0693359375, -0.529296875, -0.82763671875
631, 2228375330, -34.197994232177734, -6.538747310638428, -14.392778396606445, -69.6907730102539, -49.81952667236328, 76.26889038085938, 0.036865234375, -0.517333984375, -0.838623046875
632, 2228391997, -22.742515563964844, -11.085626602172852, -20.796245574951172, -166.56947326660156, 123.30294799804688, 28.39570426940918, 0.051513671875, -0.479736328125, -0.86083984375
633, 2228408664, 4.705328464508057, -15.892932891845703, 25.816946029663086, -72.37130737304688, 184.9371337890625, -38.23555374145508, 0.093505859375, -0.45654296875, -0.866943359375
634, 2228425331, -8.72105598449707, -8.674422264099121, 13.498151779174805, -38.1107177734375, 237.66537475585938, -114.72875213623047, 0.1640625, -0.43798828125, -0.8662109375
635, 2228441998, -11.43908405303955, 2.8060381412506104, 12.290444374084473, 14.31137466430664, 262.2601013183594, -37.52742385864258, 0.237548828125, -0.4375, -0.8486328125
636, 2228458665, -8.600052833557129, 6.402272701263428, 12.85222053527832, 53.0767822265625, 224.18389892578125, -0.5167432427406311, 0.294677734375, -0.450439453125, -0.82421875
637, 2228475332, -5.971580505371094, 5.336696624755859, 7.462996959686279, 52.042884826660156, 215.53562927246094, -4.624035358428955, 0.34716796875, -0.462890625, -0.794677734375
638, 2228491999, -6.973825454711914, 0.3103487491607666, 12.78076171875, -1.2500118017196655, 183.09022521972656, -24.930126190185547, 0.39404296875, -0.465576171875, -0.7724609375
639, 2228508666, -17.788095474243164, 3.831005811691284, 16.659021377563477, -44.55787658691406, 99.67377471923828, -30.705699920654297, 0.42724609375, -0.45263671875, -0.761474609375
640, 2228525333, -6.316584587097168, -0.9079988598823547, 11.52684497833252, -47.85939407348633, 33.385963439941406, -18.35317611694336, 0.442138671875, -0.441650390625, -0.761962890625
641, 2228542000, -5.634383201599121, 1.4513683319091797, 9.233370780944824, -35.273555755615234, 6.37144136428833, -13.038620948791504, 0.445556640625, -0.43212890625, -0.764892578125
642, 2228558667, -4.7673163414001465, 0.9928021430969238, 8.970565795898438, -29.746187210083008, -1.7790894508361816, -9.588323593139648, 0.44677734375, -0.425048828125, -0.7705078125
643, 2228575334, -4.512970924377441, 0.8948631286621094, 8.942292213439941, -27.450727462768555, -4.4334564208984375, -7.705629825592041, 0.44580078125, -0.418212890625, -0.775146484375
644, 2228592001, -4.611971855163574, 1.6513503789901733, 8.73211669921875, -25.198518753051758, -5.541988372802734, -8.218151092529297, 0.44677734375, -0.4130859375, -0.77685546875
645, 2228608668, -4.484833717346191, 1.657508134841919, 8.57382583618164, -23.7436580657959, -6.775714874267578, -9.476747512817383, 0.444091796875, -0.40576171875, -0.780029296875
646, 2228625335, -4.29617977142334, 1.466915488243103, 8.61767864227295, -22.651824951171875, -7.5334553718566895, -10.597548484802246, 0.4443359375, -0.400634765625, -0.782470703125
647, 2228642002, -4.082531452178955, 1.376717209815979, 8.653642654418945, -21.927350997924805, -6.7476301193237305, -11.79450798034668, 0.4462890625, -0.394775390625, -0.78466796875
648, 2228658669, -4.049500465393066, 1.2347050905227661, 8.631771087646484, -21.155048370361328, -5.188299179077148, -12.416014671325684, 0.44580078125, -0.39013671875, -0.78759765625
649, 2228675336, -4.3387980461120605, 0.9224613904953003, 8.7122802734375, -17.384597778320312, -3.309793710708618, -11.70043659210205, 0.446044921875, -0.3837890625, -0.791259765625
650, 2228692003, -4.367122173309326, 1.0860545635223389, 8.587294578552246, -13.256516456604004, -1.2549464702606201, -10.254642486572266, 0.446533203125, -0.3818359375, -0.792724609375
651, 2228708670, -4.245006561279297, 1.1746042966842651, 8.661833763122559, -12.627163887023926, -2.063309907913208, -11.830645561218262, 0.448486328125, -0.376708984375, -0.792236328125
652, 2228725337, -4.2015156745910645, 0.9600324034690857, 8.792696952819824, -13.530594825744629, -3.087628126144409, -14.812971115112305, 0.449951171875, -0.372802734375, -0.794921875
