sep=,
DeviceTag:,A,,,,,,,,,,,,,,,,,
FirmwareVersion:,2.2.1,,,,,,,,,,,,,,,,,
AppVersion:,2022.0.1,,,,,,,,,,,,,,,,,
SyncStatus:,Synced,,,,,,,,,,,,,,,,,
OutputRate:,60Hz,,,,,,,,,,,,,,,,,
FilterProfile:,General,,,,,,,,,,,,,,,,,
Measurement Mode:,Inertial Mode - Rate quantities (with mag),,,,,,,,,,,,,,,,,
StartTime:,2022-08-03 15:28:43.662 +0300,,,,,,,,,,,,,,,,,
© Xsens Technologies B. V. 2005-2022,,,,,,,,,,,,,,,,,,,

PacketCounter,SampleTimeFine,Acc_X,Acc_Y,Acc_Z,Gyr_X,Gyr_Y,Gyr_Z,Mag_X,Mag_Y,Mag_Z
1, 507955309, -4.957980155944824, 1.9770702123641968, 8.340896606445312, -2.371748924255371, -1.4281257390975952, -2.4146628379821777, 0.781982421875, -0.6494140625, -0.5048828125
2, 507971976, -4.923857688903809, 1.9762178659439087, 8.330865859985352, -2.362694501876831, -1.4536486864089966, -2.3825955390930176, 0.781005859375, -0.64892578125, -0.50732421875
3, 507988643, -4.9553070068359375, 1.9853087663650513, 8.345768928527832, -2.395146131515503, -1.6052762269973755, -2.456270933151245, 0.782470703125, -0.650390625, -0.5068359375
4, 508005310, -4.949167728424072, 1.978162407875061, 8.320429801940918, -2.420400381088257, -1.536198616027832, -2.5112102031707764, 0.781005859375, -0.6494140625, -0.50537109375
5, 508021977, -4.954475402832031, 1.9741624593734741, 8.333651542663574, -2.4399428367614746, -1.4430068731307983, -2.434999465942383, 0.782470703125, -0.64794921875, -0.50634765625
6, 508038644, -4.958475112915039, 1.9766494035720825, 8.348289489746094, -2.3676764965057373, -1.573708415031433, -2.4801547527313232, 0.781982421875, -0.650390625, -0.5068359375
7, 508055311, -4.982090473175049, 1.9555516242980957, 8.329728126525879, -2.3783822059631348, -1.5594675540924072, -2.4001145362854004, 0.782470703125, -0.6484375, -0.50537109375
8, 508071978, -4.959223747253418, 1.9811596870422363, 8.323885917663574, -2.5328269004821777, -1.6074018478393555, -2.2781729698181152, 0.782958984375, -0.6513671875, -0.50634765625
9, 508088645, -4.953213691711426, 1.9728797674179077, 8.340723991394043, -2.4169297218322754, -1.5819811820983887, -2.3500804901123047, 0.782470703125, -0.6484375, -0.5068359375
10, 508105312, -4.940804958343506, 1.9719904661178589, 8.316863059997559, -2.360774040222168, -1.4663912057876587, -2.3366339206695557, 0.783447265625, -0.6494140625, -0.5068359375
11, 508121979, -4.963313579559326, 1.9622713327407837, 8.341139793395996, -2.179615020751953, -1.3752354383468628, -2.3098299503326416, 0.77978515625, -0.6484375, -0.507568359375
12, 508138646, -4.968824863433838, 1.9428496360778809, 8.319049835205078, -1.8741966485977173, -1.2873455286026, -1.9870458841323853, 0.781494140625, -0.6484375, -0.510009765625
13, 508155313, -4.979976654052734, 1.9666383266448975, 8.329442977905273, -1.4870094060897827, -1.203860878944397, -1.8518749475479126, 0.783935546875, -0.6494140625, -0.5078125
14, 508171980, -4.967986583709717, 1.967761754989624, 8.319622993469238, -1.2752306461334229, -1.2005953788757324, -1.6078755855560303, 0.781982421875, -0.64794921875, -0.505859375
15, 508188647, -4.9638671875, 1.9859232902526855, 8.337135314941406, -1.2368500232696533, -1.291225790977478, -1.7021944522857666, 0.780029296875, -0.65185546875, -0.50537109375
16, 508205314, -4.9490180015563965, 1.9904289245605469, 8.342792510986328, -1.3383276462554932, -1.2264386415481567, -1.6573851108551025, 0.781982421875, -0.6494140625, -0.50537109375
17, 508221981, -4.9712114334106445, 1.9969563484191895, 8.323531150817871, -1.5564452409744263, -1.1518031358718872, -1.8324861526489258, 0.786376953125, -0.6494140625, -0.505859375
18, 508238648, -4.983439922332764, 1.9993950128555298, 8.332743644714355, -1.6563092470169067, -1.3290941715240479, -1.8667815923690796, 0.782470703125, -0.65185546875, -0.505859375
19, 508255315, -4.981686115264893, 1.992743730545044, 8.336504936218262, -1.8356492519378662, -1.3727638721466064, -1.7948611974716187, 0.780517578125, -0.6533203125, -0.5048828125
20, 508271982, -4.963222980499268, 2.00783109664917, 8.353804588317871, -1.8661799430847168, -1.5800602436065674, -1.797051191329956, 0.781494140625, -0.65185546875, -0.50439453125
21, 508288649, -4.967628002166748, 2.0153090953826904, 8.325374603271484, -1.9462193250656128, -1.640621542930603, -1.8992455005645752, 0.781982421875, -0.65087890625, -0.50537109375
22, 508305316, -4.96900749206543, 2.0229532718658447, 8.326886177062988, -2.1577672958374023, -1.7156410217285156, -1.9603575468063354, 0.783935546875, -0.6513671875, -0.5029296875
23, 508321983, -4.953488349914551, 2.0148868560791016, 8.31029224395752, -2.239100933074951, -1.77597177028656, -2.129823923110962, 0.784912109375, -0.6533203125, -0.50390625
24, 508338650, -4.963934421539307, 1.996293544769287, 8.336488723754883, -2.330064535140991, -1.610270619392395, -2.236398696899414, 0.780029296875, -0.65283203125, -0.505859375
25, 508355317, -4.9722185134887695, 1.9975980520248413, 8.313627243041992, -2.2654175758361816, -1.6273412704467773, -2.193138360977173, 0.783935546875, -0.6533203125, -0.5048828125
26, 508371984, -4.980325222015381, 1.998860239982605, 8.324515342712402, -2.3090875148773193, -1.8015204668045044, -2.11849045753479, 0.781982421875, -0.65234375, -0.50390625
27, 508388651, -4.961992263793945, 2.0173962116241455, 8.32387924194336, -2.383274793624878, -1.7746272087097168, -2.1956231594085693, 0.782958984375, -0.65185546875, -0.505859375
28, 508405318, -4.966184616088867, 1.995089054107666, 8.30342960357666, -2.443439245223999, -1.7964110374450684, -2.3177831172943115, 0.784912109375, -0.6533203125, -0.503173828125
29, 508421985, -4.986441612243652, 2.0030601024627686, 8.326653480529785, -2.592146396636963, -1.7182282209396362, -2.3938019275665283, 0.782958984375, -0.65283203125, -0.50439453125
30, 508438652, -4.971314430236816, 1.9869896173477173, 8.3233642578125, -2.5903024673461914, -1.842808485031128, -2.331191301345825, 0.782470703125, -0.65185546875, -0.50537109375
31, 508455319, -4.967288494110107, 2.0069079399108887, 8.320746421813965, -2.6141862869262695, -1.8863883018493652, -2.277212619781494, 0.780517578125, -0.65185546875, -0.505859375
32, 508471986, -4.9571452140808105, 2.000103712081909, 8.326783180236816, -2.560847759246826, -1.7823880910873413, -2.367100238800049, 0.781005859375, -0.65234375, -0.5048828125
33, 508488653, -4.956928730010986, 1.9976527690887451, 8.320225715637207, -2.494523525238037, -1.7302149534225464, -2.367125988006592, 0.784423828125, -0.64990234375, -0.50732421875
34, 508505320, -4.975092887878418, 1.995036244392395, 8.326414108276367, -2.525540351867676, -1.7093532085418701, -2.3971312046051025, 0.780029296875, -0.64990234375, -0.50341796875
35, 508521987, -4.971498966217041, 2.009720802307129, 8.328917503356934, -2.524836301803589, -1.7777905464172363, -2.2410221099853516, 0.783447265625, -0.6533203125, -0.50439453125
36, 508538654, -4.962841510772705, 1.9878268241882324, 8.308355331420898, -2.5532023906707764, -1.8899357318878174, -2.2984330654144287, 0.783447265625, -0.6513671875, -0.50537109375
37, 508555321, -4.971500396728516, 1.9900985956192017, 8.311750411987305, -2.6631832122802734, -1.8922410011291504, -2.3679583072662354, 0.783447265625, -0.650390625, -0.5048828125
38, 508571988, -4.964213848114014, 1.9862309694290161, 8.326559066772461, -2.678832769393921, -1.9681698083877563, -2.3391568660736084, 0.783447265625, -0.6513671875, -0.50537109375
39, 508588655, -4.967690944671631, 1.9890657663345337, 8.329272270202637, -2.6685614585876465, -1.9575657844543457, -2.384721517562866, 0.782470703125, -0.6513671875, -0.505859375
40, 508605322, -4.978610992431641, 1.9965049028396606, 8.313815116882324, -2.7572457790374756, -1.8303735256195068, -2.341423749923706, 0.783447265625, -0.6513671875, -0.50439453125
41, 508621989, -4.969155788421631, 1.9955430030822754, 8.304798126220703, -2.6207175254821777, -1.913525104522705, -2.378613233566284, 0.781494140625, -0.6513671875, -0.50537109375
42, 508638656, -4.964977741241455, 1.997338891029358, 8.335357666015625, -2.7234623432159424, -1.9575401544570923, -2.429287910461426, 0.782470703125, -0.650390625, -0.50732421875
43, 508655323, -4.942470550537109, 2.001593828201294, 8.337876319885254, -2.6059646606445312, -1.8636828660964966, -2.387552261352539, 0.783447265625, -0.650390625, -0.50537109375
44, 508671990, -4.971221446990967, 1.9785003662109375, 8.318479537963867, -2.649864673614502, -1.7726423740386963, -2.392444133758545, 0.784423828125, -0.648193359375, -0.50439453125
45, 508688657, -4.9726996421813965, 1.996015191078186, 8.318452835083008, -2.620896577835083, -1.8089228868484497, -2.363834857940674, 0.781494140625, -0.650390625, -0.5068359375
46, 508705324, -4.956570625305176, 1.9914815425872803, 8.322540283203125, -2.7236413955688477, -1.9551324844360352, -2.3558433055877686, 0.782470703125, -0.65283203125, -0.50634765625
47, 508721991, -4.972530841827393, 1.9806184768676758, 8.321636199951172, -2.788057565689087, -1.962483286857605, -2.4706010818481445, 0.782470703125, -0.650390625, -0.50634765625
48, 508738658, -4.956694602966309, 1.9854941368103027, 8.350311279296875, -2.806344985961914, -1.825263261795044, -2.4153671264648438, 0.784423828125, -0.650390625, -0.5068359375
49, 508755325, -4.975865364074707, 1.981364130973816, 8.292815208435059, -2.729557991027832, -1.8518238067626953, -2.444962501525879, 0.781494140625, -0.65185546875, -0.5048828125
50, 508771992, -4.963247299194336, 1.967877745628357, 8.349081039428711, -2.705188035964966, -1.8033263683319092, -2.3950438499450684, 0.782958984375, -0.64892578125, -0.505859375
51, 508788659, -4.954629898071289, 1.9675569534301758, 8.334141731262207, -2.618425130844116, -1.7727192640304565, -2.3720948696136475, 0.781494140625, -0.64892578125, -0.5068359375
52, 508805326, -4.966668605804443, 1.965690016746521, 8.337340354919434, -2.516768217086792, -1.90267813205719, -2.2975363731384277, 0.783447265625, -0.64990234375, -0.505859375
53, 508821993, -4.9674482345581055, 1.9759620428085327, 8.328479766845703, -2.523555278778076, -1.7876640558242798, -2.3804314136505127, 0.782958984375, -0.64990234375, -0.5068359375
54, 508838660, -4.969566822052002, 1.983267068862915, 8.311970710754395, -2.5716819763183594, -1.7537530660629272, -2.3831212520599365, 0.781494140625, -0.65234375, -0.5068359375
55, 508855327, -4.975594520568848, 1.9745885133743286, 8.32762622833252, -2.5514347553253174, -1.7370150089263916, -2.392367124557495, 0.782470703125, -0.6494140625, -0.50537109375
56, 508871994, -4.978332996368408, 1.9657738208770752, 8.336462020874023, -2.487736225128174, -1.728870153427124, -2.2852675914764404, 0.783447265625, -0.65087890625, -0.50439453125
57, 508888661, -4.967271327972412, 1.9815033674240112, 8.318572998046875, -2.5060746669769287, -1.7450063228607178, -2.327951431274414, 0.782958984375, -0.6494140625, -0.50634765625
58, 508905328, -4.966984272003174, 1.9877352714538574, 8.331245422363281, -2.4951000213623047, -1.8145831823349, -2.261140823364258, 0.781982421875, -0.650390625, -0.5068359375
59, 508921995, -4.957964897155762, 1.9707540273666382, 8.331912994384766, -2.5371813774108887, -1.5946468114852905, -2.337773561477661, 0.781982421875, -0.64892578125, -0.50537109375
60, 508938662, -4.973659992218018, 1.9752588272094727, 8.316323280334473, -2.465491533279419, -1.8050422668457031, -2.308600664138794, 0.783447265625, -0.65087890625, -0.5068359375
61, 508955329, -4.973879337310791, 1.9624706506729126, 8.317646026611328, -2.5685956478118896, -1.8622612953186035, -2.2793514728546143, 0.784912109375, -0.65087890625, -0.50634765625
62, 508971996, -4.968051433563232, 1.9676883220672607, 8.32684326171875, -2.517690420150757, -1.8850311040878296, -2.255544424057007, 0.782470703125, -0.64990234375, -0.5068359375
63, 508988663, -4.95847225189209, 1.9758208990097046, 8.320767402648926, -2.4965341091156006, -1.6954456567764282, -2.2910690307617188, 0.783935546875, -0.6494140625, -0.505859375
64, 509005330, -4.951694965362549, 1.9684573411941528, 8.315325736999512, -2.56146240234375, -1.7614113092422485, -2.309920310974121, 0.783447265625, -0.6494140625, -0.50341796875
65, 509021997, -4.957968711853027, 1.9698907136917114, 8.350313186645508, -2.5681474208831787, -1.7076884508132935, -2.2691445350646973, 0.781982421875, -0.647216796875, -0.50390625
66, 509038664, -4.963405609130859, 1.978507161140442, 8.316800117492676, -2.6464195251464844, -1.752715826034546, -2.3275928497314453, 0.782958984375, -0.64892578125, -0.5068359375
67, 509055331, -4.973865032196045, 1.9569499492645264, 8.326342582702637, -2.5329041481018066, -1.7726423740386963, -2.3577260971069336, 0.781982421875, -0.64892578125, -0.5068359375
68, 509071998, -4.968231678009033, 1.9816373586654663, 8.335023880004883, -2.5146422386169434, -1.7098270654678345, -2.2733192443847656, 0.783935546875, -0.6513671875, -0.5068359375
69, 509088665, -4.950042247772217, 1.9665154218673706, 8.339861869812012, -2.538398265838623, -1.6026510000228882, -2.3664474487304688, 0.782470703125, -0.6494140625, -0.50537109375
70, 509105332, -4.977986812591553, 1.9577603340148926, 8.327014923095703, -2.3686113357543945, -1.5904334783554077, -2.329718589782715, 0.784423828125, -0.64990234375, -0.50830078125
71, 509121999, -4.985836029052734, 1.9541192054748535, 8.338205337524414, -2.3422813415527344, -1.5811614990234375, -2.1284537315368652, 0.782470703125, -0.65087890625, -0.5087890625
72, 509138666, -4.971847057342529, 1.9624325037002563, 8.316892623901367, -2.3326256275177, -1.670857310295105, -2.2265377044677734, 0.784423828125, -0.64892578125, -0.50830078125
73, 509155333, -4.961368560791016, 1.9816547632217407, 8.315528869628906, -2.2842047214508057, -1.7183176279067993, -2.186978816986084, 0.782470703125, -0.64794921875, -0.505859375
74, 509172000, -4.967620849609375, 1.9734026193618774, 8.316649436950684, -2.363079309463501, -1.7372583150863647, -2.1294400691986084, 0.780517578125, -0.64892578125, -0.505859375
75, 509188667, -4.971316814422607, 1.9717904329299927, 8.330794334411621, -2.335686206817627, -1.7099679708480835, -2.1657333374023438, 0.782958984375, -0.64990234375, -0.50439453125
76, 509205334, -4.9769062995910645, 1.968973994255066, 8.334282875061035, -2.33791446685791, -1.661790370941162, -2.2140259742736816, 0.781494140625, -0.6484375, -0.505859375
77, 509222001, -4.960058212280273, 1.9667655229568481, 8.31385326385498, -2.410001516342163, -1.7868573665618896, -2.173135280609131, 0.784423828125, -0.650390625, -0.5078125
78, 509238668, -4.970104694366455, 1.974806308746338, 8.337811470031738, -2.4664008617401123, -1.8411306142807007, -2.1718931198120117, 0.783935546875, -0.64892578125, -0.505859375
79, 509255335, -4.974029541015625, 1.960048794746399, 8.3351469039917, -2.494074821472168, -1.8705593347549438, -2.138519525527954, 0.781494140625, -0.64794921875, -0.50439453125
80, 509272002, -4.9710187911987305, 1.9751063585281372, 8.3196439743042, -2.441056966781616, -1.7912626266479492, -2.1221659183502197, 0.783447265625, -0.648193359375, -0.505859375
81, 509288669, -4.970798969268799, 1.9812556505203247, 8.312723159790039, -2.3293728828430176, -1.93804931640625, -2.1854805946350098, 0.784423828125, -0.647216796875, -0.50634765625
82, 509305336, -4.9558000564575195, 1.9591478109359741, 8.336949348449707, -2.411486864089966, -1.8582655191421509, -2.2029740810394287, 0.783447265625, -0.64892578125, -0.5068359375
83, 509322003, -4.965691089630127, 1.9844422340393066, 8.329154014587402, -2.3087544441223145, -1.852810025215149, -2.186786651611328, 0.783447265625, -0.6484375, -0.50634765625
84, 509338670, -4.966779708862305, 1.9652074575424194, 8.3101806640625, -2.3470070362091064, -1.8194493055343628, -2.1715598106384277, 0.782470703125, -0.64794921875, -0.5068359375
85, 509355337, -4.974867343902588, 1.9729602336883545, 8.331438064575195, -2.3680479526519775, -1.9521361589431763, -2.052729845046997, 0.783447265625, -0.64892578125, -0.5068359375
86, 509372004, -4.963775157928467, 1.9735747575759888, 8.338143348693848, -2.3264145851135254, -2.0065886974334717, -2.1430916786193848, 0.781005859375, -0.64794921875, -0.50439453125
87, 509388671, -4.978964328765869, 1.9779692888259888, 8.311629295349121, -2.438624143600464, -1.963546872138977, -2.200451612472534, 0.782470703125, -0.64892578125, -0.50732421875
88, 509405338, -4.951741695404053, 1.985331416130066, 8.32186222076416, -2.5119788646698, -2.0061533451080322, -2.117530584335327, 0.782958984375, -0.6484375, -0.5078125
89, 509422005, -4.949740886688232, 1.977219581604004, 8.314457893371582, -2.5010550022125244, -1.877321481704712, -2.2355408668518066, 0.781005859375, -0.64794921875, -0.505859375
90, 509438672, -4.96518087387085, 1.9709035158157349, 8.333536148071289, -2.563319444656372, -1.894392490386963, -2.2941043376922607, 0.781982421875, -0.6484375, -0.50537109375
91, 509455339, -4.96073579788208, 1.9673211574554443, 8.313944816589355, -2.4695513248443604, -1.8811250925064087, -2.2014245986938477, 0.782470703125, -0.647705078125, -0.505859375
92, 509472006, -4.961883068084717, 1.960409164428711, 8.337237358093262, -2.4705755710601807, -1.7469269037246704, -2.185710906982422, 0.782470703125, -0.650390625, -0.50634765625
93, 509488673, -4.972632884979248, 1.9832884073257446, 8.33415412902832, -2.5069453716278076, -1.7754210233688354, -2.20621395111084, 0.782470703125, -0.64892578125, -0.5068359375
94, 509505340, -4.954870700836182, 1.9872326850891113, 8.358857154846191, -2.487006187438965, -1.8176437616348267, -2.1019318103790283, 0.780517578125, -0.64990234375, -0.5068359375
95, 509522007, -4.963787078857422, 1.9710651636123657, 8.331975936889648, -2.582836389541626, -1.8421298265457153, -2.238025188446045, 0.783935546875, -0.6494140625, -0.50732421875
96, 509538674, -4.969927787780762, 1.9678831100463867, 8.330294609069824, -2.5239527225494385, -1.8232659101486206, -2.209556818008423, 0.782958984375, -0.64892578125, -0.5078125
97, 509555341, -4.967349529266357, 1.9398033618927002, 8.342674255371094, -2.534658908843994, -1.932721734046936, -2.1665403842926025, 0.783447265625, -0.64990234375, -0.5078125
98, 509572008, -4.965831756591797, 1.9828236103057861, 8.337594032287598, -2.503885269165039, -1.927727460861206, -2.133333444595337, 0.781982421875, -0.6494140625, -0.5048828125
99, 509588675, -4.965386867523193, 1.9672987461090088, 8.338091850280762, -2.4547598361968994, -1.9720754623413086, -2.0896506309509277, 0.784423828125, -0.65234375, -0.50634765625
100, 509605342, -4.944277763366699, 1.9824286699295044, 8.320155143737793, -2.4427731037139893, -1.8863115310668945, -2.1380457878112793, 0.782470703125, -0.6484375, -0.505859375
101, 509622009, -4.966479778289795, 1.9773242473602295, 8.330655097961426, -2.3846960067749023, -1.9359488487243652, -2.1494178771972656, 0.783935546875, -0.6494140625, -0.50537109375
102, 509638676, -4.952060699462891, 1.9691050052642822, 8.341891288757324, -2.4375734329223633, -1.9595253467559814, -2.0907135009765625, 0.781494140625, -0.64990234375, -0.5068359375
103, 509655343, -4.957202434539795, 1.9856204986572266, 8.334465026855469, -2.3806748390197754, -1.9915668964385986, -2.111907720565796, 0.784423828125, -0.64892578125, -0.5078125
104, 509672010, -4.939522743225098, 1.9724353551864624, 8.343071937561035, -2.365806818008423, -1.927586317062378, -2.1887075901031494, 0.782958984375, -0.64990234375, -0.5078125
105, 509688677, -4.96433687210083, 1.9682725667953491, 8.313854217529297, -2.5061516761779785, -1.8506585359573364, -2.1433987617492676, 0.781494140625, -0.646728515625, -0.5068359375
106, 509705344, -4.970485210418701, 1.974779725074768, 8.317719459533691, -2.3803293704986572, -1.9511370658874512, -2.118823528289795, 0.781494140625, -0.6474609375, -0.50634765625
107, 509722011, -4.955242156982422, 1.9585998058319092, 8.324881553649902, -2.325812339782715, -1.9831657409667969, -2.124817132949829, 0.782470703125, -0.650390625, -0.5078125
108, 509738678, -4.953276634216309, 1.9836039543151855, 8.338327407836914, -2.4078118801116943, -1.9235906600952148, -2.108975410461426, 0.780517578125, -0.6494140625, -0.505859375
109, 509755345, -4.955897808074951, 1.9708133935928345, 8.327350616455078, -2.3649871349334717, -2.0061657428741455, -2.1699464321136475, 0.781494140625, -0.65087890625, -0.50732421875
110, 509772012, -4.94254732131958, 1.9757894277572632, 8.316014289855957, -2.4467172622680664, -1.942275047302246, -2.1370596885681152, 0.782958984375, -0.64892578125, -0.50634765625
111, 509788679, -4.965634822845459, 1.9625635147094727, 8.326863288879395, -2.4333600997924805, -1.8760278224945068, -2.1552319526672363, 0.782958984375, -0.6484375, -0.50732421875
112, 509805346, -4.962904930114746, 1.9657663106918335, 8.330878257751465, -2.531674861907959, -1.9795418977737427, -2.120795965194702, 0.782958984375, -0.64892578125, -0.50537109375
113, 509822013, -4.946412086486816, 1.9676986932754517, 8.341716766357422, -2.499441146850586, -2.0521535873413086, -2.0664970874786377, 0.781005859375, -0.64892578125, -0.5078125
114, 509838680, -4.946753978729248, 1.9847379922866821, 8.319122314453125, -2.5991644859313965, -2.009380578994751, -2.191000461578369, 0.783935546875, -0.64990234375, -0.5068359375
115, 509855347, -4.954190254211426, 1.9710012674331665, 8.357380867004395, -2.608628034591675, -2.0135555267333984, -2.150071382522583, 0.781494140625, -0.6494140625, -0.505859375
116, 509872014, -4.965132713317871, 1.959579586982727, 8.33852481842041, -2.533698081970215, -1.9283931255340576, -2.1350619792938232, 0.782470703125, -0.6484375, -0.508544921875
117, 509888681, -4.960380554199219, 1.9778351783752441, 8.328559875488281, -2.4898619651794434, -2.0341098308563232, -2.1012532711029053, 0.782958984375, -0.64990234375, -0.5087890625
118, 509905348, -4.960093021392822, 1.9654273986816406, 8.332798957824707, -2.4994027614593506, -1.9475642442703247, -2.112919807434082, 0.782470703125, -0.64892578125, -0.508544921875
119, 509922015, -4.951941967010498, 1.9641855955123901, 8.315299987792969, -2.5462486743927, -2.058800220489502, -2.1558210849761963, 0.780517578125, -0.65087890625, -0.5068359375
120, 509938682, -4.948136329650879, 1.9672271013259888, 8.325441360473633, -2.3704299926757812, -2.109398126602173, -2.057365894317627, 0.779541015625, -0.64892578125, -0.508056640625
121, 509955349, -4.955215930938721, 1.9632775783538818, 8.318371772766113, -2.473034620285034, -2.0646913051605225, -2.081749439239502, 0.782958984375, -0.64990234375, -0.5068359375
122, 509972016, -4.941153049468994, 1.9627455472946167, 8.326523780822754, -2.5242857933044434, -2.1724438667297363, -2.146101236343384, 0.782958984375, -0.64990234375, -0.5068359375
123, 509988683, -4.958376884460449, 1.9703176021575928, 8.33707046508789, -2.524080753326416, -2.1610591411590576, -2.1392881870269775, 0.781494140625, -0.64990234375, -0.510009765625
124, 510005350, -4.934333801269531, 1.970679521560669, 8.351902961730957, -2.531393051147461, -2.1028285026550293, -2.0921735763549805, 0.783447265625, -0.64990234375, -0.50830078125
125, 510022017, -4.924363613128662, 1.9547232389450073, 8.349891662597656, -2.5429956912994385, -2.0842466354370117, -2.172354221343994, 0.77978515625, -0.6474609375, -0.511474609375
126, 510038684, -4.949151992797852, 1.974574089050293, 8.32950496673584, -2.428954839706421, -1.8759509325027466, -2.212578773498535, 0.781005859375, -0.64794921875, -0.508056640625
127, 510055351, -4.960493564605713, 1.9701846837997437, 8.333006858825684, -2.477926731109619, -1.9054700136184692, -2.184443473815918, 0.78076171875, -0.64697265625, -0.507080078125
128, 510072018, -4.957083702087402, 1.9459800720214844, 8.325807571411133, -2.4375991821289062, -1.9708331823349, -2.2014756202697754, 0.77978515625, -0.6484375, -0.508056640625
129, 510088685, -4.937690734863281, 1.9686139822006226, 8.329742431640625, -2.477977752685547, -1.9125131368637085, -2.1857495307922363, 0.779296875, -0.6484375, -0.507080078125
130, 510105352, -4.946481227874756, 1.960628628730774, 8.336958885192871, -2.3861563205718994, -1.8166320323944092, -2.139531373977661, 0.781494140625, -0.6494140625, -0.50732421875
131, 510122019, -4.957728862762451, 1.9610681533813477, 8.344280242919922, -2.3802781105041504, -1.9027804136276245, -2.0649471282958984, 0.782470703125, -0.64794921875, -0.510986328125
132, 510138686, -4.942187786102295, 1.9673360586166382, 8.321711540222168, -2.388794183731079, -1.8688050508499146, -2.042203187942505, 0.7802734375, -0.64794921875, -0.508056640625
133, 510155353, -4.928643703460693, 1.9697120189666748, 8.33907699584961, -2.3234944343566895, -1.9026392698287964, -2.0691473484039307, 0.780029296875, -0.650390625, -0.509033203125
134, 510172020, -4.94781494140625, 1.9649690389633179, 8.35275936126709, -2.34504771232605, -1.9603321552276611, -2.083439588546753, 0.780517578125, -0.6484375, -0.507080078125
135, 510188687, -4.939065933227539, 1.9812908172607422, 8.328291893005371, -2.4463329315185547, -2.032111406326294, -2.028231382369995, 0.779296875, -0.6484375, -0.508056640625
136, 510205354, -4.932239532470703, 1.9697988033294678, 8.325940132141113, -2.411883592605591, -1.9228861331939697, -2.060042142868042, 0.779541015625, -0.64892578125, -0.509033203125
137, 510222021, -4.938690185546875, 1.984203577041626, 8.364114761352539, -2.497673988342285, -1.8965181112289429, -2.162929058074951, 0.781982421875, -0.6474609375, -0.509033203125
138, 510238688, -4.937138080596924, 1.962189793586731, 8.350008964538574, -2.369866132736206, -1.9037278890609741, -2.0428175926208496, 0.781494140625, -0.6494140625, -0.50732421875
139, 510255355, -4.942963123321533, 1.9665673971176147, 8.354984283447266, -2.3582253456115723, -1.894622802734375, -2.1059019565582275, 0.782470703125, -0.64794921875, -0.50830078125
140, 510272022, -4.938492774963379, 1.9690625667572021, 8.328577041625977, -2.4413771629333496, -1.9095934629440308, -1.956477403640747, 0.780517578125, -0.64990234375, -0.50732421875
141, 510288689, -4.944930553436279, 1.9665753841400146, 8.339873313903809, -2.4299795627593994, -1.9635976552963257, -2.0486702919006348, 0.780029296875, -0.64990234375, -0.505859375
142, 510305356, -4.944414138793945, 1.9656062126159668, 8.341554641723633, -2.4886584281921387, -2.0673933029174805, -2.096937656402588, 0.779541015625, -0.6494140625, -0.507080078125
143, 510322023, -4.938158988952637, 1.948541283607483, 8.353843688964844, -2.462456226348877, -2.0982179641723633, -2.0740649700164795, 0.7783203125, -0.6484375, -0.508056640625
144, 510338690, -4.910062789916992, 1.9713386297225952, 8.334023475646973, -2.5011188983917236, -2.075986385345459, -2.053344964981079, 0.780517578125, -0.64892578125, -0.510498046875
145, 510355357, -4.921603679656982, 1.9778138399124146, 8.358053207397461, -2.6616978645324707, -2.0158989429473877, -2.0524356365203857, 0.779541015625, -0.64892578125, -0.508056640625
146, 510372024, -4.932917594909668, 1.965162754058838, 8.366780281066895, -2.426739454269409, -1.885364055633545, -2.15195369720459, 0.779296875, -0.6484375, -0.510009765625
147, 510388691, -4.925113677978516, 1.979511022567749, 8.333276748657227, -2.4771578311920166, -1.8931115865707397, -2.150352716445923, 0.780029296875, -0.65185546875, -0.509033203125
148, 510405358, -4.91872501373291, 1.9735780954360962, 8.345376968383789, -2.411461114883423, -1.8591744899749756, -2.1467795372009277, 0.781005859375, -0.6494140625, -0.50732421875
149, 510422025, -4.949743747711182, 1.9594066143035889, 8.334452629089355, -2.433321714401245, -1.7921974658966064, -2.148560047149658, 0.780029296875, -0.65087890625, -0.508056640625
150, 510438692, -4.927828788757324, 1.9577786922454834, 8.353070259094238, -2.24643874168396, -1.8962876796722412, -2.103519916534424, 0.779052734375, -0.64990234375, -0.5068359375
151, 510455359, -4.928357124328613, 1.9628387689590454, 8.363260269165039, -2.3215482234954834, -1.8730312585830688, -2.0813779830932617, 0.779541015625, -0.650390625, -0.507568359375
152, 510472026, -4.919841289520264, 1.9656165838241577, 8.337393760681152, -2.385977029800415, -1.7494372129440308, -2.199208974838257, 0.781494140625, -0.6484375, -0.508056640625
153, 510488693, -4.930545806884766, 1.9722672700881958, 8.333868980407715, -2.4271109104156494, -1.6434645652770996, -2.1493794918060303, 0.779541015625, -0.64892578125, -0.509521484375
154, 510505360, -4.917996883392334, 1.9642637968063354, 8.322983741760254, -2.397425651550293, -1.7367973327636719, -2.161724805831909, 0.778564453125, -0.650390625, -0.509033203125
155, 510522027, -4.938809394836426, 1.9642302989959717, 8.344820022583008, -2.3602488040924072, -1.6844449043273926, -2.1853525638580322, 0.77978515625, -0.6484375, -0.508544921875
156, 510538694, -4.9241251945495605, 1.978677749633789, 8.33486557006836, -2.2596166133880615, -1.8795496225357056, -2.1634151935577393, 0.780029296875, -0.6494140625, -0.508544921875
157, 510555361, -4.9241943359375, 1.9798935651779175, 8.338943481445312, -2.4122812747955322, -1.8275432586669922, -2.3355071544647217, 0.7783203125, -0.64892578125, -0.511962890625
158, 510572028, -4.9142279624938965, 1.977799415588379, 8.34472942352295, -2.534095287322998, -1.644553303718567, -2.3809568881988525, 0.77978515625, -0.6474609375, -0.508544921875
159, 510588695, -4.936081409454346, 1.9724394083023071, 8.348258018493652, -2.510019302368164, -1.5949286222457886, -2.3468916416168213, 0.781005859375, -0.64892578125, -0.508056640625
160, 510605362, -4.9354095458984375, 1.9509811401367188, 8.361503601074219, -2.4307734966278076, -1.6742767095565796, -2.2864460945129395, 0.779296875, -0.6484375, -0.510986328125
161, 510622029, -4.941956043243408, 1.9587041139602661, 8.342511177062988, -2.419452667236328, -1.6357935667037964, -2.301429271697998, 0.7783203125, -0.64892578125, -0.508056640625
162, 510638696, -4.933349132537842, 1.9683279991149902, 8.338676452636719, -2.371659278869629, -1.6315290927886963, -2.374579429626465, 0.780029296875, -0.64892578125, -0.509033203125
163, 510655363, -4.929251670837402, 1.9813005924224854, 8.341678619384766, -2.433398723602295, -1.6422736644744873, -2.326401710510254, 0.779296875, -0.6484375, -0.510986328125
164, 510672030, -4.9220075607299805, 1.967787504196167, 8.32762336730957, -2.4357035160064697, -1.6380858421325684, -2.221914529800415, 0.781005859375, -0.6484375, -0.510498046875
165, 510688697, -4.918057441711426, 1.9570225477218628, 8.332944869995117, -2.434948444366455, -1.5978611707687378, -2.247476100921631, 0.780029296875, -0.64990234375, -0.509521484375
166, 510705364, -4.927200794219971, 1.9673720598220825, 8.36968994140625, -2.3470964431762695, -1.4994698762893677, -2.3391947746276855, 0.780517578125, -0.64794921875, -0.509521484375
167, 510722031, -4.946957111358643, 1.9683939218521118, 8.32001781463623, -2.4496755599975586, -1.585362195968628, -2.3171298503875732, 0.77783203125, -0.6484375, -0.509033203125
168, 510738698, -4.931077003479004, 1.9545087814331055, 8.34190845489502, -2.3937501907348633, -1.6719971895217896, -2.315861940383911, 0.781005859375, -0.647216796875, -0.507080078125
169, 510755365, -4.947892189025879, 1.9663293361663818, 8.330129623413086, -2.3265295028686523, -1.7071378231048584, -2.263599395751953, 0.781005859375, -0.6494140625, -0.510986328125
170, 510772032, -4.927002429962158, 1.9680030345916748, 8.330236434936523, -2.3568806648254395, -1.6804109811782837, -2.215998411178589, 0.781494140625, -0.6484375, -0.509033203125
171, 510788699, -4.955141067504883, 1.949539303779602, 8.327077865600586, -2.4119222164154053, -1.6293902397155762, -2.252598285675049, 0.781494140625, -0.6484375, -0.510498046875
172, 510805366, -4.950223922729492, 1.9657660722732544, 8.311053276062012, -2.481781005859375, -1.786742091178894, -2.128812551498413, 0.779296875, -0.6474609375, -0.509521484375
173, 510822033, -4.9352216720581055, 1.969140887260437, 8.349818229675293, -2.5952584743499756, -1.872839331626892, -2.27681565284729, 0.779296875, -0.6474609375, -0.510498046875
174, 510838700, -4.932606220245361, 1.952066421508789, 8.345741271972656, -2.5681471824645996, -1.8537577390670776, -2.302517890930176, 0.781982421875, -0.6484375, -0.509521484375
175, 510855367, -4.946147441864014, 1.9538110494613647, 8.352944374084473, -2.4243955612182617, -1.8327807188034058, -2.2112338542938232, 0.7802734375, -0.64794921875, -0.509033203125
176, 510872034, -4.948166370391846, 1.9586135149002075, 8.362421035766602, -2.56211519241333, -1.8247512578964233, -2.2640602588653564, 0.781494140625, -0.6484375, -0.511474609375
177, 510888701, -4.931236743927002, 1.9653629064559937, 8.335755348205566, -2.5115303993225098, -1.8673707246780396, -2.219865560531616, 0.781982421875, -0.650390625, -0.509033203125
178, 510905368, -4.92310094833374, 1.9545698165893555, 8.34728717803955, -2.443476915359497, -1.858751893043518, -2.222849130630493, 0.781982421875, -0.6484375, -0.510986328125
179, 510922035, -4.9214982986450195, 1.9688783884048462, 8.34231948852539, -2.351604461669922, -1.8146212100982666, -2.2432756423950195, 0.780517578125, -0.64990234375, -0.5078125
180, 510938702, -4.917158126831055, 1.9825878143310547, 8.350809097290039, -2.4184792041778564, -1.711645483970642, -2.317629098892212, 0.779296875, -0.64892578125, -0.508544921875
181, 510955369, -4.92138671875, 1.9760717153549194, 8.332547187805176, -2.458832263946533, -1.6625844240188599, -2.3767309188842773, 0.781494140625, -0.6494140625, -0.510986328125
182, 510972036, -4.9386115074157715, 1.9485160112380981, 8.324618339538574, -2.391188859939575, -1.5932636260986328, -2.303145408630371, 0.781494140625, -0.6494140625, -0.510498046875
183, 510988703, -4.948829174041748, 1.9613701105117798, 8.341389656066895, -2.403022050857544, -1.6717026233673096, -2.33931040763855, 0.780029296875, -0.64892578125, -0.507568359375
184, 511005370, -4.945030212402344, 1.9559465646743774, 8.334122657775879, -2.4082467555999756, -1.6377912759780884, -2.327361822128296, 0.781982421875, -0.6474609375, -0.50732421875
185, 511022037, -4.950313091278076, 1.9763997793197632, 8.328895568847656, -2.4413259029388428, -1.6873903274536133, -2.289186477661133, 0.781982421875, -0.6474609375, -0.508544921875
186, 511038704, -4.9321064949035645, 1.9572824239730835, 8.35187816619873, -2.43210506439209, -1.6945490837097168, -2.305616855621338, 0.781005859375, -0.6484375, -0.510009765625
187, 511055371, -4.938490390777588, 1.9596220254898071, 8.348954200744629, -2.379624605178833, -1.6238194704055786, -2.2933993339538574, 0.781494140625, -0.6494140625, -0.50830078125
188, 511072038, -4.938108444213867, 1.971169114112854, 8.341089248657227, -2.297203302383423, -1.593481421470642, -2.240535020828247, 0.780029296875, -0.6484375, -0.508544921875
189, 511088705, -4.951043128967285, 1.9519462585449219, 8.314661979675293, -2.3650896549224854, -1.6052504777908325, -2.2823989391326904, 0.780517578125, -0.64892578125, -0.510009765625
190, 511105372, -4.944738388061523, 1.9725645780563354, 8.322758674621582, -2.3844401836395264, -1.78546142578125, -2.3751044273376465, 0.781982421875, -0.64892578125, -0.50732421875
191, 511122039, -4.938085556030273, 1.9730010032653809, 8.34876537322998, -2.386322498321533, -1.7342103719711304, -2.2949490547180176, 0.781005859375, -0.64697265625, -0.508544921875
192, 511138706, -4.937910079956055, 1.9686294794082642, 8.331110000610352, -2.448817729949951, -1.7822213172912598, -2.3235585689544678, 0.781005859375, -0.6494140625, -0.509521484375
193, 511155373, -4.938640594482422, 1.9650559425354004, 8.346759796142578, -2.4116406440734863, -1.7465044260025024, -2.3643083572387695, 0.781494140625, -0.64990234375, -0.5078125
194, 511172040, -4.921221733093262, 1.9699937105178833, 8.347150802612305, -2.448164701461792, -1.6565401554107666, -2.411154270172119, 0.7802734375, -0.6474609375, -0.507080078125
195, 511188707, -4.962569236755371, 1.9706432819366455, 8.345563888549805, -2.3699557781219482, -1.5231359004974365, -2.4367921352386475, 0.77783203125, -0.6484375, -0.508544921875
196, 511205374, -4.942691326141357, 1.941444993019104, 8.326214790344238, -2.2866764068603516, -1.7549439668655396, -2.21651029586792, 0.781005859375, -0.64990234375, -0.508056640625
197, 511222041, -4.933660984039307, 1.9510818719863892, 8.350409507751465, -2.345162868499756, -1.647204041481018, -2.309868574142456, 0.7802734375, -0.645751953125, -0.507568359375
198, 511238708, -4.945035457611084, 1.9613181352615356, 8.328560829162598, -2.301928997039795, -1.6421456336975098, -2.276059865951538, 0.781005859375, -0.64892578125, -0.510009765625
199, 511255375, -4.946641445159912, 1.9757484197616577, 8.350202560424805, -2.2964730262756348, -1.7190476655960083, -2.264918327331543, 0.782958984375, -0.6484375, -0.509033203125
200, 511272042, -4.943965911865234, 1.9706918001174927, 8.322271347045898, -2.3182566165924072, -1.6982372999191284, -2.249025821685791, 0.779541015625, -0.64990234375, -0.509033203125
201, 511288709, -4.962089538574219, 1.9548946619033813, 8.34383773803711, -2.3382985591888428, -1.6292752027511597, -2.1599321365356445, 0.780517578125, -0.6474609375, -0.510009765625
202, 511305376, -4.943878650665283, 1.9516112804412842, 8.336447715759277, -2.3845553398132324, -1.8606603145599365, -2.2292654514312744, 0.781982421875, -0.64794921875, -0.509033203125
203, 511322043, -4.939831256866455, 1.9521119594573975, 8.33034610748291, -2.311828136444092, -1.8470343351364136, -2.1725845336914062, 0.78125, -0.646728515625, -0.507568359375
204, 511338710, -4.948355674743652, 1.9507137537002563, 8.34986400604248, -2.431375026702881, -1.773820161819458, -2.1889255046844482, 0.781494140625, -0.647216796875, -0.507080078125
205, 511355377, -4.949331283569336, 1.9669736623764038, 8.323539733886719, -2.413151741027832, -1.715692400932312, -2.283116340637207, 0.7802734375, -0.64794921875, -0.508544921875
206, 511372044, -4.950316429138184, 1.9768879413604736, 8.338094711303711, -2.4132158756256104, -1.7595157623291016, -2.2781600952148438, 0.782470703125, -0.64794921875, -0.509521484375
207, 511388711, -4.96291446685791, 1.9531959295272827, 8.344670295715332, -2.3765764236450195, -1.6913089752197266, -2.310969829559326, 0.781494140625, -0.64892578125, -0.509033203125
208, 511405378, -4.941900253295898, 1.935331106185913, 8.358412742614746, -2.342486619949341, -1.7423936128616333, -2.1880931854248047, 0.781005859375, -0.6474609375, -0.508056640625
209, 511422045, -4.931708812713623, 1.969304084777832, 8.332005500793457, -2.333944797515869, -1.7899435758590698, -2.2186105251312256, 0.782958984375, -0.64794921875, -0.509521484375
210, 511438712, -4.950170040130615, 1.953102707862854, 8.352073669433594, -2.4324638843536377, -1.7129902839660645, -2.241546869277954, 0.780517578125, -0.6484375, -0.508544921875
211, 511455379, -4.95857048034668, 1.9582222700119019, 8.333720207214355, -2.3421790599823, -1.6985958814620972, -2.131194591522217, 0.780029296875, -0.64892578125, -0.508544921875
212, 511472046, -4.960234642028809, 1.9483073949813843, 8.351778030395508, -2.336838722229004, -1.7612957954406738, -2.1257388591766357, 0.780517578125, -0.64794921875, -0.507568359375
213, 511488713, -4.953067779541016, 1.9453129768371582, 8.361675262451172, -2.337210178375244, -1.8490577936172485, -2.1840333938598633, 0.781005859375, -0.6474609375, -0.509033203125
214, 511505380, -4.937664985656738, 1.9667472839355469, 8.338767051696777, -2.403444766998291, -1.7617056369781494, -2.223451614379883, 0.782470703125, -0.647705078125, -0.50537109375
215, 511522047, -4.944685459136963, 1.9692840576171875, 8.332974433898926, -2.422205924987793, -1.8601734638214111, -2.2519452571868896, 0.781005859375, -0.64892578125, -0.509521484375
216, 511538714, -4.961474895477295, 1.9533655643463135, 8.355634689331055, -2.3882946968078613, -1.8203331232070923, -2.2289326190948486, 0.78173828125, -0.646240234375, -0.508056640625
217, 511555381, -4.9469451904296875, 1.9571685791015625, 8.340697288513184, -2.39674711227417, -1.8436661958694458, -2.174031972885132, 0.783447265625, -0.647216796875, -0.510498046875
218, 511572048, -4.944555282592773, 1.9698987007141113, 8.338902473449707, -2.409745216369629, -1.7836042642593384, -2.109551429748535, 0.783935546875, -0.64990234375, -0.50830078125
219, 511588715, -4.94365930557251, 1.9583840370178223, 8.337841033935547, -2.4001662731170654, -1.789623498916626, -2.21423077583313, 0.782470703125, -0.64892578125, -0.50830078125
220, 511605382, -4.943720817565918, 1.9526206254959106, 8.339994430541992, -2.512888193130493, -1.9015640020370483, -2.1996448040008545, 0.780517578125, -0.64794921875, -0.508544921875
221, 511622049, -4.93945837020874, 1.956318974494934, 8.339330673217773, -2.415316104888916, -1.872864842414856, -2.1685891151428223, 0.781494140625, -0.6484375, -0.509033203125
222, 511638716, -4.933155536651611, 1.9519855976104736, 8.331798553466797, -2.4126651287078857, -1.8160173892974854, -2.20599627494812, 0.77978515625, -0.646728515625, -0.507080078125
223, 511655383, -4.936108589172363, 1.961828351020813, 8.336380004882812, -2.499864101409912, -1.8557684421539307, -2.2195329666137695, 0.782470703125, -0.65087890625, -0.50830078125
224, 511672050, -4.934317588806152, 1.967685341835022, 8.343949317932129, -2.3952744007110596, -1.9061741828918457, -2.2273318767547607, 0.782470703125, -0.64892578125, -0.5078125
225, 511688717, -4.939817428588867, 1.965352177619934, 8.341338157653809, -2.4783363342285156, -1.7699145078659058, -2.2824885845184326, 0.7802734375, -0.64794921875, -0.509033203125
226, 511705384, -4.95096492767334, 1.9559351205825806, 8.333659172058105, -2.4724323749542236, -1.8339589834213257, -2.275637149810791, 0.77978515625, -0.6484375, -0.510498046875
227, 511722051, -4.939083099365234, 1.9555336236953735, 8.338912010192871, -2.4718050956726074, -1.9514446258544922, -2.1754915714263916, 0.781982421875, -0.646240234375, -0.510009765625
228, 511738718, -4.945010185241699, 1.9475572109222412, 8.3627347946167, -2.4406981468200684, -1.8044145107269287, -2.1898858547210693, 0.780517578125, -0.6484375, -0.509033203125
229, 511755385, -4.943187236785889, 1.9477293491363525, 8.337227821350098, -2.418825149536133, -1.8031853437423706, -2.215549945831299, 0.781982421875, -0.6474609375, -0.509033203125
230, 511772052, -4.940646171569824, 1.9756652116775513, 8.33830738067627, -2.4223082065582275, -1.7064975500106812, -2.2509849071502686, 0.780517578125, -0.64794921875, -0.509033203125
231, 511788719, -4.948657512664795, 1.9542814493179321, 8.33249282836914, -2.4970333576202393, -1.7725141048431396, -2.22452712059021, 0.780517578125, -0.6494140625, -0.508544921875
232, 511805386, -4.962905406951904, 1.9573324918746948, 8.33304500579834, -2.468334436416626, -1.8050422668457031, -2.230917453765869, 0.779541015625, -0.6494140625, -0.5068359375
233, 511822053, -4.954026699066162, 1.9475864171981812, 8.35618782043457, -2.4265217781066895, -1.7736283540725708, -2.1900651454925537, 0.781005859375, -0.6484375, -0.509033203125
234, 511838720, -4.932003498077393, 1.9570505619049072, 8.349322319030762, -2.4412102699279785, -1.8837372064590454, -2.0850656032562256, 0.782470703125, -0.6484375, -0.510498046875
235, 511855387, -4.94018030166626, 1.9693032503128052, 8.353747367858887, -2.421398878097534, -1.8500950336456299, -2.154514789581299, 0.779296875, -0.64892578125, -0.508544921875
236, 511872054, -4.936031341552734, 1.9816244840621948, 8.342852592468262, -2.427264451980591, -1.7731544971466064, -2.2243223190307617, 0.781494140625, -0.64794921875, -0.508056640625
237, 511888721, -4.942838668823242, 1.9608079195022583, 8.338465690612793, -2.4421069622039795, -1.873120903968811, -2.2693238258361816, 0.782470703125, -0.6494140625, -0.5087890625
238, 511905388, -4.943758964538574, 1.9508265256881714, 8.331714630126953, -2.4888503551483154, -1.8602633476257324, -2.1838159561157227, 0.7802734375, -0.6474609375, -0.507080078125
239, 511922055, -4.946508407592773, 1.947452425956726, 8.339574813842773, -2.5540859699249268, -1.9072754383087158, -2.157691240310669, 0.781494140625, -0.6474609375, -0.508056640625
240, 511938722, -4.931469917297363, 1.9648793935775757, 8.357341766357422, -2.58742094039917, -2.00547456741333, -2.168307304382324, 0.781005859375, -0.64794921875, -0.509521484375
241, 511955389, -4.931649684906006, 1.9606537818908691, 8.341765403747559, -2.5319437980651855, -1.9505738019943237, -2.231109857559204, 0.779296875, -0.6484375, -0.510498046875
242, 511972056, -4.941195964813232, 1.9493712186813354, 8.346001625061035, -2.5405495166778564, -1.8205509185791016, -2.2595908641815186, 0.781494140625, -0.6484375, -0.509033203125
243, 511988723, -4.9509429931640625, 1.939637541770935, 8.338046073913574, -2.4681808948516846, -1.8540139198303223, -2.1983251571655273, 0.7802734375, -0.64697265625, -0.508544921875
244, 512005390, -4.93102502822876, 1.9633533954620361, 8.357292175292969, -2.3839151859283447, -1.752510666847229, -2.18695330619812, 0.781494140625, -0.64794921875, -0.50732421875
245, 512022057, -4.941291332244873, 1.9666935205459595, 8.346945762634277, -2.384068489074707, -1.8842624425888062, -2.0762553215026855, 0.781494140625, -0.64892578125, -0.510009765625
246, 512038724, -4.955193519592285, 1.9653962850570679, 8.340035438537598, -2.424011468887329, -1.8714176416397095, -2.1223578453063965, 0.77978515625, -0.646484375, -0.510009765625
247, 512055391, -4.928385257720947, 1.9434483051300049, 8.334936141967773, -2.481640577316284, -1.9526100158691406, -2.1759912967681885, 0.779296875, -0.64599609375, -0.510009765625
248, 512072058, -4.924717426300049, 1.9582160711288452, 8.341546058654785, -2.5035908222198486, -1.8103572130203247, -2.2963836193084717, 0.7802734375, -0.646240234375, -0.509033203125
249, 512088725, -4.940594673156738, 1.9657976627349854, 8.333833694458008, -2.518176317214966, -1.8361742496490479, -2.1285946369171143, 0.77978515625, -0.64697265625, -0.508544921875
250, 512105392, -4.957837104797363, 1.956722378730774, 8.36067008972168, -2.447549819946289, -1.8993356227874756, -2.249102830886841, 0.7802734375, -0.64794921875, -0.509033203125
251, 512122059, -4.922793388366699, 1.9545284509658813, 8.36498737335205, -2.4704601764678955, -1.8285932540893555, -2.1669881343841553, 0.780517578125, -0.64892578125, -0.508056640625
252, 512138726, -4.932922840118408, 1.9605214595794678, 8.32204532623291, -2.475403308868408, -1.735862135887146, -2.294142007827759, 0.781982421875, -0.64892578125, -0.509033203125
253, 512155393, -4.943506717681885, 1.9522175788879395, 8.339632034301758, -2.5358753204345703, -1.6765307188034058, -2.321932554244995, 0.77978515625, -0.64697265625, -0.508544921875
254, 512172060, -4.932326793670654, 1.9613481760025024, 8.336698532104492, -2.4965980052948, -1.6771838665008545, -2.3976950645446777, 0.782470703125, -0.64794921875, -0.50830078125
255, 512188727, -4.94184684753418, 1.9536399841308594, 8.366840362548828, -2.5108773708343506, -1.7683907747268677, -2.3636043071746826, 0.779296875, -0.64697265625, -0.509521484375
256, 512205394, -4.938342571258545, 1.951722264289856, 8.32371997833252, -2.446794033050537, -1.6407496929168701, -2.388627767562866, 0.780517578125, -0.6484375, -0.508544921875
257, 512222061, -4.932868480682373, 1.9482418298721313, 8.35474681854248, -2.432002544403076, -1.6038800477981567, -2.3194477558135986, 0.780029296875, -0.64990234375, -0.50732421875
258, 512238728, -4.940823078155518, 1.9528343677520752, 8.34555721282959, -2.4825620651245117, -1.6937421560287476, -2.302043914794922, 0.7802734375, -0.64794921875, -0.509033203125
259, 512255395, -4.947890281677246, 1.966172456741333, 8.331587791442871, -2.502450942993164, -1.6544270515441895, -2.3452401161193848, 0.77978515625, -0.6474609375, -0.507568359375
260, 512272062, -4.943604469299316, 1.9515860080718994, 8.342604637145996, -2.4343080520629883, -1.731905221939087, -2.3170530796051025, 0.780517578125, -0.64892578125, -0.508544921875
261, 512288729, -4.952776908874512, 1.952826738357544, 8.350288391113281, -2.4715747833251953, -1.8917415142059326, -2.2409708499908447, 0.781494140625, -0.6494140625, -0.509521484375
262, 512305396, -4.943506717681885, 1.959445834159851, 8.344067573547363, -2.418684244155884, -1.8389663696289062, -2.2421998977661133, 0.7802734375, -0.6474609375, -0.509033203125
263, 512322063, -4.934338092803955, 1.9460350275039673, 8.356677055358887, -2.4695897102355957, -1.8009955883026123, -2.3257744312286377, 0.77978515625, -0.6474609375, -0.507080078125
264, 512338730, -4.939432144165039, 1.9393830299377441, 8.358938217163086, -2.4450008869171143, -1.6937036514282227, -2.2787744998931885, 0.779541015625, -0.64892578125, -0.508056640625
265, 512355397, -4.935830116271973, 1.9608864784240723, 8.315168380737305, -2.3886916637420654, -1.7120810747146606, -2.3208565711975098, 0.78076171875, -0.64697265625, -0.509033203125
266, 512372064, -4.942397594451904, 1.952817440032959, 8.363847732543945, -2.3473527431488037, -1.7101728916168213, -2.275189161300659, 0.77880859375, -0.64794921875, -0.508544921875
267, 512388731, -4.945780277252197, 1.9461148977279663, 8.350942611694336, -2.2580668926239014, -1.823829174041748, -2.248974561691284, 0.77978515625, -0.6474609375, -0.509521484375
268, 512405398, -4.938302516937256, 1.9571949243545532, 8.328829765319824, -2.412498712539673, -1.769158959388733, -2.168050765991211, 0.7802734375, -0.6474609375, -0.509521484375
269, 512422065, -4.943553447723389, 1.9506272077560425, 8.339797019958496, -2.3728246688842773, -1.7530099153518677, -2.1328206062316895, 0.780517578125, -0.64794921875, -0.507080078125
270, 512438732, -4.938180446624756, 1.9478486776351929, 8.320314407348633, -2.3221628665924072, -1.7386542558670044, -2.154463768005371, 0.78125, -0.645751953125, -0.507080078125
271, 512455399, -4.954849720001221, 1.95521879196167, 8.344213485717773, -2.4104623794555664, -1.7757925987243652, -2.224386215209961, 0.780517578125, -0.6484375, -0.508544921875
272, 512472066, -4.953728675842285, 1.944983720779419, 8.347325325012207, -2.384094476699829, -1.7969999313354492, -2.2036144733428955, 0.77978515625, -0.6474609375, -0.508544921875
273, 512488733, -4.9380927085876465, 1.944266676902771, 8.339553833007812, -2.3898696899414062, -1.9085685014724731, -2.163235902786255, 0.781005859375, -0.64794921875, -0.510986328125
274, 512505400, -4.9640655517578125, 1.9690330028533936, 8.325410842895508, -2.45145583152771, -1.8607243299484253, -2.1611101627349854, 0.77880859375, -0.646484375, -0.510009765625
275, 512522067, -4.93069314956665, 1.9595911502838135, 8.3352632522583, -2.3603765964508057, -1.9015378952026367, -2.178987741470337, 0.78076171875, -0.64697265625, -0.507080078125
276, 512538734, -4.9493913650512695, 1.946513056755066, 8.353734970092773, -2.3543965816497803, -1.8182328939437866, -2.191589117050171, 0.78173828125, -0.646240234375, -0.509033203125
277, 512555401, -4.9494476318359375, 1.947808861732483, 8.32785415649414, -2.411128520965576, -1.8430004119873047, -2.1869916915893555, 0.780517578125, -0.6484375, -0.509521484375
278, 512572068, -4.944781303405762, 1.9527060985565186, 8.364487648010254, -2.3988089561462402, -1.934591293334961, -2.0913796424865723, 0.781005859375, -0.64794921875, -0.509033203125
279, 512588735, -4.936688423156738, 1.9527959823608398, 8.359307289123535, -2.3039393424987793, -1.8959802389144897, -2.1428098678588867, 0.78076171875, -0.6474609375, -0.509521484375
280, 512605402, -4.926543712615967, 1.9537447690963745, 8.34264850616455, -2.3547935485839844, -1.790174126625061, -2.147407293319702, 0.7802734375, -0.64794921875, -0.510009765625
281, 512622069, -4.934921741485596, 1.9484308958053589, 8.359684944152832, -2.3178343772888184, -1.6431699991226196, -2.218790054321289, 0.77978515625, -0.64697265625, -0.508544921875
282, 512638736, -4.9462151527404785, 1.9643155336380005, 8.350205421447754, -2.28342342376709, -1.8257631063461304, -2.2524962425231934, 0.781982421875, -0.646728515625, -0.507568359375
283, 512655403, -4.92600679397583, 1.9524877071380615, 8.332388877868652, -2.4032909870147705, -1.7585680484771729, -2.1992599964141846, 0.781005859375, -0.6474609375, -0.510009765625
284, 512672070, -4.93363094329834, 1.9550126791000366, 8.33453369140625, -2.39387845993042, -1.754636526107788, -2.257516384124756, 0.781005859375, -0.6484375, -0.510986328125
285, 512688737, -4.936851501464844, 1.964816689491272, 8.33710765838623, -2.371659278869629, -1.8080261945724487, -2.1530678272247314, 0.7802734375, -0.6474609375, -0.510009765625
286, 512705404, -4.944186687469482, 1.9536399841308594, 8.348091125488281, -2.3166816234588623, -1.7630887031555176, -2.2123098373413086, 0.7802734375, -0.64697265625, -0.507080078125
287, 512722071, -4.938060283660889, 1.9566797018051147, 8.35083293914795, -2.4180312156677246, -1.6657860279083252, -2.2222347259521484, 0.780517578125, -0.64794921875, -0.507080078125
288, 512738738, -4.929813861846924, 1.9474716186523438, 8.350010871887207, -2.36570405960083, -1.5976688861846924, -2.303785562515259, 0.781982421875, -0.6474609375, -0.509033203125
289, 512755405, -4.956803798675537, 1.945802092552185, 8.345266342163086, -2.4191067218780518, -1.6429393291473389, -2.2831673622131348, 0.781005859375, -0.6474609375, -0.509521484375
290, 512772072, -4.9420671463012695, 1.9498778581619263, 8.344841957092285, -2.4793221950531006, -1.686058521270752, -2.2414186000823975, 0.781494140625, -0.6494140625, -0.508544921875
291, 512788739, -4.936761379241943, 1.9558988809585571, 8.328606605529785, -2.4237167835235596, -1.720136046409607, -2.250779867172241, 0.782470703125, -0.6484375, -0.50830078125
292, 512805406, -4.944407939910889, 1.9545962810516357, 8.328645706176758, -2.365525245666504, -1.6678096055984497, -2.28770112991333, 0.779296875, -0.6474609375, -0.509033203125
293, 512822073, -4.935462951660156, 1.9596061706542969, 8.33881950378418, -2.484342336654663, -1.6901053190231323, -2.331101655960083, 0.781982421875, -0.646240234375, -0.508544921875
294, 512838740, -4.95774507522583, 1.949896216392517, 8.351616859436035, -2.5235681533813477, -1.6996588706970215, -2.2642014026641846, 0.781494140625, -0.64892578125, -0.510009765625
295, 512855407, -4.964388370513916, 1.9523229598999023, 8.332437515258789, -2.4847779273986816, -1.7544188499450684, -2.173327684402466, 0.78076171875, -0.64697265625, -0.509033203125
296, 512872074, -4.939692497253418, 1.9384651184082031, 8.334121704101562, -2.435537815093994, -1.8979780673980713, -2.255044937133789, 0.78076171875, -0.6474609375, -0.508544921875
297, 512888741, -4.942790508270264, 1.9579360485076904, 8.355162620544434, -2.451904058456421, -1.7762024402618408, -2.156538248062134, 0.781494140625, -0.6474609375, -0.509033203125
298, 512905408, -4.955017566680908, 1.9444998502731323, 8.341732025146484, -2.5059852600097656, -1.7311242818832397, -2.2948086261749268, 0.783447265625, -0.647705078125, -0.50830078125
299, 512922075, -4.946559429168701, 1.9387600421905518, 8.353193283081055, -2.4884915351867676, -1.7894697189331055, -2.2153449058532715, 0.7802734375, -0.64697265625, -0.508056640625
300, 512938742, -4.958155632019043, 1.9545073509216309, 8.350484848022461, -2.3750016689300537, -1.7481181621551514, -2.1197712421417236, 0.7802734375, -0.646484375, -0.510009765625
301, 512955409, -4.943055152893066, 1.9629510641098022, 8.326105117797852, -2.559605598449707, -1.960383653640747, -2.2184700965881348, 0.78076171875, -0.6474609375, -0.509521484375
302, 512972076, -4.951822757720947, 1.9571510553359985, 8.351654052734375, -2.4564757347106934, -1.7930811643600464, -2.186223268508911, 0.781005859375, -0.64697265625, -0.510009765625
303, 512988743, -4.932960510253906, 1.9551637172698975, 8.341520309448242, -2.5018746852874756, -1.9152796268463135, -2.2260000705718994, 0.779296875, -0.64697265625, -0.507080078125
304, 513005410, -4.942625045776367, 1.949892520904541, 8.341140747070312, -2.4267265796661377, -1.8650271892547607, -2.190321445465088, 0.7802734375, -0.645263671875, -0.509033203125
305, 513022077, -4.946037292480469, 1.9531389474868774, 8.363056182861328, -2.3081908226013184, -1.8451515436172485, -2.2065467834472656, 0.78125, -0.646728515625, -0.509521484375
306, 513038744, -4.944174289703369, 1.9448221921920776, 8.336893081665039, -2.323289632797241, -1.765586018562317, -2.2422637939453125, 0.78125, -0.645751953125, -0.510986328125
307, 513055411, -4.929806232452393, 1.9417451620101929, 8.353907585144043, -2.4254074096679688, -1.869522213935852, -2.182650327682495, 0.782958984375, -0.64697265625, -0.511474609375
308, 513072078, -4.936891078948975, 1.9437190294265747, 8.356072425842285, -2.4760820865631104, -1.8447163105010986, -2.208941698074341, 0.781005859375, -0.64892578125, -0.510009765625
309, 513088745, -4.938331604003906, 1.9382989406585693, 8.335380554199219, -2.4864935874938965, -1.764638066291809, -2.2239251136779785, 0.781982421875, -0.6474609375, -0.511962890625
310, 513105412, -4.9459919929504395, 1.935681939125061, 8.334166526794434, -2.46659255027771, -1.8239059448242188, -2.2139875888824463, 0.77978515625, -0.6474609375, -0.508544921875
311, 513122079, -4.965857982635498, 1.936282992362976, 8.32132339477539, -2.4008450508117676, -1.9281370639801025, -2.2114391326904297, 0.780517578125, -0.64794921875, -0.509033203125
312, 513138746, -4.924092769622803, 1.9408577680587769, 8.346595764160156, -2.498173236846924, -1.7709262371063232, -2.1426947116851807, 0.781982421875, -0.64794921875, -0.508056640625
313, 513155413, -4.945247173309326, 1.9324980974197388, 8.347902297973633, -2.37894606590271, -1.9352957010269165, -2.193330764770508, 0.779541015625, -0.64892578125, -0.508544921875
314, 513172080, -4.9420294761657715, 1.9629055261611938, 8.348557472229004, -2.3689827919006348, -1.8421167135238647, -2.141157865524292, 0.780517578125, -0.6494140625, -0.510009765625
315, 513188747, -4.938729763031006, 1.9514029026031494, 8.338614463806152, -2.403841018676758, -1.8297455310821533, -2.1732630729675293, 0.780517578125, -0.64794921875, -0.509033203125
316, 513205414, -4.944334983825684, 1.952884316444397, 8.324694633483887, -2.4418253898620605, -1.8328065872192383, -2.222810983657837, 0.781005859375, -0.64892578125, -0.508056640625
317, 513222081, -4.940723419189453, 1.9573301076889038, 8.334040641784668, -2.4604461193084717, -1.9186859130859375, -2.1854679584503174, 0.78076171875, -0.645263671875, -0.511962890625
318, 513238748, -4.933272361755371, 1.9324448108673096, 8.338886260986328, -2.377562999725342, -1.9113733768463135, -2.269221067428589, 0.78125, -0.646728515625, -0.509521484375
319, 513255415, -4.945580959320068, 1.942057490348816, 8.34525203704834, -2.43644642829895, -1.7547005414962769, -2.273075819015503, 0.781982421875, -0.6484375, -0.510986328125
320, 513272082, -4.9418864250183105, 1.935770869255066, 8.346435546875, -2.395850419998169, -1.871968150138855, -2.201667547225952, 0.781494140625, -0.6474609375, -0.508544921875
321, 513288749, -4.936279296875, 1.949182391166687, 8.325551986694336, -2.497584104537964, -1.8319485187530518, -2.163569211959839, 0.781982421875, -0.646240234375, -0.511962890625
322, 513305416, -4.941286087036133, 1.9423508644104004, 8.341968536376953, -2.4718306064605713, -1.8215241432189941, -2.1846868991851807, 0.781494140625, -0.64697265625, -0.510009765625
323, 513322083, -4.9390788078308105, 1.961134433746338, 8.340961456298828, -2.402432918548584, -1.9487934112548828, -2.1759140491485596, 0.77880859375, -0.645751953125, -0.509033203125
324, 513338750, -4.919551372528076, 1.957452654838562, 8.346234321594238, -2.4607272148132324, -1.797499179840088, -2.1505701541900635, 0.781494140625, -0.647216796875, -0.507568359375
325, 513355417, -4.937495708465576, 1.9501968622207642, 8.342610359191895, -2.3656017780303955, -1.86039137840271, -2.21481990814209, 0.77880859375, -0.6484375, -0.510009765625
326, 513372084, -4.9323930740356445, 1.9385541677474976, 8.35739803314209, -2.3910605907440186, -1.8287850618362427, -2.188105583190918, 0.780517578125, -0.64794921875, -0.509033203125
327, 513388751, -4.939025402069092, 1.9610613584518433, 8.351322174072266, -2.311725378036499, -1.7227357625961304, -2.137136459350586, 0.77783203125, -0.6484375, -0.510009765625
328, 513405418, -4.9359259605407715, 1.9540151357650757, 8.348233222961426, -2.21761155128479, -1.5649998188018799, -2.105159044265747, 0.77880859375, -0.64599609375, -0.509033203125
329, 513422085, -4.9397807121276855, 1.9450058937072754, 8.330174446105957, -2.156461000442505, -1.523571252822876, -2.055816173553467, 0.77978515625, -0.646240234375, -0.510009765625
330, 513438752, -4.93550968170166, 1.9430207014083862, 8.333268165588379, -2.14738130569458, -1.598181128501892, -2.051513195037842, 0.78076171875, -0.6474609375, -0.509033203125
331, 513455419, -4.944561004638672, 1.93720543384552, 8.349696159362793, -2.1739418506622314, -1.6685264110565186, -2.0486955642700195, 0.781005859375, -0.6484375, -0.510009765625
332, 513472086, -4.944507598876953, 1.9405789375305176, 8.323095321655273, -2.1406452655792236, -1.7819907665252686, -2.0405123233795166, 0.77880859375, -0.6484375, -0.509521484375
333, 513488753, -4.937054634094238, 1.9627419710159302, 8.375893592834473, -2.2277801036834717, -1.7274101972579956, -2.029780864715576, 0.779541015625, -0.650390625, -0.508544921875
334, 513505420, -4.938528060913086, 1.958436369895935, 8.335612297058105, -2.342050790786743, -1.808384656906128, -2.1234207153320312, 0.77880859375, -0.64599609375, -0.511962890625
335, 513522087, -4.943912982940674, 1.9401843547821045, 8.344932556152344, -2.2202110290527344, -1.764778971672058, -2.1732630729675293, 0.781005859375, -0.64892578125, -0.508056640625
336, 513538754, -4.944659233093262, 1.960476279258728, 8.354069709777832, -2.376858711242676, -1.7974737882614136, -2.1470742225646973, 0.7783203125, -0.64892578125, -0.509521484375
337, 513555421, -4.954843521118164, 1.9630566835403442, 8.342169761657715, -2.3638601303100586, -1.813814401626587, -2.1368162631988525, 0.78173828125, -0.646240234375, -0.509033203125
338, 513572088, -4.944248676300049, 1.944493293762207, 8.330169677734375, -2.252790689468384, -1.8004320859909058, -2.098269462585449, 0.78076171875, -0.64697265625, -0.509033203125
339, 513588755, -4.941744804382324, 1.9511932134628296, 8.336506843566895, -2.137892246246338, -1.613997220993042, -2.0700695514678955, 0.781494140625, -0.6474609375, -0.508544921875
340, 513605422, -4.928794860839844, 1.9481353759765625, 8.350924491882324, -2.2442102432250977, -1.5742205381393433, -2.1009583473205566, 0.7783203125, -0.64794921875, -0.509521484375
341, 513622089, -4.945921897888184, 1.9702469110488892, 8.345383644104004, -2.1679739952087402, -1.6277382373809814, -2.0557007789611816, 0.781005859375, -0.65087890625, -0.509521484375
342, 513638756, -4.937145233154297, 1.9565188884735107, 8.325705528259277, -2.1793460845947266, -1.6870059967041016, -2.154322385787964, 0.781982421875, -0.6494140625, -0.5078125
343, 513655423, -4.941699028015137, 1.9645811319351196, 8.328655242919922, -2.3384008407592773, -1.5681886672973633, -2.1606743335723877, 0.77880859375, -0.6474609375, -0.509521484375
344, 513672090, -4.950313091278076, 1.953822135925293, 8.350708961486816, -2.3406293392181396, -1.7180230617523193, -2.1894376277923584, 0.781005859375, -0.64697265625, -0.510986328125
345, 513688757, -4.962957859039307, 1.9600509405136108, 8.334311485290527, -2.4346280097961426, -1.764996886253357, -2.2045109272003174, 0.77880859375, -0.64794921875, -0.510009765625
346, 513705424, -4.934682846069336, 1.9497573375701904, 8.359932899475098, -2.3893191814422607, -1.8081543445587158, -2.20886492729187, 0.78076171875, -0.64697265625, -0.510009765625
347, 513722091, -4.95084285736084, 1.9444328546524048, 8.339093208312988, -2.287982225418091, -1.8707642555236816, -2.1632742881774902, 0.782470703125, -0.650390625, -0.50732421875
348, 513738758, -4.932581901550293, 1.9595632553100586, 8.337807655334473, -2.339463949203491, -1.788189172744751, -2.1754403114318848, 0.77978515625, -0.6484375, -0.510498046875
349, 513755425, -4.937602519989014, 1.949546456336975, 8.337522506713867, -2.3355836868286133, -1.8417069911956787, -2.096297025680542, 0.782470703125, -0.6484375, -0.5078125
350, 513772092, -4.948932647705078, 1.9570684432983398, 8.361557960510254, -2.2830264568328857, -1.8637208938598633, -2.1043906211853027, 0.780517578125, -0.6484375, -0.509521484375
351, 513788759, -4.931853294372559, 1.9673631191253662, 8.337329864501953, -2.393519639968872, -1.9300320148468018, -2.0902652740478516, 0.7802734375, -0.6474609375, -0.510498046875
352, 513805426, -4.9139723777771, 1.946239709854126, 8.336197853088379, -2.326491117477417, -1.913512110710144, -2.2349131107330322, 0.781005859375, -0.6484375, -0.509521484375
353, 513822093, -4.922891139984131, 1.9549922943115234, 8.324840545654297, -2.45055890083313, -1.7733848094940186, -2.2416744232177734, 0.7802734375, -0.64794921875, -0.509521484375
354, 513838760, -4.947058200836182, 1.9562500715255737, 8.33068561553955, -2.378664255142212, -1.6775166988372803, -2.1908977031707764, 0.782470703125, -0.64990234375, -0.510498046875
355, 513855427, -4.93597412109375, 1.9459110498428345, 8.320592880249023, -2.3447530269622803, -1.7287291288375854, -2.257490396499634, 0.78076171875, -0.64697265625, -0.508056640625
356, 513872094, -4.955759048461914, 1.9501723051071167, 8.334893226623535, -2.361285924911499, -1.8074240684509277, -2.1241250038146973, 0.781494140625, -0.64892578125, -0.508544921875
357, 513888761, -4.938210487365723, 1.962100625038147, 8.35141658782959, -2.3652307987213135, -1.7643437385559082, -2.095708131790161, 0.781005859375, -0.6484375, -0.508544921875
358, 513905428, -4.93207311630249, 1.9489343166351318, 8.352601051330566, -2.3614397048950195, -1.828439474105835, -2.152606725692749, 0.7783203125, -0.6474609375, -0.509521484375
359, 513922095, -4.9522013664245605, 1.9639835357666016, 8.301756858825684, -2.3357887268066406, -1.870713233947754, -2.1866843700408936, 0.781005859375, -0.64794921875, -0.510498046875
360, 513938762, -4.935559272766113, 1.962515950202942, 8.341394424438477, -2.4609835147857666, -1.9280730485916138, -2.158625602722168, 0.7802734375, -0.6474609375, -0.510009765625
361, 513955429, -4.930288314819336, 1.9573962688446045, 8.334335327148438, -2.401677131652832, -1.8745806217193604, -2.2769176959991455, 0.780029296875, -0.6484375, -0.510498046875
362, 513972096, -4.928795337677002, 1.964562177658081, 8.353367805480957, -2.422910451889038, -1.7357087135314941, -2.2429683208465576, 0.77880859375, -0.64990234375, -0.508544921875
363, 513988763, -4.93148136138916, 1.9522347450256348, 8.335142135620117, -2.4777090549468994, -1.803364872932434, -2.2745487689971924, 0.782958984375, -0.64892578125, -0.510986328125
364, 514005430, -4.948066234588623, 1.955984354019165, 8.337215423583984, -2.488952875137329, -1.7934268712997437, -2.23423433303833, 0.781005859375, -0.6474609375, -0.508056640625
365, 514022097, -4.936927795410156, 1.9489103555679321, 8.335261344909668, -2.570606231689453, -1.8177976608276367, -2.2198402881622314, 0.779541015625, -0.65087890625, -0.509033203125
366, 514038764, -4.933311462402344, 1.9480549097061157, 8.348423957824707, -2.4069793224334717, -1.754675030708313, -2.2599751949310303, 0.779541015625, -0.6494140625, -0.508056640625
367, 514055431, -4.928616523742676, 1.9505223035812378, 8.322052001953125, -2.2836153507232666, -1.711965560913086, -2.231992721557617, 0.780517578125, -0.6484375, -0.507568359375
368, 514072098, -4.935407638549805, 1.9578993320465088, 8.342111587524414, -2.3521807193756104, -1.7073553800582886, -2.22908616065979, 0.780029296875, -0.65087890625, -0.510009765625
369, 514088765, -4.951826095581055, 1.9738975763320923, 8.31460189819336, -2.406121253967285, -1.731751561164856, -2.227306365966797, 0.781494140625, -0.6484375, -0.508056640625
370, 514105432, -4.942134857177734, 1.9452297687530518, 8.341789245605469, -2.4618799686431885, -1.8875023126602173, -2.1931774616241455, 0.780517578125, -0.64990234375, -0.509033203125
371, 514122099, -4.932336330413818, 1.9663453102111816, 8.334890365600586, -2.3740158081054688, -1.8429107666015625, -2.1559362411499023, 0.7802734375, -0.64697265625, -0.508544921875
372, 514138766, -4.9214863777160645, 1.9710843563079834, 8.354938507080078, -2.516742706298828, -1.7960397005081177, -2.233978509902954, 0.77783203125, -0.650390625, -0.508544921875
373, 514155433, -4.949338912963867, 1.9375722408294678, 8.357658386230469, -2.3972718715667725, -1.7989081144332886, -2.2247705459594727, 0.77783203125, -0.646484375, -0.510498046875
374, 514172100, -4.946690082550049, 1.9572783708572388, 8.363568305969238, -2.39512038230896, -1.7870620489120483, -2.257554769515991, 0.77880859375, -0.64990234375, -0.508544921875
375, 514188767, -4.94280481338501, 1.9584866762161255, 8.321578979492188, -2.447613477706909, -1.827824592590332, -2.197864294052124, 0.77978515625, -0.646484375, -0.510009765625
376, 514205434, -4.922204971313477, 1.964655876159668, 8.352176666259766, -2.455451011657715, -1.901563286781311, -2.15561580657959, 0.779296875, -0.6494140625, -0.508056640625
377, 514222101, -4.9381818771362305, 1.9688386917114258, 8.351127624511719, -2.532071828842163, -1.767148494720459, -2.251305341720581, 0.77783203125, -0.64794921875, -0.510986328125
378, 514238768, -4.938033580780029, 1.941176414489746, 8.322903633117676, -2.4424784183502197, -1.7468886375427246, -2.257068157196045, 0.77880859375, -0.64794921875, -0.510986328125
379, 514255435, -4.931540012359619, 1.9552195072174072, 8.341296195983887, -2.407465696334839, -1.7630116939544678, -2.206047296524048, 0.780029296875, -0.64892578125, -0.510498046875
380, 514272102, -4.947173118591309, 1.9616031646728516, 8.34682559967041, -2.446614980697632, -1.7807230949401855, -2.236424207687378, 0.779541015625, -0.64990234375, -0.510986328125
381, 514288769, -4.920754909515381, 1.9514517784118652, 8.360834121704102, -2.51432204246521, -1.75009024143219, -2.2507543563842773, 0.7783203125, -0.6484375, -0.508544921875
382, 514305436, -4.925609111785889, 1.959966778755188, 8.33225154876709, -2.48366379737854, -1.8577662706375122, -2.246746301651001, 0.781494140625, -0.6494140625, -0.508544921875
383, 514322103, -4.931446075439453, 1.9575804471969604, 8.337199211120605, -2.4887351989746094, -1.8640670776367188, -2.3151707649230957, 0.782470703125, -0.647216796875, -0.509033203125
384, 514338770, -4.940029621124268, 1.9724472761154175, 8.337862968444824, -2.570746660232544, -1.8962620496749878, -2.2234385013580322, 0.781494140625, -0.6484375, -0.50732421875
385, 514355437, -4.928317070007324, 1.950514316558838, 8.346339225769043, -2.5517938137054443, -1.867691159248352, -2.241739273071289, 0.77783203125, -0.6474609375, -0.509521484375
386, 514372104, -4.945431709289551, 1.96454656124115, 8.348137855529785, -2.5438663959503174, -1.855652928352356, -2.2143075466156006, 0.781005859375, -0.6474609375, -0.511474609375
387, 514388771, -4.935402870178223, 1.9613789319992065, 8.340914726257324, -2.558427572250366, -1.8737359046936035, -2.2835516929626465, 0.77978515625, -0.64697265625, -0.510009765625
388, 514405438, -4.928221702575684, 1.945618987083435, 8.3399076461792, -2.5081241130828857, -1.9368071556091309, -2.2593605518341064, 0.782958984375, -0.6484375, -0.5078125
389, 514422105, -4.936097145080566, 1.9703370332717896, 8.340082168579102, -2.4362926483154297, -1.8033772706985474, -2.2483468055725098, 0.78125, -0.646484375, -0.510986328125
390, 514438772, -4.949286460876465, 1.9624972343444824, 8.355701446533203, -2.524541139602661, -1.7550973892211914, -2.1998231410980225, 0.78076171875, -0.6474609375, -0.509033203125
391, 514455439, -4.941910266876221, 1.9397374391555786, 8.354837417602539, -2.4836769104003906, -1.8559092283248901, -2.280580997467041, 0.77880859375, -0.6484375, -0.510009765625
392, 514472106, -4.934072494506836, 1.9469646215438843, 8.358015060424805, -2.4729318618774414, -1.7323150634765625, -2.1695363521575928, 0.782470703125, -0.6484375, -0.511474609375
393, 514488773, -4.935196876525879, 1.9292347431182861, 8.364358901977539, -2.4792070388793945, -1.7475930452346802, -2.2786595821380615, 0.77978515625, -0.646484375, -0.508056640625
394, 514505440, -4.924233913421631, 1.9651342630386353, 8.352731704711914, -2.5685698986053467, -1.850492238998413, -2.217970609664917, 0.779296875, -0.646484375, -0.511474609375
395, 514522107, -4.930732727050781, 1.9560080766677856, 8.33179759979248, -2.5460309982299805, -1.8374810218811035, -2.298689126968384, 0.781005859375, -0.64697265625, -0.508544921875
396, 514538774, -4.943158149719238, 1.9488109350204468, 8.328451156616211, -2.4719972610473633, -1.8477002382278442, -2.2204549312591553, 0.779296875, -0.64794921875, -0.508056640625
397, 514555441, -4.933527946472168, 1.9495680332183838, 8.345805168151855, -2.643051862716675, -1.923296332359314, -2.275739908218384, 0.781494140625, -0.6474609375, -0.5068359375
398, 514572108, -4.924359321594238, 1.9432398080825806, 8.336045265197754, -2.5752546787261963, -1.9201714992523193, -2.2800045013427734, 0.781494140625, -0.6484375, -0.510986328125
399, 514588775, -4.921565532684326, 1.9515061378479004, 8.366178512573242, -2.6420400142669678, -1.9199154376983643, -2.200028657913208, 0.781005859375, -0.64697265625, -0.510009765625
400, 514605442, -4.933314800262451, 1.950095772743225, 8.343130111694336, -2.5059468746185303, -1.8069379329681396, -2.237653970718384, 0.782470703125, -0.646240234375, -0.510986328125
401, 514622109, -4.940248489379883, 1.9395157098770142, 8.374201774597168, -2.536208152770996, -1.6601383686065674, -2.2663655281066895, 0.78125, -0.646240234375, -0.511474609375
402, 514638776, -4.941768646240234, 1.9415735006332397, 8.351511001586914, -2.5123116970062256, -1.8724552392959595, -2.201373338699341, 0.781005859375, -0.64697265625, -0.510009765625
403, 514655443, -4.930994510650635, 1.9555754661560059, 8.331297874450684, -2.484034776687622, -1.862798810005188, -2.1812541484832764, 0.77978515625, -0.64794921875, -0.507568359375
404, 514672110, -4.927379131317139, 1.9425863027572632, 8.343819618225098, -2.3582122325897217, -1.8894742727279663, -2.2195961475372314, 0.780517578125, -0.64794921875, -0.511962890625
405, 514688777, -4.946873664855957, 1.9617387056350708, 8.334744453430176, -2.339937925338745, -1.860404133796692, -2.1516973972320557, 0.779296875, -0.6484375, -0.510009765625
406, 514705444, -4.931088924407959, 1.9122518301010132, 8.345680236816406, -2.38395357131958, -1.860084056854248, -2.0615408420562744, 0.781494140625, -0.6474609375, -0.510498046875
407, 514722111, -4.952730655670166, 1.950165867805481, 8.343396186828613, -2.4168529510498047, -1.9338997602462769, -2.1137518882751465, 0.77880859375, -0.646484375, -0.511962890625
408, 514738778, -4.931897163391113, 1.9526575803756714, 8.336395263671875, -2.508021116256714, -1.9585648775100708, -2.080045700073242, 0.77880859375, -0.64892578125, -0.509521484375
409, 514755445, -4.92883825302124, 1.9718281030654907, 8.367841720581055, -2.4282634258270264, -2.1198225021362305, -2.162108898162842, 0.779296875, -0.6474609375, -0.508544921875
410, 514772112, -4.909647464752197, 1.9171901941299438, 8.33379077911377, -2.246234178543091, -2.050924301147461, -2.0603113174438477, 0.781005859375, -0.64794921875, -0.512451171875
411, 514788779, -4.915425777435303, 1.957586407661438, 8.340418815612793, -2.3773069381713867, -1.951444387435913, -2.055111885070801, 0.7783203125, -0.6494140625, -0.510498046875
412, 514805446, -4.941579818725586, 1.956854224205017, 8.359663009643555, -2.4592676162719727, -1.993628740310669, -2.180114984512329, 0.7802734375, -0.645751953125, -0.509521484375
413, 514822113, -4.939629554748535, 1.9332730770111084, 8.357626914978027, -2.5187273025512695, -2.000019073486328, -2.221991539001465, 0.779296875, -0.6474609375, -0.510009765625
414, 514838780, -4.915653228759766, 1.9415942430496216, 8.348073959350586, -2.3911633491516113, -1.8717762231826782, -2.12062931060791, 0.780029296875, -0.6484375, -0.511474609375
415, 514855447, -4.908526420593262, 1.9463869333267212, 8.356689453125, -2.4140095710754395, -1.8554606437683105, -2.151313066482544, 0.779296875, -0.64697265625, -0.510986328125
416, 514872114, -4.9216814041137695, 1.965971827507019, 8.355463981628418, -2.452556848526001, -1.7090585231781006, -2.1766693592071533, 0.77880859375, -0.6474609375, -0.508544921875
417, 514888781, -4.9434428215026855, 1.9546995162963867, 8.362093925476074, -2.49396014213562, -1.8842496871948242, -2.1881186962127686, 0.78076171875, -0.646240234375, -0.510009765625
418, 514905448, -4.936501979827881, 1.9501135349273682, 8.328315734863281, -2.514373302459717, -1.7979732751846313, -2.1889381408691406, 0.77978515625, -0.646484375, -0.510986328125
419, 514922115, -4.913307189941406, 1.9340355396270752, 8.365508079528809, -2.3698790073394775, -1.8871567249298096, -2.21291184425354, 0.77978515625, -0.64794921875, -0.510498046875
420, 514938782, -4.919748783111572, 1.946885347366333, 8.356971740722656, -2.322802782058716, -1.7558401823043823, -2.232402801513672, 0.7802734375, -0.64599609375, -0.511962890625
421, 514955449, -4.926486492156982, 1.953644037246704, 8.345020294189453, -2.2505624294281006, -1.739166498184204, -2.2223117351531982, 0.77783203125, -0.6484375, -0.510498046875
422, 514972116, -4.931957244873047, 1.9404587745666504, 8.34048843383789, -2.444207191467285, -1.7819011211395264, -2.2484493255615234, 0.779296875, -0.646484375, -0.511962890625
423, 514988783, -4.933220386505127, 1.9504339694976807, 8.35369873046875, -2.390650987625122, -1.6719074249267578, -2.181459426879883, 0.7802734375, -0.646484375, -0.510498046875
424, 515005450, -4.929905414581299, 1.9384061098098755, 8.33867073059082, -2.4094765186309814, -1.7917876243591309, -2.22283673286438, 0.7802734375, -0.646728515625, -0.508544921875
425, 515022117, -4.933477878570557, 1.958398699760437, 8.364156723022461, -2.351412296295166, -1.8598532676696777, -2.2325050830841064, 0.779296875, -0.6474609375, -0.510009765625
426, 515038784, -4.935452461242676, 1.9464532136917114, 8.33959674835205, -2.3942110538482666, -1.7819138765335083, -2.1621344089508057, 0.77880859375, -0.646484375, -0.510498046875
427, 515055451, -4.9408674240112305, 1.9559588432312012, 8.341859817504883, -2.4163918495178223, -1.7879457473754883, -2.164247751235962, 0.781005859375, -0.6484375, -0.510986328125
428, 515072118, -4.919966697692871, 1.9478007555007935, 8.37100601196289, -2.2756755352020264, -1.7626277208328247, -2.164836883544922, 0.779541015625, -0.64892578125, -0.510986328125
429, 515088785, -4.923951148986816, 1.959415078163147, 8.370329856872559, -2.3626561164855957, -1.7276533842086792, -2.191896438598633, 0.780517578125, -0.6484375, -0.508056640625
430, 515105452, -4.93384313583374, 1.946020245552063, 8.359884262084961, -2.3997561931610107, -1.703654170036316, -2.225231170654297, 0.77783203125, -0.6494140625, -0.510009765625
431, 515122119, -4.9177985191345215, 1.945371389389038, 8.346038818359375, -2.4514174461364746, -1.736451506614685, -2.1597397327423096, 0.781494140625, -0.646728515625, -0.510009765625
432, 515138786, -4.926616191864014, 1.9574191570281982, 8.337180137634277, -2.452224016189575, -1.7530485391616821, -2.2000927925109863, 0.7783203125, -0.64794921875, -0.510986328125
433, 515155453, -4.922735691070557, 1.9421956539154053, 8.367562294006348, -2.4503285884857178, -1.7752035856246948, -2.218994617462158, 0.780029296875, -0.6484375, -0.510498046875
434, 515172120, -4.93429708480835, 1.9421364068984985, 8.347088813781738, -2.4494705200195312, -1.8166062831878662, -2.1628899574279785, 0.78076171875, -0.646484375, -0.510498046875
435, 515188787, -4.926951885223389, 1.9415422677993774, 8.33870792388916, -2.4823830127716064, -1.7318795919418335, -2.179973840713501, 0.7802734375, -0.646240234375, -0.509033203125
436, 515205454, -4.919586181640625, 1.9452682733535767, 8.36032772064209, -2.4705114364624023, -1.8295408487319946, -2.294680118560791, 0.780517578125, -0.64794921875, -0.509033203125
437, 515222121, -4.931581020355225, 1.9520491361618042, 8.349111557006836, -2.601969003677368, -1.8326400518417358, -2.3346235752105713, 0.779296875, -0.64697265625, -0.510986328125
438, 515238788, -4.94037389755249, 1.9381625652313232, 8.344980239868164, -2.586716413497925, -1.8445756435394287, -2.230802297592163, 0.77783203125, -0.646484375, -0.510986328125
439, 515255455, -4.920828819274902, 1.9564512968063354, 8.343019485473633, -2.4965081214904785, -1.7496802806854248, -2.262113332748413, 0.77734375, -0.64794921875, -0.509033203125
440, 515272122, -4.920438289642334, 1.9381985664367676, 8.348616600036621, -2.4824085235595703, -1.8299635648727417, -2.2104272842407227, 0.77978515625, -0.646484375, -0.510009765625
441, 515288789, -4.918008804321289, 1.9369367361068726, 8.35531997680664, -2.5059850215911865, -1.8322049379348755, -2.2499606609344482, 0.77783203125, -0.64599609375, -0.511474609375
442, 515305456, -4.927897930145264, 1.9463045597076416, 8.351612091064453, -2.558427333831787, -2.0000579357147217, -2.2137186527252197, 0.781005859375, -0.6474609375, -0.510009765625
443, 515322123, -4.92113733291626, 1.9391244649887085, 8.338584899902344, -2.5596694946289062, -2.03320050239563, -2.1955466270446777, 0.779296875, -0.646484375, -0.512451171875
444, 515338790, -4.90004301071167, 1.9552240371704102, 8.352436065673828, -2.4754674434661865, -1.8409769535064697, -2.19187068939209, 0.7802734375, -0.646484375, -0.510986328125
445, 515355457, -4.932650566101074, 1.9329462051391602, 8.369940757751465, -2.3618369102478027, -1.8421679735183716, -2.2198398113250732, 0.77978515625, -0.646240234375, -0.510009765625
446, 515372124, -4.918019771575928, 1.9413647651672363, 8.34259033203125, -2.332573890686035, -1.7373989820480347, -2.178513526916504, 0.77880859375, -0.64794921875, -0.511474609375
447, 515388791, -4.927925109863281, 1.9392502307891846, 8.357832908630371, -2.3474295139312744, -1.5480828285217285, -2.198824644088745, 0.7802734375, -0.64697265625, -0.508544921875
448, 515405458, -4.926291465759277, 1.953317642211914, 8.32239818572998, -2.447639226913452, -1.668308973312378, -2.1648752689361572, 0.7783203125, -0.64697265625, -0.509033203125
449, 515422125, -4.91704797744751, 1.9368499517440796, 8.356122016906738, -2.371441602706909, -1.8591104745864868, -2.1495842933654785, 0.77734375, -0.6474609375, -0.510009765625
450, 515438792, -4.934286594390869, 1.9359618425369263, 8.35122013092041, -2.543994665145874, -1.9380621910095215, -2.197659730911255, 0.77783203125, -0.64794921875, -0.512451171875
451, 515455459, -4.925489902496338, 1.9438002109527588, 8.34809684753418, -2.621485710144043, -2.0184473991394043, -2.158484935760498, 0.780029296875, -0.6484375, -0.512939453125
452, 515472126, -4.920477390289307, 1.9390016794204712, 8.360593795776367, -2.6457154750823975, -2.0612335205078125, -2.1785783767700195, 0.779296875, -0.64697265625, -0.511962890625
453, 515488793, -4.9142560958862305, 1.9439513683319092, 8.345030784606934, -2.479667901992798, -1.9035232067108154, -2.162595748901367, 0.78076171875, -0.646240234375, -0.511474609375
454, 515505460, -4.916380882263184, 1.915718913078308, 8.370156288146973, -2.483945369720459, -1.945771336555481, -2.0728871822357178, 0.779296875, -0.6474609375, -0.510498046875
455, 515522127, -4.930400848388672, 1.931222677230835, 8.35379695892334, -2.3776400089263916, -1.9353469610214233, -2.08555269241333, 0.779052734375, -0.6494140625, -0.510498046875
456, 515538794, -4.9192304611206055, 1.9439700841903687, 8.342772483825684, -2.554009199142456, -1.8821368217468262, -2.1991066932678223, 0.77783203125, -0.64697265625, -0.510498046875
457, 515555461, -4.909413814544678, 1.9351437091827393, 8.341720581054688, -2.5150396823883057, -1.9580143690109253, -2.266878128051758, 0.7802734375, -0.646240234375, -0.509033203125
458, 515572128, -4.916175842285156, 1.9372888803482056, 8.373787879943848, -2.4123194217681885, -1.9075316190719604, -2.199528932571411, 0.7783203125, -0.646484375, -0.510498046875
459, 515588795, -4.921317100524902, 1.9395735263824463, 8.355607032775879, -2.5037951469421387, -1.8831226825714111, -2.1502373218536377, 0.77880859375, -0.64599609375, -0.509033203125
460, 515605462, -4.896450996398926, 1.945772647857666, 8.362826347351074, -2.4420430660247803, -1.8602120876312256, -2.185915946960449, 0.77978515625, -0.645751953125, -0.508544921875
461, 515622129, -4.922997951507568, 1.9657037258148193, 8.359922409057617, -2.6180922985076904, -1.8068737983703613, -2.3190126419067383, 0.7802734375, -0.64697265625, -0.512451171875
462, 515638796, -4.932587623596191, 1.929330825805664, 8.363471984863281, -2.7099008560180664, -1.9077621698379517, -2.328258752822876, 0.7802734375, -0.64794921875, -0.509521484375
463, 515655463, -4.943270683288574, 1.9283108711242676, 8.359753608703613, -2.6495823860168457, -2.0888051986694336, -2.2873806953430176, 0.77978515625, -0.6484375, -0.510986328125
464, 515672130, -4.909860610961914, 1.9512900114059448, 8.322163581848145, -2.8028488159179688, -2.1504037380218506, -2.2379863262176514, 0.77880859375, -0.6474609375, -0.513427734375
465, 515688797, -4.921969413757324, 1.9555420875549316, 8.352921485900879, -2.9186437129974365, -2.3151190280914307, -2.3197295665740967, 0.7763671875, -0.646484375, -0.513671875
466, 515705464, -4.906012058258057, 1.9389939308166504, 8.384390830993652, -2.7947299480438232, -2.185621500015259, -2.4288012981414795, 0.77685546875, -0.64697265625, -0.511474609375
467, 515722131, -4.897322654724121, 1.921728491783142, 8.391661643981934, -2.7927701473236084, -1.963904857635498, -2.5333518981933594, 0.77783203125, -0.6484375, -0.509521484375
468, 515738798, -4.928664207458496, 1.9141567945480347, 8.357247352600098, -2.60978102684021, -1.8767321109771729, -2.38049578666687, 0.77783203125, -0.6474609375, -0.51318359375
469, 515755465, -4.933918476104736, 1.9416968822479248, 8.362504959106445, -2.6387104988098145, -1.8883861303329468, -2.2247962951660156, 0.77783203125, -0.6474609375, -0.511474609375
470, 515772132, -4.911468029022217, 1.9379899501800537, 8.354863166809082, -2.623201847076416, -1.9921177625656128, -2.271692991256714, 0.77880859375, -0.646484375, -0.511962890625
471, 515788799, -4.900297164916992, 1.941732406616211, 8.380514144897461, -2.5601561069488525, -2.043534994125366, -2.2660071849823, 0.77734375, -0.644287109375, -0.51171875
472, 515805466, -4.896883010864258, 1.9144129753112793, 8.378986358642578, -2.5307016372680664, -1.724861979484558, -2.306769847869873, 0.7783203125, -0.64501953125, -0.513671875
473, 515822133, -4.914031982421875, 1.9336912631988525, 8.368398666381836, -2.438777446746826, -1.6283531188964844, -2.3484668731689453, 0.7763671875, -0.646484375, -0.513671875
474, 515838800, -4.909433364868164, 1.9177451133728027, 8.370697975158691, -2.4382779598236084, -1.685750961303711, -2.328706741333008, 0.7783203125, -0.646484375, -0.512939453125
475, 515855467, -4.935431003570557, 1.9252036809921265, 8.370673179626465, -2.592491865158081, -1.8412458896636963, -2.315913438796997, 0.77734375, -0.64697265625, -0.51318359375
476, 515872134, -4.912622451782227, 1.9152380228042603, 8.356444358825684, -2.4375224113464355, -1.8127772808074951, -2.178846836090088, 0.779296875, -0.64599609375, -0.511962890625
477, 515888801, -4.89454984664917, 1.9350095987319946, 8.37002182006836, -2.3380937576293945, -1.8177077770233154, -2.051910400390625, 0.77685546875, -0.644775390625, -0.51318359375
478, 515905468, -4.9101033210754395, 1.9209295511245728, 8.386636734008789, -2.3103039264678955, -1.7351065874099731, -2.1727123260498047, 0.779296875, -0.643798828125, -0.511474609375
479, 515922135, -4.921631336212158, 1.9114611148834229, 8.35647201538086, -2.120539665222168, -1.7576075792312622, -2.040576696395874, 0.7783203125, -0.646484375, -0.512939453125
480, 515938802, -4.90533447265625, 1.9046269655227661, 8.363168716430664, -1.8500950336456299, -1.5393619537353516, -1.9755843877792358, 0.77880859375, -0.646484375, -0.511474609375
481, 515955469, -4.90766716003418, 1.920396089553833, 8.364936828613281, -1.6391104459762573, -1.358036756515503, -1.9570921659469604, 0.77880859375, -0.64599609375, -0.513671875
482, 515972136, -4.8939900398254395, 1.924618124961853, 8.362629890441895, -1.670409083366394, -1.284118413925171, -1.887425422668457, 0.77880859375, -0.646484375, -0.510986328125
483, 515988803, -4.915489196777344, 1.9366086721420288, 8.355456352233887, -1.7498341798782349, -1.4252188205718994, -2.059145927429199, 0.779296875, -0.6484375, -0.514404296875
484, 516005470, -4.90030574798584, 1.9472544193267822, 8.34915542602539, -1.740024447441101, -1.4846274852752686, -2.002068042755127, 0.77783203125, -0.64697265625, -0.510498046875
485, 516022137, -4.913390159606934, 1.9627699851989746, 8.359159469604492, -1.8964413404464722, -1.648919939994812, -2.054138660430908, 0.77734375, -0.64794921875, -0.511962890625
486, 516038804, -4.8988118171691895, 1.9613174200057983, 8.363663673400879, -1.8988226652145386, -1.5103039741516113, -2.070453405380249, 0.77685546875, -0.6474609375, -0.510986328125
487, 516055471, -4.886811256408691, 1.9678417444229126, 8.36088752746582, -2.0973470211029053, -1.3954054117202759, -2.2409958839416504, 0.77734375, -0.64794921875, -0.51318359375
488, 516072138, -4.908543109893799, 1.9543501138687134, 8.345779418945312, -2.269502878189087, -1.3421053886413574, -2.3409879207611084, 0.77783203125, -0.64990234375, -0.512939453125
489, 516088805, -4.931474208831787, 1.965997338294983, 8.334985733032227, -2.4855074882507324, -1.392101526260376, -2.4030091762542725, 0.7783203125, -0.64697265625, -0.510498046875
490, 516105472, -4.932453632354736, 1.9540736675262451, 8.359468460083008, -2.675016403198242, -1.5614912509918213, -2.434973955154419, 0.7783203125, -0.64599609375, -0.510498046875
491, 516122139, -4.914953708648682, 1.95475172996521, 8.35629940032959, -2.695762872695923, -1.6910659074783325, -2.465043544769287, 0.779296875, -0.6474609375, -0.511474609375
492, 516138806, -4.932318687438965, 1.955617070198059, 8.351360321044922, -2.8555853366851807, -1.6405701637268066, -2.5044736862182617, 0.77880859375, -0.6484375, -0.511474609375
493, 516155473, -4.909117698669434, 1.9546754360198975, 8.344475746154785, -2.839423656463623, -1.48992919921875, -2.61395525932312, 0.77880859375, -0.646484375, -0.510498046875
494, 516172140, -4.9114179611206055, 1.9060733318328857, 8.353376388549805, -2.7901968955993652, -1.463868498802185, -2.5681474208831787, 0.77978515625, -0.6484375, -0.512451171875
495, 516188807, -4.92466402053833, 1.9363889694213867, 8.36661434173584, -2.723001480102539, -1.3415037393569946, -2.505856990814209, 0.77734375, -0.64599609375, -0.509521484375
496, 516205474, -4.930352687835693, 1.937199354171753, 8.356026649475098, -2.599241018295288, -1.356294870376587, -2.500734329223633, 0.77978515625, -0.6474609375, -0.511962890625
497, 516222141, -4.910283088684082, 1.9933570623397827, 8.35915756225586, -2.68508243560791, -1.0892057418823242, -2.678410053253174, 0.7783203125, -0.64599609375, -0.510986328125
498, 516238808, -4.908697605133057, 1.9690072536468506, 8.369093894958496, -2.8500657081604004, -1.065718650817871, -2.7870073318481445, 0.78125, -0.645751953125, -0.511474609375
499, 516255475, -4.901270866394043, 1.9755975008010864, 8.375726699829102, -2.3698666095733643, -0.13282747566699982, -2.9969170093536377, 0.7802734375, -0.64697265625, -0.510986328125
500, 516272142, -4.889023303985596, 1.9562251567840576, 8.364644050598145, -2.79087495803833, -0.15774860978126526, -3.3450567722320557, 0.7783203125, -0.645263671875, -0.510986328125
501, 516288809, -4.895599842071533, 1.9524458646774292, 8.369550704956055, -2.703740358352661, 0.32668358087539673, -3.596574068069458, 0.78076171875, -0.646240234375, -0.511474609375
502, 516305476, -4.847070217132568, 1.9722669124603271, 8.380722045898438, -2.7435169219970703, 1.2290703058242798, -4.1875996589660645, 0.7802734375, -0.646240234375, -0.510986328125
503, 516322143, -4.8260178565979, 2.0894579887390137, 8.424270629882812, -2.755824089050293, 2.706193447113037, -5.411887168884277, 0.7822265625, -0.645263671875, -0.508544921875
504, 516338810, -4.938246250152588, 2.1341683864593506, 8.465487480163574, -3.2591400146484375, 5.2134599685668945, -7.057812213897705, 0.785888671875, -0.643798828125, -0.50732421875
505, 516355477, -4.836938381195068, 2.1701571941375732, 8.505302429199219, -3.0174336433410645, 7.843067169189453, -9.018056869506836, 0.788330078125, -0.645751953125, -0.50830078125
506, 516372144, -4.931013584136963, 2.3497114181518555, 8.491331100463867, -3.1657588481903076, 11.690436363220215, -12.34610366821289, 0.791259765625, -0.639892578125, -0.50537109375
507, 516388811, -4.905764579772949, 2.284607410430908, 8.673578262329102, -4.885939121246338, 16.41364097595215, -17.393539428710938, 0.794189453125, -0.64013671875, -0.504150390625
508, 516405478, -4.818514347076416, 2.692964553833008, 8.83012580871582, -10.967690467834473, 23.4764461517334, -25.03864097595215, 0.80224609375, -0.634765625, -0.499267578125
509, 516422145, -4.655356407165527, 2.626596689224243, 9.123663902282715, -11.263566970825195, 35.169376373291016, -34.01569366455078, 0.81494140625, -0.627685546875, -0.49951171875
510, 516438812, -4.6494622230529785, 2.7955751419067383, 9.5988130569458, -12.17533016204834, 52.84614181518555, -46.212528228759766, 0.828369140625, -0.619873046875, -0.48876953125
511, 516455479, -5.4842047691345215, 2.108645439147949, 9.677176475524902, -12.114666938781738, 70.83340454101562, -61.897396087646484, 0.8486328125, -0.6083984375, -0.4775390625
512, 516472146, -5.507787704467773, 2.130821704864502, 9.017403602600098, -8.150507926940918, 88.36114501953125, -75.13819885253906, 0.870849609375, -0.595947265625, -0.462646484375
513, 516488813, -6.241237163543701, 5.033675193786621, 10.332632064819336, -8.874933242797852, 95.89175415039062, -85.5718765258789, 0.8994140625, -0.579345703125, -0.447021484375
514, 516505480, -6.9198079109191895, 3.960984706878662, 9.669610977172852, -24.507726669311523, 98.70034790039062, -91.07196044921875, 0.925048828125, -0.56005859375, -0.431640625
515, 516522147, -4.732334613800049, 2.081867218017578, 9.462950706481934, -24.167980194091797, 99.20262908935547, -102.57379913330078, 0.95361328125, -0.535888671875, -0.413818359375
516, 516538814, -3.7063159942626953, 5.088466167449951, 11.323166847229004, 2.1347455978393555, 87.60667419433594, -85.34923553466797, 0.979248046875, -0.51611328125, -0.39404296875
517, 516555481, -3.297537326812744, 7.732707500457764, 12.624881744384766, 15.094532012939453, 49.604366302490234, -49.09396743774414, 0.995849609375, -0.50732421875, -0.379150390625
518, 516572148, -0.3279128968715668, 7.267642498016357, 10.621007919311523, 3.6148135662078857, 24.124048233032227, -13.817000389099121, 1.0029296875, -0.505859375, -0.3740234375
519, 516588815, 1.4421480894088745, 5.962568283081055, 9.105490684509277, 3.5195460319519043, 18.907516479492188, 19.480422973632812, 1.00537109375, -0.50830078125, -0.368408203125
520, 516605482, 1.7887561321258545, 5.192513942718506, 9.100388526916504, 5.303980827331543, 18.398635864257812, 45.3140869140625, 1.003173828125, -0.521728515625, -0.36328125
521, 516622149, 1.3961297273635864, 4.240766525268555, 9.568601608276367, 4.725518703460693, 14.96890926361084, 63.693965911865234, 1.00390625, -0.53466796875, -0.3583984375
522, 516638816, 0.4347149431705475, 3.5190181732177734, 10.01624584197998, 2.2189292907714844, 6.306514739990234, 74.36400604248047, 0.999755859375, -0.552734375, -0.355712890625
523, 516655483, -1.033566951751709, 2.8767850399017334, 10.563690185546875, -3.1101160049438477, -7.082899570465088, 78.67552947998047, 0.989501953125, -0.56640625, -0.357421875
524, 516672150, -2.6113646030426025, 2.3146004676818848, 10.991388320922852, -8.75180435180664, -25.815553665161133, 78.62960815429688, 0.978271484375, -0.58544921875, -0.35986328125
525, 516688817, -3.913236141204834, 1.8233332633972168, 11.166572570800781, -12.65473747253418, -47.36475372314453, 75.29454040527344, 0.964111328125, -0.6005859375, -0.37060546875
526, 516705484, -4.9609246253967285, 1.57150399684906, 11.0355806350708, -12.31097412109375, -68.66709899902344, 70.06526947021484, 0.94384765625, -0.611572265625, -0.38232421875
527, 516722151, -5.515933990478516, 1.5280108451843262, 10.426602363586426, -10.634126663208008, -88.4202651977539, 64.19090270996094, 0.923583984375, -0.624755859375, -0.398681640625
528, 516738818, -5.725431442260742, 1.6103479862213135, 9.495745658874512, -6.513914585113525, -100.3010482788086, 58.49012756347656, 0.89892578125, -0.6357421875, -0.418701171875
529, 516755485, -5.70657205581665, 1.9718457460403442, 8.579549789428711, -1.6519694328308105, -103.12391662597656, 53.2293815612793, 0.875732421875, -0.646240234375, -0.4375
530, 516772152, -6.031936168670654, 2.5909600257873535, 8.187640190124512, 2.377105236053467, -97.08604431152344, 49.427330017089844, 0.849853515625, -0.656982421875, -0.45263671875
531, 516788819, -7.436440467834473, 3.4731695652008057, 8.648405075073242, 1.7902858257293701, -91.23435974121094, 47.69828414916992, 0.82763671875, -0.665283203125, -0.466064453125
532, 516805486, -8.564703941345215, 3.8723304271698, 8.744155883789062, 0.5673752427101135, -91.81938934326172, 50.37668991088867, 0.7998046875, -0.673095703125, -0.47900390625
533, 516822153, -9.023985862731934, 3.951167583465576, 8.234119415283203, 2.7336251735687256, -93.58536529541016, 57.52074432373047, 0.777099609375, -0.685302734375, -0.493408203125
534, 516838820, -9.341996192932129, 3.8648226261138916, 7.638737201690674, 5.6038618087768555, -92.79093933105469, 66.18721771240234, 0.749755859375, -0.696533203125, -0.50537109375
535, 516855487, -10.140987396240234, 3.59981632232666, 7.538698196411133, 5.4330973625183105, -92.19351196289062, 73.45413208007812, 0.721435546875, -0.707763671875, -0.516357421875
536, 516872154, -10.133852005004883, 2.6618282794952393, 6.777151107788086, 3.5541865825653076, -95.29145050048828, 76.49199676513672, 0.6923828125, -0.719482421875, -0.52392578125
537, 516888821, -8.954241752624512, 1.25381600856781, 5.3678693771362305, 6.713571071624756, -90.72714233398438, 73.18759155273438, 0.659423828125, -0.729248046875, -0.53759765625
538, 516905488, -8.148966789245605, 0.1363576352596283, 4.285799503326416, 12.491031646728516, -74.64334869384766, 60.8934326171875, 0.6328125, -0.741455078125, -0.54248046875
539, 516922155, -9.05090618133545, -0.6876518726348877, 4.646478176116943, 18.301773071289062, -58.800628662109375, 41.139060974121094, 0.612548828125, -0.7509765625, -0.548583984375
540, 516938822, -10.63737964630127, -1.0567783117294312, 5.578596591949463, 27.880870819091797, -58.01029968261719, 21.6463680267334, 0.5966796875, -0.7587890625, -0.5478515625
541, 516955489, -10.724493026733398, -0.6437963247299194, 4.878714561462402, 32.75965118408203, -60.96984100341797, 3.9448130130767822, 0.580810546875, -0.769287109375, -0.547119140625
542, 516972156, -9.713265419006348, -0.30334943532943726, 2.8346292972564697, 28.605701446533203, -50.46022415161133, -12.801528930664062, 0.571533203125, -0.77587890625, -0.547607421875
543, 516988823, -9.343204498291016, 0.05602775886654854, 1.989003300666809, 28.10940170288086, -27.40997314453125, -22.88338279724121, 0.567138671875, -0.7822265625, -0.543212890625
544, 517005490, -10.269133567810059, 1.1842190027236938, 3.191596508026123, 27.03184700012207, -10.08003044128418, -24.155929565429688, 0.567626953125, -0.786865234375, -0.541015625
545, 517022157, -9.752266883850098, 1.8547800779342651, 3.388967275619507, 22.385515213012695, -6.486471652984619, -14.980459213256836, 0.57080078125, -0.789794921875, -0.538818359375
546, 517038824, -5.760873317718506, 4.4304351806640625, 1.5362058877944946, 11.86846923828125, 10.221699714660645, 6.432180881500244, 0.57080078125, -0.794189453125, -0.534423828125
547, 517055491, 4.363308429718018, 7.61984920501709, 8.570516586303711, -91.68801879882812, 85.65705108642578, 15.154922485351562, 0.58056640625, -0.78125, -0.540771484375
548, 517072158, 1.7640583515167236, 4.552373886108398, 8.442985534667969, -87.31817626953125, 100.8222427368164, 1.538440227508545, 0.600830078125, -0.76513671875, -0.543701171875
549, 517088825, -7.786445617675781, -4.163900375366211, 11.153315544128418, -69.42939758300781, 125.11663818359375, 3.0284526348114014, 0.626953125, -0.75048828125, -0.54345703125
550, 517105492, -11.011009216308594, -5.618439197540283, 15.415087699890137, -54.30862808227539, 88.01190948486328, -14.59572696685791, 0.651611328125, -0.7353515625, -0.541015625
551, 517122159, -7.470330715179443, -2.6383442878723145, 12.044644355773926, -31.462297439575195, 53.949668884277344, -40.80876159667969, 0.66943359375, -0.724609375, -0.538818359375
552, 517138826, -4.538504123687744, 3.3601198196411133, 8.569104194641113, -16.15507698059082, 54.27305221557617, -28.272729873657227, 0.685302734375, -0.716064453125, -0.5341796875
553, 517155493, -3.8700332641601562, 3.513848304748535, 7.43073034286499, -17.899734497070312, 67.20989227294922, -18.359643936157227, 0.70166015625, -0.71337890625, -0.5283203125
554, 517172160, -4.797092437744141, 2.473254919052124, 7.762417316436768, -22.087976455688477, 73.28759765625, -25.285566329956055, 0.722412109375, -0.706298828125, -0.52294921875
555, 517188827, -13.191207885742188, 5.710908889770508, 13.371431350708008, -44.05104446411133, 46.82976150512695, -28.41010093688965, 0.74072265625, -0.694091796875, -0.517822265625
556, 517205494, -5.5735697746276855, -0.5213516354560852, 9.068450927734375, -29.7791805267334, 7.144314765930176, -16.646148681640625, 0.74462890625, -0.685546875, -0.520751953125
557, 517222161, -5.118179798126221, 2.100144624710083, 8.758191108703613, -18.87302017211914, 7.856011867523193, -9.712750434875488, 0.7470703125, -0.68017578125, -0.522216796875
558, 517238828, -5.556285858154297, 1.2533828020095825, 8.80462646484375, -8.369260787963867, 8.716806411743164, -3.298494577407837, 0.7490234375, -0.67919921875, -0.523681640625
559, 517255495, -5.166255950927734, 1.8885416984558105, 8.522340774536133, -3.552379608154297, 8.976363182067871, 0.03857913985848427, 0.75, -0.677490234375, -0.519287109375
560, 517272162, -5.147266387939453, 1.589422345161438, 8.506839752197266, 0.5238759517669678, 8.841180801391602, 1.8587461709976196, 0.75048828125, -0.68017578125, -0.519287109375
561, 517288829, -4.950835704803467, 2.360072374343872, 8.320680618286133, 1.7286207675933838, 9.044108390808105, 2.2492244243621826, 0.75390625, -0.679443359375, -0.51611328125
562, 517305496, -5.17087984085083, 1.928422212600708, 8.412793159484863, 2.1927356719970703, 7.916278839111328, 0.9957900643348694, 0.755615234375, -0.680419921875, -0.513427734375
563, 517322163, -5.188065052032471, 1.7282181978225708, 8.408461570739746, 4.244339466094971, 7.958912372589111, 2.393552303314209, 0.757568359375, -0.682373046875, -0.510498046875
564, 517338830, -5.180936336517334, 2.1763358116149902, 8.344212532043457, 6.15974760055542, 8.334765434265137, 3.4645349979400635, 0.760498046875, -0.68408203125, -0.510986328125
565, 517355497, -5.113241672515869, 2.3625547885894775, 8.19521427154541, 5.644496440887451, 8.017910957336426, 3.0708420276641846, 0.76025390625, -0.6904296875, -0.503662109375
566, 517372164, -5.019349098205566, 2.6119868755340576, 8.081304550170898, 3.3225760459899902, 5.932587623596191, 1.1667163372039795, 0.76171875, -0.6904296875, -0.50634765625
567, 517388831, -5.179170608520508, 2.4856643676757812, 8.036620140075684, 0.845545768737793, 3.658665895462036, -0.8801549673080444, 0.76220703125, -0.69091796875, -0.503173828125
568, 517405498, -5.1142659187316895, 2.271939754486084, 8.133720397949219, -0.2509787976741791, 1.5662227869033813, -2.4054932594299316, 0.7626953125, -0.68994140625, -0.503173828125
569, 517422165, -4.942590236663818, 2.3273003101348877, 8.155781745910645, -0.974358320236206, 0.6337798237800598, -3.115349531173706, 0.7646484375, -0.69287109375, -0.50048828125
570, 517438832, -4.91096305847168, 2.524796485900879, 8.167604446411133, -3.093233346939087, -0.033770348876714706, -5.2185750007629395, 0.763671875, -0.6904296875, -0.501708984375
571, 517455499, -5.114511489868164, 2.3586106300354004, 8.139596939086914, -3.6578404903411865, 0.13526710867881775, -6.556980609893799, 0.7646484375, -0.68994140625, -0.503173828125
572, 517472166, -5.058966636657715, 2.307220697402954, 8.135255813598633, -3.733153820037842, 0.19945251941680908, -7.47560453414917, 0.7666015625, -0.689453125, -0.500244140625
573, 517488833, -4.976048469543457, 2.215780019760132, 8.199321746826172, -3.392965793609619, 1.065558910369873, -8.091219902038574, 0.76953125, -0.687255859375, -0.4990234375
574, 517505500, -5.086010456085205, 2.1544861793518066, 8.262652397155762, -2.633242130279541, 3.015313148498535, -8.291485786437988, 0.772216796875, -0.688232421875, -0.49853515625
575, 517522167, -5.239654541015625, 2.0129735469818115, 8.192412376403809, -0.9381036758422852, 4.524643898010254, -7.091978549957275, 0.7734375, -0.686279296875, -0.49658203125
576, 517538834, -5.263880252838135, 2.1396706104278564, 8.119760513305664, 0.08803726732730865, 5.420858383178711, -6.495317459106445, 0.773681640625, -0.687255859375, -0.49609375
577, 517555501, -5.347296714782715, 2.0992865562438965, 8.11146354675293, 0.06867406517267227, 5.85809326171875, -5.905701160430908, 0.775146484375, -0.686279296875, -0.495849609375
578, 517572168, -5.354815483093262, 2.2235612869262695, 8.08413028717041, -0.9791096448898315, 5.469099521636963, -6.298778057098389, 0.778564453125, -0.683349609375, -0.495849609375
579, 517588835, -5.212924003601074, 2.3132822513580322, 8.059617042541504, -1.5892813205718994, 5.405875205993652, -7.364882946014404, 0.781005859375, -0.685791015625, -0.493408203125
580, 517605502, -5.112721920013428, 2.2481939792633057, 8.152425765991211, -2.1047372817993164, 6.736521244049072, -8.02861213684082, 0.784912109375, -0.68408203125, -0.4892578125
581, 517622169, -5.116631031036377, 2.155907392501831, 8.168275833129883, -2.1122548580169678, 9.526167869567871, -8.407232284545898, 0.785888671875, -0.68212890625, -0.49072265625
582, 517638836, -5.179396152496338, 2.25500226020813, 8.073057174682617, -1.9206855297088623, 12.879120826721191, -10.236444473266602, 0.791015625, -0.68115234375, -0.490234375
583, 517655503, -5.160752773284912, 2.387704849243164, 8.08038330078125, 2.0788521766662598, 17.560823440551758, -16.017688751220703, 0.794921875, -0.68115234375, -0.486083984375
584, 517672170, -4.945702075958252, 2.6767687797546387, 8.460375785827637, 6.952000141143799, 22.739913940429688, -24.42913246154785, 0.803466796875, -0.677978515625, -0.48095703125
585, 517688837, -5.073271751403809, 1.7884033918380737, 8.485684394836426, 0.975701630115509, 31.0693416595459, -22.922576904296875, 0.811767578125, -0.675537109375, -0.476318359375
586, 517705504, -4.940711498260498, 1.9409587383270264, 8.563112258911133, 4.400412559509277, 46.912445068359375, -21.84270668029785, 0.8232421875, -0.673828125, -0.468017578125
587, 517722171, -5.150137424468994, 1.9806275367736816, 8.42061996459961, 8.126518249511719, 65.17030334472656, -23.160860061645508, 0.836181640625, -0.674072265625, -0.45556640625
588, 517738838, -5.149562358856201, 2.146677017211914, 8.419716835021973, 10.08238697052002, 85.77830505371094, -24.841108322143555, 0.856201171875, -0.673095703125, -0.438720703125
589, 517755505, -5.247757911682129, 2.3266351222991943, 8.33322811126709, 17.12739372253418, 110.82366943359375, -30.693904876708984, 0.87841796875, -0.670654296875, -0.419189453125
590, 517772172, -5.6092705726623535, 1.989452600479126, 8.03429126739502, 23.085155487060547, 139.69801330566406, -38.92851638793945, 0.905029296875, -0.66796875, -0.391357421875
591, 517788839, -5.342475891113281, 2.0370752811431885, 8.878766059875488, 33.12656021118164, 177.15640258789062, -46.53932189941406, 0.938232421875, -0.6669921875, -0.35693359375
592, 517805506, -5.324677467346191, 2.3224620819091797, 8.446100234985352, 29.72625732421875, 225.7928466796875, -55.04817581176758, 0.9765625, -0.6611328125, -0.30810546875
593, 517822173, -5.563995361328125, 3.8174498081207275, 8.555940628051758, 29.075267791748047, 289.67333984375, -80.11165618896484, 1.02685546875, -0.65185546875, -0.2451171875
594, 517838840, -7.677024841308594, 4.613459587097168, 10.321807861328125, 9.22602367401123, 351.35369873046875, -123.03981018066406, 1.0771484375, -0.627685546875, -0.16796875
595, 517855507, -9.328880310058594, 4.583150863647461, 10.513029098510742, -6.663521766662598, 395.5200500488281, -153.9642791748047, 1.13037109375, -0.593994140625, -0.07177734375
596, 517872174, -18.74473762512207, 5.012423038482666, 13.543675422668457, 8.401930809020996, 415.1391296386719, -151.79312133789062, 1.174560546875, -0.552734375, 0.035400390625
597, 517888841, -22.509418487548828, 7.899418354034424, 16.896745681762695, 37.68620300292969, 366.2193298339844, -125.4173812866211, 1.19775390625, -0.5205078125, 0.142578125
598, 517905508, -14.359299659729004, 5.864625930786133, 14.116312980651855, 8.497796058654785, 287.29803466796875, -131.47238159179688, 1.212646484375, -0.48681640625, 0.221923828125
599, 517922175, -8.060515403747559, 4.7243218421936035, 14.529618263244629, 33.291683197021484, 239.7897186279297, -127.76400756835938, 1.21728515625, -0.450439453125, 0.29541015625
600, 517938842, -2.5168538093566895, 5.224043369293213, 8.502557754516602, 23.839481353759766, 232.57745361328125, -147.57272338867188, 1.216796875, -0.41259765625, 0.3583984375
601, 517955509, -21.69808578491211, 9.76772403717041, 26.917619705200195, 44.15008544921875, 98.12064361572266, -108.87982177734375, 1.217529296875, -0.37841796875, 0.401123046875
602, 517972176, -9.308276176452637, 10.061052322387695, 20.083223342895508, 48.69367980957031, -118.26844024658203, -41.94857406616211, 1.22119140625, -0.361083984375, 0.384033203125
603, 517988843, 0.9788899421691895, 7.158652305603027, 10.100433349609375, 20.419118881225586, -188.9207000732422, -7.650950908660889, 1.230712890625, -0.354248046875, 0.334716796875
604, 518005510, 4.54062557220459, 4.603682041168213, 5.039465427398682, 6.676174640655518, -167.5378875732422, 15.536351203918457, 1.23876953125, -0.35791015625, 0.28955078125
605, 518022177, 3.164276599884033, 3.8006067276000977, 4.655609607696533, 6.900177955627441, -128.93045043945312, 45.91892623901367, 1.240478515625, -0.36962890625, 0.25146484375
606, 518038844, -0.3204166889190674, 4.522445201873779, 6.766880035400391, -3.402660846710205, -114.52259826660156, 78.57394409179688, 1.23974609375, -0.388671875, 0.218994140625
607, 518055511, -3.3167941570281982, 4.385517120361328, 8.99337100982666, -29.503917694091797, -133.9283905029297, 106.87142181396484, 1.23291015625, -0.418212890625, 0.1845703125
608, 518072178, -5.531077861785889, 2.9910178184509277, 10.038009643554688, -49.02048110961914, -172.77383422851562, 133.56790161132812, 1.22509765625, -0.45458984375, 0.13818359375
609, 518088845, -6.395939826965332, 1.2746663093566895, 9.645960807800293, -55.218040466308594, -215.2346649169922, 154.0530548095703, 1.205810546875, -0.492919921875, 0.079345703125
610, 518105512, -6.7023773193359375, -0.4356784224510193, 8.778855323791504, -52.1995735168457, -244.42184448242188, 161.0448455810547, 1.18310546875, -0.535888671875, 0.009521484375
611, 518122179, -7.291100025177002, -1.7240275144577026, 8.439115524291992, -47.22700119018555, -261.3227233886719, 148.10092163085938, 1.149658203125, -0.57470703125, -0.06103515625
612, 518138846, -8.084196090698242, -2.9876270294189453, 8.645390510559082, -36.057151794433594, -270.6384582519531, 119.95024108886719, 1.11474609375, -0.60693359375, -0.129638671875
613, 518155513, -9.133936882019043, -3.254424571990967, 9.145540237426758, -15.22056770324707, -278.1511535644531, 86.33262634277344, 1.07421875, -0.626953125, -0.19873046875
614, 518172180, -9.69691276550293, -2.7417967319488525, 9.21766185760498, 8.19655704498291, -279.5275573730469, 53.7957649230957, 1.0322265625, -0.6435546875, -0.26220703125
615, 518188847, -11.337652206420898, -1.4213101863861084, 10.125590324401855, 30.327953338623047, -272.7296142578125, 27.61931800842285, 0.987548828125, -0.656494140625, -0.31689453125
616, 518205514, -13.916496276855469, 0.30911824107170105, 11.523036003112793, 50.513492584228516, -272.712158203125, 16.481767654418945, 0.94287109375, -0.66845703125, -0.366455078125
617, 518222181, -17.084394454956055, 1.6976419687271118, 12.843070030212402, 67.8006820678711, -276.789794921875, 21.632610321044922, 0.89404296875, -0.68017578125, -0.41064453125
618, 518238848, -22.13190460205078, 3.0208542346954346, 13.498368263244629, 72.26255798339844, -294.0813903808594, 33.18841552734375, 0.839599609375, -0.70263671875, -0.447021484375
619, 518255515, -24.721202850341797, 3.810194253921509, 11.093894958496094, 63.57331848144531, -322.4483642578125, 40.23363494873047, 0.772705078125, -0.72265625, -0.486328125
620, 518272182, -25.379291534423828, 4.529356479644775, 5.804262638092041, 53.056396484375, -332.11187744140625, 45.97142791748047, 0.69921875, -0.739990234375, -0.52392578125
621, 518288849, -24.3222599029541, 4.345260143280029, -0.3740417957305908, 47.787269592285156, -304.26220703125, 56.129825592041016, 0.6220703125, -0.760009765625, -0.54833984375
622, 518305516, -24.659465789794922, 0.42802298069000244, -6.401592254638672, 59.65494155883789, -236.0572967529297, 80.49273681640625, 0.556640625, -0.778564453125, -0.56298828125
623, 518322183, -29.35072898864746, -7.152901649475098, -12.578866004943848, 85.22183227539062, -154.6498565673828, 108.80613708496094, 0.497314453125, -0.808349609375, -0.560791015625
624, 518338850, -28.42215919494629, -9.024965286254883, -16.02741813659668, 59.129051208496094, -60.670249938964844, 97.0057144165039, 0.461669921875, -0.830078125, -0.5537109375
625, 518355517, -22.571897506713867, -6.604652404785156, -11.015728950500488, -53.97206497192383, 42.715660095214844, 10.229930877685547, 0.4560546875, -0.8251953125, -0.559326171875
626, 518372184, -6.304795742034912, -0.5588846802711487, 2.813194990158081, -54.96645736694336, 129.25039672851562, -104.50370788574219, 0.49365234375, -0.810302734375, -0.561767578125
627, 518388851, -2.2272233963012695, 11.36960220336914, 16.567991256713867, -92.20471954345703, 91.62003326416016, -143.61309814453125, 0.542724609375, -0.777099609375, -0.5673828125
628, 518405518, -3.3834028244018555, 6.217316150665283, 3.4144067764282227, -69.26334381103516, 141.94195556640625, -56.295040130615234, 0.581787109375, -0.75634765625, -0.56689453125
629, 518422185, -10.620254516601562, 1.8741964101791382, 14.828033447265625, -45.39101791381836, 171.24713134765625, 25.087491989135742, 0.616943359375, -0.74755859375, -0.5576171875
630, 518438852, -9.817440032958984, -9.296566009521484, 13.684427261352539, -45.28522872924805, 133.6248016357422, -23.600650787353516, 0.650634765625, -0.7373046875, -0.549072265625
631, 518455519, -7.646229267120361, -0.930201530456543, 11.392163276672363, -13.3932523727417, 106.88041687011719, -46.94862747192383, 0.681884765625, -0.72705078125, -0.5361328125
632, 518472186, -5.693077564239502, 5.599216461181641, 7.864411354064941, -15.470755577087402, 108.515625, -32.29534912109375, 0.7109375, -0.721923828125, -0.52490234375
633, 518488853, -6.480348110198975, 2.259427070617676, 8.789642333984375, -29.116788864135742, 111.38660430908203, -32.1166877746582, 0.737548828125, -0.713134765625, -0.513916015625
634, 518505520, -8.346809387207031, 2.385324001312256, 11.638409614562988, -36.43594741821289, 99.8428726196289, -48.568641662597656, 0.766845703125, -0.698486328125, -0.50439453125
635, 518522187, -14.345709800720215, 3.5523200035095215, 11.006512641906738, -58.38284683227539, 20.498525619506836, -37.49532699584961, 0.779541015625, -0.682861328125, -0.508544921875
636, 518538854, -5.230265140533447, 1.727577805519104, 10.186948776245117, -33.671504974365234, 7.138716220855713, -21.139394760131836, 0.785400390625, -0.6728515625, -0.508544921875
637, 518555521, -6.151857376098633, 1.5382206439971924, 9.083015441894531, -22.607513427734375, 4.6324334144592285, -12.7711763381958, 0.790283203125, -0.666748046875, -0.510498046875
638, 518572188, -5.477831840515137, 1.4548389911651611, 8.892157554626465, -14.032683372497559, 3.725069046020508, -8.092479705810547, 0.79150390625, -0.660400390625, -0.51171875
639, 518588855, -5.27700662612915, 0.8930332660675049, 8.826143264770508, -4.605997085571289, 4.305041313171387, -4.046218395233154, 0.794189453125, -0.66064453125, -0.511962890625
640, 518605522, -5.0494585037231445, 1.3046526908874512, 8.56391429901123, 2.307633876800537, 5.151668548583984, -1.1423264741897583, 0.793701171875, -0.661865234375, -0.510986328125
641, 518622189, -5.025652885437012, 1.6875526905059814, 8.41264533996582, 6.003650665283203, 6.1284613609313965, -0.3570539653301239, 0.793701171875, -0.662353515625, -0.509033203125
642, 518638856, -5.077284812927246, 2.005664110183716, 8.183164596557617, 7.638689041137695, 6.682079792022705, -0.3736509680747986, 0.800537109375, -0.66259765625, -0.5048828125
643, 518655523, -5.020450115203857, 2.343353271484375, 8.131357192993164, 7.0380449295043945, 6.864673137664795, -1.5814052820205688, 0.798583984375, -0.667236328125, -0.5029296875
644, 518672190, -5.095738410949707, 2.3158369064331055, 8.171759605407715, 3.48736834526062, 5.999128818511963, -3.966869831085205, 0.802734375, -0.670166015625, -0.502197265625
645, 518688857, -5.129637718200684, 2.2601840496063232, 8.153656005859375, -1.4753814935684204, 4.6268391609191895, -6.534889221191406, 0.8037109375, -0.667724609375, -0.49853515625
646, 518705524, -5.204644203186035, 2.01196551322937, 8.183713912963867, -5.412912845611572, 3.949242353439331, -8.085509300231934, 0.8037109375, -0.667236328125, -0.498046875
647, 518722191, -5.266592025756836, 2.068721294403076, 8.125222206115723, -6.9175705909729, 2.8283281326293945, -7.38802433013916, 0.80810546875, -0.66552734375, -0.5
648, 518738858, -5.324175834655762, 2.0775222778320312, 8.157807350158691, -7.944550037384033, 0.7670814394950867, -6.803720951080322, 0.80712890625, -0.66259765625, -0.498779296875
649, 518755525, -5.277357578277588, 1.8959624767303467, 8.270562171936035, -8.445394515991211, -1.92306649684906, -6.268096923828125, 0.8095703125, -0.66162109375, -0.49951171875
650, 518772192, -5.194957256317139, 1.9086664915084839, 8.1659517288208, -7.895514488220215, -3.162990093231201, -5.364184856414795, 0.80908203125, -0.66015625, -0.498779296875
651, 518788859, -5.1265997886657715, 1.8231111764907837, 8.25696849822998, -5.915215492248535, -2.5426244735717773, -4.502918243408203, 0.81103515625, -0.66015625, -0.500732421875
652, 518805526, -5.070253372192383, 1.881606936454773, 8.267330169677734, -5.972472667694092, -2.0133378505706787, -4.769687175750732, 0.8076171875, -0.65771484375, -0.502197265625
653, 518822193, -5.05617094039917, 1.9225890636444092, 8.222752571105957, -7.468780994415283, -2.161623239517212, -5.969041347503662, 0.80810546875, -0.6572265625, -0.501220703125
654, 518838860, -4.931216716766357, 1.944197177886963, 8.2166166305542, -7.862397193908691, -1.728050947189331, -6.885042667388916, 0.810546875, -0.654541015625, -0.504150390625
655, 518855527, -4.974435806274414, 1.8593559265136719, 8.298763275146484, -6.697466850280762, -0.31132248044013977, -7.854251384735107, 0.81201171875, -0.652099609375, -0.505126953125
656, 518872194, -4.968690872192383, 1.8401681184768677, 8.3423490524292, -5.854668140411377, 2.519003391265869, -8.558871269226074, 0.812744140625, -0.650146484375, -0.501220703125
657, 518888861, -4.979416847229004, 1.8087761402130127, 8.403745651245117, -4.68662691116333, 7.495913505554199, -9.916193008422852, 0.81494140625, -0.647705078125, -0.504150390625
658, 518905528, -4.907854080200195, 1.7351852655410767, 8.503646850585938, -2.9197492599487305, 15.353342056274414, -11.688575744628906, 0.81884765625, -0.6455078125, -0.500244140625
