sep=,
DeviceTag:,A,,,,,,,,,,,,,,,,,
FirmwareVersion:,2.2.1,,,,,,,,,,,,,,,,,
AppVersion:,2022.0.1,,,,,,,,,,,,,,,,,
SyncStatus:,Synced,,,,,,,,,,,,,,,,,
OutputRate:,60Hz,,,,,,,,,,,,,,,,,
FilterProfile:,General,,,,,,,,,,,,,,,,,
Measurement Mode:,Inertial Mode - Rate quantities (with mag),,,,,,,,,,,,,,,,,
StartTime:,2022-08-03 15:35:26.648 +0300,,,,,,,,,,,,,,,,,
© Xsens Technologies B. V. 2005-2022,,,,,,,,,,,,,,,,,,,

PacketCounter,SampleTimeFine,Acc_X,Acc_Y,Acc_Z,Gyr_X,Gyr_Y,Gyr_Z,Mag_X,Mag_Y,Mag_Z
1, 910946702, -4.927008628845215, 1.7388070821762085, 8.365678787231445, -2.427123546600342, -1.5727479457855225, -2.345227003097534, 0.80029296875, -0.644775390625, -0.522705078125
2, 910963369, -4.91601037979126, 1.7180449962615967, 8.358442306518555, -2.452249526977539, -1.5731191635131836, -2.339143991470337, 0.80029296875, -0.646728515625, -0.525146484375
3, 910980036, -4.90187406539917, 1.7422212362289429, 8.373732566833496, -2.4635064601898193, -1.6275718212127686, -2.3915090560913086, 0.80078125, -0.645751953125, -0.521728515625
4, 910996703, -4.926483631134033, 1.7310670614242554, 8.396232604980469, -2.3999738693237305, -1.6227564811706543, -2.347647190093994, 0.80029296875, -0.646728515625, -0.526123046875
5, 911013370, -4.920045852661133, 1.7440763711929321, 8.3606595993042, -2.325364112854004, -1.593366026878357, -2.327131509780884, 0.7978515625, -0.644287109375, -0.521240234375
6, 911030037, -4.934215068817139, 1.7497373819351196, 8.375068664550781, -2.3463408946990967, -1.6084263324737549, -2.324378252029419, 0.80029296875, -0.645263671875, -0.524169921875
7, 911046704, -4.9327874183654785, 1.7502683401107788, 8.373490333557129, -2.3984756469726562, -1.707099199295044, -2.2792227268218994, 0.79931640625, -0.645263671875, -0.522216796875
8, 911063371, -4.916426181793213, 1.7505390644073486, 8.376304626464844, -2.3399507999420166, -1.7263473272323608, -2.229956865310669, 0.798828125, -0.646240234375, -0.522705078125
9, 911080038, -4.919155597686768, 1.7627663612365723, 8.362212181091309, -2.4504568576812744, -1.752510666847229, -2.2929129600524902, 0.7978515625, -0.645263671875, -0.524169921875
10, 911096705, -4.923975944519043, 1.7548015117645264, 8.381681442260742, -2.371608257293701, -1.6178261041641235, -2.2208645343780518, 0.80029296875, -0.645263671875, -0.524169921875
11, 911113372, -4.914467811584473, 1.7601087093353271, 8.37948226928711, -2.572117328643799, -1.593122959136963, -2.3098175525665283, 0.7998046875, -0.645263671875, -0.521728515625
12, 911130039, -4.9001784324646, 1.7693560123443604, 8.373123168945312, -2.637608766555786, -1.5478909015655518, -2.371774673461914, 0.80126953125, -0.645751953125, -0.521240234375
13, 911146706, -4.927906036376953, 1.729750156402588, 8.381092071533203, -2.51998233795166, -1.6892344951629639, -2.448305368423462, 0.798828125, -0.645751953125, -0.522705078125
14, 911163373, -4.932234764099121, 1.7393989562988281, 8.38460636138916, -2.6266462802886963, -1.5946723222732544, -2.3142998218536377, 0.79736328125, -0.645263671875, -0.522216796875
15, 911180040, -4.897963047027588, 1.7451049089431763, 8.379016876220703, -2.4159178733825684, -1.577614426612854, -2.330294609069824, 0.80078125, -0.646240234375, -0.523681640625
16, 911196707, -4.908474922180176, 1.7540568113327026, 8.367430686950684, -2.5081875324249268, -1.5588017702102661, -2.3453550338745117, 0.80078125, -0.644775390625, -0.523681640625
17, 911213374, -4.91395378112793, 1.7201716899871826, 8.380168914794922, -2.4924614429473877, -1.4476938247680664, -2.286855459213257, 0.79736328125, -0.644775390625, -0.521728515625
18, 911230041, -4.92018985748291, 1.7793779373168945, 8.353479385375977, -2.4883761405944824, -1.4246678352355957, -2.4650557041168213, 0.8017578125, -0.643798828125, -0.521728515625
19, 911246708, -4.9346795082092285, 1.7512586116790771, 8.369229316711426, -2.4298768043518066, -1.4540072679519653, -2.3932888507843018, 0.7978515625, -0.645751953125, -0.523681640625
20, 911263375, -4.920231342315674, 1.7483128309249878, 8.384842872619629, -2.3403475284576416, -1.5085623264312744, -2.361708402633667, 0.7998046875, -0.644775390625, -0.523193359375
21, 911280042, -4.930729389190674, 1.7500261068344116, 8.377360343933105, -2.4364209175109863, -1.6262401342391968, -2.347749710083008, 0.798828125, -0.647705078125, -0.520263671875
22, 911296709, -4.929092884063721, 1.750900387763977, 8.361846923828125, -2.4929099082946777, -1.601792812347412, -2.398347854614258, 0.7978515625, -0.647216796875, -0.521728515625
23, 911313376, -4.923728942871094, 1.736127495765686, 8.380913734436035, -2.5193803310394287, -1.6335395574569702, -2.315016746520996, 0.80126953125, -0.646728515625, -0.523681640625
24, 911330043, -4.918039321899414, 1.7426397800445557, 8.371328353881836, -2.6341257095336914, -1.6470248699188232, -2.3765387535095215, 0.7978515625, -0.645751953125, -0.523681640625
25, 911346710, -4.912445545196533, 1.760235071182251, 8.390389442443848, -2.4735209941864014, -1.5865658521652222, -2.4066333770751953, 0.80029296875, -0.647216796875, -0.521728515625
26, 911363377, -4.90806245803833, 1.7491692304611206, 8.375469207763672, -2.489772081375122, -1.5541530847549438, -2.3730809688568115, 0.80029296875, -0.647216796875, -0.523681640625
27, 911380044, -4.919410228729248, 1.7496732473373413, 8.375377655029297, -2.5361061096191406, -1.6132930517196655, -2.467066764831543, 0.798828125, -0.644775390625, -0.523681640625
28, 911396711, -4.935452938079834, 1.7360087633132935, 8.367197036743164, -2.4307351112365723, -1.6274054050445557, -2.3393616676330566, 0.80029296875, -0.644775390625, -0.525146484375
29, 911413378, -4.923975944519043, 1.7413831949234009, 8.363815307617188, -2.457794666290283, -1.6463333368301392, -2.227037191390991, 0.7978515625, -0.645751953125, -0.523681640625
30, 911430045, -4.926148891448975, 1.7602076530456543, 8.380871772766113, -2.3569958209991455, -1.6184666156768799, -2.304861545562744, 0.798828125, -0.645751953125, -0.521728515625
31, 911446712, -4.9249725341796875, 1.745034098625183, 8.357672691345215, -2.4868521690368652, -1.6653249263763428, -2.258592128753662, 0.7998046875, -0.647705078125, -0.524169921875
32, 911463379, -4.922698020935059, 1.7514406442642212, 8.364446640014648, -2.5096993446350098, -1.6811795234680176, -2.3208954334259033, 0.79931640625, -0.647216796875, -0.520751953125
33, 911480046, -4.921153545379639, 1.760053277015686, 8.387040138244629, -2.4731369018554688, -1.7115944623947144, -2.3221755027770996, 0.79833984375, -0.645751953125, -0.524658203125
34, 911496713, -4.9144768714904785, 1.7195241451263428, 8.398406982421875, -2.4915266036987305, -1.6764663457870483, -2.2395360469818115, 0.79833984375, -0.646728515625, -0.522705078125
35, 911513380, -4.9142231941223145, 1.7421900033950806, 8.3866605758667, -2.4171605110168457, -1.738167643547058, -2.2090699672698975, 0.80029296875, -0.645751953125, -0.521240234375
36, 911530047, -4.908942699432373, 1.7478128671646118, 8.404208183288574, -2.4550669193267822, -1.7068305015563965, -2.2020647525787354, 0.7998046875, -0.647216796875, -0.524169921875
37, 911546714, -4.911835193634033, 1.7351715564727783, 8.388607025146484, -2.4707934856414795, -1.64920175075531, -2.2629587650299072, 0.7978515625, -0.644775390625, -0.524658203125
38, 911563381, -4.898950099945068, 1.7547500133514404, 8.385955810546875, -2.394339084625244, -1.4463874101638794, -2.186415195465088, 0.80078125, -0.645263671875, -0.522705078125
39, 911580048, -4.914501667022705, 1.7432806491851807, 8.362845420837402, -2.3648719787597656, -1.5331377983093262, -2.2274341583251953, 0.79833984375, -0.646728515625, -0.522705078125
40, 911596715, -4.925942897796631, 1.7421813011169434, 8.390324592590332, -2.4045205116271973, -1.6122170686721802, -2.2546093463897705, 0.79833984375, -0.647216796875, -0.522216796875
41, 911613382, -4.914187908172607, 1.7405070066452026, 8.39509391784668, -2.374220848083496, -1.6983654499053955, -2.2708349227905273, 0.79833984375, -0.644287109375, -0.522705078125
42, 911630049, -4.913151264190674, 1.7431052923202515, 8.371564865112305, -2.360914707183838, -1.6945619583129883, -2.291529893875122, 0.7978515625, -0.645751953125, -0.522216796875
43, 911646716, -4.896707534790039, 1.7641457319259644, 8.377594947814941, -2.3681373596191406, -1.538234829902649, -2.2730374336242676, 0.7978515625, -0.646240234375, -0.520263671875
44, 911663383, -4.918755054473877, 1.759658694267273, 8.367921829223633, -2.4061086177825928, -1.5783442258834839, -2.3562917709350586, 0.7998046875, -0.645751953125, -0.519775390625
45, 911680050, -4.909927845001221, 1.7589256763458252, 8.37845230102539, -2.5316617488861084, -1.5462772846221924, -2.3719282150268555, 0.798828125, -0.643310546875, -0.523681640625
46, 911696717, -4.915692329406738, 1.7497193813323975, 8.379655838012695, -2.5565061569213867, -1.5603513717651367, -2.3906893730163574, 0.80078125, -0.646240234375, -0.521240234375
47, 911713384, -4.911528587341309, 1.7567859888076782, 8.377487182617188, -2.571105480194092, -1.4989322423934937, -2.4212329387664795, 0.7998046875, -0.647705078125, -0.520751953125
48, 911730051, -4.922970294952393, 1.7409940958023071, 8.370131492614746, -2.4859814643859863, -1.5046820640563965, -2.4480364322662354, 0.798828125, -0.647705078125, -0.522705078125
49, 911746718, -4.917374610900879, 1.7477855682373047, 8.374690055847168, -2.449457883834839, -1.4976898431777954, -2.4006400108337402, 0.8017578125, -0.646240234375, -0.521728515625
50, 911763385, -4.910144805908203, 1.7415789365768433, 8.353809356689453, -2.559490203857422, -1.6069923639297485, -2.370161294937134, 0.80029296875, -0.647216796875, -0.522705078125
51, 911780052, -4.9192681312561035, 1.7416560649871826, 8.3763427734375, -2.520904779434204, -1.5685348510742188, -2.396491289138794, 0.79833984375, -0.645263671875, -0.523681640625
52, 911796719, -4.9211249351501465, 1.7366071939468384, 8.357565879821777, -2.478297710418701, -1.5530645847320557, -2.37967586517334, 0.79931640625, -0.644775390625, -0.524169921875
53, 911813386, -4.925593376159668, 1.7318168878555298, 8.379124641418457, -2.5195345878601074, -1.6531208753585815, -2.332421064376831, 0.7998046875, -0.645263671875, -0.522216796875
54, 911830053, -4.908605575561523, 1.7424776554107666, 8.375908851623535, -2.4608170986175537, -1.6292365789413452, -2.3014163970947266, 0.79833984375, -0.646728515625, -0.521728515625
55, 911846720, -4.9191484451293945, 1.7554606199264526, 8.381306648254395, -2.492333173751831, -1.647780179977417, -2.2089669704437256, 0.80029296875, -0.645263671875, -0.522216796875
56, 911863387, -4.914111614227295, 1.7492971420288086, 8.390545845031738, -2.4851365089416504, -1.751371145248413, -2.320946216583252, 0.798828125, -0.646728515625, -0.521728515625
57, 911880054, -4.93001651763916, 1.7511016130447388, 8.371453285217285, -2.48940110206604, -1.6096816062927246, -2.447972536087036, 0.79931640625, -0.646728515625, -0.522705078125
58, 911896721, -4.920236110687256, 1.7428747415542603, 8.367463111877441, -2.5310347080230713, -1.6241143941879272, -2.3890762329101562, 0.7998046875, -0.645263671875, -0.521728515625
59, 911913388, -4.930900573730469, 1.7392909526824951, 8.375150680541992, -2.510300636291504, -1.6598949432373047, -2.2363600730895996, 0.79931640625, -0.645263671875, -0.521728515625
60, 911930055, -4.9216628074646, 1.7470996379852295, 8.381002426147461, -2.4324893951416016, -1.7045252323150635, -2.2927849292755127, 0.80029296875, -0.642333984375, -0.521728515625
61, 911946722, -4.912598609924316, 1.739747405052185, 8.374617576599121, -2.4220778942108154, -1.678874135017395, -2.2014243602752686, 0.80126953125, -0.646240234375, -0.524169921875
62, 911963389, -4.903470993041992, 1.7415928840637207, 8.382905960083008, -2.447268009185791, -1.693204402923584, -2.3185513019561768, 0.79833984375, -0.646240234375, -0.523681640625
63, 911980056, -4.9280571937561035, 1.7317445278167725, 8.378767013549805, -2.4169809818267822, -1.6351147890090942, -2.3185384273529053, 0.80126953125, -0.646728515625, -0.522216796875
64, 911996723, -4.925992012023926, 1.733559250831604, 8.360334396362305, -2.479386329650879, -1.7116072177886963, -2.320946216583252, 0.7998046875, -0.645263671875, -0.523193359375
65, 912013390, -4.905501842498779, 1.7382062673568726, 8.373955726623535, -2.4977893829345703, -1.8169524669647217, -2.276111364364624, 0.80078125, -0.647216796875, -0.522216796875
66, 912030057, -4.922804355621338, 1.7536602020263672, 8.38509750366211, -2.481473922729492, -1.7060364484786987, -2.3549344539642334, 0.798828125, -0.646728515625, -0.523193359375
67, 912046724, -4.9176201820373535, 1.7385090589523315, 8.391800880432129, -2.5065104961395264, -1.7305991649627686, -2.286638021469116, 0.80029296875, -0.645263671875, -0.524169921875
68, 912063391, -4.9025092124938965, 1.7459200620651245, 8.37359619140625, -2.585961103439331, -1.7344154119491577, -2.328489303588867, 0.79931640625, -0.645751953125, -0.522216796875
69, 912080058, -4.918154239654541, 1.7323026657104492, 8.394801139831543, -2.5062668323516846, -1.803223729133606, -2.373465061187744, 0.7998046875, -0.645751953125, -0.520263671875
70, 912096725, -4.911759853363037, 1.6945064067840576, 8.406453132629395, -2.591928243637085, -1.6793606281280518, -2.1631460189819336, 0.79931640625, -0.644775390625, -0.523681640625
71, 912113392, -4.9326910972595215, 1.7940930128097534, 8.374200820922852, -2.4636857509613037, -1.791019320487976, -2.2375383377075195, 0.7978515625, -0.646240234375, -0.523193359375
72, 912130059, -4.903355598449707, 1.7506897449493408, 8.377857208251953, -2.4633147716522217, -1.8001760244369507, -2.278749704360962, 0.79833984375, -0.646728515625, -0.522705078125
73, 912146726, -4.899561405181885, 1.7491358518600464, 8.378984451293945, -2.5195984840393066, -1.8456770181655884, -2.2955129146575928, 0.80078125, -0.645751953125, -0.522705078125
74, 912163393, -4.906925678253174, 1.7426589727401733, 8.36934757232666, -2.510236978530884, -1.6620211601257324, -2.353154420852661, 0.79833984375, -0.646240234375, -0.520751953125
75, 912180060, -4.912839412689209, 1.7241462469100952, 8.373214721679688, -2.487454414367676, -1.6754164695739746, -2.3886919021606445, 0.7978515625, -0.645751953125, -0.523681640625
76, 912196727, -4.8930206298828125, 1.7507250308990479, 8.389892578125, -2.503922939300537, -1.601779580116272, -2.3108417987823486, 0.79833984375, -0.646728515625, -0.523193359375
77, 912213394, -4.904896259307861, 1.7432516813278198, 8.377419471740723, -2.6182074546813965, -1.5411548614501953, -2.4011781215667725, 0.798828125, -0.644775390625, -0.522216796875
78, 912230061, -4.907774925231934, 1.7217199802398682, 8.392004013061523, -2.6000609397888184, -1.4940017461776733, -2.5034239292144775, 0.80029296875, -0.643798828125, -0.522705078125
79, 912246728, -4.904236316680908, 1.748539686203003, 8.385869979858398, -2.5403192043304443, -1.399695873260498, -2.587446689605713, 0.798828125, -0.643798828125, -0.521728515625
80, 912263395, -4.911578178405762, 1.7396657466888428, 8.397095680236816, -2.6106514930725098, -1.4544429779052734, -2.4785284996032715, 0.80126953125, -0.647705078125, -0.524658203125
81, 912280062, -4.912051200866699, 1.7515180110931396, 8.384159088134766, -2.6366353034973145, -1.4410858154296875, -2.4658498764038086, 0.798828125, -0.646728515625, -0.522705078125
82, 912296729, -4.925557613372803, 1.7652016878128052, 8.381265640258789, -2.650761127471924, -1.5484927892684937, -2.4731497764587402, 0.79833984375, -0.645751953125, -0.521240234375
83, 912313396, -4.910868167877197, 1.7179954051971436, 8.391502380371094, -2.6568057537078857, -1.6281481981277466, -2.535107135772705, 0.7998046875, -0.645751953125, -0.522216796875
84, 912330063, -4.930476188659668, 1.7258694171905518, 8.380108833312988, -2.5435845851898193, -1.6817171573638916, -2.3833775520324707, 0.798828125, -0.645751953125, -0.522216796875
85, 912346730, -4.917842864990234, 1.7388743162155151, 8.397360801696777, -2.542982578277588, -1.688338041305542, -2.2641499042510986, 0.79833984375, -0.646240234375, -0.525146484375
86, 912363397, -4.911116600036621, 1.7460370063781738, 8.368545532226562, -2.523850440979004, -1.7037955522537231, -2.2828216552734375, 0.79931640625, -0.643798828125, -0.522216796875
87, 912380064, -4.918601036071777, 1.7797340154647827, 8.376255989074707, -2.542329788208008, -1.7396148443222046, -2.2736783027648926, 0.79931640625, -0.645751953125, -0.522216796875
88, 912396731, -4.9279913902282715, 1.706289529800415, 8.394330024719238, -2.430504560470581, -1.6544395685195923, -2.3506696224212646, 0.798828125, -0.646728515625, -0.523193359375
89, 912413398, -4.899743556976318, 1.7553648948669434, 8.383515357971191, -2.431605815887451, -1.5895113945007324, -2.276315927505493, 0.79833984375, -0.645263671875, -0.524169921875
90, 912430065, -4.905508518218994, 1.741175651550293, 8.394966125488281, -2.4298255443573, -1.6470630168914795, -2.360299587249756, 0.79833984375, -0.644775390625, -0.523193359375
91, 912446732, -4.919991970062256, 1.749427080154419, 8.38254165649414, -2.5168192386627197, -1.6667592525482178, -2.3021719455718994, 0.7978515625, -0.647705078125, -0.522216796875
92, 912463399, -4.902392864227295, 1.7465440034866333, 8.373384475708008, -2.488132953643799, -1.6348971128463745, -2.3294878005981445, 0.79736328125, -0.646240234375, -0.524169921875
93, 912480066, -4.901183605194092, 1.7370980978012085, 8.388137817382812, -2.5097243785858154, -1.607132911682129, -2.350234270095825, 0.79833984375, -0.644775390625, -0.522216796875
94, 912496733, -4.915555000305176, 1.7316269874572754, 8.371078491210938, -2.5221340656280518, -1.631324291229248, -2.4194529056549072, 0.79638671875, -0.646240234375, -0.521240234375
95, 912513400, -4.909607410430908, 1.7387419939041138, 8.373120307922363, -2.506113290786743, -1.5521937608718872, -2.376922607421875, 0.796875, -0.644775390625, -0.523193359375
96, 912530067, -4.910914897918701, 1.727813482284546, 8.376018524169922, -2.4757232666015625, -1.564974308013916, -2.3449323177337646, 0.80029296875, -0.644775390625, -0.522705078125
97, 912546734, -4.914456844329834, 1.7463490962982178, 8.371362686157227, -2.5283191204071045, -1.5981173515319824, -2.3091771602630615, 0.79833984375, -0.644775390625, -0.524658203125
98, 912563401, -4.907257556915283, 1.7345043420791626, 8.406163215637207, -2.5620384216308594, -1.6794761419296265, -2.4152393341064453, 0.7978515625, -0.647216796875, -0.523681640625
99, 912580068, -4.9093708992004395, 1.732694149017334, 8.398795127868652, -2.4973151683807373, -1.5093950033187866, -2.403303623199463, 0.8017578125, -0.643798828125, -0.523193359375
100, 912596735, -4.911756992340088, 1.7460322380065918, 8.373823165893555, -2.5874972343444824, -1.4961786270141602, -2.44909930229187, 0.796875, -0.646240234375, -0.522705078125
101, 912613402, -4.925830364227295, 1.718436598777771, 8.40388298034668, -2.5391790866851807, -1.5067311525344849, -2.323059320449829, 0.7978515625, -0.645263671875, -0.521728515625
102, 912630069, -4.894745826721191, 1.7451554536819458, 8.40934944152832, -2.618668794631958, -1.4571324586868286, -2.391880750656128, 0.798828125, -0.646240234375, -0.523193359375
103, 912646736, -4.898705005645752, 1.7492579221725464, 8.369895935058594, -2.599689483642578, -1.4712064266204834, -2.4778239727020264, 0.80126953125, -0.645751953125, -0.524169921875
104, 912663403, -4.903815269470215, 1.7465375661849976, 8.37539291381836, -2.584590435028076, -1.44779634475708, -2.4334497451782227, 0.80029296875, -0.642822265625, -0.523681640625
105, 912680070, -4.903444290161133, 1.7377580404281616, 8.372008323669434, -2.513925075531006, -1.5021976232528687, -2.4347689151763916, 0.7998046875, -0.646240234375, -0.525146484375
106, 912696737, -4.922047138214111, 1.7165374755859375, 8.382146835327148, -2.551767587661743, -1.5821093320846558, -2.42608642578125, 0.79833984375, -0.644287109375, -0.521240234375
107, 912713404, -4.9186787605285645, 1.7388638257980347, 8.3792085647583, -2.5422401428222656, -1.6270854473114014, -2.3727736473083496, 0.7978515625, -0.644287109375, -0.523681640625
108, 912730071, -4.908705234527588, 1.7358736991882324, 8.376347541809082, -2.4543497562408447, -1.7001839876174927, -2.2851779460906982, 0.79833984375, -0.643310546875, -0.525390625
109, 912746738, -4.9234185218811035, 1.7312819957733154, 8.357422828674316, -2.624021291732788, -1.6667596101760864, -2.422539234161377, 0.79833984375, -0.647705078125, -0.523193359375
110, 912763405, -4.905634880065918, 1.7663978338241577, 8.416752815246582, -2.641732692718506, -1.7350045442581177, -2.388448715209961, 0.8017578125, -0.646240234375, -0.525146484375
111, 912780072, -4.917750358581543, 1.7394636869430542, 8.3951997756958, -2.7018585205078125, -1.630082130432129, -2.4608047008514404, 0.7978515625, -0.645263671875, -0.524658203125
112, 912796739, -4.916703701019287, 1.745571255683899, 8.369062423706055, -2.651273488998413, -1.6834590435028076, -2.497725248336792, 0.798828125, -0.646240234375, -0.523193359375
113, 912813406, -4.913915634155273, 1.7413830757141113, 8.387540817260742, -2.6491599082946777, -1.6050968170166016, -2.382262945175171, 0.798828125, -0.646240234375, -0.523681640625
114, 912830073, -4.912873268127441, 1.7678883075714111, 8.395881652832031, -2.6699063777923584, -1.6073634624481201, -2.342320203781128, 0.80078125, -0.646240234375, -0.524169921875
115, 912846740, -4.9032368659973145, 1.698394536972046, 8.388053894042969, -2.6172597408294678, -1.613561987876892, -2.3150811195373535, 0.79833984375, -0.645751953125, -0.523681640625
116, 912863407, -4.910821914672852, 1.7187416553497314, 8.386809349060059, -2.594733238220215, -1.635204553604126, -2.310880661010742, 0.79736328125, -0.644775390625, -0.523681640625
117, 912880074, -4.895531177520752, 1.7473982572555542, 8.403600692749023, -2.539781332015991, -1.706843376159668, -2.3815460205078125, 0.798828125, -0.645751953125, -0.522216796875
118, 912896741, -4.912844657897949, 1.719197154045105, 8.375309944152832, -2.6551408767700195, -1.7884838581085205, -2.281233787536621, 0.80029296875, -0.646728515625, -0.525634765625
119, 912913408, -4.921988487243652, 1.706173300743103, 8.388235092163086, -2.5566344261169434, -1.6999534368515015, -2.341090679168701, 0.79931640625, -0.644775390625, -0.524658203125
120, 912930075, -4.894376754760742, 1.7138354778289795, 8.355360984802246, -2.3558948040008545, -1.9434791803359985, -2.2706046104431152, 0.7998046875, -0.643798828125, -0.524658203125
121, 912946742, -4.918941974639893, 1.7286380529403687, 8.368617057800293, -2.533083200454712, -1.8371989727020264, -2.1763367652893066, 0.7998046875, -0.645263671875, -0.523681640625
122, 912963409, -4.87652063369751, 1.7711836099624634, 8.367289543151855, -2.4413774013519287, -1.7142196893692017, -2.2745745182037354, 0.79638671875, -0.644775390625, -0.521728515625
123, 912980076, -4.896706581115723, 1.7311748266220093, 8.382284164428711, -2.5575311183929443, -1.66413414478302, -2.375680923461914, 0.79931640625, -0.642822265625, -0.523681640625
124, 912996743, -4.892309188842773, 1.7181769609451294, 8.396745681762695, -2.6624913215637207, -1.5706219673156738, -2.378190279006958, 0.80029296875, -0.642333984375, -0.5263671875
125, 913013410, -4.9168877601623535, 1.742343544960022, 8.38991641998291, -2.673185110092163, -1.5715186595916748, -2.434974193572998, 0.79736328125, -0.643798828125, -0.5244140625
126, 913030077, -4.904447078704834, 1.7461259365081787, 8.39766788482666, -2.6691510677337646, -1.6134978532791138, -2.468782901763916, 0.79833984375, -0.643798828125, -0.522216796875
127, 913046744, -4.906046390533447, 1.7291622161865234, 8.390412330627441, -2.682149648666382, -1.6105396747589111, -2.566777229309082, 0.79931640625, -0.644287109375, -0.525634765625
128, 913063411, -4.898275852203369, 1.7399370670318604, 8.38819408416748, -2.7673757076263428, -1.5582256317138672, -2.5506155490875244, 0.79931640625, -0.646728515625, -0.524169921875
129, 913080078, -4.915396213531494, 1.7107101678848267, 8.40517807006836, -2.737537145614624, -1.5299620628356934, -2.528998374938965, 0.7978515625, -0.642333984375, -0.523193359375
130, 913096745, -4.905068874359131, 1.72032630443573, 8.374524116516113, -2.6519007682800293, -1.594237208366394, -2.5401527881622314, 0.798828125, -0.644775390625, -0.523681640625
131, 913113412, -4.913839340209961, 1.7065997123718262, 8.369714736938477, -2.7181479930877686, -1.5393363237380981, -2.4903743267059326, 0.798828125, -0.644775390625, -0.524169921875
132, 913130079, -4.885824680328369, 1.738739252090454, 8.406431198120117, -2.5541117191314697, -1.453572154045105, -2.501746654510498, 0.79833984375, -0.645263671875, -0.525146484375
133, 913146746, -4.912039756774902, 1.7224054336547852, 8.38274097442627, -2.5925943851470947, -1.4819382429122925, -2.489682674407959, 0.79931640625, -0.643798828125, -0.523193359375
134, 913163413, -4.915449142456055, 1.7221893072128296, 8.386889457702637, -2.623880386352539, -1.546648621559143, -2.507035493850708, 0.79736328125, -0.645751953125, -0.522705078125
135, 913180080, -4.923031330108643, 1.7186373472213745, 8.406420707702637, -2.526782751083374, -1.6315805912017822, -2.462507724761963, 0.798828125, -0.646240234375, -0.525146484375
136, 913196747, -4.911540985107422, 1.7217934131622314, 8.384380340576172, -2.530778169631958, -1.7136307954788208, -2.3200883865356445, 0.798828125, -0.643798828125, -0.523681640625
137, 913213414, -4.897755146026611, 1.7332297563552856, 8.374601364135742, -2.5407419204711914, -1.6041876077651978, -2.362887144088745, 0.80078125, -0.645751953125, -0.522216796875
138, 913230081, -4.8953375816345215, 1.7267309427261353, 8.353776931762695, -2.496328830718994, -1.5984629392623901, -2.3332910537719727, 0.79736328125, -0.643798828125, -0.5244140625
139, 913246748, -4.900308609008789, 1.720374345779419, 8.381701469421387, -2.5525619983673096, -1.6720484495162964, -2.389665126800537, 0.79833984375, -0.643310546875, -0.523681640625
140, 913263415, -4.909207820892334, 1.7238519191741943, 8.396502494812012, -2.358442783355713, -1.6244341135025024, -2.2632532119750977, 0.7998046875, -0.644287109375, -0.52587890625
141, 913280082, -4.906513214111328, 1.72344172000885, 8.381253242492676, -2.525143623352051, -1.7291520833969116, -2.3066160678863525, 0.80029296875, -0.643798828125, -0.522216796875
142, 913296749, -4.906062126159668, 1.733188271522522, 8.38730525970459, -2.4752368927001953, -1.720597267150879, -2.282052993774414, 0.79736328125, -0.643310546875, -0.523681640625
143, 913313416, -4.911055088043213, 1.7288163900375366, 8.378113746643066, -2.4199392795562744, -1.7055113315582275, -2.2760727405548096, 0.796875, -0.644287109375, -0.525390625
144, 913330083, -4.91068696975708, 1.708120584487915, 8.403358459472656, -2.4596900939941406, -1.6671435832977295, -2.3433573246002197, 0.798828125, -0.644775390625, -0.523681640625
145, 913346750, -4.923101902008057, 1.7436487674713135, 8.374946594238281, -2.5465173721313477, -1.5088571310043335, -2.369994640350342, 0.79736328125, -0.644287109375, -0.524169921875
146, 913363417, -4.922393321990967, 1.723449468612671, 8.401339530944824, -2.548323154449463, -1.6942036151885986, -2.4190175533294678, 0.79931640625, -0.643310546875, -0.522705078125
147, 913380084, -4.8916192054748535, 1.7193853855133057, 8.386034965515137, -2.5580687522888184, -1.6375865936279297, -2.4434776306152344, 0.796875, -0.642333984375, -0.522705078125
148, 913396751, -4.91400146484375, 1.709396243095398, 8.385091781616211, -2.5394225120544434, -1.6783748865127563, -2.387910842895508, 0.80029296875, -0.645751953125, -0.523681640625
149, 913413418, -4.90855073928833, 1.7355841398239136, 8.387758255004883, -2.567135810852051, -1.6413261890411377, -2.293105363845825, 0.79931640625, -0.646728515625, -0.522216796875
150, 913430085, -4.911226272583008, 1.7283246517181396, 8.394886016845703, -2.5232229232788086, -1.6231410503387451, -2.359877586364746, 0.79931640625, -0.645263671875, -0.522216796875
151, 913446752, -4.9157023429870605, 1.7147345542907715, 8.38919734954834, -2.4829721450805664, -1.598399043083191, -2.301544427871704, 0.79931640625, -0.644287109375, -0.525146484375
152, 913463419, -4.914604187011719, 1.719132900238037, 8.402861595153809, -2.4463329315185547, -1.6871213912963867, -2.3162333965301514, 0.79736328125, -0.645263671875, -0.524658203125
153, 913480086, -4.893269062042236, 1.7142345905303955, 8.387434959411621, -2.476889133453369, -1.7675964832305908, -2.1494436264038086, 0.79931640625, -0.642333984375, -0.523681640625
154, 913496753, -4.882069110870361, 1.7212014198303223, 8.37575912475586, -2.357226610183716, -1.7821701765060425, -2.2576956748962402, 0.79833984375, -0.644287109375, -0.52587890625
155, 913513420, -4.904552459716797, 1.727232575416565, 8.384344100952148, -2.3729910850524902, -1.7816449403762817, -2.3333683013916016, 0.79931640625, -0.644287109375, -0.522705078125
156, 913530087, -4.9141764640808105, 1.7275892496109009, 8.370970726013184, -2.4761593341827393, -1.651084542274475, -2.388307809829712, 0.798828125, -0.643310546875, -0.5263671875
157, 913546754, -4.904201030731201, 1.7177791595458984, 8.386344909667969, -2.605656862258911, -1.6640828847885132, -2.3423328399658203, 0.79833984375, -0.642822265625, -0.52734375
158, 913563421, -4.912106037139893, 1.719369888305664, 8.386201858520508, -2.531956672668457, -1.7146552801132202, -2.337568759918213, 0.79736328125, -0.643798828125, -0.524169921875
159, 913580088, -4.903785705566406, 1.7276780605316162, 8.39675521850586, -2.508354425430298, -1.763562560081482, -2.325479745864868, 0.79736328125, -0.643310546875, -0.525390625
160, 913596755, -4.903348922729492, 1.7179661989212036, 8.377545356750488, -2.61198353767395, -1.7680193185806274, -2.4131264686584473, 0.79736328125, -0.642822265625, -0.523681640625
161, 913613422, -4.912623405456543, 1.711181402206421, 8.395691871643066, -2.5516269207000732, -1.7659958600997925, -2.362656354904175, 0.79833984375, -0.642333984375, -0.52490234375
162, 913630089, -4.902982711791992, 1.7153757810592651, 8.380789756774902, -2.5643696784973145, -1.7181898355484009, -2.292055130004883, 0.79638671875, -0.642333984375, -0.5263671875
163, 913646756, -4.8907575607299805, 1.7675741910934448, 8.386075973510742, -2.6643869876861572, -1.7100319862365723, -2.3045926094055176, 0.7998046875, -0.641845703125, -0.524169921875
164, 913663423, -4.917419910430908, 1.6853009462356567, 8.382984161376953, -2.587677240371704, -1.7076117992401123, -2.3288865089416504, 0.7998046875, -0.643310546875, -0.525146484375
165, 913680090, -4.909069538116455, 1.7005925178527832, 8.380998611450195, -2.527038812637329, -1.686160922050476, -2.275880813598633, 0.7978515625, -0.642333984375, -0.52490234375
166, 913696757, -4.9032745361328125, 1.7246086597442627, 8.399185180664062, -2.465324878692627, -1.682485580444336, -2.375872850418091, 0.7998046875, -0.642822265625, -0.523681640625
167, 913713424, -4.890430450439453, 1.7072346210479736, 8.378612518310547, -2.7097856998443604, -1.636920690536499, -2.445667266845703, 0.80029296875, -0.640869140625, -0.523681640625
168, 913730091, -4.898131370544434, 1.7284098863601685, 8.388826370239258, -2.5789177417755127, -1.6908354759216309, -2.366152763366699, 0.798828125, -0.641845703125, -0.524169921875
169, 913746758, -4.905322551727295, 1.7384074926376343, 8.388263702392578, -2.7260756492614746, -1.6318750381469727, -2.461611270904541, 0.80029296875, -0.643798828125, -0.523193359375
170, 913763425, -4.903298377990723, 1.7205095291137695, 8.394113540649414, -2.543456792831421, -1.6985704898834229, -2.4887607097625732, 0.80029296875, -0.644287109375, -0.524658203125
171, 913780092, -4.885494232177734, 1.7211886644363403, 8.399514198303223, -2.483164072036743, -1.5692901611328125, -2.397169589996338, 0.798828125, -0.643798828125, -0.524169921875
172, 913796759, -4.921384334564209, 1.719357967376709, 8.389664649963379, -2.6035568714141846, -1.5832493305206299, -2.4273927211761475, 0.798828125, -0.643310546875, -0.522705078125
173, 913813426, -4.918272495269775, 1.6990656852722168, 8.383047103881836, -2.570209264755249, -1.543997883796692, -2.4341161251068115, 0.79736328125, -0.645263671875, -0.52490234375
174, 913830093, -4.918159484863281, 1.6991548538208008, 8.387369155883789, -2.5834126472473145, -1.6790409088134766, -2.3680994510650635, 0.79833984375, -0.643798828125, -0.525390625
175, 913846760, -4.899759292602539, 1.715531587600708, 8.398117065429688, -2.491116762161255, -1.6187738180160522, -2.324404001235962, 0.7978515625, -0.643798828125, -0.52490234375
176, 913863427, -4.892125129699707, 1.7209932804107666, 8.399831771850586, -2.594964027404785, -1.604597568511963, -2.4327971935272217, 0.79931640625, -0.644287109375, -0.523193359375
177, 913880094, -4.90108060836792, 1.7265170812606812, 8.391300201416016, -2.549936294555664, -1.4782499074935913, -2.3992443084716797, 0.796875, -0.641845703125, -0.5234375
178, 913896761, -4.9075398445129395, 1.730031132698059, 8.39454174041748, -2.6269030570983887, -1.4953080415725708, -2.5475549697875977, 0.80029296875, -0.643798828125, -0.524169921875
179, 913913428, -4.8941569328308105, 1.6988409757614136, 8.409334182739258, -2.655268907546997, -1.4309945106506348, -2.5996382236480713, 0.7978515625, -0.642822265625, -0.52490234375
180, 913930095, -4.902581214904785, 1.7126582860946655, 8.402425765991211, -2.6129181385040283, -1.4635995626449585, -2.516038417816162, 0.79931640625, -0.642822265625, -0.52734375
181, 913946762, -4.90329122543335, 1.7225100994110107, 8.375835418701172, -2.6383132934570312, -1.35816490650177, -2.567814588546753, 0.798828125, -0.643798828125, -0.525146484375
182, 913963429, -4.909069061279297, 1.7265583276748657, 8.388623237609863, -2.601200580596924, -1.45243239402771, -2.555866003036499, 0.79736328125, -0.644287109375, -0.52587890625
183, 913980096, -4.904263496398926, 1.7004982233047485, 8.386467933654785, -2.605003833770752, -1.3761576414108276, -2.5581326484680176, 0.80029296875, -0.643310546875, -0.524658203125
184, 913996763, -4.905255317687988, 1.7101390361785889, 8.40805721282959, -2.502514600753784, -1.322473406791687, -2.466925859451294, 0.80029296875, -0.642822265625, -0.525634765625
185, 914013430, -4.915241241455078, 1.6841033697128296, 8.381267547607422, -2.2177395820617676, -1.2812366485595703, -2.405019521713257, 0.80078125, -0.643798828125, -0.525146484375
186, 914030097, -4.909080982208252, 1.7202622890472412, 8.355765342712402, -2.2224652767181396, -1.2618224620819092, -2.390087366104126, 0.7978515625, -0.643310546875, -0.52685546875
187, 914046764, -4.9179205894470215, 1.7072887420654297, 8.393156051635742, -2.198094606399536, -1.3580877780914307, -2.405083656311035, 0.7978515625, -0.642822265625, -0.5244140625
188, 914063431, -4.933065414428711, 1.7269768714904785, 8.398785591125488, -2.3482749462127686, -1.4719876050949097, -2.3802268505096436, 0.79931640625, -0.641845703125, -0.524169921875
189, 914080098, -4.911023139953613, 1.7066105604171753, 8.38509464263916, -2.54880952835083, -1.5181031227111816, -2.3793556690216064, 0.79736328125, -0.643310546875, -0.5244140625
190, 914096765, -4.9097580909729, 1.7175074815750122, 8.398186683654785, -2.6697914600372314, -1.6781314611434937, -2.489938974380493, 0.796875, -0.643310546875, -0.52392578125
191, 914113432, -4.905689239501953, 1.705737829208374, 8.387652397155762, -2.65456485748291, -1.69693124294281, -2.471843719482422, 0.80078125, -0.643310546875, -0.524658203125
192, 914130099, -4.915168762207031, 1.702905535697937, 8.38068962097168, -2.6476876735687256, -1.6647871732711792, -2.441927909851074, 0.79931640625, -0.642822265625, -0.524658203125
193, 914146766, -4.897329807281494, 1.7107807397842407, 8.406067848205566, -2.5420093536376953, -1.629339337348938, -2.415060043334961, 0.79931640625, -0.642333984375, -0.525390625
194, 914163433, -4.899395942687988, 1.7098394632339478, 8.396300315856934, -2.463557720184326, -1.5139155387878418, -2.438610792160034, 0.79931640625, -0.642822265625, -0.522705078125
195, 914180100, -4.914434909820557, 1.7054071426391602, 8.394354820251465, -2.4961884021759033, -1.5131088495254517, -2.444118022918701, 0.7978515625, -0.641845703125, -0.5244140625
196, 914196767, -4.926444053649902, 1.7012192010879517, 8.401117324829102, -2.5146164894104004, -1.6140739917755127, -2.3031837940216064, 0.79931640625, -0.641845703125, -0.52587890625
197, 914213434, -4.902722358703613, 1.712380290031433, 8.39227294921875, -2.496880054473877, -1.7178183794021606, -2.372952938079834, 0.7998046875, -0.641357421875, -0.524169921875
198, 914230101, -4.894150733947754, 1.7320195436477661, 8.399349212646484, -2.5542526245117188, -1.6504058837890625, -2.381814956665039, 0.79931640625, -0.641845703125, -0.524658203125
199, 914246768, -4.922990322113037, 1.703012228012085, 8.405888557434082, -2.614928960800171, -1.7352991104125977, -2.340015172958374, 0.79833984375, -0.642333984375, -0.523681640625
200, 914263435, -4.921502590179443, 1.7082858085632324, 8.384602546691895, -2.6293747425079346, -1.763959527015686, -2.440340280532837, 0.79931640625, -0.643798828125, -0.525146484375
201, 914280102, -4.913275241851807, 1.7200703620910645, 8.399640083312988, -2.5923385620117188, -1.7088924646377563, -2.394416332244873, 0.798828125, -0.642333984375, -0.525390625
202, 914296769, -4.925707817077637, 1.697620153427124, 8.390286445617676, -2.5217244625091553, -1.6868524551391602, -2.331242561340332, 0.79931640625, -0.641357421875, -0.525390625
203, 914313436, -4.890748023986816, 1.7010657787322998, 8.403630256652832, -2.539857864379883, -1.6018568277359009, -2.3943521976470947, 0.7978515625, -0.643310546875, -0.52587890625
204, 914330103, -4.9053955078125, 1.718389868736267, 8.397007942199707, -2.5239014625549316, -1.5908561944961548, -2.415252447128296, 0.79931640625, -0.642333984375, -0.52490234375
205, 914346770, -4.904675006866455, 1.714137315750122, 8.39279556274414, -2.6119325160980225, -1.5928285121917725, -2.4436566829681396, 0.79833984375, -0.643310546875, -0.5263671875
206, 914363437, -4.903015613555908, 1.681418538093567, 8.38691234588623, -2.5193166732788086, -1.7060236930847168, -2.356023073196411, 0.80029296875, -0.641845703125, -0.523681640625
207, 914380104, -4.903505325317383, 1.7138779163360596, 8.374692916870117, -2.486365795135498, -1.5940577983856201, -2.3779728412628174, 0.798828125, -0.643310546875, -0.524658203125
208, 914396771, -4.899469375610352, 1.7053117752075195, 8.400184631347656, -2.410565137863159, -1.5468919277191162, -2.3982324600219727, 0.798828125, -0.639892578125, -0.525390625
209, 914413438, -4.907825946807861, 1.716606616973877, 8.392922401428223, -2.381981372833252, -1.5426658391952515, -2.4094510078430176, 0.80029296875, -0.642822265625, -0.525146484375
210, 914430105, -4.911988258361816, 1.7333064079284668, 8.392261505126953, -2.443887233734131, -1.5155675411224365, -2.333432674407959, 0.796875, -0.641357421875, -0.52294921875
211, 914446772, -4.906548500061035, 1.701860785484314, 8.37907600402832, -2.5057930946350098, -1.5731192827224731, -2.318358898162842, 0.79931640625, -0.641357421875, -0.525390625
212, 914463439, -4.904628753662109, 1.710593819618225, 8.387067794799805, -2.555072069168091, -1.5606459379196167, -2.357149839401245, 0.798828125, -0.644287109375, -0.523193359375
213, 914480106, -4.905867099761963, 1.7260116338729858, 8.370155334472656, -2.631833553314209, -1.647229790687561, -2.4513025283813477, 0.80029296875, -0.642333984375, -0.525146484375
214, 914496773, -4.916784763336182, 1.6939969062805176, 8.382783889770508, -2.621063232421875, -1.587488055229187, -2.355036973953247, 0.79931640625, -0.641357421875, -0.52587890625
215, 914513440, -4.918428421020508, 1.6984628438949585, 8.391775131225586, -2.7037410736083984, -1.5235588550567627, -2.3353917598724365, 0.80029296875, -0.641357421875, -0.525390625
216, 914530107, -4.917743682861328, 1.7087479829788208, 8.395241737365723, -2.589303731918335, -1.6972768306732178, -2.310457944869995, 0.798828125, -0.641357421875, -0.523193359375
217, 914546774, -4.9250359535217285, 1.723021149635315, 8.409530639648438, -2.6243417263031006, -1.5637835264205933, -2.4343080520629883, 0.79736328125, -0.639404296875, -0.52490234375
218, 914563441, -4.911056995391846, 1.7086725234985352, 8.385430335998535, -2.472637176513672, -1.6731750965118408, -2.3272080421447754, 0.80126953125, -0.642333984375, -0.524169921875
219, 914580108, -4.902235507965088, 1.7051374912261963, 8.416704177856445, -2.558709144592285, -1.6347179412841797, -2.365192413330078, 0.8017578125, -0.640869140625, -0.524658203125
220, 914596775, -4.90953254699707, 1.7077473402023315, 8.397575378417969, -2.5161917209625244, -1.5964139699935913, -2.3364033699035645, 0.79736328125, -0.642822265625, -0.525390625
221, 914613442, -4.926690578460693, 1.7013691663742065, 8.398789405822754, -2.583374261856079, -1.6618674993515015, -2.3137619495391846, 0.80029296875, -0.640380859375, -0.52587890625
222, 914630109, -4.887299060821533, 1.71652090549469, 8.388673782348633, -2.4679501056671143, -1.635652780532837, -2.3554720878601074, 0.79931640625, -0.640869140625, -0.524169921875
223, 914646776, -4.908503532409668, 1.7103374004364014, 8.392330169677734, -2.524810314178467, -1.5673820972442627, -2.479949712753296, 0.7998046875, -0.641357421875, -0.52490234375
224, 914663443, -4.895782470703125, 1.6974122524261475, 8.384702682495117, -2.555840492248535, -1.5486208200454712, -2.418748617172241, 0.79833984375, -0.642333984375, -0.52490234375
225, 914680110, -4.898209571838379, 1.714107632637024, 8.370560646057129, -2.5184326171875, -1.519460678100586, -2.392764091491699, 0.79931640625, -0.640380859375, -0.52392578125
226, 914696777, -4.9160027503967285, 1.7071430683135986, 8.389037132263184, -2.5670204162597656, -1.4851782321929932, -2.527230739593506, 0.7998046875, -0.641357421875, -0.52587890625
227, 914713444, -4.910419464111328, 1.6959024667739868, 8.398444175720215, -2.620551109313965, -1.4979333877563477, -2.317962408065796, 0.798828125, -0.644287109375, -0.523681640625
228, 914730111, -4.907576084136963, 1.7008944749832153, 8.378183364868164, -2.6294643878936768, -1.566460132598877, -2.4390463829040527, 0.80029296875, -0.641845703125, -0.525390625
229, 914746778, -4.887517929077148, 1.6875509023666382, 8.400455474853516, -2.5440714359283447, -1.5823657512664795, -2.461521863937378, 0.80029296875, -0.641357421875, -0.523681640625
230, 914763445, -4.916167259216309, 1.6818690299987793, 8.395848274230957, -2.4996330738067627, -1.5075891017913818, -2.4096813201904297, 0.79736328125, -0.641845703125, -0.5244140625
231, 914780112, -4.9185380935668945, 1.7315356731414795, 8.3894681930542, -2.5771243572235107, -1.4305589199066162, -2.336953639984131, 0.7998046875, -0.641357421875, -0.522705078125
232, 914796779, -4.92392635345459, 1.7192999124526978, 8.384593963623047, -2.595181465148926, -1.6733931303024292, -2.4870445728302, 0.80126953125, -0.640380859375, -0.5263671875
233, 914813446, -4.898962020874023, 1.6903672218322754, 8.398082733154297, -2.618130683898926, -1.6557332277297974, -2.474071741104126, 0.798828125, -0.642333984375, -0.52685546875
234, 914830113, -4.896918773651123, 1.7003313302993774, 8.37935733795166, -2.648853063583374, -1.7511405944824219, -2.442030429840088, 0.79833984375, -0.642822265625, -0.5244140625
235, 914846780, -4.887537956237793, 1.6991796493530273, 8.39834213256836, -2.6209094524383545, -1.6047383546829224, -2.5167808532714844, 0.79833984375, -0.643310546875, -0.52490234375
236, 914863447, -4.918874740600586, 1.6935688257217407, 8.377813339233398, -2.5763306617736816, -1.576064944267273, -2.3781652450561523, 0.80078125, -0.641845703125, -0.525634765625
237, 914880114, -4.9161057472229, 1.6961802244186401, 8.392743110656738, -2.560617208480835, -1.6711777448654175, -2.3116488456726074, 0.79931640625, -0.640869140625, -0.5244140625
238, 914896781, -4.912763595581055, 1.699293613433838, 8.392058372497559, -2.5454413890838623, -1.640493392944336, -2.316143751144409, 0.79931640625, -0.640869140625, -0.52685546875
239, 914913448, -4.897984027862549, 1.6955742835998535, 8.393085479736328, -2.4562454223632812, -1.5529749393463135, -2.359057664871216, 0.7998046875, -0.642822265625, -0.52685546875
240, 914930115, -4.912448883056641, 1.7000954151153564, 8.394594192504883, -2.475454807281494, -1.5848884582519531, -2.4237685203552246, 0.80029296875, -0.642822265625, -0.524658203125
241, 914946782, -4.907237529754639, 1.70094633102417, 8.3878173828125, -2.539191961288452, -1.5652562379837036, -2.3283610343933105, 0.7978515625, -0.640869140625, -0.52490234375
242, 914963449, -4.924422264099121, 1.6807632446289062, 8.381067276000977, -2.4522500038146973, -1.612165927886963, -2.426816463470459, 0.79931640625, -0.640869140625, -0.522216796875
243, 914980116, -4.9185099601745605, 1.6945544481277466, 8.395707130432129, -2.4669387340545654, -1.6908224821090698, -2.3282713890075684, 0.798828125, -0.642333984375, -0.52783203125
244, 914996783, -4.905292510986328, 1.7090600728988647, 8.385775566101074, -2.625980854034424, -1.6678097248077393, -2.4087085723876953, 0.7998046875, -0.639892578125, -0.525390625
245, 915013450, -4.903098106384277, 1.7004050016403198, 8.393312454223633, -2.5976402759552, -1.6590627431869507, -2.4194271564483643, 0.79931640625, -0.641845703125, -0.523681640625
246, 915030117, -4.8987812995910645, 1.7017256021499634, 8.390229225158691, -2.6964926719665527, -1.5671006441116333, -2.462085247039795, 0.7998046875, -0.641357421875, -0.524169921875
247, 915046784, -4.902089595794678, 1.6923530101776123, 8.398160934448242, -2.5276663303375244, -1.5951975584030151, -2.489938974380493, 0.79833984375, -0.643310546875, -0.523681640625
248, 915063451, -4.90539026260376, 1.6751763820648193, 8.382050514221191, -2.5619235038757324, -1.5352896451950073, -2.485008478164673, 0.7998046875, -0.640869140625, -0.525390625
249, 915080118, -4.8998122215271, 1.6897993087768555, 8.379714012145996, -2.521583318710327, -1.6066975593566895, -2.3450605869293213, 0.7998046875, -0.640380859375, -0.5244140625
250, 915096785, -4.907150745391846, 1.7063896656036377, 8.380626678466797, -2.549142837524414, -1.6828571557998657, -2.324378490447998, 0.798828125, -0.640380859375, -0.5244140625
251, 915113452, -4.910980701446533, 1.7015721797943115, 8.381770133972168, -2.5797245502471924, -1.666733980178833, -2.4446043968200684, 0.79833984375, -0.639892578125, -0.52490234375
252, 915130119, -4.90771484375, 1.6960499286651611, 8.401595115661621, -2.5653557777404785, -1.6826266050338745, -2.467745780944824, 0.80078125, -0.640380859375, -0.524658203125
253, 915146786, -4.916664123535156, 1.6886152029037476, 8.393868446350098, -2.5594003200531006, -1.610565185546875, -2.4073891639709473, 0.80029296875, -0.642822265625, -0.5263671875
254, 915163453, -4.907278537750244, 1.6854666471481323, 8.377638816833496, -2.512580394744873, -1.6806285381317139, -2.2587459087371826, 0.79931640625, -0.639892578125, -0.52490234375
255, 915180120, -4.92017126083374, 1.6937217712402344, 8.373502731323242, -2.486788749694824, -1.696675181388855, -2.348057270050049, 0.7978515625, -0.642822265625, -0.52734375
256, 915196787, -4.90522575378418, 1.6795083284378052, 8.396653175354004, -2.6377108097076416, -1.7683902978897095, -2.0406789779663086, 0.79736328125, -0.641845703125, -0.52587890625
257, 915213454, -4.913710117340088, 1.6851743459701538, 8.396562576293945, -2.490130662918091, -1.743789553642273, -2.2674922943115234, 0.80029296875, -0.640869140625, -0.524658203125
258, 915230121, -4.891270160675049, 1.7153735160827637, 8.379066467285156, -2.4468836784362793, -1.7892136573791504, -2.2031023502349854, 0.79931640625, -0.641845703125, -0.52490234375
259, 915246788, -4.902590751647949, 1.7124146223068237, 8.39279556274414, -2.509711742401123, -1.7931323051452637, -2.386796474456787, 0.79736328125, -0.640380859375, -0.52587890625
260, 915263455, -4.9098076820373535, 1.6578072309494019, 8.394269943237305, -2.570465087890625, -1.7754340171813965, -2.305962562561035, 0.7998046875, -0.640380859375, -0.52490234375
261, 915280122, -4.913182258605957, 1.7023632526397705, 8.37890338897705, -2.5591444969177246, -1.7116714715957642, -2.418543815612793, 0.7978515625, -0.641845703125, -0.522705078125
262, 915296789, -4.902806282043457, 1.6946748495101929, 8.386489868164062, -2.5701961517333984, -1.7242088317871094, -2.342461109161377, 0.80078125, -0.640869140625, -0.522705078125
263, 915313456, -4.908783435821533, 1.7000088691711426, 8.404735565185547, -2.5419199466705322, -1.5208951234817505, -2.5278584957122803, 0.80029296875, -0.642333984375, -0.524658203125
264, 915330123, -4.91035795211792, 1.6965972185134888, 8.381722450256348, -2.5988569259643555, -1.639366626739502, -2.501669406890869, 0.79931640625, -0.641845703125, -0.52490234375
265, 915346790, -4.896212100982666, 1.696363091468811, 8.38585090637207, -2.6601734161376953, -1.5501703023910522, -2.439302444458008, 0.80029296875, -0.641845703125, -0.52587890625
266, 915363457, -4.888805389404297, 1.674041748046875, 8.40422248840332, -2.728060483932495, -1.4798763990402222, -2.5205719470977783, 0.79931640625, -0.641845703125, -0.52587890625
267, 915380124, -4.909592151641846, 1.7312620878219604, 8.375286102294922, -2.708287239074707, -1.2524100542068481, -2.6285290718078613, 0.80029296875, -0.641845703125, -0.524658203125
268, 915396791, -4.9257025718688965, 1.688709020614624, 8.402647972106934, -2.75551700592041, -1.304314136505127, -2.686068296432495, 0.7978515625, -0.639892578125, -0.52734375
269, 915413458, -4.876773357391357, 1.5698052644729614, 8.2587308883667, -1.7782384157180786, -1.5238146781921387, -2.2587966918945312, 0.798828125, -0.641357421875, -0.52490234375
270, 915430125, -4.872859954833984, 1.7584877014160156, 8.497779846191406, -1.6480876207351685, -1.194115400314331, -1.822702169418335, 0.79931640625, -0.640380859375, -0.525390625
271, 915446792, -4.956176280975342, 1.7014018297195435, 8.377432823181152, -2.4238836765289307, -1.288511037826538, -2.6252379417419434, 0.80029296875, -0.641357421875, -0.5263671875
272, 915463459, -4.915515899658203, 1.7078520059585571, 8.380329132080078, -2.6171953678131104, -1.4065086841583252, -2.499863624572754, 0.8017578125, -0.642822265625, -0.5283203125
273, 915480126, -4.924373149871826, 1.6756376028060913, 8.3939208984375, -2.6465091705322266, -1.5536409616470337, -2.509571075439453, 0.79931640625, -0.641357421875, -0.524169921875
274, 915496793, -4.9198126792907715, 1.674604892730713, 8.36999225616455, -2.495163679122925, -1.615405797958374, -2.4573464393615723, 0.79931640625, -0.638916015625, -0.5244140625
275, 915513460, -4.9109110832214355, 1.6791753768920898, 8.380146026611328, -2.4916422367095947, -1.5794073343276978, -2.437868356704712, 0.79736328125, -0.640869140625, -0.52490234375
276, 915530127, -4.905107498168945, 1.6949360370635986, 8.394046783447266, -2.384773015975952, -1.5828393697738647, -2.3162333965301514, 0.798828125, -0.642333984375, -0.52490234375
277, 915546794, -4.914393424987793, 1.7045140266418457, 8.39278793334961, -2.536003589630127, -1.5619908571243286, -2.406428813934326, 0.79931640625, -0.641357421875, -0.5244140625
278, 915563461, -4.918652057647705, 1.6732747554779053, 8.396628379821777, -2.5346202850341797, -1.6633659601211548, -2.348761796951294, 0.79931640625, -0.641357421875, -0.5263671875
279, 915580128, -4.903632640838623, 1.6871963739395142, 8.402257919311523, -2.573103189468384, -1.7059983015060425, -2.3906383514404297, 0.80078125, -0.640380859375, -0.525390625
280, 915596795, -4.900308132171631, 1.70912504196167, 8.408546447753906, -2.6890134811401367, -1.6476140022277832, -2.3363265991210938, 0.80029296875, -0.640380859375, -0.524658203125
281, 915613462, -4.927870273590088, 1.6829420328140259, 8.404725074768066, -2.621844530105591, -1.541077971458435, -2.3999359607696533, 0.80029296875, -0.640380859375, -0.52587890625
282, 915630129, -4.917703151702881, 1.6851016283035278, 8.39836597442627, -2.5810306072235107, -1.6255230903625488, -2.4893500804901123, 0.80029296875, -0.640380859375, -0.525390625
283, 915646796, -4.904054641723633, 1.6640949249267578, 8.399333953857422, -2.6820342540740967, -1.7812868356704712, -2.348223924636841, 0.7998046875, -0.639892578125, -0.52587890625
284, 915663463, -4.897619247436523, 1.6975069046020508, 8.394257545471191, -2.677744150161743, -1.6087340116500854, -2.4088363647460938, 0.80224609375, -0.640869140625, -0.5283203125
285, 915680130, -4.924693584442139, 1.7126646041870117, 8.377881050109863, -2.7194666862487793, -1.6915138959884644, -2.542316198348999, 0.7998046875, -0.639892578125, -0.525390625
286, 915696797, -4.915018558502197, 1.6666439771652222, 8.427042007446289, -2.7175464630126953, -1.6478701829910278, -2.513950824737549, 0.80126953125, -0.641845703125, -0.52587890625
287, 915713464, -4.921672821044922, 1.6731549501419067, 8.393831253051758, -2.679088830947876, -1.7083289623260498, -2.4305686950683594, 0.79833984375, -0.638916015625, -0.52587890625
288, 915730131, -4.92248010635376, 1.669769048690796, 8.41181755065918, -2.5197391510009766, -1.7711952924728394, -2.3696231842041016, 0.79833984375, -0.639892578125, -0.52734375
289, 915746798, -4.90069055557251, 1.6893588304519653, 8.394580841064453, -2.524195909500122, -1.7792121171951294, -2.3325235843658447, 0.79833984375, -0.638916015625, -0.5263671875
290, 915763465, -4.91273307800293, 1.667818546295166, 8.387864112854004, -2.5456466674804688, -1.7284733057022095, -2.3159520626068115, 0.7998046875, -0.640869140625, -0.52490234375
291, 915780132, -4.929997444152832, 1.7175439596176147, 8.392477035522461, -2.641758441925049, -1.728883147239685, -2.464620590209961, 0.80078125, -0.640869140625, -0.525146484375
292, 915796799, -4.904138088226318, 1.6671359539031982, 8.377562522888184, -2.60396671295166, -1.8566648960113525, -2.3168485164642334, 0.79833984375, -0.638427734375, -0.525390625
293, 915813466, -4.911021709442139, 1.6503909826278687, 8.390217781066895, -2.677321434020996, -1.8764890432357788, -2.23872971534729, 0.7978515625, -0.641357421875, -0.52783203125
294, 915830133, -4.908350467681885, 1.684410810470581, 8.40284538269043, -2.571899652481079, -1.886593222618103, -2.164900779724121, 0.80126953125, -0.639404296875, -0.52685546875
295, 915846800, -4.903995990753174, 1.7005770206451416, 8.405964851379395, -2.4086437225341797, -1.8840829133987427, -2.0672905445098877, 0.80126953125, -0.641357421875, -0.525634765625
296, 915863467, -4.8973493576049805, 1.6858606338500977, 8.39478874206543, -2.2677102088928223, -1.8196415901184082, -2.166501522064209, 0.79931640625, -0.639892578125, -0.52734375
297, 915880134, -4.906611919403076, 1.6711384057998657, 8.397551536560059, -2.1060168743133545, -1.7191498279571533, -2.0574169158935547, 0.8017578125, -0.6376953125, -0.52734375
298, 915896801, -4.909564971923828, 1.6800967454910278, 8.391887664794922, -2.1563971042633057, -1.739614486694336, -1.9742650985717773, 0.7978515625, -0.638916015625, -0.5263671875
299, 915913468, -4.914257049560547, 1.6765788793563843, 8.38780689239502, -2.4512124061584473, -1.7660598754882812, -2.026143789291382, 0.80078125, -0.639404296875, -0.5283203125
300, 915930135, -4.916306495666504, 1.6647993326187134, 8.39828872680664, -2.3214712142944336, -2.041639566421509, -1.9961642026901245, 0.798828125, -0.638916015625, -0.5263671875
301, 915946802, -4.912582874298096, 1.670677900314331, 8.410679817199707, -2.3463025093078613, -2.2450172901153564, -1.9363330602645874, 0.79833984375, -0.640380859375, -0.52587890625
302, 915963469, -4.897191047668457, 1.6852861642837524, 8.391744613647461, -2.4362289905548096, -2.3037471771240234, -1.8430516719818115, 0.79833984375, -0.639892578125, -0.52587890625
303, 915980136, -4.875853538513184, 1.7059295177459717, 8.411307334899902, -2.3315367698669434, -2.2624335289001465, -1.8817137479782104, 0.7978515625, -0.640869140625, -0.525390625
304, 915996803, -4.867415428161621, 1.7426635026931763, 8.395734786987305, -2.4206948280334473, -2.0309720039367676, -2.0339815616607666, 0.79833984375, -0.641357421875, -0.52490234375
305, 916013470, -4.864895343780518, 1.7032607793807983, 8.422646522521973, -2.492833375930786, -1.7319823503494263, -2.338606357574463, 0.79833984375, -0.640869140625, -0.525390625
306, 916030137, -4.8885064125061035, 1.6861695051193237, 8.428326606750488, -2.670713424682617, -1.6503162384033203, -2.5878562927246094, 0.796875, -0.640869140625, -0.52685546875
307, 916046804, -4.887825965881348, 1.692954421043396, 8.41427993774414, -2.694956064224243, -1.420480489730835, -2.6903839111328125, 0.7978515625, -0.638916015625, -0.52783203125
308, 916063471, -4.909829616546631, 1.6543529033660889, 8.418333053588867, -2.282783031463623, -1.4998157024383545, -2.514181137084961, 0.79736328125, -0.642822265625, -0.52685546875
309, 916080138, -4.918659210205078, 1.685807466506958, 8.385431289672852, -2.4841246604919434, -1.5139026641845703, -2.5532021522521973, 0.7978515625, -0.640869140625, -0.525390625
310, 916096805, -4.86136531829834, 1.7111419439315796, 8.421154022216797, -2.398808240890503, -1.4592705965042114, -2.4476006031036377, 0.798828125, -0.641845703125, -0.52734375
311, 916113472, -4.8668107986450195, 1.7726930379867554, 8.424029350280762, -2.526808500289917, -1.085824966430664, -2.8823511600494385, 0.79736328125, -0.641357421875, -0.52783203125
312, 916130139, -4.901897430419922, 1.6881510019302368, 8.40197467803955, -2.9368035793304443, -0.9465686082839966, -3.074228525161743, 0.79833984375, -0.639892578125, -0.52490234375
313, 916146806, -4.934401988983154, 1.697594404220581, 8.38551139831543, -2.952773094177246, -1.144823670387268, -2.9385833740234375, 0.79931640625, -0.641357421875, -0.523681640625
314, 916163473, -4.897329807281494, 1.6804022789001465, 8.395349502563477, -2.9339218139648438, -1.2540873289108276, -2.7957797050476074, 0.79931640625, -0.640869140625, -0.5263671875
315, 916180140, -4.907721519470215, 1.6597126722335815, 8.400016784667969, -2.6478922367095947, -1.2111350297927856, -2.549091339111328, 0.7978515625, -0.638916015625, -0.525390625
316, 916196807, -4.8888349533081055, 1.7151910066604614, 8.418607711791992, -2.6556403636932373, -1.1092990636825562, -2.5702860355377197, 0.80029296875, -0.640380859375, -0.52587890625
317, 916213474, -4.879059314727783, 1.6857960224151611, 8.394036293029785, -2.822110176086426, -0.9244009256362915, -2.7328498363494873, 0.798828125, -0.640380859375, -0.52587890625
318, 916230141, -4.9171600341796875, 1.673189401626587, 8.385334014892578, -3.0220677852630615, -0.7799707055091858, -2.791156530380249, 0.798828125, -0.640380859375, -0.52685546875
319, 916246808, -4.905104637145996, 1.6877974271774292, 8.378634452819824, -2.4844577312469482, -0.8100144267082214, -2.788339376449585, 0.7998046875, -0.638427734375, -0.525390625
320, 916263475, -4.900096893310547, 1.7110198736190796, 8.385284423828125, -2.816718101501465, -0.7400918006896973, -3.0312116146087646, 0.80078125, -0.639404296875, -0.52490234375
321, 916280142, -4.903613090515137, 1.709553837776184, 8.400216102600098, -3.1891655921936035, -0.6887127161026001, -3.43664813041687, 0.79833984375, -0.640380859375, -0.5244140625
322, 916296809, -4.9173264503479, 1.7139630317687988, 8.4216890335083, -3.399035930633545, -0.4827866554260254, -3.8272931575775146, 0.8017578125, -0.638671875, -0.525390625
323, 916313476, -4.796510696411133, 1.679345726966858, 8.363388061523438, -3.0531749725341797, -0.059792857617139816, -4.083522796630859, 0.80078125, -0.6376953125, -0.52392578125
324, 916330143, -4.866687774658203, 1.718464732170105, 8.438640594482422, -3.542991876602173, 1.0033838748931885, -4.944890022277832, 0.80029296875, -0.63623046875, -0.525390625
325, 916346810, -4.802215099334717, 1.7350178956985474, 8.445352554321289, -3.1799705028533936, 2.5104992389678955, -6.005743026733398, 0.80224609375, -0.63623046875, -0.5263671875
326, 916363477, -4.734171390533447, 1.723974347114563, 8.474933624267578, -3.0273709297180176, 4.602750778198242, -7.968523025512695, 0.80517578125, -0.63720703125, -0.525146484375
327, 916380144, -4.57943868637085, 1.7411550283432007, 8.581360816955566, -2.254584789276123, 8.878705024719238, -10.651444435119629, 0.80859375, -0.63330078125, -0.522705078125
328, 916396811, -4.584568500518799, 1.9721068143844604, 8.660451889038086, -1.1616402864456177, 15.491872787475586, -14.245691299438477, 0.81396484375, -0.6328125, -0.52099609375
329, 916413478, -4.5311689376831055, 2.0705370903015137, 9.015664100646973, -2.0736122131347656, 26.464111328125, -19.949079513549805, 0.817626953125, -0.629638671875, -0.51708984375
330, 916430145, -3.9326791763305664, 2.412429094314575, 9.764101028442383, -3.446021318435669, 48.12755584716797, -27.341981887817383, 0.8310546875, -0.626953125, -0.50732421875
331, 916446812, -4.4485626220703125, 2.42806077003479, 10.01868724822998, 0.10123035311698914, 75.28324890136719, -38.54966354370117, 0.848876953125, -0.621337890625, -0.496826171875
332, 916463479, -5.103646278381348, 2.420485019683838, 10.563576698303223, 4.333151817321777, 101.18562316894531, -57.40867614746094, 0.8701171875, -0.61474609375, -0.4794921875
333, 916480146, -5.545164585113525, 2.116122245788574, 9.617084503173828, 18.8270206451416, 130.1994171142578, -79.20105743408203, 0.90380859375, -0.602294921875, -0.453857421875
334, 916496813, -5.710403919219971, 4.403164386749268, 10.09048080444336, 29.901268005371094, 156.31040954589844, -94.93294525146484, 0.941162109375, -0.593017578125, -0.4208984375
335, 916513480, -9.27790641784668, 4.527823448181152, 10.809624671936035, 36.889007568359375, 152.9641571044922, -108.2188949584961, 0.981689453125, -0.57958984375, -0.386962890625
336, 916530147, -7.525106430053711, 5.967495441436768, 8.355060577392578, 0.31952810287475586, 145.87646484375, -125.42306518554688, 1.017333984375, -0.556640625, -0.35302734375
337, 916546814, -5.922633171081543, 1.9935681819915771, 9.56411361694336, -8.952224731445312, 129.799560546875, -130.7196807861328, 1.051513671875, -0.525390625, -0.325439453125
338, 916563481, -5.059836387634277, 1.582304835319519, 11.433481216430664, 22.38736343383789, 100.48145294189453, -112.31661224365234, 1.07763671875, -0.5, -0.298583984375
339, 916580148, -4.250994682312012, 6.621800422668457, 13.41637897491455, 57.51299285888672, 22.035871505737305, -65.77667999267578, 1.09130859375, -0.491455078125, -0.282470703125
340, 916596815, 0.8254650831222534, 7.237759113311768, 10.177867889404297, 29.345197677612305, -18.821409225463867, -34.503814697265625, 1.0927734375, -0.48876953125, -0.28173828125
341, 916613482, 2.0978903770446777, 4.790969371795654, 8.616656303405762, 19.445022583007812, -25.82059097290039, -0.7367007732391357, 1.09228515625, -0.48486328125, -0.287353515625
342, 916630149, 1.9097987413406372, 4.515773773193359, 8.697006225585938, 26.490278244018555, -32.78300094604492, 31.723796844482422, 1.08349609375, -0.498291015625, -0.2900390625
343, 916646816, 1.417043924331665, 3.984888792037964, 9.139824867248535, 22.37483024597168, -41.61503219604492, 55.314693450927734, 1.075439453125, -0.513427734375, -0.300537109375
344, 916663483, 0.5673406720161438, 3.3013792037963867, 9.545637130737305, 15.8881196975708, -53.016151428222656, 74.30421447753906, 1.061279296875, -0.533203125, -0.306640625
345, 916680150, -0.4167383313179016, 2.900756359100342, 9.792256355285645, 9.29992389678955, -63.437042236328125, 89.17170715332031, 1.044189453125, -0.55517578125, -0.320068359375
346, 916696817, -1.6843329668045044, 2.7468934059143066, 9.992345809936523, -0.14404073357582092, -71.724609375, 100.21463012695312, 1.023681640625, -0.579833984375, -0.3359375
347, 916713484, -3.0049972534179688, 2.7802813053131104, 10.001160621643066, -12.94260025024414, -79.21128845214844, 107.80583953857422, 0.9990234375, -0.60107421875, -0.353759765625
348, 916730151, -3.973318099975586, 2.7135632038116455, 9.782245635986328, -27.52086639404297, -83.2644271850586, 111.07499694824219, 0.972412109375, -0.619384765625, -0.369140625
349, 916746818, -4.804236888885498, 2.380699634552002, 9.560795783996582, -36.46829605102539, -83.45742797851562, 111.00499725341797, 0.9453125, -0.63916015625, -0.3916015625
350, 916763485, -5.474961280822754, 2.2812435626983643, 9.42004108428955, -38.731544494628906, -80.1646499633789, 107.16209411621094, 0.917236328125, -0.655517578125, -0.411376953125
351, 916780152, -6.59291934967041, 2.151310920715332, 9.818099975585938, -33.814483642578125, -77.35657501220703, 100.68728637695312, 0.891845703125, -0.666748046875, -0.428466796875
352, 916796819, -7.8779449462890625, 2.201061964035034, 10.140724182128906, -24.534360885620117, -77.65086364746094, 92.55235290527344, 0.865234375, -0.680419921875, -0.44580078125
353, 916813486, -9.034018516540527, 2.33048677444458, 10.160764694213867, -15.85653018951416, -79.83514404296875, 82.11885070800781, 0.839599609375, -0.692626953125, -0.459716796875
354, 916830153, -10.022587776184082, 2.5518007278442383, 9.856760025024414, -8.383407592773438, -83.70587921142578, 70.99829864501953, 0.813232421875, -0.703857421875, -0.476806640625
355, 916846820, -10.656827926635742, 2.7378766536712646, 9.243022918701172, -3.108243465423584, -90.58329010009766, 60.36159896850586, 0.783447265625, -0.713623046875, -0.48828125
356, 916863487, -10.841958999633789, 2.668710947036743, 8.490984916687012, 2.786200523376465, -98.5513916015625, 51.70574951171875, 0.75830078125, -0.723388671875, -0.50244140625
357, 916880154, -10.636373519897461, 2.4981689453125, 7.535374164581299, 11.494731903076172, -104.32005310058594, 44.90889358520508, 0.72802734375, -0.733154296875, -0.514892578125
358, 916896821, -10.106139183044434, 2.0891802310943604, 6.253461837768555, 22.608016967773438, -105.31523895263672, 38.205535888671875, 0.69970703125, -0.741943359375, -0.52294921875
359, 916913488, -9.494232177734375, 1.177437663078308, 5.101655960083008, 34.173973083496094, -100.31890106201172, 28.847332000732422, 0.67578125, -0.75146484375, -0.53369140625
360, 916930155, -9.26348876953125, 0.31962114572525024, 4.5408406257629395, 46.69148635864258, -92.28619384765625, 16.82482147216797, 0.653076171875, -0.76611328125, -0.53466796875
361, 916946822, -8.95523738861084, -0.2813183069229126, 4.142640590667725, 53.907047271728516, -82.90200805664062, 1.0224109888076782, 0.63232421875, -0.77734375, -0.536376953125
362, 916963489, -8.71202278137207, -0.39791563153266907, 3.7278237342834473, 55.2449951171875, -70.194580078125, -16.485044479370117, 0.6201171875, -0.7900390625, -0.531982421875
363, 916980156, -8.970743179321289, 0.06598639488220215, 3.6571154594421387, 52.67469787597656, -56.43750762939453, -31.688297271728516, 0.61279296875, -0.798828125, -0.52880859375
364, 916996823, -9.667474746704102, 0.8979933261871338, 3.803762912750244, 46.86087417602539, -47.844058990478516, -40.591278076171875, 0.60791015625, -0.805908203125, -0.52734375
365, 917013490, -9.538676261901855, 1.6267536878585815, 3.2972323894500732, 37.234130859375, -41.6507568359375, -42.27459716796875, 0.60693359375, -0.81005859375, -0.521240234375
366, 917030157, -8.599919319152832, 1.9397186040878296, 2.1820762157440186, 24.24588966369629, -25.834882736206055, -36.49073791503906, 0.60595703125, -0.8115234375, -0.522216796875
367, 917046824, -9.174161911010742, 2.282846212387085, 2.5814709663391113, 10.03500747680664, -3.3924479484558105, -22.91072654724121, 0.609130859375, -0.81298828125, -0.518798828125
368, 917063491, -10.507473945617676, 2.6822550296783447, 4.018484592437744, -6.897871494293213, 3.2107253074645996, -2.729328155517578, 0.611572265625, -0.8134765625, -0.520263671875
369, 917080158, 0.6860158443450928, 5.100870609283447, 7.5408430099487305, -52.29172134399414, 38.50149917602539, -2.3715410232543945, 0.615966796875, -0.805419921875, -0.522705078125
370, 917096825, 4.6017632484436035, 6.242397785186768, 10.856980323791504, -69.62369537353516, 58.97944259643555, -45.573394775390625, 0.634033203125, -0.789794921875, -0.528076171875
371, 917113492, -3.460355520248413, -0.2985302805900574, 7.498987197875977, -79.99496459960938, 88.06951904296875, -70.1332778930664, 0.66357421875, -0.767578125, -0.53173828125
372, 917130159, -10.675888061523438, 1.6174707412719727, 12.558205604553223, -49.483802795410156, 79.75947570800781, -29.180015563964844, 0.685791015625, -0.74853515625, -0.530517578125
373, 917146826, -9.16028881072998, -0.13707579672336578, 12.231607437133789, -30.47113800048828, 50.449119567871094, -10.182149887084961, 0.70263671875, -0.742431640625, -0.52490234375
374, 917163493, -3.7494876384735107, -1.5644211769104004, 9.257736206054688, -6.256607532501221, 48.27537155151367, -5.946191787719727, 0.710693359375, -0.73681640625, -0.519775390625
375, 917180160, -2.3049864768981934, 1.3821239471435547, 7.743980407714844, 10.169716835021973, 65.92349243164062, -9.809972763061523, 0.72607421875, -0.73974609375, -0.51171875
376, 917196827, -4.195070266723633, 4.315041542053223, 7.091095924377441, 2.263400077819824, 77.93994140625, -16.60215187072754, 0.744140625, -0.739501953125, -0.499267578125
377, 917213494, -4.707301139831543, 3.7262465953826904, 7.16952657699585, -15.100359916687012, 87.56880950927734, -21.658695220947266, 0.762939453125, -0.7353515625, -0.486083984375
378, 917230161, -15.578902244567871, 4.413302898406982, 13.575343132019043, -60.54328155517578, 36.992000579833984, -33.68577194213867, 0.779541015625, -0.7197265625, -0.48681640625
379, 917246828, -4.640568733215332, 2.3194899559020996, 9.582208633422852, -40.66292953491211, 13.874247550964355, -20.78766441345215, 0.786865234375, -0.708740234375, -0.491943359375
380, 917263495, -5.261439323425293, 1.5678328275680542, 9.048394203186035, -29.140535354614258, 11.395694732666016, -15.167340278625488, 0.790283203125, -0.70166015625, -0.492919921875
381, 917280162, -5.069362163543701, 1.7141709327697754, 8.78460693359375, -15.760876655578613, 10.983248710632324, -7.858513355255127, 0.795654296875, -0.697021484375, -0.493408203125
382, 917296829, -5.396251678466797, 1.6379605531692505, 8.635112762451172, -8.038128852844238, 9.243968963623047, -3.4178762435913086, 0.798095703125, -0.694091796875, -0.491943359375
383, 917313496, -5.185981273651123, 2.0670628547668457, 8.479473114013672, -0.5157502293586731, 7.581571578979492, 0.8452128767967224, 0.796630859375, -0.695556640625, -0.491943359375
384, 917330163, -5.158782482147217, 2.273674488067627, 8.378247261047363, 1.7210010290145874, 6.59011697769165, 1.5434536933898926, 0.799560546875, -0.694091796875, -0.49072265625
385, 917346830, -5.047110080718994, 2.252387285232544, 8.353864669799805, 3.517526865005493, 6.116639614105225, 1.0670058727264404, 0.80078125, -0.697021484375, -0.48876953125
386, 917363497, -4.918193817138672, 2.4004547595977783, 8.18472957611084, 2.778985023498535, 6.436709880828857, 1.1604795455932617, 0.8017578125, -0.699462890625, -0.486083984375
387, 917380164, -4.949329853057861, 2.3606505393981934, 8.187861442565918, 1.4930349588394165, 6.077631950378418, 0.8325344324111938, 0.80322265625, -0.701416015625, -0.485107421875
388, 917396831, -4.986200332641602, 2.426051139831543, 8.139352798461914, 1.3962574005126953, 5.191201686859131, -0.08046230673789978, 0.8056640625, -0.701904296875, -0.483154296875
389, 917413498, -5.049249649047852, 2.4849305152893066, 8.125595092773438, -0.8354991674423218, 4.567762851715088, -0.7335990071296692, 0.80712890625, -0.699462890625, -0.48095703125
390, 917430165, -5.04585075378418, 2.513124704360962, 8.113871574401855, -0.9779826998710632, 3.3489315509796143, -1.8660775423049927, 0.807861328125, -0.702880859375, -0.47802734375
391, 917446832, -4.917795658111572, 2.5386312007904053, 8.092996597290039, -2.6011109352111816, 2.392207145690918, -3.269486904144287, 0.805908203125, -0.703857421875, -0.478515625
392, 917463499, -4.93130350112915, 2.5435619354248047, 8.217411994934082, -3.973092794418335, 1.950260043144226, -4.337574481964111, 0.808349609375, -0.703369140625, -0.47900390625
393, 917480166, -4.983819961547852, 2.5094738006591797, 8.0621337890625, -3.730374813079834, 2.2686259746551514, -4.530707836151123, 0.809814453125, -0.701904296875, -0.4794921875
394, 917496833, -5.160868167877197, 2.4344611167907715, 8.143157005310059, -3.1370179653167725, 2.3278167247772217, -4.707973003387451, 0.809814453125, -0.701416015625, -0.476806640625
395, 917513500, -5.100204944610596, 2.309131383895874, 8.174318313598633, -2.4724833965301514, 1.8143330812454224, -4.607020378112793, 0.812255859375, -0.699951171875, -0.475341796875
396, 917530167, -5.03903865814209, 2.449631452560425, 8.14587688446045, -2.0916998386383057, 1.704288363456726, -4.391361713409424, 0.811279296875, -0.700439453125, -0.476806640625
397, 917546834, -5.0026960372924805, 2.5804643630981445, 8.107192993164062, -2.7288026809692383, 1.7704075574874878, -4.597338676452637, 0.812744140625, -0.698974609375, -0.476806640625
398, 917563501, -5.108991622924805, 2.465614080429077, 8.107010841369629, -3.8005154132843018, 1.293921947479248, -5.578050136566162, 0.815185546875, -0.699462890625, -0.474365234375
399, 917580168, -5.0959086418151855, 2.4052000045776367, 8.104418754577637, -4.045552730560303, 0.5657269954681396, -6.275356292724609, 0.813232421875, -0.696533203125, -0.476318359375
400, 917596835, -4.89103364944458, 2.4083802700042725, 8.142611503601074, -3.56801700592041, 1.693762183189392, -7.206302165985107, 0.816650390625, -0.69580078125, -0.477294921875
401, 917613502, -5.044435024261475, 2.423048973083496, 8.139352798461914, -2.913099527359009, 3.8536691665649414, -8.635990142822266, 0.821533203125, -0.6953125, -0.476806640625
402, 917630169, -4.936239242553711, 2.5112504959106445, 8.067414283752441, -1.8276207447052002, 6.095370769500732, -10.35849666595459, 0.822021484375, -0.6953125, -0.47314453125
403, 917646836, -4.968579292297363, 2.501286506652832, 8.111050605773926, -1.5786782503128052, 8.048803329467773, -12.088716506958008, 0.822998046875, -0.6923828125, -0.47021484375
404, 917663503, -4.922652244567871, 2.410585641860962, 8.18502426147461, -2.0633482933044434, 10.179240226745605, -13.822574615478516, 0.8271484375, -0.69189453125, -0.46826171875
405, 917680170, -4.903461933135986, 2.5651371479034424, 8.191251754760742, -4.301251411437988, 16.10764503479004, -16.899444580078125, 0.83349609375, -0.688232421875, -0.467529296875
406, 917696837, -5.026483058929443, 2.2094507217407227, 8.24354362487793, 1.4371918439865112, 26.129417419433594, -21.25296401977539, 0.83935546875, -0.684814453125, -0.46337890625
407, 917713504, -4.302646160125732, 2.8976638317108154, 9.11284065246582, 4.081536293029785, 36.85493850708008, -28.27923583984375, 0.850830078125, -0.6845703125, -0.456787109375
408, 917730171, -4.771810531616211, 1.9312728643417358, 8.875082969665527, 4.442108154296875, 58.56814956665039, -27.45064926147461, 0.86376953125, -0.679443359375, -0.44482421875
409, 917746838, -4.473959445953369, 2.019547939300537, 9.247206687927246, 10.951054573059082, 89.45637512207031, -31.83617401123047, 0.882080078125, -0.67724609375, -0.430419921875
410, 917763505, -4.745502471923828, 2.379486560821533, 9.095769882202148, 19.224811553955078, 127.89152526855469, -38.20966720581055, 0.907958984375, -0.674072265625, -0.40283203125
411, 917780172, -4.700565338134766, 2.7836573123931885, 9.403548240661621, 22.7622127532959, 173.52682495117188, -49.82164764404297, 0.94091796875, -0.670654296875, -0.370361328125
412, 917796839, -4.864691734313965, 2.7023539543151855, 9.743249893188477, 27.560728073120117, 225.60696411132812, -63.5865478515625, 0.980712890625, -0.66552734375, -0.322998046875
413, 917813506, -5.00652551651001, 3.7616090774536133, 8.938990592956543, 20.33449363708496, 298.36151123046875, -92.20065307617188, 1.0302734375, -0.6494140625, -0.2607421875
414, 917830173, -7.449779510498047, 5.684545516967773, 10.278375625610352, -7.0571465492248535, 376.158447265625, -147.62142944335938, 1.087158203125, -0.623291015625, -0.1767578125
415, 917846840, -9.629155158996582, 6.208250522613525, 12.138991355895996, -8.650781631469727, 424.84808349609375, -196.7357635498047, 1.1494140625, -0.573974609375, -0.072998046875
416, 917863507, -19.134428024291992, 8.178600311279297, 16.03413963317871, 6.793626308441162, 453.5290832519531, -211.65478515625, 1.197021484375, -0.5205078125, 0.046875
417, 917880174, -18.96904754638672, 7.972157001495361, 17.660470962524414, -1.0125243663787842, 407.9585266113281, -214.72726440429688, 1.227294921875, -0.4599609375, 0.16259765625
418, 917896841, -15.661565780639648, 8.909174919128418, 17.58036231994629, 17.65903663635254, 355.4331359863281, -190.3761749267578, 1.237548828125, -0.406005859375, 0.263671875
419, 917913508, -2.9437737464904785, 7.996429443359375, 14.247381210327148, -14.015475273132324, 289.1142272949219, -195.73182678222656, 1.23828125, -0.355712890625, 0.349609375
420, 917930175, -10.520069122314453, 14.266329765319824, 14.141229629516602, -56.472225189208984, 301.7790832519531, -157.19174194335938, 1.226318359375, -0.306396484375, 0.43310546875
421, 917946842, -19.09977912902832, 16.910341262817383, 27.407917022705078, -52.38269805908203, 57.174259185791016, -11.205657005310059, 1.218017578125, -0.296875, 0.463134765625
422, 917963509, -3.765294313430786, 10.731897354125977, 17.88195037841797, -85.58609008789062, -121.33243560791016, 76.24385070800781, 1.222412109375, -0.32275390625, 0.435791015625
423, 917980176, 2.2743983268737793, 3.2063446044921875, 9.7134370803833, -88.24833679199219, -156.5147705078125, 97.37274932861328, 1.229248046875, -0.35595703125, 0.3916015625
424, 917996843, 2.324394941329956, -0.06462176144123077, 7.056978702545166, -53.28065490722656, -154.65760803222656, 100.67986297607422, 1.233154296875, -0.38720703125, 0.346923828125
425, 918013510, 0.4716123640537262, -0.4581747055053711, 7.129518508911133, -15.18386459350586, -153.37167358398438, 96.42394256591797, 1.23583984375, -0.415283203125, 0.301513671875
426, 918030177, -2.2117855548858643, 0.6297925114631653, 8.40216064453125, -5.306642055511475, -163.3998260498047, 82.18175506591797, 1.231689453125, -0.44189453125, 0.260498046875
427, 918046844, -5.794382572174072, 1.0909513235092163, 10.141387939453125, -6.3850274085998535, -199.5717315673828, 75.06130981445312, 1.228759765625, -0.462646484375, 0.206787109375
428, 918063511, -7.497040748596191, 1.4298453330993652, 10.301362991333008, -3.1564443111419678, -253.66650390625, 83.24032592773438, 1.22265625, -0.485595703125, 0.14111328125
429, 918080178, -6.764247894287109, 1.5022817850112915, 8.668523788452148, -0.9363685846328735, -293.83099365234375, 93.81633758544922, 1.205810546875, -0.511474609375, 0.06201171875
430, 918096845, -5.686561584472656, 1.063920259475708, 7.116342544555664, -2.951120138168335, -303.5425109863281, 99.8449935913086, 1.180419921875, -0.537841796875, -0.01806640625
431, 918113512, -6.054161071777344, 0.4742682874202728, 7.231825351715088, -1.4458962678909302, -294.6011962890625, 101.48808288574219, 1.15283203125, -0.564453125, -0.095458984375
432, 918130179, -7.650907039642334, 0.1385815590620041, 8.82894515991211, 7.633907794952393, -288.7275390625, 101.25623321533203, 1.114013671875, -0.593017578125, -0.166259765625
433, 918146846, -9.736557006835938, 0.18784230947494507, 10.574908256530762, 19.070302963256836, -294.425048828125, 98.6978759765625, 1.069580078125, -0.6201171875, -0.233154296875
434, 918163513, -10.763372421264648, -0.3735852837562561, 11.215838432312012, 30.828092575073242, -303.0110778808594, 91.86015319824219, 1.018798828125, -0.647216796875, -0.29736328125
435, 918180180, -11.998043060302734, -1.2856005430221558, 12.030512809753418, 49.981449127197266, -300.20941162109375, 77.49053955078125, 0.961669921875, -0.66845703125, -0.35400390625
436, 918196847, -15.98801326751709, -0.7002423405647278, 14.843472480773926, 78.09559631347656, -301.3843688964844, 63.051429748535156, 0.90234375, -0.695068359375, -0.401123046875
437, 918213514, -21.542999267578125, 1.8429237604141235, 16.500825881958008, 93.88777923583984, -328.8976745605469, 56.15974044799805, 0.839111328125, -0.7236328125, -0.44287109375
438, 918230181, -26.017004013061523, 4.4276814460754395, 14.841818809509277, 86.84497833251953, -358.935546875, 63.493350982666016, 0.7626953125, -0.751220703125, -0.4853515625
439, 918246848, -27.60943603515625, 6.012734413146973, 8.035842895507812, 59.28064727783203, -366.8067626953125, 83.0408706665039, 0.67529296875, -0.77587890625, -0.52001953125
440, 918263515, -27.51146125793457, 4.4275736808776855, -1.1573818922042847, 33.88270950317383, -321.85626220703125, 100.1375503540039, 0.58984375, -0.795654296875, -0.548583984375
441, 918280182, -29.21361541748047, -0.7941501140594482, -9.76171588897705, 42.8316764831543, -232.23301696777344, 112.70796966552734, 0.513671875, -0.811767578125, -0.5625
442, 918296849, -31.878551483154297, -9.431989669799805, -16.21588897705078, 82.22483825683594, -130.5330352783203, 113.6682357788086, 0.456787109375, -0.837646484375, -0.55908203125
443, 918313516, -28.093019485473633, -11.326168060302734, -15.831090927124023, 88.3968276977539, -15.52039623260498, 75.27904510498047, 0.430419921875, -0.86572265625, -0.543212890625
444, 918330183, -26.473098754882812, -5.850698947906494, -6.716775894165039, -6.207344055175781, 63.41741180419922, -14.987841606140137, 0.43896484375, -0.86962890625, -0.536865234375
445, 918346850, -10.221588134765625, -0.5169432759284973, 3.9930269718170166, -58.39763259887695, 103.78501892089844, -85.65333557128906, 0.468505859375, -0.8564453125, -0.53955078125
446, 918363517, 5.787758827209473, 11.218628883361816, 12.471065521240234, -80.46649169921875, 129.41058349609375, -141.74075317382812, 0.52001953125, -0.8310546875, -0.54541015625
447, 918380184, -6.621589660644531, 3.6498067378997803, 6.0831828117370605, -73.6565933227539, 189.41970825195312, -72.75206756591797, 0.575927734375, -0.8037109375, -0.546630859375
448, 918396851, -17.165334701538086, -0.8167716264724731, 19.06234359741211, -61.696895599365234, 186.89967346191406, -24.64436149597168, 0.623291015625, -0.7919921875, -0.53369140625
449, 918413518, -11.493392944335938, -3.902438163757324, 14.533968925476074, -65.54920959472656, 127.53927612304688, -80.5675048828125, 0.663818359375, -0.76904296875, -0.52880859375
450, 918430185, -7.251448631286621, 5.604766368865967, 8.97612190246582, -48.29713439941406, 110.70000457763672, -62.628746032714844, 0.69921875, -0.75048828125, -0.523193359375
451, 918446852, -6.726418495178223, 3.4356913566589355, 9.035703659057617, -53.29349136352539, 112.63412475585938, -39.851585388183594, 0.72607421875, -0.734130859375, -0.516357421875
452, 918463519, -6.11745023727417, 0.3546450138092041, 9.163115501403809, -52.32672882080078, 100.06391143798828, -49.57908248901367, 0.756591796875, -0.718017578125, -0.506591796875
453, 918480186, -9.452197074890137, 3.88916277885437, 13.172401428222656, -54.226844787597656, 89.46771240234375, -48.219032287597656, 0.7822265625, -0.7021484375, -0.501220703125
454, 918496853, -9.73737621307373, 1.422276258468628, 9.868021965026855, -59.54879379272461, 26.381759643554688, -36.89112091064453, 0.79736328125, -0.68359375, -0.503662109375
455, 918513520, -7.932363510131836, 2.9187569618225098, 5.000961780548096, -39.48087692260742, 8.421256065368652, -22.389535903930664, 0.80517578125, -0.671142578125, -0.507080078125
456, 918530187, -5.503494739532471, 1.0089733600616455, 9.254684448242188, -23.805810928344727, 1.6314244270324707, -13.401047706604004, 0.8046875, -0.66455078125, -0.5087890625
457, 918546854, -5.08048677444458, 1.7317770719528198, 8.717594146728516, -15.321048736572266, 4.092319011688232, -10.832892417907715, 0.8095703125, -0.65966796875, -0.5087890625
458, 918563521, -5.285048007965088, 1.6346681118011475, 8.578418731689453, -8.225754737854004, 6.541379451751709, -10.177303314208984, 0.81103515625, -0.65625, -0.50732421875
459, 918580188, -5.054544925689697, 1.9850060939788818, 8.428655624389648, -5.8659772872924805, 6.998193740844727, -9.545243263244629, 0.814453125, -0.654541015625, -0.509765625
460, 918596855, -4.934201717376709, 1.9671388864517212, 8.466292381286621, -4.465986728668213, 8.390385627746582, -8.70710563659668, 0.8173828125, -0.654541015625, -0.507080078125
461, 918613522, -5.0553202629089355, 1.9426023960113525, 8.340933799743652, -3.1622865200042725, 9.2193021774292, -6.695470333099365, 0.81982421875, -0.652587890625, -0.506591796875
462, 918630189, -4.984771728515625, 2.095947027206421, 8.270050048828125, -2.698260545730591, 9.453695297241211, -6.228882789611816, 0.82275390625, -0.650634765625, -0.505615234375
463, 918646856, -5.079474449157715, 1.8616198301315308, 8.236067771911621, -0.8544785380363464, 10.184209823608398, -5.973229885101318, 0.825439453125, -0.650634765625, -0.5029296875
464, 918663523, -5.196575164794922, 1.8017109632492065, 8.161606788635254, -0.3176872432231903, 8.532893180847168, -5.397954940795898, 0.827880859375, -0.652587890625, -0.50048828125
465, 918680190, -5.095513343811035, 1.9905627965927124, 8.235882759094238, -0.5221278071403503, 7.596594333648682, -5.756430149078369, 0.831298828125, -0.6513671875, -0.498779296875
466, 918696857, -5.095520496368408, 1.8591153621673584, 8.20480728149414, -1.5546658039093018, 6.484132766723633, -6.709441184997559, 0.833740234375, -0.65087890625, -0.497802734375
467, 918713524, -5.06859016418457, 1.8887664079666138, 8.226318359375, -1.7071253061294556, 5.912751197814941, -6.701513767242432, 0.834716796875, -0.65087890625, -0.496826171875
468, 918730191, -5.081000328063965, 2.07110595703125, 8.239726066589355, -1.686225175857544, 5.787721633911133, -7.774902820587158, 0.8388671875, -0.64990234375, -0.49560546875
469, 918746858, -5.08888578414917, 2.2187488079071045, 8.2284517288208, -3.073704957962036, 5.572193622589111, -10.418432235717773, 0.8408203125, -0.646484375, -0.49462890625
470, 918763525, -5.024783611297607, 2.162480115890503, 8.21618938446045, -4.3719377517700195, 6.218928813934326, -14.08547306060791, 0.8427734375, -0.646240234375, -0.4931640625
471, 918780192, -4.98744010925293, 2.1167495250701904, 8.40477466583252, -5.925468921661377, 7.927432060241699, -18.500402450561523, 0.845703125, -0.641357421875, -0.49072265625
472, 918796859, -4.934096813201904, 1.699923038482666, 8.38470458984375, -6.934370040893555, 12.731374740600586, -19.103334426879883, 0.85205078125, -0.63916015625, -0.489990234375
473, 918813526, -5.05806827545166, 1.9955774545669556, 8.494091033935547, -4.547168254852295, 22.970779418945312, -22.52630043029785, 0.85791015625, -0.63525390625, -0.48681640625
474, 918830193, -4.353274345397949, 1.6095012426376343, 9.145269393920898, -4.162862300872803, 39.121498107910156, -21.31226348876953, 0.866943359375, -0.631103515625, -0.480224609375
475, 918846860, -4.406093597412109, 1.579947829246521, 9.241217613220215, 0.24585385620594025, 63.43468475341797, -23.288352966308594, 0.88134765625, -0.62646484375, -0.471923828125
476, 918863527, -4.6723222732543945, 1.6231013536453247, 9.298482894897461, 6.896468639373779, 89.98872375488281, -27.997697830200195, 0.900146484375, -0.624267578125, -0.45263671875
477, 918880194, -5.050775527954102, 1.6771397590637207, 9.250835418701172, 8.802754402160645, 119.16053009033203, -35.377906799316406, 0.921630859375, -0.62060546875, -0.429443359375
478, 918896861, -5.523306846618652, 2.5896565914154053, 9.504077911376953, 12.32483959197998, 152.540283203125, -47.43165588378906, 0.954833984375, -0.615234375, -0.399658203125
479, 918913528, -4.9743170738220215, 4.345217227935791, 9.852840423583984, 12.979183197021484, 193.90524291992188, -73.76273345947266, 0.99267578125, -0.605224609375, -0.36083984375
480, 918930195, -5.825489521026611, 3.5141656398773193, 9.537546157836914, -0.7242515087127686, 248.75390625, -117.57901763916016, 1.0390625, -0.585205078125, -0.310302734375
481, 918946862, -5.867808818817139, 5.3834757804870605, 11.91125202178955, -23.245800018310547, 331.7607421875, -163.4785919189453, 1.095703125, -0.546630859375, -0.236572265625
482, 918963529, -7.678249359130859, 4.142665863037109, 13.258808135986328, -43.13622283935547, 429.7322082519531, -202.10903930664062, 1.158203125, -0.494140625, -0.139404296875
483, 918980196, -12.52075481414795, 7.4729838371276855, 16.82583236694336, -28.243257522583008, 494.6115417480469, -235.1160125732422, 1.212890625, -0.432373046875, -0.00927734375
484, 918996863, -19.870447158813477, 8.456408500671387, 18.53604507446289, -8.523812294006348, 483.0323486328125, -238.24839782714844, 1.24755859375, -0.367919921875, 0.126220703125
485, 919013530, -20.433927536010742, 12.127683639526367, 21.56939697265625, -6.590226650238037, 417.4708557128906, -228.86575317382812, 1.2587890625, -0.301025390625, 0.25048828125
486, 919030197, -5.933426380157471, 8.422100067138672, 17.819103240966797, -30.29974365234375, 333.4498291015625, -231.73678588867188, 1.253173828125, -0.239501953125, 0.34765625
487, 919046864, -14.654932975769043, 18.319894790649414, 16.008371353149414, -112.04098510742188, 329.5763244628906, -176.6005096435547, 1.232666015625, -0.186279296875, 0.44580078125
488, 919063531, -22.740198135375977, 16.594552993774414, 29.091541290283203, -83.8153305053711, 58.97673034667969, 3.0491957664489746, 1.220947265625, -0.183837890625, 0.479248046875
489, 919080198, -7.340502738952637, 10.443092346191406, 18.238563537597656, -76.36278533935547, -144.326171875, 106.29754638671875, 1.228759765625, -0.21533203125, 0.448974609375
490, 919096865, 1.0766350030899048, 3.7509398460388184, 8.322659492492676, -65.9769287109375, -188.9739532470703, 132.47421264648438, 1.242431640625, -0.258056640625, 0.39794921875
491, 919113532, 3.5626282691955566, 0.41058585047721863, 4.492334365844727, -35.248443603515625, -171.42718505859375, 135.13461303710938, 1.2490234375, -0.297119140625, 0.346923828125
492, 919130199, 3.119560956954956, -0.6744643449783325, 4.065576553344727, -10.085063934326172, -140.5926513671875, 127.04302215576172, 1.249755859375, -0.334716796875, 0.30712890625
493, 919146866, 0.3158457279205322, -0.1158645898103714, 6.0160298347473145, -6.569759368896484, -125.12251281738281, 111.88387298583984, 1.2490234375, -0.371337890625, 0.27001953125
494, 919163533, -3.3141162395477295, 0.5252695679664612, 8.721075057983398, -15.151939392089844, -143.4904327392578, 100.94467163085938, 1.24658203125, -0.3974609375, 0.23291015625
495, 919180200, -5.315103054046631, 0.4767830967903137, 9.955266952514648, -13.427270889282227, -186.17372131347656, 104.91254425048828, 1.2412109375, -0.4287109375, 0.183837890625
496, 919196867, -6.010523796081543, 0.6397420167922974, 9.49916934967041, -4.525145053863525, -225.9762725830078, 116.93798828125, 1.233642578125, -0.45947265625, 0.123291015625
497, 919213534, -6.534348487854004, 1.1212968826293945, 8.77553939819336, -4.752910614013672, -249.99533081054688, 127.3526611328125, 1.21484375, -0.495849609375, 0.055908203125
498, 919230201, -7.920234203338623, 1.354999303817749, 8.928792953491211, -13.314517974853516, -262.5113220214844, 133.92474365234375, 1.190185546875, -0.531982421875, -0.013427734375
499, 919246868, -10.411733627319336, 1.4857888221740723, 10.275007247924805, -22.97438621520996, -282.6844177246094, 136.7278289794922, 1.156005859375, -0.56640625, -0.087158203125
500, 919263535, -11.870363235473633, 0.7205068469047546, 11.156659126281738, -22.484560012817383, -310.4859619140625, 137.24940490722656, 1.11572265625, -0.60205078125, -0.16650390625
501, 919280202, -12.195356369018555, -0.5812466144561768, 10.610594749450684, -7.698050022125244, -330.7336730957031, 130.60169982910156, 1.06396484375, -0.63232421875, -0.247314453125
502, 919296869, -12.469565391540527, -2.1739799976348877, 10.058843612670898, 22.100080490112305, -326.67327880859375, 107.25543975830078, 1.00244140625, -0.659423828125, -0.31591796875
503, 919313536, -16.992597579956055, -1.7988697290420532, 12.560917854309082, 63.020606994628906, -315.79925537109375, 71.3798828125, 0.944580078125, -0.6845703125, -0.373779296875
504, 919330203, -23.201522827148438, 0.36550748348236084, 15.634626388549805, 95.63616180419922, -340.6312255859375, 48.000247955322266, 0.880859375, -0.713623046875, -0.4208984375
505, 919346870, -27.8779354095459, 2.174541711807251, 14.106649398803711, 115.03868103027344, -381.9967346191406, 52.6656608581543, 0.803955078125, -0.740966796875, -0.468505859375
506, 919363537, -29.91231346130371, 3.8302133083343506, 8.024460792541504, 111.75414276123047, -399.27581787109375, 69.19437408447266, 0.7158203125, -0.775634765625, -0.505859375
507, 919380204, -30.927627563476562, 4.659100532531738, 0.09677457809448242, 85.72169494628906, -371.53857421875, 71.16696166992188, 0.626953125, -0.80224609375, -0.53515625
508, 919396871, -30.65731430053711, 0.5302988290786743, -8.275829315185547, 84.21826171875, -300.2652282714844, 76.78675842285156, 0.54443359375, -0.8291015625, -0.550537109375
509, 919413538, -34.76478576660156, -9.163619041442871, -16.805416107177734, 125.20093536376953, -192.06358337402344, 114.1585464477539, 0.47607421875, -0.86279296875, -0.54296875
510, 919430205, -33.18489074707031, -15.082953453063965, -18.813613891601562, 124.46440887451172, -59.34902572631836, 123.63497924804688, 0.427490234375, -0.899169921875, -0.522216796875
511, 919446872, -27.13889503479004, -9.36713981628418, -10.531583786010742, -31.84293556213379, 55.47075271606445, 2.4042539596557617, 0.427001953125, -0.904541015625, -0.51953125
512, 919463539, -15.214059829711914, -5.82088041305542, 6.227697372436523, -100.93360900878906, 109.54348754882812, -124.7943344116211, 0.467041015625, -0.87890625, -0.53271484375
513, 919480206, 4.003376007080078, 14.499184608459473, 17.231595993041992, -125.77984619140625, 81.52332305908203, -187.80648803710938, 0.518310546875, -0.843017578125, -0.5458984375
514, 919496873, -1.7396135330200195, 6.013919830322266, 0.8056002855300903, -86.95882415771484, 164.85614013671875, -71.13130187988281, 0.567138671875, -0.810302734375, -0.554931640625
515, 919513540, -12.512200355529785, 0.03301312029361725, 15.762092590332031, -63.16438293457031, 206.4049530029297, 8.00910758972168, 0.615234375, -0.799560546875, -0.54345703125
516, 919530207, -9.168086051940918, -10.2008056640625, 13.126444816589355, -83.65064239501953, 151.00531005859375, -93.17015075683594, 0.661376953125, -0.772705078125, -0.540771484375
517, 919546874, -8.287996292114258, 1.8648216724395752, 10.679360389709473, -51.37136459350586, 132.12477111816406, -98.25494384765625, 0.706787109375, -0.746337890625, -0.53271484375
518, 919563541, -9.682963371276855, 6.315377235412598, 10.00631046295166, -47.576904296875, 133.7045440673828, -54.78453826904297, 0.744873046875, -0.73193359375, -0.52099609375
519, 919580208, -10.468574523925781, 3.770697832107544, 13.73172378540039, -60.234039306640625, 118.69766235351562, -57.39164352416992, 0.775634765625, -0.71630859375, -0.510009765625
520, 919596875, -15.246533393859863, 2.408093214035034, 12.011687278747559, -76.43408966064453, 41.453460693359375, -47.725852966308594, 0.799072265625, -0.687744140625, -0.511474609375
521, 919613542, -5.983548641204834, 0.17218142747879028, 9.91775131225586, -27.618249893188477, 10.119844436645508, -18.282358169555664, 0.805908203125, -0.67822265625, -0.512451171875
522, 919630209, -6.101812839508057, 2.1859171390533447, 2.9027657508850098, -11.898675918579102, 11.293683052062988, -7.770210266113281, 0.807373046875, -0.674560546875, -0.513671875
523, 919646876, -4.945413112640381, 1.5351063013076782, 8.80608081817627, -3.0507302284240723, 12.092818260192871, -3.990678548812866, 0.813232421875, -0.674072265625, -0.511962890625
524, 919663543, -4.994269847869873, 1.5482263565063477, 8.636017799377441, 3.4439051151275635, 13.485434532165527, -1.582033395767212, 0.81689453125, -0.675048828125, -0.5078125
525, 919680210, -5.1211957931518555, 1.7533313035964966, 8.510660171508789, 9.626266479492188, 13.993403434753418, 1.10232675075531, 0.81884765625, -0.676025390625, -0.504150390625
526, 919696877, -5.000502109527588, 2.173203229904175, 8.379303932189941, 11.675055503845215, 13.666459083557129, 0.8964902758598328, 0.8212890625, -0.679443359375, -0.499267578125
527, 919713544, -5.035589694976807, 2.4224300384521484, 8.22652530670166, 10.947896003723145, 12.733769416809082, 0.0017224557232111692, 0.822509765625, -0.683349609375, -0.4951171875
528, 919730211, -4.8929924964904785, 2.536409616470337, 8.166255950927734, 9.87624740600586, 12.46739673614502, -0.691031277179718, 0.826416015625, -0.68603515625, -0.491455078125
529, 919746878, -4.829723834991455, 2.6909730434417725, 8.054420471191406, 6.70357084274292, 10.315885543823242, -2.5752687454223633, 0.828369140625, -0.6875, -0.48779296875
530, 919763545, -5.006997108459473, 2.704211711883545, 8.008460998535156, 2.3050217628479004, 8.013761520385742, -5.4061760902404785, 0.828125, -0.68896484375, -0.48681640625
531, 919780212, -5.369828701019287, 2.627537488937378, 8.018863677978516, -1.0813300609588623, 5.19800329208374, -6.3960185050964355, 0.8359375, -0.689208984375, -0.483154296875
532, 919796879, -5.050473690032959, 2.4992778301239014, 8.194995880126953, -3.453310251235962, 4.253035068511963, -6.780529022216797, 0.83642578125, -0.689208984375, -0.484619140625
533, 919813546, -5.192030429840088, 2.3007616996765137, 8.165032386779785, -4.32685661315918, 3.8301045894622803, -7.233808994293213, 0.83935546875, -0.686767578125, -0.482177734375
534, 919830213, -5.15671968460083, 2.1330015659332275, 8.16784954071045, -2.768003463745117, 3.1869826316833496, -6.382723808288574, 0.83740234375, -0.685302734375, -0.483642578125
535, 919846880, -5.109417915344238, 2.3638851642608643, 8.167781829833984, -2.126481771469116, 2.3307111263275146, -7.142282009124756, 0.84033203125, -0.684814453125, -0.47900390625
536, 919863547, -5.045102119445801, 2.413297176361084, 8.069039344787598, -3.0676724910736084, 1.8586821556091309, -8.57640266418457, 0.83984375, -0.682861328125, -0.481201171875
537, 919880214, -4.8625617027282715, 2.3823437690734863, 8.172269821166992, -4.1747307777404785, 2.5280191898345947, -9.873968124389648, 0.8447265625, -0.68212890625, -0.48046875
538, 919896881, -4.823991298675537, 2.386507749557495, 8.218414306640625, -4.517455577850342, 5.429582118988037, -11.565205574035645, 0.84521484375, -0.67919921875, -0.47998046875
539, 919913548, -5.025533199310303, 2.221946954727173, 8.281198501586914, -3.985147714614868, 9.5087308883667, -13.801839828491211, 0.852294921875, -0.67626953125, -0.47802734375
540, 919930215, -4.994509220123291, 2.1890838146209717, 8.326380729675293, -1.2267738580703735, 16.633411407470703, -15.805216789245605, 0.857177734375, -0.675537109375, -0.475341796875
541, 919946882, -4.449275016784668, 2.4979758262634277, 8.958456039428711, 3.1087751388549805, 30.088895797729492, -20.033437728881836, 0.862548828125, -0.673583984375, -0.46875
542, 919963549, -4.2898173332214355, 2.0386781692504883, 9.217970848083496, 4.6559224128723145, 51.48008346557617, -22.599822998046875, 0.875732421875, -0.6728515625, -0.462890625
543, 919980216, -4.314410209655762, 1.663182020187378, 9.4315185546875, 12.700357437133789, 80.27588653564453, -23.3583927154541, 0.89306640625, -0.671630859375, -0.447021484375
544, 919996883, -4.551180362701416, 1.7411786317825317, 9.311243057250977, 20.450551986694336, 115.69527435302734, -26.7452392578125, 0.91455078125, -0.672607421875, -0.42138671875
545, 920013550, -4.582163333892822, 2.844731569290161, 9.360569953918457, 28.327327728271484, 161.0787811279297, -35.293853759765625, 0.94287109375, -0.670166015625, -0.39013671875
546, 920030217, -4.632996559143066, 4.694295406341553, 10.28540325164795, 24.449180603027344, 211.9445343017578, -57.59067916870117, 0.982666015625, -0.66259765625, -0.345703125
547, 920046884, -4.769618511199951, 5.1181840896606445, 9.64743423461914, 11.617795944213867, 276.6766662597656, -96.15130615234375, 1.02880859375, -0.650146484375, -0.288330078125
548, 920063551, -6.079052448272705, 5.57177734375, 11.06080436706543, -11.995450973510742, 370.0624084472656, -156.75595092773438, 1.090576171875, -0.617919921875, -0.20654296875
549, 920080218, -7.7532806396484375, 6.350302696228027, 13.65604019165039, -32.530723571777344, 471.7760925292969, -224.71994018554688, 1.156982421875, -0.56396484375, -0.0966796875
550, 920096885, -15.797209739685059, 7.399485111236572, 17.367652893066406, -24.071788787841797, 522.2930908203125, -265.7873229980469, 1.21630859375, -0.490966796875, 0.039306640625
551, 920113552, -24.800926208496094, 10.34421443939209, 19.766328811645508, -7.56772518157959, 477.87158203125, -243.60394287109375, 1.25, -0.42333984375, 0.176025390625
552, 920130219, -17.703039169311523, 11.740009307861328, 22.425085067749023, -1.5009516477584839, 391.9345397949219, -221.40443420410156, 1.25732421875, -0.360107421875, 0.294677734375
553, 920146886, -1.2569304704666138, 12.124763488769531, 16.464366912841797, -59.59324264526367, 347.75701904296875, -234.7823944091797, 1.251708984375, -0.29931640625, 0.391845703125
554, 920163553, -19.647960662841797, 14.252141952514648, 23.296693801879883, -108.19774627685547, 309.13623046875, -167.28396606445312, 1.232177734375, -0.250244140625, 0.48681640625
555, 920180220, -18.944448471069336, 13.517477989196777, 29.941781997680664, -57.12846374511719, -9.465349197387695, -0.7467342615127563, 1.2255859375, -0.24951171875, 0.50390625
556, 920196887, -1.9318974018096924, 7.333932876586914, 16.165260314941406, -58.72677993774414, -166.28077697753906, 63.77525329589844, 1.238037109375, -0.26806640625, 0.46142578125
557, 920213554, 3.3902015686035156, 0.8445219993591309, 7.882411479949951, -49.06801986694336, -178.38082885742188, 68.3830337524414, 1.25244140625, -0.293212890625, 0.409423828125
558, 920230221, 3.259737014770508, -1.2025498151779175, 5.599796295166016, -3.6454625129699707, -158.97296142578125, 72.2179946899414, 1.25732421875, -0.3154296875, 0.365966796875
559, 920246888, 1.4278132915496826, 0.35684439539909363, 6.012637138366699, 24.405696868896484, -145.9259796142578, 74.26276397705078, 1.26220703125, -0.33349609375, 0.324462890625
560, 920263555, -1.831585168838501, 2.1649231910705566, 7.757209300994873, 17.0782527923584, -152.8171844482422, 76.68616485595703, 1.268798828125, -0.359619140625, 0.28369140625
561, 920280222, -4.797243118286133, 3.0989208221435547, 9.162242889404297, -3.2800583839416504, -184.13235473632812, 87.54554748535156, 1.269287109375, -0.3828125, 0.232177734375
562, 920296889, -6.347468852996826, 2.928840160369873, 9.269218444824219, -16.603853225708008, -226.620849609375, 107.67320251464844, 1.262939453125, -0.414794921875, 0.168212890625
563, 920313556, -6.9267730712890625, 2.415196657180786, 8.56451416015625, -18.464269638061523, -260.94415283203125, 130.9934844970703, 1.252685546875, -0.451904296875, 0.094970703125
564, 920330223, -7.856053352355957, 2.338621139526367, 8.210787773132324, -20.000694274902344, -284.3760070800781, 147.74563598632812, 1.232421875, -0.494384765625, 0.013916015625
565, 920346890, -8.937121391296387, 1.9826459884643555, 8.23245906829834, -25.23975372314453, -303.00927734375, 153.47610473632812, 1.1982421875, -0.54052734375, -0.071533203125
566, 920363557, -9.949305534362793, 0.8013322949409485, 8.703339576721191, -22.697628021240234, -316.576904296875, 151.1179962158203, 1.1552734375, -0.57763671875, -0.155517578125
567, 920380224, -11.402897834777832, -0.6758448481559753, 9.348345756530762, 0.05235663056373596, -328.3259582519531, 139.28688049316406, 1.1005859375, -0.616943359375, -0.239501953125
568, 920396891, -11.80684757232666, -1.9541077613830566, 9.071553230285645, 37.87575149536133, -331.6526794433594, 115.26278686523438, 1.039306640625, -0.650634765625, -0.31396484375
569, 920413558, -13.822221755981445, -1.2035189867019653, 9.669981956481934, 71.83040618896484, -316.08062744140625, 76.33643341064453, 0.978515625, -0.683349609375, -0.3740234375
570, 920430225, -18.2532901763916, 1.4998462200164795, 13.003698348999023, 89.80975341796875, -309.51190185546875, 42.5042724609375, 0.91357421875, -0.70703125, -0.42041015625
571, 920446892, -24.127408981323242, 3.5547049045562744, 15.210761070251465, 108.71768188476562, -332.4746398925781, 41.97267150878906, 0.84814453125, -0.735595703125, -0.463134765625
572, 920463559, -26.995325088500977, 5.456583499908447, 12.222010612487793, 117.84013366699219, -360.94281005859375, 67.023193359375, 0.76904296875, -0.765625, -0.49755859375
573, 920480226, -27.47731590270996, 6.055479526519775, 5.82064151763916, 95.76986694335938, -354.64947509765625, 89.05032348632812, 0.6787109375, -0.797607421875, -0.528076171875
574, 920496893, -27.16315269470215, 3.8075718879699707, -0.9502453804016113, 78.45946502685547, -306.707763671875, 108.83892059326172, 0.591796875, -0.82861328125, -0.54541015625
575, 920513560, -29.542341232299805, -0.7632927298545837, -7.097452640533447, 77.09588623046875, -224.87008666992188, 137.6153564453125, 0.5146484375, -0.856201171875, -0.5517578125
576, 920530227, -35.52941131591797, -12.892024040222168, -14.905389785766602, 89.08135986328125, -137.7848358154297, 167.46522521972656, 0.44970703125, -0.883056640625, -0.54248046875
577, 920546894, -29.066919326782227, -15.650952339172363, -16.888031005859375, 64.82178497314453, -22.031234741210938, 113.02842712402344, 0.406005859375, -0.90966796875, -0.528076171875
578, 920563561, -25.741615295410156, -9.818244934082031, -5.8511528968811035, -58.07584762573242, 63.89126968383789, -53.83367156982422, 0.42138671875, -0.901611328125, -0.532958984375
579, 920580228, -21.513845443725586, -2.638883113861084, 5.524304389953613, -67.82295227050781, 46.03797149658203, -123.7481918334961, 0.451171875, -0.880615234375, -0.542724609375
580, 920596895, 7.6985883712768555, 9.745931625366211, 10.674812316894531, -103.36935424804688, 73.6095199584961, -154.7147216796875, 0.49560546875, -0.851806640625, -0.55712890625
581, 920613562, 1.1699777841567993, 7.92355489730835, 4.596255779266357, -109.14398956298828, 136.9287567138672, -113.04524230957031, 0.543212890625, -0.817626953125, -0.5673828125
582, 920630229, -10.677999496459961, -2.0713815689086914, 12.573055267333984, -67.86907958984375, 208.2597198486328, -24.309467315673828, 0.59375, -0.797119140625, -0.560546875
583, 920646896, -11.714309692382812, -8.377510070800781, 16.186668395996094, -57.72807693481445, 174.81448364257812, -71.953857421875, 0.641357421875, -0.7783203125, -0.54931640625
584, 920663563, -9.02530574798584, 1.2261391878128052, 11.306739807128906, -16.767841339111328, 146.19544982910156, -80.85794067382812, 0.68603515625, -0.764404296875, -0.536865234375
585, 920680230, -9.813262939453125, 7.327641010284424, 10.530914306640625, -19.387245178222656, 135.73817443847656, -45.38890075683594, 0.725830078125, -0.754638671875, -0.51611328125
586, 920696897, -7.757299423217773, 1.733548879623413, 9.679677963256836, -27.172203063964844, 116.7784652709961, -42.27400588989258, 0.754638671875, -0.743408203125, -0.506103515625
587, 920713564, -4.955967903137207, 2.531172275543213, 7.666659832000732, -21.66238784790039, 112.41324615478516, -44.359806060791016, 0.786865234375, -0.736572265625, -0.491943359375
588, 920730231, -13.405984878540039, 9.850471496582031, 12.109879493713379, -69.53673553466797, 94.26571655273438, -47.99131774902344, 0.81298828125, -0.71630859375, -0.482177734375
589, 920746898, -10.501358032226562, -2.2873995304107666, 10.626092910766602, -71.4087905883789, 37.636375427246094, -38.1516227722168, 0.83154296875, -0.69677734375, -0.484130859375
590, 920763565, -7.17692756652832, 2.072754383087158, 8.985886573791504, -26.583097457885742, 5.398492336273193, -18.44346809387207, 0.8359375, -0.685791015625, -0.490234375
591, 920780232, -5.503174304962158, 1.007589340209961, 8.866720199584961, -10.212112426757812, 8.964035987854004, -9.556644439697266, 0.8388671875, -0.680419921875, -0.48779296875
592, 920796899, -5.497434616088867, 0.9943540096282959, 8.666540145874023, 1.891069769859314, 12.940611839294434, -3.0609753131866455, 0.8408203125, -0.6806640625, -0.485107421875
593, 920813566, -5.629189968109131, 1.8571319580078125, 8.27599048614502, 9.997448921203613, 14.626409530639648, -0.6746649146080017, 0.847412109375, -0.684326171875, -0.47998046875
594, 920830233, -5.562957763671875, 2.480670928955078, 8.055712699890137, 11.47957992553711, 13.496365547180176, -1.9343115091323853, 0.849365234375, -0.687255859375, -0.478759765625
595, 920846900, -5.420681476593018, 2.361501932144165, 7.985947132110596, 9.374814987182617, 13.147709846496582, -2.733415365219116, 0.8505859375, -0.689697265625, -0.47412109375
596, 920863567, -5.433745384216309, 2.4053947925567627, 7.879470348358154, 7.106037616729736, 12.682848930358887, -2.685634136199951, 0.85498046875, -0.690673828125, -0.468505859375
597, 920880234, -5.432483196258545, 2.3102731704711914, 7.828411102294922, 5.0620903968811035, 11.423276901245117, -3.1324222087860107, 0.85791015625, -0.691162109375, -0.463623046875
598, 920896901, -5.436121463775635, 2.275965452194214, 7.861757278442383, 3.6468586921691895, 10.317560195922852, -3.1283740997314453, 0.859619140625, -0.693603515625, -0.46337890625
599, 920913568, -5.505096435546875, 2.2707011699676514, 7.877471923828125, 1.9439979791641235, 8.949341773986816, -3.1896910667419434, 0.862060546875, -0.694580078125, -0.45947265625
600, 920930235, -5.577727317810059, 2.351207971572876, 7.854988098144531, -0.026483533903956413, 7.134847640991211, -3.8020777702331543, 0.862060546875, -0.696533203125, -0.458740234375
601, 920946902, -5.769099235534668, 2.320974826812744, 7.719314098358154, -2.221850633621216, 3.6946260929107666, -4.651087284088135, 0.865966796875, -0.694091796875, -0.457763671875
602, 920963569, -5.547436237335205, 2.3784737586975098, 7.664240837097168, -5.249336242675781, -0.4657926559448242, -6.10718297958374, 0.865478515625, -0.69384765625, -0.457275390625
603, 920980236, -5.345964431762695, 2.383665084838867, 7.815427780151367, -6.921873569488525, -2.1055314540863037, -8.405680656433105, 0.864990234375, -0.6923828125, -0.457275390625
604, 920996903, -5.259006500244141, 2.2500646114349365, 7.950850486755371, -7.072196006774902, -2.8387339115142822, -10.510242462158203, 0.865966796875, -0.6884765625, -0.458740234375
605, 921013570, -5.172372341156006, 2.357353448867798, 8.074432373046875, -6.740499496459961, 0.1118699461221695, -13.016369819641113, 0.870361328125, -0.6865234375, -0.458740234375
606, 921030237, -5.284054279327393, 2.1318540573120117, 8.094627380371094, -5.859615325927734, 6.937417507171631, -14.866303443908691, 0.870361328125, -0.68505859375, -0.4609375
607, 921046904, -5.138304710388184, 2.0533342361450195, 8.19512939453125, -3.716806173324585, 16.319271087646484, -16.190725326538086, 0.877685546875, -0.680419921875, -0.455322265625
608, 921063571, -5.093005657196045, 2.1670022010803223, 8.330377578735352, -1.8162299394607544, 30.277860641479492, -17.625709533691406, 0.883544921875, -0.67724609375, -0.451171875
609, 921080238, -4.449008941650391, 2.114799976348877, 9.203292846679688, 0.1896577775478363, 52.155723571777344, -21.531187057495117, 0.89501953125, -0.67333984375, -0.443359375
610, 921096905, -4.58504581451416, 1.9235124588012695, 9.182727813720703, 8.947851181030273, 84.64408111572266, -28.670347213745117, 0.91357421875, -0.6708984375, -0.426513671875
611, 921113572, -4.676835536956787, 1.4194082021713257, 9.313760757446289, 20.137357711791992, 130.25765991210938, -33.95240020751953, 0.9384765625, -0.671142578125, -0.40234375
612, 921130239, -5.0259904861450195, 2.4899110794067383, 9.748045921325684, 27.757068634033203, 186.5279541015625, -40.171661376953125, 0.9697265625, -0.667724609375, -0.36328125
613, 921146906, -4.862946033477783, 3.7066869735717773, 9.572087287902832, 16.06477165222168, 245.51467895507812, -63.2425537109375, 1.011474609375, -0.661865234375, -0.308837890625
614, 921163573, -6.34397029876709, 4.8587565422058105, 10.104447364807129, -0.8301400542259216, 329.93212890625, -107.80500030517578, 1.064453125, -0.642578125, -0.239013671875
615, 921180240, -6.903933525085449, 6.445343494415283, 11.753409385681152, -30.82632064819336, 407.109619140625, -165.2707061767578, 1.125732421875, -0.600830078125, -0.148681640625
616, 921196907, -11.085528373718262, 6.557027816772461, 13.244750022888184, -17.505064010620117, 485.57122802734375, -217.41444396972656, 1.18505859375, -0.550048828125, -0.02783203125
617, 921213574, -22.102174758911133, 10.298211097717285, 18.412586212158203, -14.33168888092041, 511.3222961425781, -250.23829650878906, 1.2294921875, -0.47998046875, 0.111328125
618, 921230241, -26.004568099975586, 9.880507469177246, 20.36935806274414, 4.417568683624268, 453.5876159667969, -232.4789581298828, 1.249755859375, -0.413818359375, 0.245361328125
619, 921246908, -15.334956169128418, 11.522385597229004, 22.16785430908203, -15.345602989196777, 349.6365966796875, -212.36898803710938, 1.25146484375, -0.35107421875, 0.3505859375
620, 921263575, 0.7035650610923767, 12.043381690979004, 12.3034086227417, -116.19168090820312, 316.82891845703125, -228.50906372070312, 1.240966796875, -0.294189453125, 0.439697265625
621, 921280242, -26.19919204711914, 14.964255332946777, 28.466896057128906, -108.95970916748047, 252.6669464111328, -110.13532257080078, 1.218017578125, -0.2626953125, 0.5185546875
622, 921296909, -15.774608612060547, 14.239590644836426, 26.818283081054688, -79.2037353515625, -56.12907028198242, 31.499801635742188, 1.213134765625, -0.27197265625, 0.5185546875
623, 921313576, -1.1182698011398315, 7.356014728546143, 14.019039154052734, -99.17829895019531, -173.38465881347656, 69.4039535522461, 1.22705078125, -0.30029296875, 0.472900390625
624, 921330243, 2.326228141784668, 1.719136357307434, 7.414195537567139, -77.05543518066406, -182.14047241210938, 74.77568817138672, 1.237060546875, -0.327392578125, 0.420166015625
625, 921346910, 2.2055110931396484, 0.3335430324077606, 5.432261943817139, -26.460580825805664, -173.77835083007812, 82.76809692382812, 1.24169921875, -0.35302734375, 0.373291015625
626, 921363577, 1.0178455114364624, 1.4489802122116089, 5.404696941375732, -6.573629856109619, -165.08969116210938, 80.86705780029297, 1.24658203125, -0.375732421875, 0.32421875
627, 921380244, -2.1415717601776123, 2.5603199005126953, 6.928932189941406, -22.80259895324707, -171.31866455078125, 72.7488021850586, 1.246826171875, -0.397216796875, 0.27734375
628, 921396911, -5.653335094451904, 2.557429075241089, 8.766928672790527, -36.92491912841797, -205.1471405029297, 75.2733383178711, 1.245849609375, -0.41796875, 0.2236328125
629, 921413578, -7.691351413726807, 2.441155433654785, 9.39743423461914, -33.9618034362793, -257.67523193359375, 91.88838958740234, 1.239013671875, -0.44384765625, 0.1533203125
630, 921430245, -7.368959903717041, 2.569713592529297, 8.111183166503906, -27.912160873413086, -298.8683166503906, 111.30294036865234, 1.2265625, -0.474853515625, 0.068603515625
631, 921446912, -7.253351211547852, 2.513486385345459, 6.730620861053467, -30.383464813232422, -315.2256774902344, 124.218505859375, 1.20068359375, -0.50634765625, -0.017578125
632, 921463579, -7.873851299285889, 2.0898971557617188, 6.389522552490234, -34.684539794921875, -317.526611328125, 127.11834716796875, 1.1669921875, -0.539306640625, -0.101318359375
633, 921480246, -8.758260726928711, 1.585529088973999, 6.767446994781494, -28.248706817626953, -316.9561767578125, 124.56529235839844, 1.1220703125, -0.567626953125, -0.1826171875
634, 921496913, -9.03477954864502, 1.3678206205368042, 6.760821342468262, -11.698014259338379, -310.7500305175781, 116.81057739257812, 1.07275390625, -0.595703125, -0.259521484375
635, 921513580, -10.354216575622559, 1.4639613628387451, 7.407093048095703, 10.722493171691895, -288.1549987792969, 101.6900863647461, 1.017333984375, -0.622802734375, -0.32470703125
636, 921530247, -14.613516807556152, 2.5852980613708496, 10.79316234588623, 34.665611267089844, -277.0041198730469, 84.55674743652344, 0.96484375, -0.646484375, -0.3798828125
637, 921546914, -19.058565139770508, 3.643007755279541, 13.895744323730469, 67.64179229736328, -301.0821838378906, 76.1168441772461, 0.907958984375, -0.671630859375, -0.427490234375
638, 921563581, -21.226715087890625, 3.9448888301849365, 12.125112533569336, 100.7934341430664, -328.7466125488281, 77.66215515136719, 0.835693359375, -0.705322265625, -0.471923828125
639, 921580248, -22.742176055908203, 3.4715452194213867, 8.072792053222656, 119.2587890625, -313.8715515136719, 73.53885650634766, 0.757568359375, -0.742919921875, -0.503173828125
640, 921596915, -28.07686424255371, 4.435046672821045, 6.554495811462402, 132.3241729736328, -295.9697570800781, 73.70915222167969, 0.685791015625, -0.779296875, -0.521728515625
641, 921613582, -30.585905075073242, 4.347855091094971, 2.9119088649749756, 130.81442260742188, -293.4870910644531, 98.37848663330078, 0.610107421875, -0.81640625, -0.53173828125
642, 921630249, -29.367036819458008, -1.1795908212661743, -3.7297921180725098, 118.16228485107422, -260.06414794921875, 125.40499114990234, 0.53076171875, -0.85107421875, -0.534912109375
643, 921646916, -35.44386672973633, -9.772231101989746, -11.953185081481934, 115.58562469482422, -195.8227081298828, 142.7080535888672, 0.461181640625, -0.885986328125, -0.522705078125
644, 921663583, -32.97624969482422, -12.172981262207031, -20.494672775268555, 58.828453063964844, -92.98655700683594, 119.67487335205078, 0.40673828125, -0.91064453125, -0.515869140625
645, 921680250, -24.492855072021484, -16.5044002532959, -24.98470115661621, -98.82556915283203, 138.68441772460938, -57.00764083862305, 0.418212890625, -0.895263671875, -0.5234375
646, 921696917, -16.20215606689453, -1.1964476108551025, 14.236711502075195, -125.14964294433594, 220.61851501464844, -187.3103485107422, 0.4970703125, -0.861572265625, -0.531494140625
647, 921713584, -9.589900016784668, 10.672489166259766, 17.38033103942871, -162.57496643066406, 88.13040924072266, -162.03729248046875, 0.55517578125, -0.81640625, -0.548828125
648, 921730251, -3.9082119464874268, 1.668534517288208, 7.730035781860352, -128.38902282714844, 168.65541076660156, -82.56779479980469, 0.603515625, -0.773193359375, -0.56103515625
649, 921746918, -17.144668579101562, -8.566853523254395, 20.101085662841797, -100.12100219726562, 146.99099731445312, -35.32046127319336, 0.6474609375, -0.75, -0.556640625
650, 921763585, -7.806447505950928, -6.038633823394775, 11.301377296447754, -56.589229583740234, 101.22911834716797, -88.87734985351562, 0.681396484375, -0.7236328125, -0.552734375
651, 921780252, -9.589997291564941, 11.654539108276367, 12.392836570739746, -48.67454528808594, 109.90145874023438, -55.895687103271484, 0.717041015625, -0.70947265625, -0.546142578125
652, 921796919, -14.76152515411377, -1.8750947713851929, 12.43431568145752, -79.30846405029297, 11.0501127243042, -44.03022384643555, 0.733154296875, -0.686767578125, -0.5537109375
653, 921813586, -5.005618095397949, 2.306488513946533, 10.17437744140625, -34.313232421875, 8.548583984375, -15.947060585021973, 0.737060546875, -0.67333984375, -0.554931640625
654, 921830253, -5.488316059112549, 2.0839169025421143, 9.185297012329102, -24.382862091064453, 3.816282033920288, -11.093667984008789, 0.73828125, -0.666259765625, -0.558837890625
655, 921846920, -4.78415584564209, 1.6845755577087402, 8.949658393859863, -16.916067123413086, 4.090128421783447, -6.839328289031982, 0.74072265625, -0.662353515625, -0.560302734375
656, 921863587, -4.172164440155029, 1.029941439628601, 9.169816970825195, -9.327048301696777, 8.112166404724121, -2.3253395557403564, 0.74462890625, -0.659912109375, -0.558837890625
657, 921880254, -4.598768711090088, 1.001965880393982, 9.216911315917969, 2.2554237842559814, 15.30924129486084, -0.9286403059959412, 0.749755859375, -0.661865234375, -0.5576171875
