sep=,
DeviceTag:,A,,,,,,,,,,,,,,,,,
FirmwareVersion:,2.2.1,,,,,,,,,,,,,,,,,
AppVersion:,2022.0.1,,,,,,,,,,,,,,,,,
SyncStatus:,Synced,,,,,,,,,,,,,,,,,
OutputRate:,60Hz,,,,,,,,,,,,,,,,,
FilterProfile:,General,,,,,,,,,,,,,,,,,
Measurement Mode:,Inertial Mode - Rate quantities (with mag),,,,,,,,,,,,,,,,,
StartTime:,2022-08-05 16:28:19.827 +0300,,,,,,,,,,,,,,,,,
© Xsens Technologies B. V. 2005-2022,,,,,,,,,,,,,,,,,,,

PacketCounter,SampleTimeFine,Acc_X,Acc_Y,Acc_Z,Gyr_X,Gyr_Y,Gyr_Z,Mag_X,Mag_Y,Mag_Z
1, 2346855720, -5.252131462097168, 2.020047903060913, 8.059319496154785, -2.5431108474731445, -1.428638219833374, -2.4704861640930176, 0.05517578125, -0.2080078125, -0.82421875
2, 2346872387, -5.240575790405273, 2.038069009780884, 8.071242332458496, -2.4669125080108643, -1.3142004013061523, -2.4310038089752197, 0.0556640625, -0.2080078125, -0.822509765625
3, 2346889054, -5.271337032318115, 2.0112855434417725, 8.06763744354248, -2.515781879425049, -1.2910208702087402, -2.444873332977295, 0.0546875, -0.2099609375, -0.822509765625
4, 2346905721, -5.26270866394043, 2.0288078784942627, 8.053184509277344, -2.567904233932495, -1.3810369968414307, -2.4555792808532715, 0.052978515625, -0.20947265625, -0.82177734375
5, 2346922388, -5.26539945602417, 2.029231548309326, 8.04532527923584, -2.535695791244507, -1.5011732578277588, -2.435703754425049, 0.053955078125, -0.207763671875, -0.821044921875
6, 2346939055, -5.267992973327637, 2.013247013092041, 8.041820526123047, -2.5252842903137207, -1.5055912733078003, -2.3892934322357178, 0.053955078125, -0.2080078125, -0.82275390625
7, 2346955722, -5.261739253997803, 2.037731170654297, 8.068007469177246, -2.594771385192871, -1.575577974319458, -2.5019125938415527, 0.05615234375, -0.21044921875, -0.822021484375
8, 2346972389, -5.266459941864014, 2.0343894958496094, 8.080390930175781, -2.601546287536621, -1.5332276821136475, -2.4363443851470947, 0.054443359375, -0.208984375, -0.822021484375
9, 2346989056, -5.266240119934082, 2.0190117359161377, 8.05751895904541, -2.494126319885254, -1.4877010583877563, -2.4262399673461914, 0.054443359375, -0.20849609375, -0.822021484375
10, 2347005723, -5.269101142883301, 2.022120952606201, 8.062389373779297, -2.419503927230835, -1.569853663444519, -2.2806572914123535, 0.054931640625, -0.20849609375, -0.821044921875
11, 2347022390, -5.255359649658203, 2.039032220840454, 8.06368350982666, -2.377230167388916, -1.5694183111190796, -2.2066879272460938, 0.052978515625, -0.2099609375, -0.82177734375
12, 2347039057, -5.2501349449157715, 2.0304641723632812, 8.075018882751465, -2.384145498275757, -1.5515789985656738, -2.2878541946411133, 0.0546875, -0.208984375, -0.82421875
13, 2347055724, -5.275308609008789, 2.0345075130462646, 8.045576095581055, -2.4050328731536865, -1.489532232284546, -2.2725765705108643, 0.054443359375, -0.20849609375, -0.82275390625
14, 2347072391, -5.248242378234863, 2.0142641067504883, 8.058610916137695, -2.30328631401062, -1.4375897645950317, -2.3657174110412598, 0.053955078125, -0.20947265625, -0.82275390625
15, 2347089058, -5.262854099273682, 2.004723310470581, 8.044227600097656, -2.463416814804077, -1.5111750364303589, -2.260871410369873, 0.053955078125, -0.2109375, -0.822021484375
16, 2347105725, -5.25919771194458, 2.0288991928100586, 8.066736221313477, -2.4177491664886475, -1.700952172279358, -2.31040620803833, 0.0556640625, -0.208984375, -0.823486328125
17, 2347122392, -5.260756492614746, 2.0294055938720703, 8.061399459838867, -2.475736379623413, -1.7912497520446777, -2.1585872173309326, 0.053466796875, -0.20849609375, -0.822265625
18, 2347139059, -5.253029823303223, 2.021456718444824, 8.088334083557129, -2.4955480098724365, -1.7764713764190674, -2.2008352279663086, 0.05615234375, -0.21044921875, -0.82568359375
19, 2347155726, -5.250202655792236, 2.0470073223114014, 8.056052207946777, -2.523324728012085, -1.7044225931167603, -2.1437442302703857, 0.052978515625, -0.21142578125, -0.82275390625
20, 2347172393, -5.2442097663879395, 2.0575616359710693, 8.05113697052002, -2.5887653827667236, -1.7322254180908203, -2.312852621078491, 0.05615234375, -0.20947265625, -0.822509765625
21, 2347189060, -5.2625651359558105, 2.0195581912994385, 8.043720245361328, -2.60579776763916, -1.7345689535140991, -2.303222179412842, 0.052490234375, -0.21044921875, -0.8212890625
22, 2347205727, -5.24898099899292, 2.03499436378479, 8.057673454284668, -2.695071220397949, -1.9204148054122925, -2.302069902420044, 0.052978515625, -0.20947265625, -0.820556640625
23, 2347222394, -5.267862796783447, 2.024879217147827, 8.053853988647461, -2.592287302017212, -1.8015334606170654, -2.1462035179138184, 0.053466796875, -0.21044921875, -0.822021484375
24, 2347239061, -5.256300926208496, 2.0246052742004395, 8.052461624145508, -2.54476261138916, -1.8099600076675415, -1.971921682357788, 0.052001953125, -0.20947265625, -0.82177734375
25, 2347255728, -5.25438117980957, 2.028130292892456, 8.064136505126953, -2.589789390563965, -1.7256171703338623, -1.9249351024627686, 0.054443359375, -0.208984375, -0.8232421875
26, 2347272395, -5.2448015213012695, 2.0316567420959473, 8.07730770111084, -2.476069211959839, -1.7268465757369995, -1.972267508506775, 0.053466796875, -0.2099609375, -0.822021484375
27, 2347289062, -5.246953964233398, 2.0660696029663086, 8.05733585357666, -2.2865865230560303, -1.7622816562652588, -1.770990014076233, 0.054443359375, -0.21044921875, -0.822509765625
28, 2347305729, -5.244665622711182, 2.0191798210144043, 8.088069915771484, -2.4023690223693848, -1.7910577058792114, -1.952789068222046, 0.052490234375, -0.21044921875, -0.8212890625
29, 2347322396, -5.2333784103393555, 2.0560333728790283, 8.061299324035645, -2.4466657638549805, -1.7055623531341553, -1.8835196495056152, 0.053955078125, -0.21044921875, -0.822509765625
30, 2347339063, -5.238822937011719, 2.0452678203582764, 8.0662260055542, -2.469346046447754, -1.9057258367538452, -1.9198511838912964, 0.053466796875, -0.21142578125, -0.82568359375
31, 2347355730, -5.217931270599365, 2.062148332595825, 8.068107604980469, -2.575356960296631, -1.9022042751312256, -1.9630341529846191, 0.053955078125, -0.2119140625, -0.82421875
32, 2347372397, -5.226528644561768, 2.0697379112243652, 8.080914497375488, -2.712141990661621, -1.8007522821426392, -2.2523810863494873, 0.051025390625, -0.21142578125, -0.82373046875
33, 2347389064, -5.220197677612305, 2.053943634033203, 8.059698104858398, -2.7201201915740967, -1.7388975620269775, -2.2869069576263428, 0.052490234375, -0.20947265625, -0.8232421875
34, 2347405731, -5.232011318206787, 2.027488946914673, 8.066962242126465, -2.7261009216308594, -1.6719589233398438, -2.260666847229004, 0.052978515625, -0.207763671875, -0.82080078125
35, 2347422398, -5.217767238616943, 2.020390510559082, 8.065013885498047, -2.545236825942993, -1.6417357921600342, -2.2305331230163574, 0.052978515625, -0.20947265625, -0.82421875
36, 2347439065, -5.226537227630615, 2.03286075592041, 8.043545722961426, -2.5032572746276855, -1.671433687210083, -2.231865167617798, 0.052001953125, -0.21044921875, -0.82373046875
37, 2347455732, -5.2262492179870605, 2.053891897201538, 8.074685096740723, -2.6237142086029053, -1.6276745796203613, -2.2264740467071533, 0.053466796875, -0.2109375, -0.82373046875
38, 2347472399, -5.220459461212158, 2.058406352996826, 8.088839530944824, -2.6293106079101562, -1.6230002641677856, -2.3187053203582764, 0.051025390625, -0.208984375, -0.8232421875
39, 2347489066, -5.223765850067139, 2.0548415184020996, 8.061192512512207, -2.743901491165161, -1.7397042512893677, -2.318449020385742, 0.052001953125, -0.20947265625, -0.8212890625
40, 2347505733, -5.2167134284973145, 2.0335562229156494, 8.084681510925293, -2.7471415996551514, -1.701836109161377, -2.4163150787353516, 0.053466796875, -0.21044921875, -0.818603515625
41, 2347522400, -5.215837478637695, 2.061112642288208, 8.065013885498047, -2.6291184425354004, -1.6865068674087524, -2.4421839714050293, 0.051513671875, -0.208984375, -0.82470703125
42, 2347539067, -5.217411994934082, 2.048740863800049, 8.082069396972656, -2.650479555130005, -1.6094768047332764, -2.495163679122925, 0.052001953125, -0.21044921875, -0.82373046875
43, 2347555734, -5.221382141113281, 2.041353464126587, 8.07791519165039, -2.6854281425476074, -1.562298059463501, -2.4431188106536865, 0.051025390625, -0.208251953125, -0.82177734375
44, 2347572401, -5.218227386474609, 2.0342345237731934, 8.055590629577637, -2.5291519165039062, -1.4113495349884033, -2.4482924938201904, 0.050537109375, -0.20947265625, -0.8212890625
45, 2347589068, -5.214888572692871, 2.04850172996521, 8.079285621643066, -2.48622465133667, -1.4560948610305786, -2.4347050189971924, 0.052001953125, -0.2099609375, -0.8232421875
46, 2347605735, -5.222950458526611, 2.0479884147644043, 8.07861042022705, -2.5094168186187744, -1.4394208192825317, -2.461585283279419, 0.050537109375, -0.21044921875, -0.822265625
47, 2347622402, -5.232988357543945, 2.034895896911621, 8.049785614013672, -2.628042697906494, -1.5091900825500488, -2.410142421722412, 0.051513671875, -0.2099609375, -0.8232421875
48, 2347639069, -5.2176008224487305, 2.0494673252105713, 8.07226848602295, -2.571553945541382, -1.6289807558059692, -2.399282932281494, 0.050537109375, -0.208984375, -0.82373046875
49, 2347655736, -5.218568801879883, 2.0343093872070312, 8.08446216583252, -2.55586576461792, -1.5368388891220093, -2.3452911376953125, 0.051513671875, -0.20947265625, -0.82421875
50, 2347672403, -5.2324604988098145, 2.054112195968628, 8.078014373779297, -2.658393621444702, -1.4775582551956177, -2.549001932144165, 0.051513671875, -0.208984375, -0.82373046875
51, 2347689070, -5.216373920440674, 2.05641770362854, 8.07292652130127, -2.69815731048584, -1.5597753524780273, -2.5787124633789062, 0.051025390625, -0.2109375, -0.8212890625
52, 2347705737, -5.221163749694824, 2.038754463195801, 8.07865047454834, -2.709772825241089, -1.4882644414901733, -2.566751718521118, 0.051513671875, -0.2099609375, -0.8232421875
53, 2347722404, -5.225186824798584, 2.0196244716644287, 8.090113639831543, -2.6872591972351074, -1.4554675817489624, -2.492295503616333, 0.052001953125, -0.20849609375, -0.82373046875
54, 2347739071, -5.224458694458008, 2.045071601867676, 8.069957733154297, -2.6662824153900146, -1.4454784393310547, -2.456514358520508, 0.050537109375, -0.208984375, -0.82177734375
55, 2347755738, -5.210076332092285, 2.0479319095611572, 8.062212944030762, -2.6073732376098633, -1.441982388496399, -2.5555715560913086, 0.050048828125, -0.20947265625, -0.82275390625
56, 2347772405, -5.234801769256592, 2.0496442317962646, 8.070548057556152, -2.6986310482025146, -1.5237380266189575, -2.497469186782837, 0.050537109375, -0.21044921875, -0.82275390625
57, 2347789072, -5.216676235198975, 2.0361225605010986, 8.069396018981934, -2.632768392562866, -1.4246681928634644, -2.579429864883423, 0.051513671875, -0.20849609375, -0.822265625
58, 2347805739, -5.224783897399902, 2.0479824542999268, 8.084952354431152, -2.5778419971466064, -1.3286333084106445, -2.552036762237549, 0.050537109375, -0.208984375, -0.82177734375
59, 2347822406, -5.237067222595215, 2.031125783920288, 8.083252906799316, -2.6263136863708496, -1.4302645921707153, -2.4996461868286133, 0.053955078125, -0.20947265625, -0.8232421875
60, 2347839073, -5.243472099304199, 2.0248868465423584, 8.05858039855957, -2.613609790802002, -1.5137875080108643, -2.3941473960876465, 0.052978515625, -0.2119140625, -0.82373046875
61, 2347855740, -5.2009406089782715, 2.041759490966797, 8.083162307739258, -2.6352908611297607, -1.5830059051513672, -2.3175270557403564, 0.051513671875, -0.206787109375, -0.82373046875
62, 2347872407, -5.206506729125977, 2.0396666526794434, 8.083720207214355, -2.6044533252716064, -1.5346747636795044, -2.449509382247925, 0.052978515625, -0.20947265625, -0.82373046875
63, 2347889074, -5.204472064971924, 2.0569498538970947, 8.069941520690918, -2.651081085205078, -1.4139618873596191, -2.4943442344665527, 0.050537109375, -0.208251953125, -0.8232421875
64, 2347905741, -5.229428768157959, 2.03905987739563, 8.071435928344727, -2.5521903038024902, -1.337098240852356, -2.4022023677825928, 0.050537109375, -0.2099609375, -0.82177734375
65, 2347922408, -5.237007141113281, 2.0263259410858154, 8.074161529541016, -2.533698081970215, -1.2975010871887207, -2.4195168018341064, 0.050537109375, -0.21142578125, -0.82421875
66, 2347939075, -5.2123918533325195, 2.053618907928467, 8.087326049804688, -2.580390214920044, -1.3707917928695679, -2.435230016708374, 0.051513671875, -0.207275390625, -0.82470703125
67, 2347955742, -5.236414432525635, 2.036090612411499, 8.0811185836792, -2.5097367763519287, -1.3954052925109863, -2.4335391521453857, 0.052490234375, -0.21044921875, -0.82470703125
68, 2347972409, -5.1897406578063965, 2.051762819290161, 8.069962501525879, -2.5594005584716797, -1.3430918455123901, -2.5005171298980713, 0.051513671875, -0.208984375, -0.822265625
69, 2347989076, -5.226868629455566, 2.040189743041992, 8.084936141967773, -2.401920795440674, -1.2860009670257568, -2.364039659500122, 0.050537109375, -0.20947265625, -0.82373046875
70, 2348005743, -5.2679548263549805, 2.0282680988311768, 8.079242706298828, -2.4837658405303955, -1.284925103187561, -2.39681077003479, 0.050048828125, -0.2099609375, -0.8212890625
71, 2348022410, -5.246152877807617, 2.0251176357269287, 8.083420753479004, -2.426227331161499, -1.407725214958191, -2.2760984897613525, 0.049560546875, -0.21044921875, -0.82568359375
72, 2348039077, -5.235649585723877, 2.034982204437256, 8.059896469116211, -2.533416271209717, -1.6216681003570557, -2.205625295639038, 0.049560546875, -0.208251953125, -0.82470703125
73, 2348055744, -5.2137322425842285, 2.0393528938293457, 8.07497787475586, -2.6228177547454834, -1.685341477394104, -2.3026204109191895, 0.052490234375, -0.2099609375, -0.82568359375
74, 2348072411, -5.2111029624938965, 2.058582067489624, 8.075820922851562, -2.6577401161193848, -1.7012341022491455, -2.350375175476074, 0.050537109375, -0.2099609375, -0.8232421875
75, 2348089078, -5.214092254638672, 2.0568437576293945, 8.074894905090332, -2.6133408546447754, -1.728165864944458, -2.2224395275115967, 0.051513671875, -0.2099609375, -0.8232421875
76, 2348105745, -5.20894193649292, 2.046522378921509, 8.05977725982666, -2.721989870071411, -1.694088101387024, -2.394044876098633, 0.052001953125, -0.2099609375, -0.82568359375
77, 2348122412, -5.192903518676758, 2.043004035949707, 8.073042869567871, -2.6523361206054688, -1.6508668661117554, -2.3313581943511963, 0.051025390625, -0.208984375, -0.8212890625
78, 2348139079, -5.242884159088135, 2.0302319526672363, 8.080275535583496, -2.6814961433410645, -1.6220908164978027, -2.3652050495147705, 0.051025390625, -0.20947265625, -0.8251953125
79, 2348155746, -5.238707065582275, 2.029806137084961, 8.083545684814453, -2.593977928161621, -1.7741279602050781, -2.2508444786071777, 0.052978515625, -0.208984375, -0.82470703125
80, 2348172413, -5.249988079071045, 2.0227551460266113, 8.074177742004395, -2.4942800998687744, -1.7140403985977173, -2.0070881843566895, 0.051025390625, -0.2099609375, -0.822265625
81, 2348189080, -5.253653049468994, 2.031035900115967, 8.072829246520996, -2.290287733078003, -1.7651634216308594, -1.7793784141540527, 0.050048828125, -0.21044921875, -0.82373046875
82, 2348205747, -5.239840507507324, 2.0235016345977783, 8.103322982788086, -2.203153133392334, -1.7498468160629272, -1.4642139673233032, 0.049560546875, -0.2099609375, -0.8232421875
83, 2348222414, -5.223328590393066, 2.0337793827056885, 8.099979400634766, -2.0729892253875732, -1.5878208875656128, -1.4222476482391357, 0.050537109375, -0.21044921875, -0.8203125
84, 2348239081, -5.2039313316345215, 2.060950517654419, 8.085580825805664, -1.6895546913146973, -1.531191349029541, -1.1993659734725952, 0.047607421875, -0.20947265625, -0.823974609375
85, 2348255748, -5.207505226135254, 2.0544650554656982, 8.105405807495117, -1.686468243598938, -1.3710989952087402, -1.2108019590377808, 0.050048828125, -0.2109375, -0.82373046875
86, 2348272415, -5.221772193908691, 2.0383176803588867, 8.074912071228027, -1.862107276916504, -1.2708123922348022, -1.249259352684021, 0.050537109375, -0.21240234375, -0.82275390625
87, 2348289082, -5.214684009552002, 2.0717153549194336, 8.054146766662598, -1.5059114694595337, -1.2172051668167114, -1.0586754083633423, 0.049560546875, -0.2109375, -0.82275390625
88, 2348305749, -5.206894874572754, 2.05753231048584, 8.09007453918457, -1.4263712167739868, -1.1454256772994995, -1.0878609418869019, 0.050048828125, -0.21142578125, -0.8232421875
89, 2348322416, -5.228821754455566, 2.065502166748047, 8.077505111694336, -1.4210437536239624, -1.075656533241272, -1.0612237453460693, 0.051025390625, -0.2109375, -0.82177734375
90, 2348339083, -5.239679336547852, 2.0761947631835938, 8.06131362915039, -1.43793523311615, -1.0534758567810059, -0.8960088491439819, 0.048583984375, -0.2099609375, -0.8232421875
91, 2348355750, -5.21616792678833, 2.074206590652466, 8.076166152954102, -1.3989144563674927, -0.9946820735931396, -0.8578845262527466, 0.049560546875, -0.21142578125, -0.82470703125
92, 2348372417, -5.249246597290039, 2.07844614982605, 8.060014724731445, -1.4222989082336426, -0.9066254496574402, -0.8042899966239929, 0.051513671875, -0.2138671875, -0.822265625
93, 2348389084, -5.1855010986328125, 2.0714757442474365, 8.108603477478027, -1.2432148456573486, -0.9575180411338806, -0.5282106995582581, 0.050048828125, -0.212890625, -0.82080078125
94, 2348405751, -5.229930877685547, 2.0705223083496094, 8.077634811401367, -1.0931884050369263, -0.8335397243499756, -0.4074084162712097, 0.050048828125, -0.2138671875, -0.8212890625
95, 2348422418, -5.221512317657471, 2.1089553833007812, 8.079107284545898, -1.2009025812149048, -0.7525907158851624, -0.3451439142227173, 0.050537109375, -0.21435546875, -0.8212890625
96, 2348439085, -5.237531661987305, 2.107496976852417, 8.091522216796875, -1.1803869009017944, -0.7512460947036743, -0.37123045325279236, 0.047607421875, -0.2138671875, -0.82275390625
97, 2348455752, -5.173182964324951, 2.1299664974212646, 8.088218688964844, -1.0466374158859253, -1.034420132637024, -0.31921109557151794, 0.048583984375, -0.21484375, -0.8232421875
98, 2348472419, -5.31351375579834, 2.1070306301116943, 8.062630653381348, -1.3845328092575073, -0.866733729839325, -0.33982929587364197, 0.048583984375, -0.21435546875, -0.82275390625
99, 2348489086, -5.144394874572754, 2.1147005558013916, 8.096172332763672, -1.0990408658981323, -1.1881859302520752, -0.3312106132507324, 0.051513671875, -0.21533203125, -0.8232421875
100, 2348505753, -5.229671478271484, 2.1032650470733643, 8.070857048034668, -1.3754788637161255, -0.9655475616455078, -0.30625107884407043, 0.049072265625, -0.21630859375, -0.82177734375
101, 2348522420, -5.116455554962158, 2.1723556518554688, 8.061037063598633, -1.002583384513855, -0.9341207146644592, -0.288565456867218, 0.051025390625, -0.21630859375, -0.822509765625
102, 2348539087, -5.196281909942627, 2.1803317070007324, 8.026196479797363, -1.2364915609359741, -0.8333860039710999, -0.7329842448234558, 0.049560546875, -0.21533203125, -0.82275390625
103, 2348555754, -5.213525295257568, 2.1617960929870605, 8.055150985717773, -1.5000975131988525, -0.7511436939239502, -0.6911331415176392, 0.048583984375, -0.21533203125, -0.82373046875
104, 2348572421, -5.192394256591797, 2.16328763961792, 8.068825721740723, -1.1688995361328125, -0.8406728506088257, -0.6784932017326355, 0.049072265625, -0.2158203125, -0.820068359375
105, 2348589088, -5.2042555809021, 2.1793601512908936, 8.03848648071289, -1.6184409856796265, -0.8402503132820129, -1.0537065267562866, 0.049560546875, -0.216796875, -0.8232421875
106, 2348605755, -5.168988227844238, 2.2003378868103027, 8.066217422485352, -1.5143123865127563, -0.9115815162658691, -0.9909937381744385, 0.049072265625, -0.216796875, -0.821044921875
107, 2348622422, -5.222105979919434, 2.19069504737854, 8.0596342086792, -1.4888277053833008, -0.851378858089447, -1.1257933378219604, 0.047607421875, -0.2158203125, -0.82080078125
108, 2348639089, -5.165544509887695, 2.1991844177246094, 8.0341215133667, -1.692896842956543, -0.9576333165168762, -1.237362265586853, 0.052001953125, -0.21630859375, -0.822509765625
109, 2348655756, -5.164546966552734, 2.214982748031616, 8.02171802520752, -1.868523359298706, -0.968147337436676, -1.553551197052002, 0.047607421875, -0.218017578125, -0.82275390625
110, 2348672423, -5.150074481964111, 2.237617015838623, 8.014634132385254, -2.0732457637786865, -0.8446940779685974, -2.00091552734375, 0.049560546875, -0.220458984375, -0.822998046875
111, 2348689090, -5.196478843688965, 2.220799446105957, 8.029144287109375, -2.327221155166626, -0.9228768348693848, -2.35703444480896, 0.049560546875, -0.2158203125, -0.8232421875
112, 2348705757, -5.2290425300598145, 2.1820108890533447, 8.051841735839844, -2.3485820293426514, -0.9523569941520691, -2.3375940322875977, 0.051513671875, -0.218017578125, -0.819580078125
113, 2348722424, -5.208395481109619, 2.181321144104004, 8.047283172607422, -2.407721757888794, -1.0826488733291626, -2.3888323307037354, 0.051513671875, -0.218994140625, -0.820556640625
114, 2348739091, -5.200460910797119, 2.1987497806549072, 8.046612739562988, -2.532660722732544, -1.1867388486862183, -2.4861350059509277, 0.050537109375, -0.218017578125, -0.822509765625
115, 2348755758, -5.185256004333496, 2.199315071105957, 8.047389030456543, -2.532442569732666, -1.05990469455719, -2.5381033420562744, 0.050537109375, -0.217529296875, -0.82275390625
116, 2348772425, -5.216907501220703, 2.2081782817840576, 8.058706283569336, -2.6304118633270264, -1.0478029251098633, -2.7315945625305176, 0.048583984375, -0.218994140625, -0.821533203125
117, 2348789092, -5.251155376434326, 2.1783106327056885, 8.046745300292969, -2.6950197219848633, -1.0745810270309448, -2.7594358921051025, 0.051513671875, -0.2177734375, -0.819580078125
118, 2348805759, -5.2357025146484375, 2.1971476078033447, 8.051896095275879, -2.7452335357666016, -1.2951704263687134, -2.692842960357666, 0.051513671875, -0.219482421875, -0.820556640625
119, 2348822426, -5.211129665374756, 2.213543653488159, 8.033614158630371, -2.8685197830200195, -1.4046131372451782, -2.814387083053589, 0.051025390625, -0.216796875, -0.820556640625
120, 2348839093, -5.185652732849121, 2.1986820697784424, 8.046591758728027, -2.9592912197113037, -1.2360047101974487, -2.9150192737579346, 0.052978515625, -0.217041015625, -0.822509765625
121, 2348855760, -5.22951078414917, 2.1596899032592773, 8.061087608337402, -2.90579891204834, -1.054846167564392, -2.902597665786743, 0.052490234375, -0.21728515625, -0.821044921875
122, 2348872427, -5.253015995025635, 2.1578898429870605, 8.044565200805664, -2.749318838119507, -1.0680241584777832, -2.798572063446045, 0.052978515625, -0.217529296875, -0.822998046875
123, 2348889094, -5.230167865753174, 2.1840882301330566, 8.041911125183105, -2.8261048793792725, -1.354809284210205, -2.8341729640960693, 0.051513671875, -0.216796875, -0.821533203125
124, 2348905761, -5.244797706604004, 2.15950870513916, 8.032872200012207, -2.8775992393493652, -1.5236226320266724, -2.745028018951416, 0.051513671875, -0.21728515625, -0.820068359375
125, 2348922428, -5.19413948059082, 2.194108724594116, 8.007843017578125, -2.860490083694458, -1.5320106744766235, -2.7485756874084473, 0.048095703125, -0.21630859375, -0.820068359375
126, 2348939095, -5.183671951293945, 2.189171075820923, 8.025894165039062, -2.9737627506256104, -1.3626596927642822, -2.945294141769409, 0.052978515625, -0.216552734375, -0.823486328125
127, 2348955762, -5.222208499908447, 2.1569876670837402, 8.048295021057129, -3.068209648132324, -1.1754052639007568, -3.0843708515167236, 0.052490234375, -0.217041015625, -0.821533203125
128, 2348972429, -5.233181476593018, 2.165095090866089, 8.055850982666016, -2.894260883331299, -1.205167293548584, -3.073549747467041, 0.052978515625, -0.218017578125, -0.824951171875
129, 2348989096, -5.200286865234375, 2.18263578414917, 8.024261474609375, -2.9987735748291016, -1.2898045778274536, -3.1245193481445312, 0.052001953125, -0.217529296875, -0.820556640625
130, 2349005763, -5.238742828369141, 2.18031907081604, 8.042972564697266, -3.0014114379882812, -1.2463524341583252, -3.1720049381256104, 0.052490234375, -0.216796875, -0.821533203125
131, 2349022430, -5.225893497467041, 2.1610052585601807, 8.053668022155762, -2.98317551612854, -1.305863618850708, -3.22987699508667, 0.053466796875, -0.217529296875, -0.821533203125
132, 2349039097, -5.210533142089844, 2.160951852798462, 8.047274589538574, -2.954591751098633, -1.313048005104065, -3.163386344909668, 0.051513671875, -0.2158203125, -0.82275390625
133, 2349055764, -5.197032928466797, 2.1975491046905518, 8.031611442565918, -3.1145689487457275, -1.3145976066589355, -3.3614625930786133, 0.049072265625, -0.21728515625, -0.82275390625
134, 2349072431, -5.218481063842773, 2.1802845001220703, 8.037907600402832, -3.19779634475708, -1.2927751541137695, -3.4746057987213135, 0.052490234375, -0.21533203125, -0.822509765625
135, 2349089098, -5.247959613800049, 2.1451637744903564, 8.043088912963867, -3.2404425144195557, -1.3937920331954956, -3.6300885677337646, 0.052490234375, -0.218017578125, -0.822021484375
136, 2349105765, -5.222712993621826, 2.1519486904144287, 8.045014381408691, -3.275954008102417, -1.364017128944397, -3.6392059326171875, 0.051025390625, -0.21630859375, -0.82275390625
137, 2349122432, -5.226186275482178, 2.182018756866455, 8.061864852905273, -3.2694742679595947, -1.3771181106567383, -3.801027536392212, 0.053466796875, -0.216796875, -0.820556640625
138, 2349139099, -5.233235836029053, 2.1258320808410645, 8.06041145324707, -3.1748223304748535, -1.2619506120681763, -3.639270305633545, 0.051513671875, -0.21435546875, -0.822021484375
139, 2349155766, -5.211862087249756, 2.154698133468628, 8.052800178527832, -3.246025562286377, -1.3625061511993408, -3.803370714187622, 0.052001953125, -0.2138671875, -0.822265625
140, 2349172433, -5.239986896514893, 2.1161983013153076, 8.055167198181152, -3.1155548095703125, -1.4524195194244385, -3.7558467388153076, 0.052001953125, -0.2158203125, -0.822509765625
141, 2349189100, -5.287478446960449, 2.132272243499756, 8.058526039123535, -3.0815277099609375, -1.2996652126312256, -3.5807836055755615, 0.050537109375, -0.21484375, -0.82177734375
142, 2349205767, -5.212157726287842, 2.128160238265991, 8.0521240234375, -3.054250955581665, -1.284387469291687, -3.4672813415527344, 0.053466796875, -0.2158203125, -0.822021484375
143, 2349222434, -5.216949939727783, 2.133446216583252, 8.058789253234863, -3.0931308269500732, -1.3143030405044556, -3.503612518310547, 0.051025390625, -0.216552734375, -0.826171875
144, 2349239101, -5.266284465789795, 2.0757832527160645, 8.063811302185059, -2.937776803970337, -1.2670347690582275, -3.4125723838806152, 0.052001953125, -0.21533203125, -0.82373046875
145, 2349255768, -5.214625835418701, 2.1473755836486816, 8.05402660369873, -3.1214709281921387, -1.3161853551864624, -3.5158679485321045, 0.053955078125, -0.21533203125, -0.822021484375
146, 2349272435, -5.261331081390381, 2.116652488708496, 8.045194625854492, -2.9635562896728516, -1.1391762495040894, -3.513537883758545, 0.052490234375, -0.2138671875, -0.821044921875
147, 2349289102, -5.240309238433838, 2.1157002449035645, 8.032322883605957, -2.7835886478424072, -1.1831403970718384, -3.3692104816436768, 0.05517578125, -0.21435546875, -0.821044921875
148, 2349305769, -5.2502875328063965, 2.1153416633605957, 8.055727005004883, -3.024040699005127, -1.099489450454712, -3.5040483474731445, 0.053955078125, -0.2138671875, -0.820556640625
149, 2349322436, -5.241629600524902, 2.0988237857818604, 8.063382148742676, -2.858454465866089, -1.0901150703430176, -3.4136738777160645, 0.054443359375, -0.2138671875, -0.821044921875
150, 2349339103, -5.222362995147705, 2.1059556007385254, 8.054152488708496, -2.780745267868042, -0.84883052110672, -3.3672635555267334, 0.0546875, -0.21533203125, -0.824462890625
151, 2349355770, -5.21998929977417, 2.11606502532959, 8.04189682006836, -2.6240851879119873, -0.8928202390670776, -3.3611929416656494, 0.0556640625, -0.21142578125, -0.822509765625
152, 2349372437, -5.293684005737305, 2.071972608566284, 8.043673515319824, -2.696223497390747, -0.9931836724281311, -3.4044272899627686, 0.0546875, -0.2119140625, -0.822998046875
153, 2349389104, -5.269182205200195, 2.0929150581359863, 8.059236526489258, -2.7286746501922607, -1.0774621963500977, -3.204737901687622, 0.05615234375, -0.212890625, -0.822021484375
154, 2349405771, -5.2515645027160645, 2.1095211505889893, 8.043435096740723, -2.7583982944488525, -1.231906771659851, -3.2239341735839844, 0.053466796875, -0.21533203125, -0.821044921875
155, 2349422438, -5.270174026489258, 2.105510711669922, 8.051599502563477, -2.9434375762939453, -1.2911362648010254, -3.268385648727417, 0.054931640625, -0.2138671875, -0.820068359375
156, 2349439105, -5.246875762939453, 2.0800583362579346, 8.034488677978516, -2.9461264610290527, -1.3148409128189087, -3.2465124130249023, 0.053955078125, -0.21533203125, -0.821533203125
157, 2349455772, -5.247110843658447, 2.109292984008789, 8.05241870880127, -2.6485064029693604, -1.2535239458084106, -3.196298122406006, 0.05517578125, -0.21240234375, -0.822998046875
158, 2349472439, -5.258899688720703, 2.0782723426818848, 8.042924880981445, -2.565150260925293, -1.2666890621185303, -3.2511227130889893, 0.053955078125, -0.21337890625, -0.822509765625
159, 2349489106, -5.2607316970825195, 2.1094982624053955, 8.05286979675293, -2.740635871887207, -1.1270099878311157, -3.2724194526672363, 0.052490234375, -0.212890625, -0.821533203125
160, 2349505773, -5.287773132324219, 2.0720090866088867, 8.033839225769043, -2.76322603225708, -1.273732304573059, -3.1990773677825928, 0.053466796875, -0.21240234375, -0.820068359375
161, 2349522440, -5.242373466491699, 2.0831656455993652, 8.018921852111816, -2.5670714378356934, -1.3704843521118164, -3.1976687908172607, 0.05615234375, -0.212890625, -0.821533203125
162, 2349539107, -5.248836994171143, 2.1070594787597656, 8.059840202331543, -2.688859701156616, -1.4173426628112793, -3.1781389713287354, 0.056640625, -0.21240234375, -0.822021484375
163, 2349555774, -5.247048854827881, 2.108819007873535, 8.036710739135742, -2.493370771408081, -1.5560355186462402, -3.038191080093384, 0.056640625, -0.21240234375, -0.821044921875
164, 2349572441, -5.289713382720947, 2.090907335281372, 8.024240493774414, -2.5923893451690674, -1.4218506813049316, -3.0272672176361084, 0.05517578125, -0.21435546875, -0.822021484375
165, 2349589108, -5.284313678741455, 2.085697650909424, 8.033900260925293, -2.688117027282715, -1.4017959833145142, -3.1295132637023926, 0.054443359375, -0.2138671875, -0.821533203125
166, 2349605775, -5.294538497924805, 2.0567917823791504, 8.067178726196289, -2.547938585281372, -1.3998876810073853, -2.943129777908325, 0.054443359375, -0.212890625, -0.822021484375
167, 2349622442, -5.270398139953613, 2.084352493286133, 8.038788795471191, -2.5271542072296143, -1.4804015159606934, -2.8304083347320557, 0.05517578125, -0.212890625, -0.820556640625
168, 2349639109, -5.25678825378418, 2.1037614345550537, 8.051382064819336, -2.5377962589263916, -1.4585025310516357, -2.8109045028686523, 0.054443359375, -0.21337890625, -0.822021484375
169, 2349655776, -5.25684118270874, 2.0820348262786865, 8.052362442016602, -2.5050504207611084, -1.3792697191238403, -2.864780902862549, 0.054443359375, -0.21142578125, -0.821533203125
170, 2349672443, -5.276561737060547, 2.0560293197631836, 8.067020416259766, -2.407978057861328, -1.2306007146835327, -2.639824151992798, 0.0546875, -0.21533203125, -0.823486328125
171, 2349689110, -5.273066997528076, 2.086383104324341, 8.058445930480957, -2.3343162536621094, -1.2424721717834473, -2.5203282833099365, 0.0556640625, -0.21142578125, -0.822509765625
172, 2349705777, -5.276866912841797, 2.0759711265563965, 8.046299934387207, -2.2128734588623047, -1.125511646270752, -2.606630325317383, 0.054443359375, -0.21435546875, -0.819580078125
173, 2349722444, -5.277120590209961, 2.0646278858184814, 8.033584594726562, -2.145998477935791, -1.1326320171356201, -2.5133230686187744, 0.05712890625, -0.212890625, -0.821533203125
174, 2349739111, -5.256311416625977, 2.1102166175842285, 8.035051345825195, -2.2608842849731445, -1.2178453207015991, -2.484585762023926, 0.05517578125, -0.21337890625, -0.824951171875
175, 2349755778, -5.280149936676025, 2.094749927520752, 8.042922019958496, -2.289468288421631, -1.2562901973724365, -2.4681293964385986, 0.05419921875, -0.21533203125, -0.823486328125
176, 2349772445, -5.258742809295654, 2.09289288520813, 8.026793479919434, -2.3000972270965576, -1.336777925491333, -2.4134461879730225, 0.0556640625, -0.21337890625, -0.822509765625
177, 2349789112, -5.264732837677002, 2.091262102127075, 8.029552459716797, -2.360351085662842, -1.4520095586776733, -2.4914753437042236, 0.054931640625, -0.21484375, -0.820068359375
178, 2349805779, -5.260109901428223, 2.085557699203491, 8.04179859161377, -2.357456922531128, -1.2743598222732544, -2.635162591934204, 0.0556640625, -0.21337890625, -0.820556640625
179, 2349822446, -5.255863666534424, 2.098851203918457, 8.035955429077148, -2.3172450065612793, -1.1683361530303955, -2.632127523422241, 0.053955078125, -0.21337890625, -0.821044921875
180, 2349839113, -5.285539627075195, 2.0720057487487793, 8.04360580444336, -2.3524622917175293, -1.1776847839355469, -2.5351576805114746, 0.056640625, -0.21484375, -0.822021484375
181, 2349855780, -5.285138130187988, 2.0809998512268066, 8.044198036193848, -2.1807548999786377, -1.264012336730957, -2.4558866024017334, 0.0546875, -0.21484375, -0.822021484375
182, 2349872447, -5.266921043395996, 2.096646785736084, 8.024170875549316, -2.246643304824829, -1.3355357646942139, -2.4243826866149902, 0.05615234375, -0.21142578125, -0.823486328125
183, 2349889114, -5.264468669891357, 2.0820024013519287, 8.019702911376953, -2.2503957748413086, -1.3113319873809814, -2.48234486579895, 0.05517578125, -0.21435546875, -0.820068359375
184, 2349905781, -5.271389961242676, 2.068908214569092, 8.034053802490234, -2.1371238231658936, -1.2910082340240479, -2.4044947624206543, 0.05615234375, -0.2158203125, -0.822021484375
185, 2349922448, -5.2573676109313965, 2.101898431777954, 8.042889595031738, -2.1292223930358887, -1.1489472389221191, -2.4612009525299072, 0.056640625, -0.21484375, -0.822021484375
186, 2349939115, -5.276520729064941, 2.0960819721221924, 8.047414779663086, -2.0684304237365723, -1.1133838891983032, -2.3959271907806396, 0.0576171875, -0.21240234375, -0.821044921875
187, 2349955782, -5.2553300857543945, 2.1115734577178955, 8.020466804504395, -2.0915966033935547, -1.2349547147750854, -2.5236189365386963, 0.053466796875, -0.21240234375, -0.8232421875
188, 2349972449, -5.261236667633057, 2.096237897872925, 8.040372848510742, -2.0647549629211426, -1.1933852434158325, -2.5894949436187744, 0.0546875, -0.2138671875, -0.822021484375
189, 2349989116, -5.263984203338623, 2.100020170211792, 8.036681175231934, -2.0272576808929443, -1.0804845094680786, -2.606616973876953, 0.0556640625, -0.21533203125, -0.821044921875
190, 2350005783, -5.287353992462158, 2.0981438159942627, 8.036094665527344, -2.061783790588379, -1.13137686252594, -2.575279951095581, 0.05517578125, -0.2158203125, -0.822021484375
191, 2350022450, -5.2508063316345215, 2.121222734451294, 8.0313081741333, -2.095144510269165, -1.155478596687317, -2.582426071166992, 0.056640625, -0.21484375, -0.820068359375
192, 2350039117, -5.275134086608887, 2.105076789855957, 8.030508041381836, -2.058671712875366, -1.0393121242523193, -2.6430768966674805, 0.056640625, -0.21484375, -0.820556640625
193, 2350055784, -5.282937526702881, 2.094846725463867, 8.056926727294922, -1.7173699140548706, -1.189786672592163, -2.4861860275268555, 0.054443359375, -0.21435546875, -0.821044921875
194, 2350072451, -5.300930976867676, 2.0909976959228516, 8.028428077697754, -2.034531831741333, -1.0632599592208862, -2.275777578353882, 0.056640625, -0.21435546875, -0.824951171875
195, 2350089118, -5.297999382019043, 2.0994856357574463, 8.036088943481445, -2.0412168502807617, -1.0589185953140259, -2.336505651473999, 0.05615234375, -0.21484375, -0.819580078125
196, 2350105785, -5.274101257324219, 2.1172726154327393, 8.030743598937988, -2.1866841316223145, -1.2727974653244019, -2.2966649532318115, 0.056640625, -0.2158203125, -0.818359375
197, 2350122452, -5.270748138427734, 2.116769790649414, 8.020378112792969, -2.216766595840454, -1.113499402999878, -2.4679503440856934, 0.0576171875, -0.21484375, -0.81982421875
198, 2350139119, -5.269678115844727, 2.1197874546051025, 8.033202171325684, -2.248628616333008, -1.154594898223877, -2.568557024002075, 0.053466796875, -0.21533203125, -0.820556640625
199, 2350155786, -5.290767669677734, 2.1183922290802, 8.039199829101562, -2.2447738647460938, -1.199724555015564, -2.546440362930298, 0.05712890625, -0.212890625, -0.819580078125
200, 2350172453, -5.285772323608398, 2.094712972640991, 8.025444030761719, -2.2508184909820557, -1.169578194618225, -2.4595236778259277, 0.056640625, -0.21533203125, -0.81982421875
201, 2350189120, -5.2620134353637695, 2.1097023487091064, 8.01894474029541, -2.1710476875305176, -1.2187546491622925, -2.4661314487457275, 0.05810546875, -0.216064453125, -0.82080078125
202, 2350205787, -5.265884876251221, 2.1094605922698975, 8.032350540161133, -2.18723464012146, -1.0867211818695068, -2.5324811935424805, 0.05810546875, -0.218017578125, -0.82080078125
203, 2350222454, -5.291354179382324, 2.1140859127044678, 8.031476020812988, -2.1476378440856934, -1.0115607976913452, -2.537719249725342, 0.05712890625, -0.2158203125, -0.81982421875
204, 2350239121, -5.288036346435547, 2.11132550239563, 8.02117919921875, -2.120091199874878, -1.0504919290542603, -2.5983057022094727, 0.05712890625, -0.218017578125, -0.82080078125
205, 2350255788, -5.310359001159668, 2.1139004230499268, 8.020185470581055, -2.173865556716919, -1.1810145378112793, -2.460689067840576, 0.05712890625, -0.216552734375, -0.821044921875
206, 2350272455, -5.281555652618408, 2.126699686050415, 8.015816688537598, -2.269246816635132, -1.3071696758270264, -2.4319002628326416, 0.05712890625, -0.216064453125, -0.821044921875
207, 2350289122, -5.271416664123535, 2.110682725906372, 8.018335342407227, -2.3324077129364014, -1.3505192995071411, -2.496469736099243, 0.0556640625, -0.21533203125, -0.819580078125
208, 2350305789, -5.263980388641357, 2.114809274673462, 8.00542163848877, -2.2700023651123047, -1.264434814453125, -2.421757459640503, 0.055419921875, -0.21630859375, -0.81884765625
209, 2350322456, -5.28309965133667, 2.121905565261841, 8.040228843688965, -2.288379669189453, -1.1379978656768799, -2.498992681503296, 0.05615234375, -0.21435546875, -0.818359375
210, 2350339123, -5.309802532196045, 2.102402687072754, 8.017258644104004, -2.2126169204711914, -1.0696375370025635, -2.4590110778808594, 0.05859375, -0.216552734375, -0.82080078125
211, 2350355790, -5.297070026397705, 2.1255054473876953, 8.020984649658203, -2.265058994293213, -1.2863849401474, -2.4126904010772705, 0.054931640625, -0.2138671875, -0.819580078125
212, 2350372457, -5.300110340118408, 2.136040210723877, 8.005099296569824, -2.332087516784668, -1.3782321214675903, -2.3414359092712402, 0.0595703125, -0.216064453125, -0.82177734375
213, 2350389124, -5.260006904602051, 2.135631561279297, 8.018126487731934, -2.487210750579834, -1.2454814910888672, -2.4598562717437744, 0.05810546875, -0.216064453125, -0.81982421875
214, 2350405791, -5.2719902992248535, 2.131983757019043, 8.018698692321777, -2.470216989517212, -1.3582160472869873, -2.50402569770813, 0.05859375, -0.216552734375, -0.823974609375
215, 2350422458, -5.2970709800720215, 2.1041393280029297, 8.002671241760254, -2.4438741207122803, -1.3024698495864868, -2.5181894302368164, 0.05712890625, -0.216552734375, -0.821044921875
216, 2350439125, -5.3121562004089355, 2.116286277770996, 7.9973273277282715, -2.5272693634033203, -1.3816131353378296, -2.4240243434906006, 0.0556640625, -0.216552734375, -0.820556640625
217, 2350455792, -5.292946815490723, 2.133122205734253, 8.005118370056152, -2.5190091133117676, -1.6268163919448853, -2.374310255050659, 0.05810546875, -0.218017578125, -0.8212890625
218, 2350472459, -5.283027172088623, 2.123342990875244, 8.015859603881836, -2.746821641921997, -1.619888186454773, -2.458550453186035, 0.05908203125, -0.216064453125, -0.82080078125
219, 2350489126, -5.2734198570251465, 2.1304190158843994, 8.023487091064453, -2.711745023727417, -1.6325151920318604, -2.5513839721679688, 0.0576171875, -0.217041015625, -0.8203125
220, 2350505793, -5.285965919494629, 2.08677077293396, 8.024149894714355, -2.5950279235839844, -1.5268886089324951, -2.498647451400757, 0.053955078125, -0.21630859375, -0.820556640625
221, 2350522460, -5.292118549346924, 2.101574420928955, 8.026931762695312, -2.515590190887451, -1.4209926128387451, -2.3890247344970703, 0.05712890625, -0.216552734375, -0.8203125
222, 2350539127, -5.303836345672607, 2.116102933883667, 8.035903930664062, -2.5259885787963867, -1.4841663837432861, -2.388448476791382, 0.05810546875, -0.217041015625, -0.8193359375
223, 2350555794, -5.276042461395264, 2.132917642593384, 7.990779399871826, -2.462648630142212, -1.5822502374649048, -2.3277463912963867, 0.05712890625, -0.217041015625, -0.8193359375
224, 2350572461, -5.273886203765869, 2.1201210021972656, 8.012497901916504, -2.331498861312866, -1.5254157781600952, -2.299034357070923, 0.0576171875, -0.217041015625, -0.822998046875
225, 2350589128, -5.2725138664245605, 2.1237952709198, 8.022933006286621, -2.310649871826172, -1.3747745752334595, -2.482844114303589, 0.0576171875, -0.217041015625, -0.822021484375
226, 2350605795, -5.282095909118652, 2.1302809715270996, 8.004302024841309, -2.430415153503418, -1.3106660842895508, -2.351860523223877, 0.0576171875, -0.217041015625, -0.81982421875
227, 2350622462, -5.288656234741211, 2.1325488090515137, 8.026987075805664, -2.5218138694763184, -1.3922810554504395, -2.5475802421569824, 0.05859375, -0.21484375, -0.8193359375
228, 2350639129, -5.295291900634766, 2.128354072570801, 8.02396011352539, -2.431912899017334, -1.3693830966949463, -2.466656446456909, 0.05712890625, -0.21630859375, -0.81982421875
229, 2350655796, -5.273778438568115, 2.1332993507385254, 8.020528793334961, -2.3810842037200928, -1.360111117362976, -2.3943262100219727, 0.05712890625, -0.21533203125, -0.81982421875
230, 2350672463, -5.2995381355285645, 2.1207070350646973, 8.043166160583496, -2.493178606033325, -1.2521535158157349, -2.4254581928253174, 0.05712890625, -0.21533203125, -0.81982421875
231, 2350689130, -5.284881591796875, 2.1279027462005615, 8.02737045288086, -2.3980531692504883, -1.2904831171035767, -2.3166303634643555, 0.05810546875, -0.218505859375, -0.8212890625
232, 2350705797, -5.293546676635742, 2.132791519165039, 8.004073143005371, -2.4324123859405518, -1.432800054550171, -2.318897008895874, 0.0576171875, -0.218017578125, -0.8203125
233, 2350722464, -5.284454345703125, 2.1320276260375977, 8.018255233764648, -2.4909887313842773, -1.4247064590454102, -2.3703529834747314, 0.0576171875, -0.218994140625, -0.81689453125
234, 2350739131, -5.278492450714111, 2.144951343536377, 8.018420219421387, -2.483996629714966, -1.4454015493392944, -2.348236322402954, 0.056640625, -0.217529296875, -0.822021484375
235, 2350755798, -5.299053192138672, 2.115098237991333, 8.02670955657959, -2.64264178276062, -1.5946085453033447, -2.3543198108673096, 0.0576171875, -0.216552734375, -0.81982421875
236, 2350772465, -5.2980451583862305, 2.125918388366699, 8.015608787536621, -2.670457124710083, -1.7265523672103882, -2.437253475189209, 0.0556640625, -0.217041015625, -0.820556640625
237, 2350789132, -5.292086124420166, 2.1242644786834717, 8.009209632873535, -2.7097980976104736, -1.7158079147338867, -2.406877040863037, 0.05810546875, -0.217529296875, -0.8203125
238, 2350805799, -5.29359769821167, 2.1241657733917236, 8.023805618286133, -2.657228469848633, -1.813840389251709, -2.3398871421813965, 0.05712890625, -0.21533203125, -0.822021484375
239, 2350822466, -5.276704788208008, 2.1325905323028564, 8.039214134216309, -2.719620704650879, -1.7792885303497314, -2.523324728012085, 0.056640625, -0.21630859375, -0.81884765625
240, 2350839133, -5.288401126861572, 2.129185676574707, 8.034380912780762, -2.6754262447357178, -1.6905666589736938, -2.2147176265716553, 0.0576171875, -0.215576171875, -0.822021484375
241, 2350855800, -5.2928595542907715, 2.1058809757232666, 8.032462120056152, -2.66418194770813, -1.775152325630188, -2.2162156105041504, 0.0576171875, -0.216552734375, -0.8203125
242, 2350872467, -5.270256996154785, 2.148038387298584, 8.02023983001709, -2.6430516242980957, -1.9257807731628418, -2.3450992107391357, 0.056640625, -0.216552734375, -0.821533203125
243, 2350889134, -5.2676568031311035, 2.1338958740234375, 8.024957656860352, -2.6457793712615967, -1.7839760780334473, -2.255582809448242, 0.056640625, -0.217041015625, -0.822509765625
244, 2350905801, -5.278361797332764, 2.132951498031616, 8.031661987304688, -2.6487762928009033, -1.7655221223831177, -2.371070623397827, 0.056640625, -0.218505859375, -0.8193359375
245, 2350922468, -5.293524265289307, 2.102393388748169, 8.03292465209961, -2.713973045349121, -1.8368406295776367, -2.279543399810791, 0.05615234375, -0.218505859375, -0.81982421875
246, 2350939135, -5.308385372161865, 2.100205659866333, 8.035043716430664, -2.759063959121704, -2.0335073471069336, -2.243544340133667, 0.0546875, -0.2158203125, -0.820556640625
247, 2350955802, -5.317384719848633, 2.1096086502075195, 8.022041320800781, -2.7274582386016846, -2.2005152702331543, -2.052666187286377, 0.0546875, -0.2158203125, -0.821533203125
248, 2350972469, -5.257818698883057, 2.140684127807617, 8.022451400756836, -2.7504324913024902, -2.4285833835601807, -1.9559392929077148, 0.05615234375, -0.21630859375, -0.81982421875
249, 2350989136, -5.174598693847656, 2.1995341777801514, 8.0244779586792, -2.96537446975708, -2.2759830951690674, -2.2271015644073486, 0.05517578125, -0.217041015625, -0.820556640625
250, 2351005803, -5.228187084197998, 2.135432720184326, 8.032099723815918, -2.997608184814453, -1.8754005432128906, -2.6523361206054688, 0.054443359375, -0.217529296875, -0.820556640625
251, 2351022470, -5.27325963973999, 2.1235220432281494, 8.019387245178223, -2.9692928791046143, -1.7091737985610962, -2.6256346702575684, 0.0546875, -0.217041015625, -0.822021484375
252, 2351039137, -5.2858076095581055, 2.1069700717926025, 8.018389701843262, -2.971341848373413, -1.8194236755371094, -2.455911874771118, 0.055419921875, -0.217041015625, -0.818359375
253, 2351055804, -5.298619747161865, 2.1075966358184814, 8.019140243530273, -2.962172746658325, -1.8825461864471436, -2.405327081680298, 0.056640625, -0.2158203125, -0.821533203125
254, 2351072471, -5.277323246002197, 2.1004838943481445, 8.045212745666504, -3.0127193927764893, -2.090649366378784, -2.3308069705963135, 0.0546875, -0.216552734375, -0.821044921875
255, 2351089138, -5.208868026733398, 2.136388063430786, 8.038066864013672, -3.014896869659424, -2.0689682960510254, -2.37945818901062, 0.053466796875, -0.21435546875, -0.822021484375
256, 2351105805, -5.232133388519287, 2.104567289352417, 8.043305397033691, -2.8894965648651123, -1.8357388973236084, -2.397066831588745, 0.054931640625, -0.21533203125, -0.819091796875
257, 2351122472, -5.27079963684082, 2.100254535675049, 8.036895751953125, -2.7306342124938965, -1.731021761894226, -2.3700969219207764, 0.053466796875, -0.21630859375, -0.819091796875
258, 2351139139, -5.268286228179932, 2.121722936630249, 8.031963348388672, -2.7648656368255615, -1.7733850479125977, -2.28770112991333, 0.05517578125, -0.21484375, -0.822021484375
259, 2351155806, -5.255298614501953, 2.120943307876587, 8.019463539123535, -2.7258193492889404, -1.893060564994812, -2.3065006732940674, 0.053466796875, -0.21435546875, -0.819091796875
260, 2351172473, -5.229671955108643, 2.123782157897949, 8.038697242736816, -2.7349374294281006, -1.7925562858581543, -2.325134038925171, 0.0546875, -0.217041015625, -0.822998046875
261, 2351189140, -5.2494730949401855, 2.0948538780212402, 8.039271354675293, -2.589648962020874, -1.6304020881652832, -2.178462505340576, 0.053955078125, -0.216796875, -0.821044921875
262, 2351205807, -5.269134044647217, 2.139786720275879, 8.041914939880371, -2.4410440921783447, -1.5164637565612793, -2.0952084064483643, 0.053955078125, -0.21630859375, -0.818603515625
263, 2351222474, -5.257468223571777, 2.1103687286376953, 8.01795768737793, -2.431797981262207, -1.437333583831787, -2.1635563373565674, 0.053955078125, -0.21435546875, -0.820068359375
264, 2351239141, -5.255588054656982, 2.1071393489837646, 8.047813415527344, -2.3335607051849365, -1.4229007959365845, -2.1001391410827637, 0.053955078125, -0.21630859375, -0.822021484375
265, 2351255808, -5.253895282745361, 2.1138916015625, 8.079968452453613, -2.2383835315704346, -1.498803973197937, -2.0642683506011963, 0.052978515625, -0.21630859375, -0.822509765625
266, 2351272475, -5.251713275909424, 2.132397413253784, 8.037409782409668, -2.0917510986328125, -1.3853015899658203, -1.9060462713241577, 0.053466796875, -0.21533203125, -0.819580078125
267, 2351289142, -5.25247859954834, 2.1333303451538086, 8.040013313293457, -2.110640048980713, -1.407814860343933, -2.0722336769104004, 0.054443359375, -0.218505859375, -0.819580078125
268, 2351305809, -5.243319988250732, 2.1235523223876953, 8.03764533996582, -1.9683104753494263, -1.4215433597564697, -1.9925017356872559, 0.05517578125, -0.216552734375, -0.821533203125
269, 2351322476, -5.256662845611572, 2.1250550746917725, 8.03800106048584, -1.8889110088348389, -1.3881698846817017, -1.9131535291671753, 0.05615234375, -0.217529296875, -0.81982421875
270, 2351339143, -5.286803722381592, 2.1250216960906982, 8.029112815856934, -1.8641564846038818, -1.4023849964141846, -1.8995786905288696, 0.053955078125, -0.21630859375, -0.820556640625
271, 2351355810, -5.28580904006958, 2.097827911376953, 8.047649383544922, -1.7750240564346313, -1.4689139127731323, -1.614867925643921, 0.05517578125, -0.217529296875, -0.820068359375
272, 2351372477, -5.303627967834473, 2.106110095977783, 8.03071403503418, -1.722467064857483, -1.6016006469726562, -1.396532654762268, 0.053466796875, -0.216796875, -0.820556640625
273, 2351389144, -5.244672775268555, 2.145202875137329, 7.990968704223633, -1.8812657594680786, -1.7757539749145508, -1.3191051483154297, 0.052490234375, -0.21728515625, -0.820068359375
274, 2351405811, -5.220754146575928, 2.1633386611938477, 8.031540870666504, -1.9363586902618408, -1.9370375871658325, -1.405894160270691, 0.05517578125, -0.218017578125, -0.820068359375
275, 2351422478, -5.282953262329102, 2.1306800842285156, 8.034175872802734, -1.9962540864944458, -1.9057260751724243, -1.2606444358825684, 0.053466796875, -0.218017578125, -0.819580078125
276, 2351439145, -5.224346160888672, 2.150205373764038, 8.020185470581055, -1.8257371187210083, -1.9571561813354492, -1.0663975477218628, 0.053955078125, -0.216552734375, -0.822509765625
277, 2351455812, -5.167910575866699, 2.1922929286956787, 8.032828330993652, -1.8645150661468506, -1.9293791055679321, -1.5605946779251099, 0.053955078125, -0.218994140625, -0.820556640625
278, 2351472479, -5.2235870361328125, 2.1663124561309814, 8.038897514343262, -1.934565544128418, -1.6048916578292847, -1.6574488878250122, 0.052001953125, -0.21728515625, -0.822021484375
279, 2351489146, -5.258255958557129, 2.1308224201202393, 8.02951717376709, -1.4964605569839478, -1.4467333555221558, -1.427459955215454, 0.052978515625, -0.219970703125, -0.822021484375
280, 2351505813, -5.248825550079346, 2.136906385421753, 8.068270683288574, -1.203041434288025, -1.391666054725647, -1.1948965787887573, 0.052001953125, -0.219482421875, -0.819091796875
281, 2351522480, -5.322840690612793, 2.0756070613861084, 8.04991340637207, -0.9111461639404297, -1.432159423828125, -0.8452829718589783, 0.052001953125, -0.218505859375, -0.820068359375
282, 2351539147, -5.319991588592529, 2.1590416431427, 7.959406852722168, -0.5370854735374451, -1.40741765499115, -0.31104058027267456, 0.051025390625, -0.220947265625, -0.818603515625
283, 2351555814, -5.17026424407959, 2.154832124710083, 7.986308574676514, -0.04023754969239235, -1.3114086389541626, 0.33966922760009766, 0.052978515625, -0.219970703125, -0.820556640625
284, 2351572481, -5.008991241455078, 2.299426317214966, 8.00058364868164, -0.027930648997426033, -1.1078262329101562, -0.2830459475517273, 0.052978515625, -0.221435546875, -0.81884765625
285, 2351589148, -5.233967304229736, 2.158918619155884, 7.984730243682861, 0.13850706815719604, -0.6765466332435608, -0.9015669226646423, 0.052490234375, -0.220458984375, -0.820068359375
286, 2351605815, -5.267602920532227, 2.1823806762695312, 8.043538093566895, -0.33081358671188354, -0.20250679552555084, -0.3504713773727417, 0.053955078125, -0.222412109375, -0.81787109375
287, 2351622482, -5.319458961486816, 2.2118310928344727, 8.032135009765625, -0.17271924018859863, -0.7624003887176514, -0.3972785770893097, 0.051025390625, -0.224365234375, -0.819580078125
288, 2351639149, -5.347667217254639, 2.233790397644043, 7.91367244720459, -0.19753794372081757, -1.516566276550293, -0.09661109000444412, 0.052490234375, -0.223388671875, -0.822021484375
289, 2351655816, -5.301694869995117, 2.254506826400757, 8.00615406036377, 0.24222572147846222, -1.6554129123687744, 0.4456802010536194, 0.051025390625, -0.224365234375, -0.820556640625
290, 2351672483, -5.125273704528809, 2.2383804321289062, 8.040112495422363, 1.1850547790527344, -1.1543258428573608, 1.0896731615066528, 0.05419921875, -0.22607421875, -0.8212890625
291, 2351689150, -5.10280704498291, 2.3174164295196533, 8.088390350341797, 0.8442649841308594, -0.037317704409360886, 0.5345433950424194, 0.051513671875, -0.223876953125, -0.81884765625
292, 2351705817, -5.169479846954346, 2.259260892868042, 8.076729774475098, 1.5926809310913086, 0.49498462677001953, 0.03823335841298103, 0.051025390625, -0.225830078125, -0.820068359375
293, 2351722484, -5.258124351501465, 2.285123586654663, 8.005776405334473, 0.975594162940979, 0.9667320847511292, 0.14542250335216522, 0.052001953125, -0.22802734375, -0.82080078125
294, 2351739151, -5.222781181335449, 2.363131284713745, 8.026041030883789, 1.6601191759109497, 1.4027756452560425, 0.5950534343719482, 0.052978515625, -0.22802734375, -0.818359375
295, 2351755818, -5.233519554138184, 2.4278955459594727, 8.019403457641602, 1.3870750665664673, 1.5559266805648804, 0.22014756500720978, 0.052490234375, -0.2294921875, -0.8212890625
296, 2351772485, -5.225948810577393, 2.3598623275756836, 8.016439437866211, 1.4038254022598267, 1.4591361284255981, -0.13080401718616486, 0.05419921875, -0.23193359375, -0.8193359375
297, 2351789152, -5.2819976806640625, 2.27541184425354, 7.999985218048096, 0.826323390007019, 1.0537513494491577, -0.4877810478210449, 0.0537109375, -0.2314453125, -0.81884765625
298, 2351805819, -5.2021050453186035, 2.3204545974731445, 7.995946884155273, 0.35075950622558594, 0.5189068913459778, -1.0002399682998657, 0.05517578125, -0.232421875, -0.818603515625
299, 2351822486, -5.208550930023193, 2.3454973697662354, 8.018749237060547, 0.2914789021015167, 0.8037072420120239, -1.3247143030166626, 0.0556640625, -0.23388671875, -0.81982421875
300, 2351839153, -5.306634426116943, 2.3631591796875, 7.949807167053223, -0.2827129662036896, 0.5327762365341187, -1.6708444356918335, 0.056640625, -0.234619140625, -0.82421875
301, 2351855820, -5.284337043762207, 2.4089205265045166, 7.964932918548584, -1.4582974910736084, -0.3157790005207062, -2.1483163833618164, 0.0537109375, -0.2333984375, -0.818115234375
302, 2351872487, -5.241603374481201, 2.4523236751556396, 7.946104526519775, -2.4847779273986816, -1.0611215829849243, -2.886807680130005, 0.056640625, -0.235595703125, -0.818603515625
303, 2351889154, -5.178910732269287, 2.4992258548736572, 7.926173210144043, -3.341958522796631, -1.3542972803115845, -3.761596918106079, 0.05419921875, -0.2353515625, -0.817626953125
304, 2351905821, -5.1432905197143555, 2.409778594970703, 7.968688011169434, -3.17634654045105, -0.8947156667709351, -4.232908725738525, 0.053466796875, -0.2353515625, -0.817626953125
305, 2351922488, -5.198133945465088, 2.3970930576324463, 7.946462631225586, -3.65991473197937, -0.9972177743911743, -5.109555244445801, 0.0546875, -0.23388671875, -0.817138671875
306, 2351939155, -5.165771007537842, 2.4740400314331055, 7.927546501159668, -5.448616981506348, -1.7627817392349243, -6.483421802520752, 0.0537109375, -0.2314453125, -0.8193359375
307, 2351955822, -5.284319877624512, 2.369941234588623, 7.906136512756348, -5.812649726867676, -1.9000401496887207, -6.900447368621826, 0.05615234375, -0.23388671875, -0.817626953125
308, 2351972489, -5.19681978225708, 2.3730063438415527, 7.9496259689331055, -5.9355268478393555, -1.8999505043029785, -6.904481410980225, 0.05517578125, -0.23095703125, -0.8203125
309, 2351989156, -5.243918418884277, 2.2551214694976807, 7.996415615081787, -5.145016670227051, -1.4552627801895142, -6.715498447418213, 0.05810546875, -0.23046875, -0.820068359375
310, 2352005823, -5.303736209869385, 2.2560577392578125, 8.021875381469727, -6.106952667236328, -1.430495262145996, -7.399754524230957, 0.056640625, -0.2294921875, -0.818115234375
311, 2352022490, -5.306078910827637, 2.3336281776428223, 7.9556403160095215, -7.941668510437012, -2.3195769786834717, -8.3495512008667, 0.05517578125, -0.228515625, -0.81787109375
312, 2352039157, -5.232717990875244, 2.329981803894043, 7.968295574188232, -7.730865001678467, -2.695084810256958, -8.699626922607422, 0.05712890625, -0.228515625, -0.8193359375
313, 2352055824, -5.127346515655518, 2.3160905838012695, 8.01544189453125, -6.992794513702393, -1.6988142728805542, -8.785300254821777, 0.05810546875, -0.22509765625, -0.8203125
314, 2352072491, -5.198586463928223, 2.199186086654663, 8.051615715026855, -5.919454574584961, 0.07710064947605133, -9.0433349609375, 0.0595703125, -0.223876953125, -0.8193359375
315, 2352089158, -5.212075710296631, 2.08514666557312, 8.073816299438477, -3.858630418777466, 2.0973410606384277, -8.574877738952637, 0.05859375, -0.224365234375, -0.82275390625
316, 2352105825, -5.2518110275268555, 1.9506465196609497, 8.103774070739746, -1.0797932147979736, 5.187501430511475, -7.154908657073975, 0.060546875, -0.222900390625, -0.818115234375
317, 2352122492, -5.160424709320068, 2.217585563659668, 8.01538372039795, 1.2196067571640015, 8.6110258102417, -7.163772106170654, 0.063720703125, -0.223876953125, -0.818115234375
318, 2352139159, -5.160807132720947, 2.3062262535095215, 8.05480670928955, 2.4389772415161133, 12.26603889465332, -8.653050422668457, 0.066650390625, -0.224609375, -0.820556640625
319, 2352155826, -5.293302536010742, 2.0743510723114014, 7.987493515014648, 5.144644260406494, 16.83492660522461, -10.227511405944824, 0.071533203125, -0.2265625, -0.81689453125
320, 2352172493, -5.224677085876465, 2.377744197845459, 7.864779949188232, 8.199703216552734, 24.020313262939453, -11.34938907623291, 0.07861328125, -0.228515625, -0.81591796875
321, 2352189160, -5.044162273406982, 2.48138689994812, 8.33387279510498, 10.688852310180664, 32.71808624267578, -14.415512084960938, 0.088623046875, -0.229248046875, -0.812744140625
322, 2352205827, -4.980684757232666, 2.6441941261291504, 8.629287719726562, 9.557767868041992, 42.02033996582031, -19.340532302856445, 0.09716796875, -0.233642578125, -0.809814453125
323, 2352222494, -5.01447868347168, 2.4101762771606445, 8.619243621826172, 13.451446533203125, 59.363983154296875, -22.578073501586914, 0.11181640625, -0.236328125, -0.80517578125
324, 2352239161, -5.306239604949951, 2.187417984008789, 8.487549781799316, 19.141630172729492, 81.33406829833984, -23.87957191467285, 0.12939453125, -0.238037109375, -0.80126953125
325, 2352255828, -5.536965847015381, 2.34120774269104, 8.358330726623535, 26.324811935424805, 105.55400848388672, -28.72354507446289, 0.154052734375, -0.24365234375, -0.796142578125
326, 2352272495, -5.8738508224487305, 2.2356317043304443, 8.181607246398926, 30.208171844482422, 130.18753051757812, -34.89691162109375, 0.18505859375, -0.247802734375, -0.78515625
327, 2352289162, -5.634655475616455, 2.2555885314941406, 8.245104789733887, 30.758630752563477, 153.99630737304688, -37.91788864135742, 0.220703125, -0.25244140625, -0.770751953125
328, 2352305829, -5.912306785583496, 1.9380760192871094, 7.73381233215332, 31.900501251220703, 186.68521118164062, -40.700592041015625, 0.2646484375, -0.255615234375, -0.749755859375
329, 2352322496, -6.405043601989746, 2.3678905963897705, 7.827375888824463, 24.105182647705078, 219.7816162109375, -48.91971206665039, 0.313232421875, -0.2568359375, -0.72705078125
330, 2352339163, -7.003398895263672, 2.8875904083251953, 7.806931495666504, 15.082999229431152, 255.15029907226562, -62.61015319824219, 0.364990234375, -0.2548828125, -0.697021484375
331, 2352355830, -8.56758975982666, 3.660459518432617, 8.547322273254395, 4.944820880889893, 280.937255859375, -79.54161834716797, 0.428955078125, -0.24560546875, -0.659423828125
332, 2352372497, -8.81997299194336, 4.1105732917785645, 7.224803924560547, 5.039295196533203, 311.1988220214844, -103.41972351074219, 0.4912109375, -0.230712890625, -0.61376953125
333, 2352389164, -13.549614906311035, 5.801998615264893, 9.82723617553711, -4.410048007965088, 322.399169921875, -121.557373046875, 0.554443359375, -0.210205078125, -0.557373046875
334, 2352405831, -15.164237022399902, 4.841536521911621, 10.43460750579834, 4.535667896270752, 320.2274169921875, -115.90245056152344, 0.611083984375, -0.187255859375, -0.493896484375
335, 2352422498, -15.712003707885742, 4.4259748458862305, 10.932158470153809, 4.920862197875977, 298.0333251953125, -111.69829559326172, 0.658447265625, -0.1640625, -0.425048828125
336, 2352439165, -12.842020034790039, 4.792198181152344, 10.612162590026855, 5.268123626708984, 270.2804870605469, -107.076904296875, 0.697509765625, -0.142822265625, -0.363037109375
337, 2352455832, -8.509114265441895, 4.684462547302246, 10.594367027282715, -2.5389132499694824, 245.83828735351562, -113.43257141113281, 0.727294921875, -0.12060546875, -0.29931640625
338, 2352472499, -1.459437608718872, 4.119517803192139, 9.285994529724121, -30.09295654296875, 209.79953002929688, -127.95281982421875, 0.747802734375, -0.0908203125, -0.243408203125
339, 2352489166, -19.004207611083984, 7.266479969024658, 22.934776306152344, 8.418115615844727, 118.73609161376953, -80.14222717285156, 0.763427734375, -0.06689453125, -0.199462890625
340, 2352505833, -11.392849922180176, 7.907214641571045, 20.21322250366211, 25.539289474487305, -90.48430633544922, -14.513590812683105, 0.765869140625, -0.06201171875, -0.1982421875
341, 2352522500, -2.0931289196014404, 6.405706882476807, 12.107284545898438, 5.589797496795654, -181.39898681640625, 11.28222942352295, 0.758544921875, -0.06201171875, -0.228759765625
342, 2352539167, 1.2012193202972412, 4.385153293609619, 7.612793445587158, -19.114225387573242, -190.13038635253906, 15.665790557861328, 0.75439453125, -0.065673828125, -0.264892578125
343, 2352555834, 1.0330942869186401, 3.263824224472046, 5.842111110687256, -29.022844314575195, -175.68441772460938, 25.274131774902344, 0.746826171875, -0.068359375, -0.302490234375
344, 2352572501, -0.8640227317810059, 3.1923317909240723, 5.941183567047119, -29.09153175354004, -164.41421508789062, 44.367313385009766, 0.73974609375, -0.0771484375, -0.33642578125
345, 2352589168, -3.186659336090088, 4.016494274139404, 6.747735023498535, -34.49808120727539, -168.77450561523438, 65.92494201660156, 0.729736328125, -0.08984375, -0.37890625
346, 2352605835, -5.4317626953125, 4.5742950439453125, 7.578208923339844, -50.25701904296875, -188.6171875, 86.2734375, 0.712158203125, -0.103515625, -0.42431640625
347, 2352622502, -7.650996685028076, 3.9670989513397217, 8.368873596191406, -65.01490783691406, -217.51339721679688, 107.4656982421875, 0.68505859375, -0.119873046875, -0.4814453125
348, 2352639169, -9.25981616973877, 3.3719429969787598, 8.41973876953125, -73.10601806640625, -252.4176483154297, 124.55441284179688, 0.63916015625, -0.134033203125, -0.543701171875
349, 2352655836, -9.344797134399414, 2.332087755203247, 7.517996788024902, -74.58403778076172, -280.73138427734375, 130.6168975830078, 0.582275390625, -0.14404296875, -0.60205078125
350, 2352672503, -8.44616985321045, 0.79585200548172, 6.422194004058838, -62.38497543334961, -287.9997863769531, 124.71239471435547, 0.52001953125, -0.14794921875, -0.65234375
351, 2352689170, -8.246164321899414, -0.08176767826080322, 5.935172080993652, -40.36263656616211, -273.7685546875, 102.59590148925781, 0.455810546875, -0.151123046875, -0.6923828125
352, 2352705837, -9.277188301086426, -0.08332190662622452, 6.350605010986328, -16.527999877929688, -248.74795532226562, 69.3402099609375, 0.400146484375, -0.153564453125, -0.716796875
353, 2352722504, -11.269718170166016, 0.7632399201393127, 7.877368450164795, 8.955008506774902, -225.34425354003906, 41.47071075439453, 0.35302734375, -0.15576171875, -0.728271484375
354, 2352739171, -13.75719928741455, 1.5778684616088867, 9.209007263183594, 33.088741302490234, -213.5986328125, 29.664875030517578, 0.3173828125, -0.16162109375, -0.730712890625
355, 2352755838, -14.840431213378906, 2.2740261554718018, 8.803653717041016, 49.765865325927734, -202.18678283691406, 32.045509338378906, 0.3017578125, -0.171875, -0.733154296875
356, 2352772505, -16.6447811126709, 4.174978733062744, 7.806338310241699, 41.77177429199219, -180.85317993164062, 36.515628814697266, 0.298095703125, -0.189697265625, -0.756103515625
357, 2352789172, -21.197402954101562, 6.16743803024292, 7.2236552238464355, 13.861672401428223, -168.71559143066406, 40.69083023071289, 0.28759765625, -0.2080078125, -0.8046875
358, 2352805839, -26.33108901977539, 7.5238542556762695, 5.833428859710693, -9.440917015075684, -188.3863525390625, 60.71941375732422, 0.24462890625, -0.22802734375, -0.86083984375
359, 2352822506, -27.672903060913086, 5.471374988555908, 2.0509629249572754, -18.146196365356445, -221.7682647705078, 89.59542083740234, 0.17236328125, -0.25048828125, -0.909423828125
360, 2352839173, -25.9041690826416, -0.09903381764888763, -4.336012840270996, -2.2968504428863525, -235.0189208984375, 101.94573211669922, 0.07763671875, -0.2666015625, -0.936279296875
361, 2352855840, -20.981679916381836, -9.061062812805176, -9.919401168823242, 37.188201904296875, -196.25579833984375, 91.83895111083984, -0.01025390625, -0.284423828125, -0.93310546875
362, 2352872507, -17.82920265197754, -11.552461624145508, -11.101667404174805, 66.33146667480469, -117.8734130859375, 18.40083885192871, -0.069091796875, -0.30615234375, -0.924560546875
363, 2352889174, -19.498132705688477, -8.637825012207031, -7.614471435546875, 53.012298583984375, -49.78360366821289, -91.86322784423828, -0.08740234375, -0.323974609375, -0.918212890625
364, 2352905841, -20.221172332763672, 1.1135990619659424, -3.4789814949035645, -0.08081520348787308, 6.217807292938232, -158.05641174316406, -0.083740234375, -0.3349609375, -0.91943359375
365, 2352922508, -5.398723602294922, -3.2306342124938965, 5.365721225738525, -56.8730583190918, 58.57473373413086, -154.89691162109375, -0.05859375, -0.32470703125, -0.929931640625
366, 2352939175, 4.087985038757324, 6.912923336029053, 11.34586238861084, 9.307382583618164, 55.39356231689453, -68.96416473388672, -0.040283203125, -0.325439453125, -0.935546875
367, 2352955842, -4.108806610107422, 6.460812091827393, 6.045129776000977, 19.495450973510742, 121.85494995117188, -37.84181594848633, -0.0146484375, -0.335205078125, -0.939208984375
368, 2352972509, -14.274099349975586, -0.20631152391433716, 14.073396682739258, 13.072427749633789, 120.83953094482422, -13.261876106262207, 0.01708984375, -0.34130859375, -0.941650390625
369, 2352989176, -10.67849349975586, -0.7261237502098083, 12.26239013671875, 26.868215560913086, 77.34304809570312, -25.681467056274414, 0.038330078125, -0.349609375, -0.943359375
370, 2353005843, -6.236056804656982, 6.172898769378662, 8.26632022857666, 28.532800674438477, 61.73941421508789, -17.11809539794922, 0.054931640625, -0.35986328125, -0.945068359375
371, 2353022510, -4.587992191314697, 6.83558988571167, 6.690400123596191, 11.46175765991211, 70.99349212646484, -3.3585140705108643, 0.074462890625, -0.365478515625, -0.9384765625
372, 2353039177, -6.492145538330078, 3.2277660369873047, 8.059910774230957, -5.279875755310059, 67.16976165771484, -11.771995544433594, 0.088134765625, -0.37060546875, -0.93701171875
373, 2353055844, -9.419873237609863, 4.785505294799805, 9.967500686645508, -32.001827239990234, 53.154685974121094, -24.99048614501953, 0.10400390625, -0.364990234375, -0.939453125
374, 2353072511, -6.491540431976318, 0.9905534386634827, 8.87975025177002, -34.94936752319336, 33.1285285949707, -23.90378189086914, 0.11767578125, -0.352783203125, -0.94775390625
375, 2353089178, -6.255001068115234, 1.334702968597412, 9.167466163635254, -23.00985336303711, 23.150936126708984, -17.139551162719727, 0.123779296875, -0.3447265625, -0.94775390625
376, 2353105845, -6.005657196044922, 1.5536198616027832, 8.761564254760742, -10.68685245513916, 16.507699966430664, -10.10316276550293, 0.128662109375, -0.34423828125, -0.94775390625
377, 2353122512, -5.726664066314697, 2.253660202026367, 8.255725860595703, -2.599729299545288, 13.258737564086914, -5.599682807922363, 0.1328125, -0.34326171875, -0.949951171875
378, 2353139179, -5.462047576904297, 2.7087810039520264, 7.957237720489502, -1.0399531126022339, 11.675830841064453, -4.803626537322998, 0.13671875, -0.34375, -0.9462890625
379, 2353155846, -5.489612579345703, 2.7869534492492676, 7.807089805603027, -2.090547800064087, 9.443284034729004, -6.15869140625, 0.140380859375, -0.345703125, -0.9482421875
380, 2353172513, -5.3371806144714355, 2.6608574390411377, 7.816595554351807, -4.001537799835205, 6.637334823608398, -8.028597831726074, 0.141357421875, -0.3447265625, -0.94677734375
381, 2353189180, -5.151566982269287, 2.9564006328582764, 7.798228740692139, -12.09840202331543, 3.3378443717956543, -13.646180152893066, 0.143310546875, -0.34228515625, -0.9482421875
382, 2353205847, -5.524562835693359, 3.0708117485046387, 7.736474990844727, -21.045364379882812, -3.576951742172241, -18.71535301208496, 0.146484375, -0.33544921875, -0.95068359375
383, 2353222514, -5.857390880584717, 2.203591823577881, 7.920021057128906, -16.93720054626465, -6.506547927856445, -15.118796348571777, 0.144287109375, -0.331787109375, -0.953857421875
384, 2353239181, -5.320402145385742, 2.1100947856903076, 8.036443710327148, -10.863395690917969, -5.57105016708374, -12.568384170532227, 0.143798828125, -0.327392578125, -0.95361328125
385, 2353255848, -5.486543655395508, 2.0601866245269775, 8.047460556030273, -7.109551429748535, -3.0690817832946777, -10.351621627807617, 0.145263671875, -0.3251953125, -0.95458984375
386, 2353272515, -5.574160575866699, 1.9892958402633667, 7.958211898803711, -4.977471351623535, -1.1617156267166138, -8.848448753356934, 0.1474609375, -0.32373046875, -0.954345703125
387, 2353289182, -5.612953186035156, 2.0156168937683105, 7.907597064971924, -2.5758187770843506, -0.04694809764623642, -6.570581436157227, 0.14599609375, -0.325927734375, -0.95458984375
388, 2353305849, -5.495412826538086, 2.143101930618286, 7.8541259765625, -0.5991706848144531, 0.527858555316925, -4.827507019042969, 0.14794921875, -0.327392578125, -0.953857421875
389, 2353322516, -5.408136367797852, 2.1930384635925293, 7.945689678192139, 1.0617039203643799, 1.2602791786193848, -4.5599822998046875, 0.14697265625, -0.325927734375, -0.9560546875
390, 2353339183, -5.39631462097168, 2.242427110671997, 7.964601993560791, 1.559935212135315, 1.5927705764770508, -4.897340774536133, 0.146240234375, -0.326416015625, -0.952880859375
391, 2353355850, -5.472651958465576, 2.3255743980407715, 7.869475841522217, 1.2542219161987305, 2.0327072143554688, -6.122498989105225, 0.1484375, -0.327392578125, -0.954833984375
392, 2353372517, -5.304569721221924, 2.3901681900024414, 7.878803730010986, 0.6687541007995605, 3.1881604194641113, -7.810299396514893, 0.14794921875, -0.330322265625, -0.952880859375
393, 2353389184, -5.2368903160095215, 2.4583144187927246, 7.923806190490723, 1.974772334098816, 7.2155303955078125, -9.928192138671875, 0.15185546875, -0.329833984375, -0.9521484375
394, 2353405851, -5.24827766418457, 2.426360845565796, 7.937676429748535, 4.29818058013916, 12.467602729797363, -13.039989471435547, 0.156005859375, -0.330810546875, -0.951171875
395, 2353422518, -5.167835712432861, 2.478498935699463, 8.136714935302734, 7.400766372680664, 22.01428985595703, -17.314836502075195, 0.163818359375, -0.33203125, -0.94677734375
396, 2353439185, -4.862619400024414, 2.392122983932495, 8.65233325958252, 6.832629680633545, 33.98085403442383, -20.06588363647461, 0.171875, -0.333984375, -0.945068359375
397, 2353455852, -4.8470916748046875, 1.9538609981536865, 8.604936599731445, 9.611542701721191, 53.76361083984375, -19.99073028564453, 0.185546875, -0.33349609375, -0.945068359375
398, 2353472519, -4.993064880371094, 1.773532509803772, 8.674284934997559, 16.538532257080078, 79.38226318359375, -19.997886657714844, 0.202880859375, -0.338623046875, -0.932861328125
399, 2353489186, -5.19983434677124, 2.324408531188965, 8.790143966674805, 25.39630699157715, 110.19895935058594, -23.367345809936523, 0.233154296875, -0.34521484375, -0.920166015625
400, 2353505853, -5.361454963684082, 2.7167246341705322, 8.984614372253418, 30.121280670166016, 146.55984497070312, -34.202049255371094, 0.27001953125, -0.35009765625, -0.90625
401, 2353522520, -5.043149471282959, 3.7692642211914062, 9.102900505065918, 34.21625518798828, 194.39926147460938, -54.51178741455078, 0.318603515625, -0.349609375, -0.882080078125
402, 2353539187, -5.622480869293213, 4.442963600158691, 9.147936820983887, 30.093772888183594, 256.75408935546875, -85.02847290039062, 0.381591796875, -0.349365234375, -0.851806640625
403, 2353555854, -5.66688346862793, 4.172991752624512, 9.509123802185059, 12.589365005493164, 328.4949645996094, -129.96697998046875, 0.46044921875, -0.334228515625, -0.802978515625
404, 2353572521, -8.085550308227539, 4.377642631530762, 10.926027297973633, 8.564492225646973, 401.60467529296875, -175.14320373535156, 0.5546875, -0.308837890625, -0.73779296875
405, 2353589188, -10.230171203613281, 5.763848304748535, 12.028387069702148, 8.243142127990723, 453.2402038574219, -201.8277587890625, 0.65478515625, -0.268798828125, -0.64794921875
406, 2353605855, -21.952064514160156, 6.544979095458984, 15.497350692749023, 25.973285675048828, 455.19512939453125, -181.72512817382812, 0.73828125, -0.223388671875, -0.537841796875
407, 2353622522, -21.899675369262695, 7.691168308258057, 16.608135223388672, 16.686281204223633, 391.2477111816406, -164.60812377929688, 0.801513671875, -0.1787109375, -0.428955078125
408, 2353639189, -12.61727237701416, 7.6063995361328125, 16.016773223876953, 9.284744262695312, 316.505126953125, -152.30764770507812, 0.8388671875, -0.134033203125, -0.333984375
409, 2353655856, 3.4498860836029053, 7.3855061531066895, 14.1712007522583, -14.165416717529297, 280.2931823730469, -169.75123596191406, 0.864990234375, -0.087646484375, -0.25
410, 2353672523, -12.638459205627441, 15.542999267578125, 17.74005126953125, -62.98741149902344, 281.65032958984375, -113.46635437011719, 0.885009765625, -0.0458984375, -0.1669921875
411, 2353689190, -18.845129013061523, 14.493672370910645, 27.53219985961914, -81.75924682617188, -7.3553547859191895, 15.768698692321777, 0.889404296875, -0.037353515625, -0.150390625
412, 2353705857, -3.826388359069824, 7.393644332885742, 17.250896453857422, -99.97785186767578, -196.77244567871094, 83.53083801269531, 0.884033203125, -0.05517578125, -0.201416015625
413, 2353722524, 1.6970903873443604, 2.469618320465088, 9.354130744934082, -92.37181854248047, -242.25096130371094, 94.73331451416016, 0.86474609375, -0.083251953125, -0.27685546875
414, 2353739191, 2.2642409801483154, -0.04206882044672966, 5.7485032081604, -63.328529357910156, -238.29080200195312, 94.38643646240234, 0.8291015625, -0.10791015625, -0.353759765625
415, 2353755858, -0.3505786657333374, -0.0651746317744255, 5.77634859085083, -28.811670303344727, -226.082275390625, 93.48787689208984, 0.781005859375, -0.13525390625, -0.416015625
416, 2353772525, -4.647427558898926, 2.028184413909912, 7.245895862579346, -21.423768997192383, -237.50485229492188, 89.03367614746094, 0.724853515625, -0.15625, -0.467041015625
417, 2353789192, -7.249845504760742, 2.9289538860321045, 8.16657829284668, -35.52431869506836, -276.81689453125, 88.52034759521484, 0.66259765625, -0.173583984375, -0.517822265625
418, 2353805859, -7.226586818695068, 2.4068186283111572, 7.398856163024902, -43.43001174926758, -311.9600524902344, 96.94874572753906, 0.59619140625, -0.18310546875, -0.564208984375
419, 2353822526, -6.682633399963379, 1.866578221321106, 6.243712425231934, -37.947105407714844, -321.8824157714844, 106.37059783935547, 0.522705078125, -0.1923828125, -0.603759765625
420, 2353839193, -6.781219959259033, 1.7228680849075317, 5.368560791015625, -28.455764770507812, -313.98260498046875, 107.9077377319336, 0.458251953125, -0.199462890625, -0.6318359375
421, 2353855860, -7.409000396728516, 1.633494257926941, 5.567176818847656, -17.68647575378418, -289.18017578125, 97.15904235839844, 0.399169921875, -0.2119140625, -0.6552734375
422, 2353872527, -9.78880786895752, 1.5494953393936157, 7.058382511138916, -0.14167420566082, -256.5859680175781, 78.75501251220703, 0.353515625, -0.2216796875, -0.669189453125
423, 2353889194, -14.535537719726562, 2.216034412384033, 9.537660598754883, 32.269290924072266, -242.7230987548828, 64.90589141845703, 0.316650390625, -0.239013671875, -0.68359375
424, 2353905861, -18.1708984375, 2.113720178604126, 9.487998008728027, 76.4737777709961, -242.07589721679688, 64.1301498413086, 0.28173828125, -0.261474609375, -0.698974609375
425, 2353922528, -24.18431854248047, 3.453214406967163, 7.864509105682373, 105.07032775878906, -231.2246856689453, 66.80643463134766, 0.23828125, -0.302490234375, -0.724609375
426, 2353939195, -29.304229736328125, 5.40066385269165, 4.845237731933594, 87.3825454711914, -233.07679748535156, 60.50471115112305, 0.171875, -0.336181640625, -0.746337890625
427, 2353955862, -31.02846908569336, 4.981621742248535, -0.13734674453735352, 52.07499694824219, -241.6814727783203, 55.22462844848633, 0.095703125, -0.3623046875, -0.752197265625
428, 2353972529, -28.30624771118164, 1.020357608795166, -6.079971790313721, 45.31370162963867, -224.5281219482422, 68.11658477783203, 0.022705078125, -0.37744140625, -0.745849609375
429, 2353989196, -27.447277069091797, -5.212517261505127, -9.991228103637695, 78.76368713378906, -182.09078979492188, 97.16845703125, -0.033203125, -0.393310546875, -0.732666015625
430, 2354005863, -24.730966567993164, -10.493836402893066, -12.150787353515625, 111.27438354492188, -124.08087921142578, 103.9176254272461, -0.080078125, -0.41552734375, -0.703857421875
431, 2354022530, -22.368207931518555, -9.179073333740234, -17.66286277770996, -3.0307765007019043, 6.396458625793457, -1.4848322868347168, -0.09375, -0.4208984375, -0.695068359375
432, 2354039197, -20.131027221679688, -12.461687088012695, -13.58021068572998, -84.20748138427734, 107.9680404663086, -131.31956481933594, -0.067626953125, -0.408447265625, -0.69921875
433, 2354055864, -10.993743896484375, 5.877906799316406, 17.201169967651367, -115.85652160644531, 109.26470947265625, -157.8392791748047, -0.029052734375, -0.38623046875, -0.70947265625
434, 2354072531, -3.6307809352874756, 10.923762321472168, 9.89160442352295, -89.26292419433594, 62.99180221557617, -119.04940795898438, -0.00537109375, -0.364990234375, -0.716552734375
435, 2354089198, -5.895944595336914, -1.4185471534729004, 6.619320392608643, -68.00634002685547, 109.60491943359375, -55.20565414428711, 0.019775390625, -0.346923828125, -0.717529296875
436, 2354105865, -26.085634231567383, -4.185344696044922, 20.679489135742188, -65.29327392578125, 58.37063980102539, -46.220428466796875, 0.041259765625, -0.333740234375, -0.7216796875
437, 2354122532, -5.031735420227051, 1.7651066780090332, 7.309793949127197, -21.67881965637207, 4.187108516693115, -22.840858459472656, 0.041748046875, -0.328125, -0.72265625
438, 2354139199, -5.490793704986572, 1.093848466873169, 8.70775318145752, -11.113954544067383, 10.334359169006348, -12.075762748718262, 0.04541015625, -0.32470703125, -0.72216796875
439, 2354155866, -6.470104217529297, 2.364264965057373, 8.011764526367188, -5.824688911437988, 7.96319055557251, -5.885275363922119, 0.04931640625, -0.32275390625, -0.72314453125
440, 2354172533, -6.000382423400879, 3.21197509765625, 7.996161460876465, -8.959595680236816, 2.557051420211792, -9.131586074829102, 0.05029296875, -0.3232421875, -0.721923828125
441, 2354189200, -5.762463569641113, 2.087252378463745, 8.125829696655273, -9.735186576843262, -1.3714326620101929, -8.532477378845215, 0.05029296875, -0.320556640625, -0.722412109375
442, 2354205867, -5.429565906524658, 2.5549139976501465, 8.18351936340332, -10.940650939941406, -2.379754066467285, -8.586406707763672, 0.051513671875, -0.319091796875, -0.724609375
443, 2354222534, -5.302133560180664, 1.9711872339248657, 8.217894554138184, -9.276386260986328, -1.3960591554641724, -6.941198348999023, 0.04931640625, -0.317626953125, -0.7236328125
444, 2354239201, -5.098820686340332, 1.8418335914611816, 8.20495891571045, -5.7755889892578125, 1.5080441236495972, -5.077347755432129, 0.051513671875, -0.316162109375, -0.72607421875
445, 2354255868, -5.242646217346191, 2.0386462211608887, 8.037137985229492, -3.780280590057373, 3.278893232345581, -3.477795124053955, 0.052490234375, -0.316650390625, -0.7265625
446, 2354272535, -5.344388008117676, 2.3681225776672363, 7.940585136413574, -5.485767364501953, 1.8026796579360962, -3.787888526916504, 0.052978515625, -0.315185546875, -0.72412109375
447, 2354289202, -5.427452564239502, 2.3303427696228027, 7.867254257202148, -7.767245769500732, -1.4765084981918335, -4.996693134307861, 0.053955078125, -0.314208984375, -0.72412109375
448, 2354305869, -5.204436302185059, 2.2706611156463623, 7.91572904586792, -9.50942325592041, -4.581729888916016, -6.003030776977539, 0.053466796875, -0.312744140625, -0.72509765625
449, 2354322536, -5.144420146942139, 2.15971040725708, 8.009662628173828, -10.520679473876953, -7.197877883911133, -7.778403282165527, 0.052978515625, -0.30908203125, -0.72509765625
450, 2354339203, -5.201813220977783, 1.9090754985809326, 8.045748710632324, -10.240029335021973, -8.754056930541992, -7.998301982879639, 0.052490234375, -0.30859375, -0.730712890625
451, 2354355870, -5.237155437469482, 1.9178797006607056, 8.09725570678711, -9.31977653503418, -8.086959838867188, -7.062476634979248, 0.052490234375, -0.30810546875, -0.727783203125
452, 2354372537, -5.11653470993042, 2.0293867588043213, 8.049460411071777, -7.791426658630371, -7.43690824508667, -6.949318885803223, 0.05078125, -0.30615234375, -0.728759765625
453, 2354389204, -5.085810661315918, 1.9417526721954346, 8.024778366088867, -6.80290412902832, -8.556720733642578, -8.181828498840332, 0.05029296875, -0.306640625, -0.729248046875
454, 2354405871, -5.170589447021484, 1.5697072744369507, 8.0576753616333, -5.625576019287109, -8.657417297363281, -8.403877258300781, 0.04833984375, -0.30517578125, -0.728515625
455, 2354422538, -5.068966388702393, 2.0492429733276367, 8.012039184570312, -3.901174545288086, -7.766875267028809, -7.618833541870117, 0.048828125, -0.30517578125, -0.7294921875
456, 2354439205, -4.903305530548096, 2.171448230743408, 8.161944389343262, -1.9049967527389526, -6.76085901260376, -8.329880714416504, 0.0458984375, -0.30517578125, -0.7265625
457, 2354455872, -4.911823272705078, 2.5427112579345703, 8.236580848693848, -1.3182480335235596, -3.902724027633667, -11.136484146118164, 0.04541015625, -0.3046875, -0.72998046875
458, 2354472539, -5.021109104156494, 2.176950216293335, 8.204976081848145, -0.662165641784668, 1.0070856809616089, -15.558472633361816, 0.046875, -0.30322265625, -0.7294921875
459, 2354489206, -4.927286624908447, 1.7492198944091797, 8.29536247253418, 2.1667537689208984, 8.362229347229004, -16.106475830078125, 0.04931640625, -0.3037109375, -0.73046875
460, 2354505873, -4.825091361999512, 2.1684861183166504, 8.445907592773438, 6.906911373138428, 18.46701431274414, -18.220651626586914, 0.053466796875, -0.3056640625, -0.7255859375
461, 2354522540, -4.772586822509766, 2.3239917755126953, 8.439458847045898, 6.8365583419799805, 32.70269012451172, -19.471899032592773, 0.0634765625, -0.307861328125, -0.725341796875
462, 2354539207, -4.385529041290283, 1.4220616817474365, 9.113651275634766, 10.451122283935547, 53.006587982177734, -19.425935745239258, 0.073974609375, -0.310302734375, -0.721435546875
463, 2354555874, -4.278561115264893, 1.8982857465744019, 9.479602813720703, 20.671899795532227, 83.63436126708984, -20.739320755004883, 0.093505859375, -0.31396484375, -0.71875
464, 2354572541, -4.557900428771973, 2.3162992000579834, 9.935506820678711, 31.05234146118164, 125.3651351928711, -33.38010025024414, 0.11669921875, -0.319091796875, -0.7099609375
465, 2354589208, -4.8794379234313965, 3.279020071029663, 10.419476509094238, 37.68507766723633, 176.55369567871094, -53.51029586791992, 0.15380859375, -0.32373046875, -0.70263671875
466, 2354605875, -4.899372577667236, 4.442195892333984, 10.635689735412598, 33.469078063964844, 235.04612731933594, -86.87223815917969, 0.205322265625, -0.326904296875, -0.6767578125
467, 2354622542, -5.353489875793457, 3.5445048809051514, 10.835789680480957, 21.72774887084961, 310.1160888671875, -130.80252075195312, 0.272216796875, -0.32080078125, -0.65087890625
468, 2354639209, -6.286929130554199, 4.157924175262451, 12.223983764648438, -1.8529185056686401, 398.45098876953125, -168.60948181152344, 0.353759765625, -0.302490234375, -0.6103515625
469, 2354655876, -7.492553234100342, 6.036253452301025, 12.9232759475708, -13.74392318725586, 460.6833801269531, -208.3080291748047, 0.447021484375, -0.273681640625, -0.55029296875
470, 2354672543, -18.416128158569336, 7.298624038696289, 16.443679809570312, 5.169970989227295, 472.1453552246094, -210.40884399414062, 0.53759765625, -0.23828125, -0.47216796875
471, 2354689210, -20.10118293762207, 8.93404483795166, 16.578227996826172, -15.149454116821289, 419.0813293457031, -197.11126708984375, 0.60693359375, -0.197509765625, -0.388671875
472, 2354705877, -10.03603458404541, 6.020188808441162, 14.976993560791016, -5.622616291046143, 344.0242614746094, -175.8756866455078, 0.65625, -0.151123046875, -0.30810546875
473, 2354722544, 2.560312032699585, 6.107666015625, 13.273444175720215, -2.253894090652466, 319.4660949707031, -187.81439208984375, 0.69140625, -0.106201171875, -0.23193359375
474, 2354739211, -11.290176391601562, 17.3187255859375, 20.560203552246094, -46.30183792114258, 278.9588928222656, -125.00203704833984, 0.713623046875, -0.056640625, -0.150390625
475, 2354755878, -18.155521392822266, 15.955537796020508, 28.93024444580078, -33.2227783203125, -29.283733367919922, 45.49665451049805, 0.717041015625, -0.0439453125, -0.11865234375
476, 2354772545, -3.2939562797546387, 9.346983909606934, 16.769926071166992, -56.46223449707031, -219.06541442871094, 142.16806030273438, 0.71826171875, -0.04296875, -0.1279296875
477, 2354789212, 2.307845115661621, 3.360177755355835, 8.712858200073242, -71.00879669189453, -254.7390594482422, 160.36720275878906, 0.737060546875, -0.04833984375, -0.150390625
478, 2354805879, 1.8366247415542603, 0.8298419713973999, 5.674075603485107, -69.88823699951172, -239.8411407470703, 155.1819610595703, 0.77783203125, -0.052001953125, -0.193115234375
479, 2354822546, -0.7017387747764587, -0.6250465512275696, 5.623083591461182, -59.72087860107422, -223.85641479492188, 148.76283264160156, 0.823974609375, -0.06787109375, -0.263671875
480, 2354839213, -4.1666154861450195, -0.31769809126853943, 7.018387317657471, -51.4647102355957, -228.7318572998047, 134.9104766845703, 0.851318359375, -0.08935546875, -0.374267578125
481, 2354855880, -7.0450592041015625, 0.06268519163131714, 8.458470344543457, -50.937015533447266, -256.06317138671875, 121.05659484863281, 0.82958984375, -0.115966796875, -0.50341796875
482, 2354872547, -8.232995986938477, -0.1411435902118683, 8.677836418151855, -46.35795211791992, -292.5958557128906, 112.89041137695312, 0.754638671875, -0.13330078125, -0.627197265625
483, 2354889214, -8.086553573608398, -0.10991060733795166, 7.877934455871582, -33.94485855102539, -314.3108215332031, 105.68851470947266, 0.65234375, -0.1416015625, -0.715087890625
484, 2354905881, -7.249685287475586, -0.13283312320709229, 6.494030952453613, -20.005657196044922, -314.2444152832031, 95.1679916381836, 0.551025390625, -0.144775390625, -0.77880859375
485, 2354922548, -7.126336574554443, -0.1290663629770279, 5.972349643707275, -5.592647075653076, -284.30780029296875, 73.86659240722656, 0.45947265625, -0.14599609375, -0.82373046875
486, 2354939215, -10.126852035522461, 0.5818548798561096, 8.233208656311035, 14.27965259552002, -243.7469940185547, 44.426185607910156, 0.37890625, -0.15283203125, -0.859375
487, 2354955882, -16.699953079223633, 2.129365921020508, 11.809249877929688, 44.24284362792969, -239.3172607421875, 28.19405174255371, 0.2958984375, -0.162353515625, -0.882568359375
488, 2354972549, -20.64051055908203, 2.3507633209228516, 11.12295150756836, 80.44812774658203, -259.73565673828125, 31.667919158935547, 0.20654296875, -0.17724609375, -0.88671875
489, 2354989216, -22.626075744628906, 3.204883337020874, 7.121140003204346, 109.14567565917969, -256.6746520996094, 41.89738845825195, 0.12646484375, -0.204345703125, -0.877685546875
490, 2355005883, -25.788379669189453, 5.745302677154541, 3.5311059951782227, 101.43024444580078, -229.72787475585938, 47.19847869873047, 0.06005859375, -0.241943359375, -0.866943359375
491, 2355022550, -30.19777488708496, 6.2691192626953125, -0.28156358003616333, 61.97057342529297, -214.7624053955078, 63.493465423583984, -0.002685546875, -0.2724609375, -0.857421875
492, 2355039217, -30.107484817504883, 0.2368309199810028, -6.489686965942383, 42.128658294677734, -200.08084106445312, 102.62151336669922, -0.067138671875, -0.2919921875, -0.84375
493, 2355055884, -28.224422454833984, -9.566370964050293, -12.593965530395508, 51.67292404174805, -156.84873962402344, 127.6030044555664, -0.117431640625, -0.30517578125, -0.83203125
494, 2355072551, -23.99607276916504, -13.181882858276367, -17.252620697021484, 32.169151306152344, -42.0813102722168, 72.91537475585938, -0.146728515625, -0.31396484375, -0.826416015625
495, 2355089218, -22.264720916748047, -14.109695434570312, -19.656471252441406, -39.882293701171875, 104.97956085205078, -68.09103393554688, -0.131591796875, -0.31103515625, -0.824462890625
496, 2355105885, -13.493280410766602, -0.8342523574829102, 6.764218330383301, -56.41816711425781, 151.81646728515625, -138.4801025390625, -0.08740234375, -0.294189453125, -0.831298828125
497, 2355122552, -11.091206550598145, 15.419394493103027, 17.258325576782227, -61.325748443603516, 73.82505798339844, -99.33451843261719, -0.05859375, -0.27685546875, -0.837158203125
498, 2355139219, -4.566732883453369, 3.508815288543701, 5.539780139923096, -54.88176345825195, 84.98188018798828, -63.65713882446289, -0.03857421875, -0.26318359375, -0.84033203125
499, 2355155886, -11.607138633728027, -6.313891887664795, 12.787907600402832, -30.018238067626953, 110.44427490234375, -8.424304962158203, -0.009521484375, -0.250244140625, -0.84326171875
500, 2355172553, -7.991302490234375, -4.322023391723633, 9.979565620422363, -3.923522710800171, 70.26760864257812, -51.82077407836914, 0.0107421875, -0.244384765625, -0.8427734375
501, 2355189220, -14.381645202636719, 12.320945739746094, 10.062134742736816, -41.574684143066406, 37.264827728271484, -42.73964309692383, 0.023681640625, -0.23583984375, -0.846923828125
502, 2355205887, -6.886230945587158, -2.286098003387451, 10.412989616394043, -36.16136932373047, 13.809422492980957, -28.330230712890625, 0.03271484375, -0.224853515625, -0.84619140625
503, 2355222554, -6.4859466552734375, 3.1564676761627197, 8.062807083129883, -17.062633514404297, 4.397470951080322, -13.41756820678711, 0.0322265625, -0.218994140625, -0.845947265625
504, 2355239221, -5.670821666717529, 2.1316885948181152, 8.401381492614746, -9.857706069946289, 3.2152345180511475, -8.467268943786621, 0.037109375, -0.216064453125, -0.84619140625
505, 2355255888, -5.643730640411377, 2.182232618331909, 8.211565017700195, -3.872614860534668, 3.451702117919922, -4.302332401275635, 0.03564453125, -0.216064453125, -0.847412109375
506, 2355272555, -5.398564338684082, 2.3953158855438232, 8.091906547546387, 0.7265490889549255, 4.8308820724487305, -2.25313663482666, 0.0361328125, -0.216064453125, -0.845947265625
507, 2355289222, -5.326593399047852, 2.2712204456329346, 8.105949401855469, 5.382965087890625, 8.185981750488281, -0.3395348787307739, 0.038330078125, -0.219970703125, -0.84716796875
508, 2355305889, -5.412458896636963, 2.3966355323791504, 7.979167938232422, 6.742577075958252, 9.996160507202148, -0.09284607321023941, 0.041259765625, -0.220947265625, -0.845703125
509, 2355322556, -5.5413289070129395, 2.3994829654693604, 7.914169788360596, 7.304328918457031, 10.822465896606445, -0.19621898233890533, 0.044189453125, -0.222412109375, -0.845458984375
510, 2355339223, -5.371450901031494, 2.5910539627075195, 7.823092460632324, 6.01421594619751, 10.660567283630371, -0.7847733497619629, 0.04931640625, -0.2255859375, -0.8427734375
511, 2355355890, -5.384031295776367, 2.5559980869293213, 7.827017784118652, 4.032843112945557, 10.253875732421875, -2.05365252494812, 0.04931640625, -0.224609375, -0.84130859375
512, 2355372557, -5.537025451660156, 2.434584617614746, 7.838630199432373, 3.029311180114746, 9.836899757385254, -2.361159086227417, 0.054931640625, -0.2255859375, -0.843017578125
513, 2355389224, -5.56489896774292, 2.4486820697784424, 7.785482883453369, 2.8011653423309326, 8.594886779785156, -1.4178681373596191, 0.056396484375, -0.228515625, -0.841064453125
514, 2355405891, -5.516939640045166, 2.5395450592041016, 7.791245460510254, 4.190258026123047, 8.30968952178955, -1.910810112953186, 0.058837890625, -0.2294921875, -0.83935546875
515, 2355422558, -5.465129375457764, 2.7898221015930176, 7.6737446784973145, 3.830028533935547, 7.825982093811035, -2.461714267730713, 0.058349609375, -0.233154296875, -0.83740234375
516, 2355439225, -5.630665302276611, 2.676260471343994, 7.6129350662231445, 3.187507390975952, 6.284480571746826, -3.482239246368408, 0.0634765625, -0.232666015625, -0.840087890625
517, 2355455892, -5.602078437805176, 2.582606077194214, 7.64730978012085, 3.0535781383514404, 4.1432318687438965, -3.894193649291992, 0.062255859375, -0.236083984375, -0.836669921875
518, 2355472559, -5.573619842529297, 2.7564632892608643, 7.576207637786865, 3.418227195739746, 3.319976568222046, -5.055179595947266, 0.0654296875, -0.236083984375, -0.83544921875
519, 2355489226, -5.517135143280029, 2.730985641479492, 7.562051296234131, 2.334463357925415, 2.1596693992614746, -6.4685258865356445, 0.064453125, -0.237060546875, -0.836669921875
520, 2355505893, -5.414360523223877, 2.6564245223999023, 7.679882049560547, 2.992018938064575, 1.9323058128356934, -7.9574079513549805, 0.0654296875, -0.2392578125, -0.833984375
521, 2355522560, -5.379669189453125, 2.698847532272339, 7.774522304534912, 2.693554401397705, 4.3691630363464355, -10.529358863830566, 0.06884765625, -0.23779296875, -0.83349609375
522, 2355539227, -5.42020320892334, 2.7418665885925293, 7.692023754119873, 3.821744441986084, 8.51079273223877, -13.264481544494629, 0.06982421875, -0.240234375, -0.834228515625
523, 2355555894, -5.474520683288574, 2.6573407649993896, 7.792091369628906, 7.820180892944336, 13.965115547180176, -17.23625373840332, 0.076904296875, -0.24365234375, -0.83447265625
524, 2355572561, -5.18306303024292, 2.8259825706481934, 8.239659309387207, 13.036062240600586, 21.064634323120117, -21.338890075683594, 0.079345703125, -0.2421875, -0.830078125
525, 2355589228, -4.969498634338379, 2.361969470977783, 8.595437049865723, 6.99070405960083, 36.33419418334961, -20.94205093383789, 0.0908203125, -0.244873046875, -0.82763671875
526, 2355605895, -5.028149127960205, 2.4879872798919678, 8.616816520690918, 12.097474098205566, 59.66927719116211, -22.619165420532227, 0.10693359375, -0.248046875, -0.82861328125
527, 2355622562, -5.0553975105285645, 2.3536832332611084, 8.79343318939209, 16.97550392150879, 89.21417236328125, -24.500898361206055, 0.1259765625, -0.2509765625, -0.82080078125
528, 2355639229, -4.972306728363037, 3.000150442123413, 8.719218254089355, 27.144752502441406, 127.00652313232422, -30.137250900268555, 0.1552734375, -0.2578125, -0.810791015625
529, 2355655896, -5.154115200042725, 4.137127876281738, 8.954118728637695, 35.196842193603516, 172.55850219726562, -46.81071090698242, 0.19384765625, -0.260986328125, -0.80029296875
530, 2355672563, -4.909026145935059, 4.132089614868164, 9.045331954956055, 31.697040557861328, 227.59823608398438, -72.87051391601562, 0.248291015625, -0.263671875, -0.783447265625
531, 2355689230, -5.7790045738220215, 3.8261847496032715, 9.234809875488281, 27.53107452392578, 300.8687438964844, -104.21665954589844, 0.3173828125, -0.262451171875, -0.75146484375
532, 2355705897, -6.791243553161621, 4.3155364990234375, 10.15164852142334, 12.73533821105957, 382.3617248535156, -148.59580993652344, 0.404296875, -0.251220703125, -0.70703125
533, 2355722564, -9.360742568969727, 6.311734676361084, 11.457874298095703, 7.632500648498535, 448.0055236816406, -190.4442901611328, 0.501220703125, -0.2265625, -0.643798828125
534, 2355739231, -20.266067504882812, 8.155256271362305, 15.093732833862305, 15.536457061767578, 466.3182067871094, -198.5985107421875, 0.595703125, -0.196533203125, -0.559814453125
535, 2355755898, -22.75570297241211, 7.882657527923584, 16.138771057128906, 17.383399963378906, 399.5468444824219, -183.34059143066406, 0.671142578125, -0.164794921875, -0.47216796875
536, 2355772565, -15.458379745483398, 9.6935396194458, 16.45044708251953, 13.867631912231445, 323.408203125, -170.64842224121094, 0.725341796875, -0.1357421875, -0.39306640625
537, 2355789232, -1.5515758991241455, 8.040032386779785, 15.021272659301758, -10.92599868774414, 274.78533935546875, -189.5090789794922, 0.7646484375, -0.096923828125, -0.318115234375
538, 2355805899, -5.791511535644531, 13.018647193908691, 16.016170501708984, -50.331363677978516, 263.8878479003906, -176.45132446289062, 0.787353515625, -0.0517578125, -0.245361328125
539, 2355822566, -19.96853256225586, 15.141914367675781, 29.03205108642578, -29.981582641601562, 4.29282808303833, -33.7241096496582, 0.78955078125, -0.03857421875, -0.21826171875
540, 2355839233, -3.4446539878845215, 11.20736026763916, 18.03148078918457, -46.352455139160156, -198.7313995361328, 56.87168502807617, 0.770751953125, -0.049072265625, -0.241943359375
541, 2355855900, 3.1076364517211914, 5.98361349105835, 9.311575889587402, -72.4789810180664, -241.9823455810547, 72.34719848632812, 0.74462890625, -0.060791015625, -0.273681640625
542, 2355872567, 3.3103585243225098, 2.9674875736236572, 5.649814605712891, -75.04600524902344, -230.75892639160156, 70.72805786132812, 0.72119140625, -0.068359375, -0.307861328125
543, 2355889234, 1.1995123624801636, 1.6607651710510254, 5.126863479614258, -55.75379943847656, -210.3925018310547, 83.86026763916016, 0.70654296875, -0.08203125, -0.332275390625
544, 2355905901, -2.947222948074341, 2.841188907623291, 6.591734886169434, -40.3873405456543, -206.7625732421875, 99.57305908203125, 0.686279296875, -0.09912109375, -0.35595703125
545, 2355922568, -7.051690101623535, 4.386146068572998, 8.395641326904297, -47.297767639160156, -234.22451782226562, 111.34124755859375, 0.676513671875, -0.12158203125, -0.381591796875
546, 2355939235, -8.915684700012207, 4.7086992263793945, 8.71899127960205, -66.41525268554688, -283.0131530761719, 125.22982788085938, 0.660400390625, -0.142333984375, -0.4248046875
547, 2355955902, -7.995946884155273, 3.7216949462890625, 7.189577579498291, -77.73987579345703, -313.9359130859375, 138.20851135253906, 0.6396484375, -0.17041015625, -0.490234375
548, 2355972569, -6.986920356750488, 2.576707124710083, 5.517839431762695, -74.46426391601562, -313.90447998046875, 143.16209411621094, 0.594482421875, -0.19873046875, -0.572998046875
549, 2355989236, -7.1611528396606445, 1.8131979703903198, 5.472640037536621, -57.965030670166016, -289.1410217285156, 136.14657592773438, 0.529296875, -0.22412109375, -0.646484375
550, 2356005903, -8.771286010742188, 1.3644052743911743, 6.452781677246094, -36.14529037475586, -253.57659912109375, 115.57461547851562, 0.453125, -0.2431640625, -0.693359375
551, 2356022570, -14.600435256958008, 1.2889147996902466, 9.694952011108398, 0.2776569724082947, -230.73187255859375, 90.56416320800781, 0.380859375, -0.256591796875, -0.709228515625
552, 2356039237, -20.347227096557617, 1.0714685916900635, 10.729013442993164, 50.642024993896484, -243.8507843017578, 74.90384674072266, 0.322509765625, -0.273681640625, -0.701171875
553, 2356055904, -25.659101486206055, 2.1146867275238037, 8.987995147705078, 89.02835845947266, -266.0870666503906, 65.06269073486328, 0.27978515625, -0.296142578125, -0.695556640625
554, 2356072571, -29.01311492919922, 4.562166690826416, 3.976177215576172, 78.13706970214844, -278.5417785644531, 47.267024993896484, 0.249267578125, -0.322998046875, -0.69921875
555, 2356089238, -29.850967407226562, 3.8688805103302, -2.3684396743774414, 47.68754577636719, -265.8496398925781, 34.0875129699707, 0.21435546875, -0.341552734375, -0.727783203125
556, 2356105905, -28.314373016357422, -0.07431042939424515, -7.239792346954346, 62.53600311279297, -225.77569580078125, 56.0402946472168, 0.1708984375, -0.36083984375, -0.745361328125
557, 2356122572, -27.622501373291016, -3.709726333618164, -10.146808624267578, 93.15404510498047, -173.53196716308594, 94.00035095214844, 0.12451171875, -0.395751953125, -0.759521484375
558, 2356139239, -25.48296546936035, -7.84848165512085, -11.863362312316895, 86.37594604492188, -113.15206146240234, 100.188232421875, 0.08203125, -0.424072265625, -0.76806640625
559, 2356155906, -21.96542739868164, -7.870132923126221, -14.509778022766113, 11.470202445983887, -5.377005577087402, 26.615280151367188, 0.058837890625, -0.44091796875, -0.77197265625
560, 2356172573, -19.935190200805664, -10.996024131774902, -15.535309791564941, -55.71052169799805, 120.75647735595703, -100.25811767578125, 0.089599609375, -0.433349609375, -0.78271484375
561, 2356189240, -10.173148155212402, 6.898740768432617, 15.664109230041504, -79.48345184326172, 129.02099609375, -134.20655822753906, 0.142578125, -0.4130859375, -0.795654296875
562, 2356205907, -3.700545310974121, 9.947088241577148, 9.363448143005371, -82.32996368408203, 86.90782928466797, -98.12835693359375, 0.17822265625, -0.394287109375, -0.803466796875
563, 2356222574, -8.740336418151855, -1.3829714059829712, 8.673962593078613, -78.06368255615234, 135.6513671875, -64.31689453125, 0.221435546875, -0.37255859375, -0.810302734375
564, 2356239241, -13.964594841003418, -3.879755973815918, 13.013132095336914, -58.886749267578125, 95.81202697753906, -54.03019714355469, 0.257568359375, -0.3583984375, -0.8134765625
565, 2356255908, -16.717012405395508, 4.290293216705322, 13.138312339782715, -64.40909576416016, 14.042193412780762, -56.23906326293945, 0.27734375, -0.339599609375, -0.82177734375
566, 2356272575, -5.492818355560303, -0.045160189270973206, 9.395862579345703, -38.616092681884766, -3.503678798675537, -28.0588321685791, 0.27978515625, -0.326904296875, -0.826416015625
567, 2356289242, -6.869108200073242, 1.7601685523986816, 8.652486801147461, -20.377931594848633, -3.387453556060791, -13.685830116271973, 0.28271484375, -0.319580078125, -0.828125
568, 2356305909, -5.872096538543701, 2.0322964191436768, 8.43764591217041, -7.793921947479248, -2.7637135982513428, -6.929275035858154, 0.28369140625, -0.318603515625, -0.8291015625
569, 2356322576, -5.63807487487793, 2.031420946121216, 8.215126037597656, -6.272846221923828, -1.9019739627838135, -6.298727989196777, 0.284423828125, -0.318115234375, -0.8310546875
570, 2356339243, -5.462600231170654, 2.3505959510803223, 7.986138820648193, -4.980556488037109, -1.534943699836731, -6.0400261878967285, 0.284423828125, -0.31787109375, -0.8310546875
571, 2356355910, -5.338331699371338, 2.252854824066162, 8.115089416503906, -4.503712177276611, -0.5640301704406738, -6.391548156738281, 0.286865234375, -0.317626953125, -0.829833984375
572, 2356372577, -5.347080707550049, 2.2867655754089355, 8.166167259216309, -4.509181022644043, 1.6921995878219604, -7.181726455688477, 0.284423828125, -0.31494140625, -0.83251953125
573, 2356389244, -5.467180252075195, 1.9619590044021606, 8.130821228027344, -5.767226696014404, 2.6479380130767822, -7.724754333496094, 0.287353515625, -0.3134765625, -0.8349609375
574, 2356405911, -5.440760612487793, 2.130655527114868, 8.023032188415527, -5.593929767608643, 2.9477086067199707, -6.405417442321777, 0.290771484375, -0.314453125, -0.831787109375
575, 2356422578, -5.3595709800720215, 2.1779019832611084, 7.9377217292785645, -6.291965961456299, 1.725969910621643, -6.173635959625244, 0.290283203125, -0.31103515625, -0.829345703125
576, 2356439245, -5.250597953796387, 2.180567502975464, 7.947859287261963, -5.981936931610107, 0.548861026763916, -5.971230506896973, 0.289794921875, -0.31005859375, -0.83154296875
577, 2356455912, -5.331261157989502, 2.0921823978424072, 7.948824405670166, -4.6879706382751465, -0.2951992452144623, -5.86356782913208, 0.292236328125, -0.31005859375, -0.8330078125
578, 2356472579, -5.366666316986084, 2.1012566089630127, 7.910488128662109, -5.018105983734131, -2.481576919555664, -6.181230545043945, 0.293212890625, -0.310546875, -0.832275390625
579, 2356489246, -5.294015884399414, 1.9109387397766113, 7.912978649139404, -4.350062370300293, -3.788196325302124, -7.038371562957764, 0.290771484375, -0.30908203125, -0.83251953125
580, 2356505913, -5.247361660003662, 1.7783609628677368, 7.959308624267578, -2.581094264984131, -3.3016183376312256, -6.353090286254883, 0.292724609375, -0.30859375, -0.83251953125
581, 2356522580, -5.182077884674072, 2.016728162765503, 7.922267913818359, -0.9865371584892273, -2.744682550430298, -5.374748706817627, 0.293212890625, -0.310546875, -0.831787109375
582, 2356539247, -5.150380611419678, 2.1386802196502686, 7.980325222015381, -0.7826474905014038, -1.855871319770813, -6.724206447601318, 0.293212890625, -0.30908203125, -0.831787109375
583, 2356555914, -5.190160751342773, 1.991152286529541, 8.045209884643555, -0.13103459775447845, 0.052602093666791916, -7.798620223999023, 0.292236328125, -0.30810546875, -0.83447265625
584, 2356572581, -5.139779090881348, 1.8764992952346802, 8.167081832885742, 2.9891624450683594, 4.762816905975342, -7.391634941101074, 0.296875, -0.3076171875, -0.8359375
585, 2356589248, -5.100826263427734, 2.135057210922241, 8.208059310913086, 7.058079242706299, 12.429912567138672, -9.491576194763184, 0.30078125, -0.310546875, -0.832763671875
586, 2356605915, -5.123315811157227, 2.1509928703308105, 8.107397079467773, 10.721071243286133, 20.327789306640625, -10.988563537597656, 0.304931640625, -0.31298828125, -0.828369140625
587, 2356622582, -4.98930025100708, 2.484358072280884, 8.309846878051758, 12.872572898864746, 30.575212478637695, -13.567055702209473, 0.31396484375, -0.314697265625, -0.82568359375
588, 2356639249, -4.513636589050293, 2.1476428508758545, 9.14820384979248, 14.53773307800293, 47.28123474121094, -16.0695858001709, 0.324462890625, -0.31884765625, -0.8212890625
589, 2356655916, -4.637697219848633, 1.7877939939498901, 9.043928146362305, 19.741044998168945, 73.19841766357422, -18.567758560180664, 0.341064453125, -0.322265625, -0.816162109375
590, 2356672583, -4.770269870758057, 1.917892336845398, 9.321146965026855, 26.777812957763672, 106.1051254272461, -22.421600341796875, 0.366943359375, -0.325927734375, -0.802490234375
591, 2356689250, -5.152236461639404, 2.735285520553589, 9.599091529846191, 30.448095321655273, 146.53465270996094, -31.441024780273438, 0.3994140625, -0.333984375, -0.787353515625
592, 2356705917, -4.644989013671875, 3.9698667526245117, 9.344097137451172, 33.500850677490234, 193.68026733398438, -53.54018783569336, 0.44189453125, -0.333251953125, -0.763671875
593, 2356722584, -5.60189151763916, 4.344137668609619, 9.589271545410156, 35.88288497924805, 256.5867919921875, -89.45049285888672, 0.49853515625, -0.33349609375, -0.72802734375
594, 2356739251, -5.857203483581543, 3.89620304107666, 9.881505012512207, 19.47646141052246, 331.3695373535156, -133.85487365722656, 0.56982421875, -0.319580078125, -0.6787109375
595, 2356755918, -7.295478343963623, 4.495866298675537, 11.959917068481445, 8.752608299255371, 411.0036315917969, -175.0205078125, 0.65478515625, -0.29150390625, -0.610107421875
596, 2356772585, -10.161755561828613, 6.188736915588379, 12.511362075805664, 6.674994945526123, 470.7485656738281, -210.94754028320312, 0.74169921875, -0.24951171875, -0.520263671875
597, 2356789252, -20.824522018432617, 6.842100143432617, 16.081005096435547, 17.850839614868164, 462.68927001953125, -200.4650421142578, 0.81689453125, -0.205322265625, -0.4208984375
598, 2356805919, -21.08771324157715, 8.029655456542969, 16.901662826538086, 17.55282211303711, 401.5862121582031, -176.75881958007812, 0.856201171875, -0.168701171875, -0.326416015625
599, 2356822586, -11.487569808959961, 7.2587456703186035, 16.65320587158203, 11.124656677246094, 324.294921875, -166.5415802001953, 0.873779296875, -0.13134765625, -0.25244140625
600, 2356839253, 6.156094074249268, 7.213196754455566, 11.977409362792969, -16.08452606201172, 291.6191101074219, -187.50596618652344, 0.87939453125, -0.09375, -0.189697265625
601, 2356855920, -19.82625961303711, 14.619904518127441, 21.06836700439453, -35.33433532714844, 278.2731628417969, -132.91587829589844, 0.876708984375, -0.0537109375, -0.123291015625
602, 2356872587, -18.60063934326172, 14.737398147583008, 26.581506729125977, -37.09905242919922, -39.237571716308594, 13.866143226623535, 0.84912109375, -0.054931640625, -0.126708984375
603, 2356889254, -3.2653486728668213, 9.209543228149414, 14.790844917297363, -70.33671569824219, -210.1821746826172, 93.70470428466797, 0.80615234375, -0.073974609375, -0.16552734375
604, 2356905921, 2.068535804748535, 3.648743152618408, 7.201473236083984, -91.96768188476562, -236.22872924804688, 108.05291748046875, 0.76708984375, -0.090576171875, -0.204345703125
605, 2356922588, 2.51285457611084, 0.54548180103302, 4.559677600860596, -83.42461395263672, -220.3795928955078, 111.11656188964844, 0.73876953125, -0.10302734375, -0.23095703125
606, 2356939255, 0.6786714196205139, -0.5712592005729675, 4.593188285827637, -58.595672607421875, -201.23289489746094, 118.68385314941406, 0.7265625, -0.119140625, -0.25537109375
607, 2356955922, -2.3957011699676514, 0.6772542595863342, 5.941952228546143, -47.57856369018555, -196.45803833007812, 115.4153060913086, 0.725341796875, -0.137939453125, -0.2822265625
608, 2356972589, -6.357416152954102, 1.8472856283187866, 8.083266258239746, -55.51844024658203, -220.69232177734375, 106.83277893066406, 0.724365234375, -0.158203125, -0.322509765625
609, 2356989256, -8.603519439697266, 1.7231154441833496, 9.063997268676758, -59.36800003051758, -268.3561096191406, 110.3290786743164, 0.720458984375, -0.183837890625, -0.38330078125
610, 2357005923, -8.306653022766113, 1.2970467805862427, 7.845914363861084, -53.225528717041016, -308.9825439453125, 118.98372650146484, 0.705322265625, -0.21826171875, -0.466796875
611, 2357022590, -7.327961444854736, 0.7180815935134888, 6.207083702087402, -41.627952575683594, -320.93310546875, 117.81389617919922, 0.663818359375, -0.2626953125, -0.56787109375
612, 2357039257, -7.010941505432129, -0.2861166000366211, 4.688835620880127, -25.62729263305664, -304.6802978515625, 100.45098876953125, 0.588134765625, -0.30615234375, -0.66455078125
613, 2357055924, -8.065160751342773, -1.0903639793395996, 4.846888542175293, 2.097144603729248, -263.1930847167969, 68.14378356933594, 0.486083984375, -0.34130859375, -0.738525390625
614, 2357072591, -13.798582077026367, 0.35752901434898376, 8.741836547851562, 38.546417236328125, -231.6221466064453, 36.29197311401367, 0.378173828125, -0.3603515625, -0.755126953125
615, 2357089258, -20.168319702148438, 1.1604466438293457, 10.739457130432129, 84.01859283447266, -247.9581298828125, 26.183486938476562, 0.28759765625, -0.376220703125, -0.752197265625
616, 2357105925, -25.653602600097656, 2.057158946990967, 8.018106460571289, 127.70142364501953, -274.5886535644531, 37.09654998779297, 0.2041015625, -0.397705078125, -0.73681640625
617, 2357122592, -28.745267868041992, 4.438405513763428, 2.7691121101379395, 126.0596694946289, -276.3428039550781, 41.81718826293945, 0.129150390625, -0.4189453125, -0.71240234375
618, 2357139259, -32.24766540527344, 4.891302108764648, -2.2336931228637695, 85.14586639404297, -262.8777160644531, 51.51799392700195, 0.071044921875, -0.427978515625, -0.680908203125
619, 2357155926, -30.215072631835938, 2.7533514499664307, -8.197495460510254, 47.3888053894043, -244.14852905273438, 85.60736846923828, 0.030517578125, -0.427490234375, -0.6572265625
620, 2357172593, -26.017229080200195, -2.0443811416625977, -11.881345748901367, 30.42169761657715, -186.3975372314453, 115.72075653076172, -0.001220703125, -0.43017578125, -0.646240234375
621, 2357189260, -25.372371673583984, -7.911242485046387, -11.283863067626953, 39.92001724243164, -113.90826416015625, 131.34457397460938, -0.02294921875, -0.43701171875, -0.64208984375
622, 2357205927, -23.342304229736328, -10.194716453552246, -17.334436416625977, -23.355751037597656, 17.906057357788086, 48.1709098815918, -0.029541015625, -0.43603515625, -0.643798828125
623, 2357222594, -16.34223175048828, -13.887155532836914, -9.895380020141602, -60.20016098022461, 120.94784545898438, -92.3795394897461, 0.003173828125, -0.421142578125, -0.64306640625
624, 2357239261, -10.986578941345215, 8.299346923828125, 23.32967185974121, -76.15057373046875, 77.87228393554688, -122.30426788330078, 0.040771484375, -0.3984375, -0.646728515625
625, 2357255928, -2.5988426208496094, 5.5519185066223145, 3.4868671894073486, -40.49131774902344, 80.86561584472656, -71.86354064941406, 0.0654296875, -0.382568359375, -0.644775390625
626, 2357272595, -13.2063627243042, 0.4909760653972626, 13.562830924987793, -28.979694366455078, 117.58556365966797, -9.95873737335205, 0.095458984375, -0.3720703125, -0.640380859375
627, 2357289262, -8.871916770935059, -5.328619480133057, 10.275067329406738, -10.06614875793457, 73.01895904541016, -37.52627182006836, 0.116943359375, -0.3642578125, -0.635009765625
628, 2357305929, -11.072868347167969, 8.804441452026367, 11.03987979888916, -21.829120635986328, 61.074588775634766, -41.8137092590332, 0.134521484375, -0.35888671875, -0.63134765625
629, 2357322596, -7.742125511169434, 0.1992928385734558, 7.9931960105896, -29.763954162597656, 31.09659767150879, -23.95563507080078, 0.14404296875, -0.349853515625, -0.630859375
630, 2357339263, -6.546832084655762, 2.1078624725341797, 8.913657188415527, -20.44913673400879, 15.4281644821167, -18.152332305908203, 0.154052734375, -0.343994140625, -0.631591796875
631, 2357355930, -5.847566604614258, 2.69637393951416, 8.559391021728516, -13.874715805053711, 10.886777877807617, -12.552943229675293, 0.156005859375, -0.33935546875, -0.632568359375
632, 2357372597, -5.856903553009033, 2.479778528213501, 8.094289779663086, -9.988001823425293, 9.356654167175293, -9.30143928527832, 0.15869140625, -0.3359375, -0.632568359375
633, 2357389264, -5.601992607116699, 2.587184429168701, 8.102734565734863, -4.247112274169922, 7.835190773010254, -6.020280361175537, 0.16259765625, -0.3388671875, -0.6318359375
634, 2357405931, -5.576482772827148, 2.609515428543091, 8.011311531066895, -2.3210361003875732, 7.402693271636963, -5.663673400878906, 0.16748046875, -0.337890625, -0.628662109375
635, 2357422598, -5.614019393920898, 2.501312017440796, 7.966677665710449, -3.0572354793548584, 6.937733173370361, -6.498175144195557, 0.16796875, -0.3359375, -0.627197265625
636, 2357439265, -5.535762310028076, 2.817786455154419, 7.854491233825684, -7.293886661529541, 5.50799560546875, -10.44402027130127, 0.16796875, -0.33447265625, -0.629150390625
637, 2357455932, -5.676780700683594, 2.6044111251831055, 7.965961933135986, -10.835310935974121, 1.881734848022461, -12.91145133972168, 0.172119140625, -0.33251953125, -0.633544921875
638, 2357472599, -5.717962265014648, 2.699507713317871, 7.7646636962890625, -17.547677993774414, -4.79889440536499, -15.533570289611816, 0.170166015625, -0.3310546875, -0.630615234375
639, 2357489266, -5.606507778167725, 2.624161720275879, 7.779694557189941, -21.826248168945312, -11.709571838378906, -14.808272361755371, 0.173583984375, -0.320068359375, -0.6318359375
640, 2357505933, -5.363299369812012, 2.7068777084350586, 7.499250411987305, -21.432231903076172, -14.608181953430176, -13.987238883972168, 0.171630859375, -0.319091796875, -0.634765625
641, 2357522600, -5.298104286193848, 1.8922621011734009, 7.9982171058654785, -14.279742240905762, -10.980283737182617, -11.645127296447754, 0.169677734375, -0.31640625, -0.634521484375
642, 2357539267, -5.259505271911621, 1.5438741445541382, 8.0572509765625, -9.062394142150879, -5.993581295013428, -9.745588302612305, 0.170166015625, -0.31640625, -0.638427734375
643, 2357555934, -5.369666576385498, 2.067134141921997, 8.012760162353516, -5.576321601867676, -2.767516613006592, -8.484502792358398, 0.168701171875, -0.3134765625, -0.63720703125
644, 2357572601, -5.354050159454346, 2.2447593212127686, 7.9199299812316895, -3.809633731842041, -1.168502926826477, -8.746739387512207, 0.172119140625, -0.31201171875, -0.6416015625
645, 2357589268, -5.470685005187988, 2.0537426471710205, 7.816443920135498, -2.3299365043640137, -0.27240392565727234, -8.98836898803711, 0.172119140625, -0.3115234375, -0.64501953125
646, 2357605935, -5.3774542808532715, 2.0649263858795166, 7.868094444274902, 0.7419168949127197, 1.157406210899353, -9.496910095214844, 0.175048828125, -0.31298828125, -0.637451171875
647, 2357622602, -5.22550630569458, 2.281299352645874, 8.008758544921875, 2.4092793464660645, 4.719187259674072, -11.09404468536377, 0.176513671875, -0.31298828125, -0.63623046875
648, 2357639269, -5.262305736541748, 2.3801920413970947, 8.056680679321289, 3.5316171646118164, 10.874863624572754, -14.798484802246094, 0.17822265625, -0.31396484375, -0.6357421875
649, 2357655936, -5.0661845207214355, 2.6121089458465576, 8.150192260742188, 5.591209411621094, 19.10565757751465, -19.538419723510742, 0.186279296875, -0.3115234375, -0.636474609375
650, 2357672603, -4.968843460083008, 1.9775995016098022, 8.650375366210938, 5.569398403167725, 30.183944702148438, -19.75213050842285, 0.192138671875, -0.31201171875, -0.63232421875
651, 2357689270, -4.766470909118652, 1.7546212673187256, 8.770674705505371, 8.307442665100098, 50.396881103515625, -16.80361557006836, 0.2021484375, -0.311767578125, -0.631591796875
652, 2357705937, -5.018197059631348, 1.7485857009887695, 8.679183959960938, 16.04464340209961, 75.66626739501953, -17.239253997802734, 0.21875, -0.314208984375, -0.623291015625
653, 2357722604, -5.077617168426514, 2.0803165435791016, 8.892221450805664, 21.372180938720703, 103.07157135009766, -19.490678787231445, 0.23974609375, -0.3173828125, -0.614013671875
654, 2357739271, -5.424055576324463, 2.9581592082977295, 9.292724609375, 24.5895938873291, 137.0977783203125, -29.016273498535156, 0.267333984375, -0.320556640625, -0.60009765625
655, 2357755938, -5.069887161254883, 3.7061612606048584, 8.89016056060791, 27.646102905273438, 178.5122833251953, -50.26249694824219, 0.2998046875, -0.322021484375, -0.582275390625
