sep=,
DeviceTag:,A,,,,,,,,,,,,,,,,,
FirmwareVersion:,2.2.1,,,,,,,,,,,,,,,,,
AppVersion:,2022.0.1,,,,,,,,,,,,,,,,,
SyncStatus:,Synced,,,,,,,,,,,,,,,,,
OutputRate:,60Hz,,,,,,,,,,,,,,,,,
FilterProfile:,General,,,,,,,,,,,,,,,,,
Measurement Mode:,Inertial Mode - Rate quantities (with mag),,,,,,,,,,,,,,,,,
StartTime:,2022-08-05 16:33:08.191 +0300,,,,,,,,,,,,,,,,,
© Xsens Technologies B. V. 2005-2022,,,,,,,,,,,,,,,,,,,

PacketCounter,SampleTimeFine,Acc_X,Acc_Y,Acc_Z,Gyr_X,Gyr_Y,Gyr_Z,Mag_X,Mag_Y,Mag_Z
1, 2635244821, -5.435957431793213, 2.059258222579956, 7.977014541625977, 1.1268500089645386, -0.6959354877471924, -3.0602567195892334, 0.0625, -0.16943359375, -0.826904296875
2, 2635261488, -5.396601676940918, 2.105482578277588, 7.906408309936523, 3.3620831966400146, -2.0665993690490723, -3.221616744995117, 0.0625, -0.171875, -0.828125
3, 2635278155, -5.277597904205322, 2.270585775375366, 7.976097583770752, 2.4414474964141846, -2.3876800537109375, -2.9154551029205322, 0.0625, -0.17138671875, -0.826904296875
4, 2635294822, -5.315080165863037, 2.2031807899475098, 7.956552505493164, 1.5146136283874512, -2.0416910648345947, -2.753993034362793, 0.0615234375, -0.1728515625, -0.823486328125
5, 2635311489, -5.2667694091796875, 2.223618268966675, 7.984106540679932, -0.2261473536491394, -1.8680492639541626, -2.8941709995269775, 0.06005859375, -0.17529296875, -0.824951171875
6, 2635328156, -5.267008304595947, 2.2371890544891357, 7.992802619934082, -1.5507338047027588, -1.808243989944458, -2.933986186981201, 0.06103515625, -0.17529296875, -0.821533203125
7, 2635344823, -5.248874187469482, 2.2159299850463867, 7.968673229217529, -2.7676570415496826, -1.7501029968261719, -2.990692615509033, 0.0634765625, -0.17333984375, -0.824462890625
8, 2635361490, -5.268669605255127, 2.202327251434326, 8.001276969909668, -3.239302635192871, -1.3361250162124634, -2.9268147945404053, 0.06103515625, -0.17236328125, -0.825927734375
9, 2635378157, -5.295389652252197, 2.204774856567383, 7.947780132293701, -3.6000185012817383, -1.3059786558151245, -2.931898593902588, 0.0615234375, -0.17431640625, -0.823974609375
10, 2635394824, -5.323875904083252, 2.179290533065796, 7.972452640533447, -4.067566871643066, -1.4221198558807373, -2.9017274379730225, 0.06298828125, -0.17431640625, -0.823974609375
11, 2635411491, -5.358487129211426, 2.1549556255340576, 7.978732585906982, -3.9009041786193848, -1.4313786029815674, -2.8974881172180176, 0.06298828125, -0.17333984375, -0.822021484375
12, 2635428158, -5.350254058837891, 2.1275341510772705, 7.987664699554443, -3.435098648071289, -1.4743183851242065, -2.6636059284210205, 0.06494140625, -0.17138671875, -0.825439453125
13, 2635444825, -5.299239158630371, 2.1946725845336914, 7.997608184814453, -3.2670154571533203, -1.5510797500610352, -2.7577195167541504, 0.06103515625, -0.17236328125, -0.825439453125
14, 2635461492, -5.30919075012207, 2.1697590351104736, 7.968136787414551, -3.2769529819488525, -1.4894298315048218, -2.904979944229126, 0.0625, -0.1708984375, -0.826416015625
15, 2635478159, -5.339504241943359, 2.1621971130371094, 8.02668285369873, -3.06573748588562, -1.3303877115249634, -2.654282331466675, 0.0615234375, -0.171875, -0.825439453125
16, 2635494826, -5.302493572235107, 2.179849863052368, 7.998655319213867, -3.1280534267425537, -1.3489952087402344, -2.6657187938690186, 0.06201171875, -0.1708984375, -0.825927734375
17, 2635511493, -5.316072940826416, 2.1835060119628906, 7.994039058685303, -3.4013795852661133, -1.435758352279663, -2.728085994720459, 0.0615234375, -0.17138671875, -0.825439453125
18, 2635528160, -5.324680805206299, 2.148042678833008, 7.99215841293335, -3.720693588256836, -1.4816054105758667, -2.629412889480591, 0.0615234375, -0.169921875, -0.825439453125
19, 2635544827, -5.3590779304504395, 2.1177821159362793, 7.973287582397461, -3.6848998069763184, -1.6300950050354004, -2.567392110824585, 0.0615234375, -0.17333984375, -0.827392578125
20, 2635561494, -5.298234939575195, 2.1688711643218994, 7.98343563079834, -3.4622092247009277, -1.6471142768859863, -2.3410134315490723, 0.06103515625, -0.17138671875, -0.82666015625
21, 2635578161, -5.297581672668457, 2.173177480697632, 7.993770599365234, -3.425314426422119, -1.5107778310775757, -2.508161783218384, 0.06103515625, -0.1708984375, -0.826416015625
22, 2635594828, -5.303544521331787, 2.1593620777130127, 7.96816873550415, -3.304525136947632, -1.3532342910766602, -2.5939645767211914, 0.06103515625, -0.17041015625, -0.825439453125
23, 2635611495, -5.315616130828857, 2.137725353240967, 7.988032341003418, -3.3750107288360596, -1.2599142789840698, -2.409604549407959, 0.06103515625, -0.1728515625, -0.824462890625
24, 2635628162, -5.341529369354248, 2.140744686126709, 7.9874467849731445, -3.3486557006835938, -1.2423441410064697, -2.4650301933288574, 0.0625, -0.17041015625, -0.82763671875
25, 2635644829, -5.322963237762451, 2.148057460784912, 8.004100799560547, -3.219696044921875, -1.2687891721725464, -2.376807451248169, 0.0634765625, -0.17041015625, -0.827880859375
26, 2635661496, -5.318978309631348, 2.1587674617767334, 7.991862773895264, -3.296405553817749, -1.3582541942596436, -2.456718683242798, 0.06103515625, -0.1708984375, -0.825439453125
27, 2635678163, -5.328564643859863, 2.1465954780578613, 7.995023727416992, -3.2709338665008545, -1.384225606918335, -2.444936990737915, 0.0625, -0.169921875, -0.825439453125
28, 2635694830, -5.310344219207764, 2.145275115966797, 7.996815204620361, -3.2339489459991455, -1.3598934412002563, -2.4331934452056885, 0.06201171875, -0.169921875, -0.824462890625
29, 2635711497, -5.296816825866699, 2.152984619140625, 8.001120567321777, -3.113300085067749, -1.1196335554122925, -2.4809226989746094, 0.06298828125, -0.1689453125, -0.823974609375
30, 2635728164, -5.340577125549316, 2.139890670776367, 7.9684624671936035, -2.6572790145874023, -0.7178470492362976, -2.5483992099761963, 0.06103515625, -0.17041015625, -0.825927734375
31, 2635744831, -5.329664707183838, 2.136915445327759, 7.982188701629639, -2.930464506149292, -1.04270601272583, -2.5891754627227783, 0.06396484375, -0.1689453125, -0.825927734375
32, 2635761498, -5.332117557525635, 2.142759084701538, 7.970123767852783, -2.9350998401641846, -1.277740716934204, -2.5458381175994873, 0.06201171875, -0.1708984375, -0.826904296875
33, 2635778165, -5.311973571777344, 2.145075798034668, 7.9826507568359375, -2.9650156497955322, -1.4353355169296265, -2.5945024490356445, 0.060546875, -0.1708984375, -0.824951171875
34, 2635794832, -5.331709861755371, 2.1392199993133545, 7.992616176605225, -2.9454729557037354, -1.3476120233535767, -2.5994837284088135, 0.06201171875, -0.168212890625, -0.82666015625
35, 2635811499, -5.321813106536865, 2.128284215927124, 8.006597518920898, -2.934241771697998, -1.396237850189209, -2.5745372772216797, 0.0595703125, -0.168701171875, -0.823974609375
36, 2635828166, -5.306483268737793, 2.13305401802063, 7.991199493408203, -2.7922074794769287, -1.3788471221923828, -2.5131313800811768, 0.0615234375, -0.169189453125, -0.825439453125
37, 2635844833, -5.3065409660339355, 2.149345636367798, 7.980542182922363, -2.750676393508911, -1.292724370956421, -2.6115353107452393, 0.0615234375, -0.16943359375, -0.828125
38, 2635861500, -5.313334941864014, 2.1554646492004395, 7.967418193817139, -2.8095078468322754, -1.2861031293869019, -2.7020628452301025, 0.0625, -0.16943359375, -0.8310546875
39, 2635878167, -5.333824157714844, 2.139190196990967, 7.966383457183838, -2.8566739559173584, -1.356563687324524, -2.8385400772094727, 0.0625, -0.16943359375, -0.826416015625
40, 2635894834, -5.316919803619385, 2.117495059967041, 7.9685235023498535, -2.806344747543335, -1.3084629774093628, -2.7806296348571777, 0.06298828125, -0.17041015625, -0.827392578125
41, 2635911501, -5.3071370124816895, 2.1330459117889404, 7.976550102233887, -2.8113651275634766, -1.3678462505340576, -2.7179300785064697, 0.06298828125, -0.16943359375, -0.825927734375
42, 2635928168, -5.332121849060059, 2.1269161701202393, 7.991661548614502, -2.8562514781951904, -1.3299905061721802, -2.7839467525482178, 0.06396484375, -0.166259765625, -0.825439453125
43, 2635944835, -5.320838451385498, 2.1264126300811768, 7.987937927246094, -2.847965717315674, -1.3737114667892456, -2.7521870136260986, 0.06396484375, -0.1689453125, -0.82861328125
44, 2635961502, -5.332156658172607, 2.130411386489868, 7.999641418457031, -2.8355050086975098, -1.3882466554641724, -2.7573862075805664, 0.06201171875, -0.16845703125, -0.82763671875
45, 2635978169, -5.327786445617676, 2.1244709491729736, 7.971503257751465, -2.730339288711548, -1.347074270248413, -2.7332847118377686, 0.0615234375, -0.168701171875, -0.82666015625
46, 2635994836, -5.324296474456787, 2.1340179443359375, 7.998680114746094, -2.7964072227478027, -1.4338372945785522, -2.6208322048187256, 0.06103515625, -0.169189453125, -0.825439453125
47, 2636011503, -5.316434860229492, 2.1333000659942627, 7.995631694793701, -2.7419674396514893, -1.4456831216812134, -2.726804733276367, 0.06396484375, -0.1689453125, -0.824462890625
48, 2636028170, -5.332247257232666, 2.1201648712158203, 8.011493682861328, -2.801415205001831, -1.426499605178833, -2.5867550373077393, 0.06298828125, -0.168212890625, -0.823974609375
49, 2636044837, -5.315640449523926, 2.123753070831299, 7.981938362121582, -2.624584913253784, -1.3702411651611328, -2.5670077800750732, 0.06298828125, -0.167236328125, -0.825927734375
50, 2636061504, -5.328149795532227, 2.1010162830352783, 7.994139194488525, -2.684941291809082, -1.386646032333374, -2.555187463760376, 0.06298828125, -0.16845703125, -0.826904296875
51, 2636078171, -5.324464797973633, 2.1258063316345215, 7.989245414733887, -2.702293634414673, -1.3449230194091797, -2.585115671157837, 0.06201171875, -0.167236328125, -0.824462890625
52, 2636094838, -5.327493667602539, 2.1161460876464844, 7.997038841247559, -2.654283046722412, -1.307336449623108, -2.558197021484375, 0.06103515625, -0.169189453125, -0.825439453125
53, 2636111505, -5.324403285980225, 2.1330370903015137, 7.993785381317139, -2.675400733947754, -1.4106837511062622, -2.571528196334839, 0.06201171875, -0.169189453125, -0.824951171875
54, 2636128172, -5.348873138427734, 2.116715669631958, 8.016911506652832, -2.6407723426818848, -1.448411226272583, -2.6110360622406006, 0.0634765625, -0.16796875, -0.82763671875
55, 2636144839, -5.332662582397461, 2.111262083053589, 7.998198986053467, -2.6736459732055664, -1.5720182657241821, -2.5920825004577637, 0.0625, -0.168701171875, -0.826416015625
56, 2636161506, -5.318234443664551, 2.1157846450805664, 7.9907684326171875, -2.630603790283203, -1.5796633958816528, -2.476543426513672, 0.0625, -0.166748046875, -0.826171875
57, 2636178173, -5.315337657928467, 2.1252801418304443, 7.972202777862549, -2.6653220653533936, -1.511559247970581, -2.408337116241455, 0.0625, -0.168212890625, -0.82666015625
58, 2636194840, -5.317629814147949, 2.1280055046081543, 7.993679046630859, -2.5586962699890137, -1.366424798965454, -2.457871675491333, 0.0634765625, -0.168212890625, -0.826904296875
59, 2636211507, -5.324645519256592, 2.111395835876465, 7.9857869148254395, -2.566981315612793, -1.3639529943466187, -2.3393869400024414, 0.060546875, -0.167236328125, -0.82470703125
60, 2636228174, -5.316601753234863, 2.156106948852539, 7.9839372634887695, -2.7379209995269775, -1.3781812191009521, -2.6086537837982178, 0.06201171875, -0.166748046875, -0.824462890625
61, 2636244841, -5.319758415222168, 2.1167871952056885, 8.002260208129883, -2.6661159992218018, -1.3474202156066895, -2.534966230392456, 0.06005859375, -0.168212890625, -0.82861328125
62, 2636261508, -5.318484306335449, 2.1173126697540283, 7.965884685516357, -2.632422685623169, -1.3219614028930664, -2.5766379833221436, 0.06298828125, -0.167236328125, -0.830078125
63, 2636278175, -5.3369317054748535, 2.125216484069824, 7.988613605499268, -2.5242342948913574, -1.3388526439666748, -2.528946876525879, 0.0625, -0.166259765625, -0.82666015625
64, 2636294842, -5.329118251800537, 2.1313424110412598, 7.989387512207031, -2.547260046005249, -1.3201682567596436, -2.438290596008301, 0.06298828125, -0.165771484375, -0.824951171875
65, 2636311509, -5.308596611022949, 2.156343936920166, 7.968755722045898, -2.7437222003936768, -1.3845330476760864, -2.6109464168548584, 0.06396484375, -0.16943359375, -0.825439453125
66, 2636328176, -5.306099891662598, 2.1234397888183594, 7.972792148590088, -2.819701910018921, -1.42345130443573, -2.835082530975342, 0.0654296875, -0.1689453125, -0.826904296875
67, 2636344843, -5.320237636566162, 2.1168692111968994, 7.996928691864014, -2.7732789516448975, -1.309282660484314, -2.8235695362091064, 0.0625, -0.1689453125, -0.82763671875
68, 2636361510, -5.332657337188721, 2.1045217514038086, 7.9855146408081055, -2.655653238296509, -1.2030671834945679, -2.7773778438568115, 0.06396484375, -0.166748046875, -0.8291015625
69, 2636378177, -5.328283309936523, 2.099674940109253, 7.993398666381836, -2.6813812255859375, -1.1311979293823242, -2.703023910522461, 0.06201171875, -0.168701171875, -0.82666015625
70, 2636394844, -5.335549354553223, 2.1171414852142334, 7.969075679779053, -2.7101314067840576, -1.2791497707366943, -2.7031004428863525, 0.0625, -0.166748046875, -0.826171875
71, 2636411511, -5.3375749588012695, 2.1067943572998047, 7.976998805999756, -2.6788837909698486, -1.3670011758804321, -2.626352310180664, 0.06201171875, -0.166748046875, -0.824951171875
72, 2636428178, -5.327406883239746, 2.104154348373413, 7.985574245452881, -2.651516914367676, -1.313637137413025, -2.667243003845215, 0.06494140625, -0.16845703125, -0.827392578125
73, 2636444845, -5.309815406799316, 2.1228344440460205, 7.980356693267822, -2.737204074859619, -1.2621811628341675, -2.643935441970825, 0.06298828125, -0.168212890625, -0.826416015625
74, 2636461512, -5.331411361694336, 2.108196258544922, 7.9831929206848145, -2.7292258739471436, -1.2918022871017456, -2.665193796157837, 0.06201171875, -0.168212890625, -0.8271484375
75, 2636478179, -5.355326175689697, 2.1032211780548096, 7.989132404327393, -2.6382360458374023, -1.353682518005371, -2.420886993408203, 0.06396484375, -0.16845703125, -0.827392578125
76, 2636494846, -5.3257951736450195, 2.1157875061035156, 7.988544940948486, -2.636533260345459, -1.4702973365783691, -2.578815221786499, 0.06298828125, -0.167236328125, -0.823974609375
77, 2636511513, -5.342401504516602, 2.12927508354187, 7.990451812744141, -2.7298786640167236, -1.5791511535644531, -2.5436105728149414, 0.06201171875, -0.166748046875, -0.826171875
78, 2636528180, -5.32009744644165, 2.1093387603759766, 8.011967658996582, -2.7431204319000244, -1.7099809646606445, -2.4443869590759277, 0.06298828125, -0.1689453125, -0.825439453125
79, 2636544847, -5.29241418838501, 2.1147289276123047, 8.00235652923584, -2.7372167110443115, -1.6589730978012085, -2.4076197147369385, 0.0615234375, -0.168701171875, -0.826171875
80, 2636561514, -5.327842712402344, 2.1156699657440186, 7.971545219421387, -2.637967348098755, -1.5119435787200928, -2.444502115249634, 0.0634765625, -0.16796875, -0.828125
81, 2636578181, -5.29634952545166, 2.1353347301483154, 7.974815845489502, -2.656536817550659, -1.4808881282806396, -2.5822856426239014, 0.06298828125, -0.166259765625, -0.825927734375
82, 2636594848, -5.311254978179932, 2.1369688510894775, 7.997917175292969, -2.828653335571289, -1.3739546537399292, -2.724128007888794, 0.06201171875, -0.166748046875, -0.826171875
83, 2636611515, -5.319484233856201, 2.0980279445648193, 8.004951477050781, -2.877779006958008, -1.3558467626571655, -2.8033103942871094, 0.0634765625, -0.165771484375, -0.824951171875
84, 2636628182, -5.336007595062256, 2.103355884552002, 7.977680206298828, -2.900714874267578, -1.4292911291122437, -2.7217845916748047, 0.0615234375, -0.166748046875, -0.826171875
85, 2636644849, -5.31464958190918, 2.1161797046661377, 7.99531888961792, -2.7766597270965576, -1.3466131687164307, -2.6778461933135986, 0.06103515625, -0.166748046875, -0.826171875
86, 2636661516, -5.331621170043945, 2.1055569648742676, 8.010787010192871, -2.7505481243133545, -1.291405200958252, -2.7036514282226562, 0.064453125, -0.16845703125, -0.827880859375
87, 2636678183, -5.340254306793213, 2.1009175777435303, 8.001117706298828, -2.8072924613952637, -1.2945170402526855, -2.726778984069824, 0.0625, -0.166259765625, -0.826171875
88, 2636694850, -5.3393168449401855, 2.1022720336914062, 7.972403049468994, -2.6817140579223633, -1.1742784976959229, -2.5636396408081055, 0.06396484375, -0.165283203125, -0.825439453125
89, 2636711517, -5.324552536010742, 2.107665777206421, 7.9894232749938965, -2.7231807708740234, -1.4758294820785522, -2.5745890140533447, 0.0615234375, -0.167236328125, -0.826171875
90, 2636728184, -5.297873497009277, 2.1203980445861816, 7.975105285644531, -2.816410779953003, -1.4818227291107178, -2.704854726791382, 0.0625, -0.167236328125, -0.826171875
91, 2636744851, -5.309390544891357, 2.10241961479187, 8.004544258117676, -2.8278210163116455, -1.3964810371398926, -2.765620470046997, 0.06201171875, -0.166259765625, -0.8271484375
92, 2636761518, -5.332952976226807, 2.094998598098755, 7.995863914489746, -2.8445844650268555, -1.4382041692733765, -2.6429615020751953, 0.0615234375, -0.166259765625, -0.82958984375
93, 2636778185, -5.3121490478515625, 2.1154613494873047, 7.988333702087402, -2.755490779876709, -1.4235538244247437, -2.688014030456543, 0.06103515625, -0.166748046875, -0.8251953125
94, 2636794852, -5.315385341644287, 2.1147289276123047, 7.98851203918457, -2.6646430492401123, -1.4662889242172241, -2.666743516921997, 0.0625, -0.167236328125, -0.825927734375
95, 2636811519, -5.328256607055664, 2.099728584289551, 7.978534698486328, -2.7744827270507812, -1.410721778869629, -2.6703414916992188, 0.0625, -0.164794921875, -0.826171875
96, 2636828186, -5.3304619789123535, 2.0992212295532227, 7.993984222412109, -2.854612112045288, -1.448513388633728, -2.8181521892547607, 0.0634765625, -0.165283203125, -0.824951171875
97, 2636844853, -5.3211774826049805, 2.1035306453704834, 7.979530334472656, -2.8023624420166016, -1.3898730278015137, -2.772088050842285, 0.06298828125, -0.167724609375, -0.8271484375
98, 2636861520, -5.3363752365112305, 2.1013193130493164, 7.992524147033691, -2.807830572128296, -1.4326590299606323, -2.7157528400421143, 0.0634765625, -0.166748046875, -0.8271484375
99, 2636878187, -5.34018611907959, 2.095245599746704, 7.99351167678833, -2.8601443767547607, -1.5168734788894653, -2.6356489658355713, 0.0625, -0.166748046875, -0.824951171875
100, 2636894854, -5.34201717376709, 2.0920510292053223, 7.989334583282471, -2.8625264167785645, -1.4903901815414429, -2.5911343097686768, 0.0615234375, -0.1689453125, -0.826171875
101, 2636911521, -5.31718635559082, 2.094373941421509, 8.010248184204102, -2.8250551223754883, -1.6314647197723389, -2.55085825920105, 0.0615234375, -0.167236328125, -0.8251953125
102, 2636928188, -5.331699848175049, 2.1125359535217285, 7.997532367706299, -2.960533380508423, -1.6537736654281616, -2.598574638366699, 0.06298828125, -0.166748046875, -0.82763671875
103, 2636944855, -5.335184574127197, 2.092254877090454, 7.981191635131836, -2.947291612625122, -1.6614316701889038, -2.5824642181396484, 0.06298828125, -0.165771484375, -0.82666015625
104, 2636961522, -5.337743759155273, 2.0737674236297607, 8.007646560668945, -2.882593870162964, -1.7649966478347778, -2.4159562587738037, 0.0615234375, -0.167236328125, -0.82763671875
105, 2636978189, -5.315707206726074, 2.0876963138580322, 7.993106365203857, -2.795574903488159, -1.7615004777908325, -2.419785261154175, 0.060546875, -0.165771484375, -0.82666015625
106, 2636994856, -5.309960842132568, 2.106048345565796, 8.010895729064941, -2.8270530700683594, -1.6573208570480347, -2.468475103378296, 0.06298828125, -0.166259765625, -0.826171875
107, 2637011523, -5.319030284881592, 2.0906357765197754, 8.011978149414062, -2.721221446990967, -1.465610146522522, -2.5825674533843994, 0.06201171875, -0.165283203125, -0.822998046875
108, 2637028190, -5.337998867034912, 2.0835022926330566, 7.999752044677734, -2.7561957836151123, -1.4116954803466797, -2.5443146228790283, 0.0615234375, -0.166259765625, -0.8271484375
109, 2637044857, -5.325314521789551, 2.0784714221954346, 7.995591163635254, -2.6876819133758545, -1.4440827369689941, -2.5080342292785645, 0.06201171875, -0.168212890625, -0.82763671875
110, 2637061524, -5.327040672302246, 2.0844075679779053, 8.006142616271973, -2.769655466079712, -1.4110934734344482, -2.6059389114379883, 0.0634765625, -0.164794921875, -0.82861328125
111, 2637078191, -5.311832427978516, 2.092088460922241, 7.992289066314697, -2.7659924030303955, -1.477059006690979, -2.564779281616211, 0.0625, -0.165771484375, -0.8271484375
112, 2637094858, -5.311790466308594, 2.0949277877807617, 7.988946437835693, -2.6730315685272217, -1.3895275592803955, -2.5892395973205566, 0.0625, -0.165771484375, -0.825439453125
113, 2637111525, -5.324531078338623, 2.0877740383148193, 8.01267147064209, -2.5909554958343506, -1.2138372659683228, -2.7049832344055176, 0.0615234375, -0.164794921875, -0.8251953125
114, 2637128192, -5.32956600189209, 2.087423324584961, 8.005425453186035, -2.5422658920288086, -1.1197489500045776, -2.7350142002105713, 0.06298828125, -0.165771484375, -0.825439453125
115, 2637144859, -5.336056709289551, 2.0849645137786865, 8.001067161560059, -2.5722453594207764, -1.1117193698883057, -2.643333673477173, 0.06396484375, -0.164794921875, -0.825927734375
116, 2637161526, -5.341738700866699, 2.0788049697875977, 7.981781005859375, -2.5853590965270996, -1.2552787065505981, -2.6222541332244873, 0.06396484375, -0.166259765625, -0.82763671875
117, 2637178193, -5.338295936584473, 2.0798325538635254, 7.990931510925293, -2.6579580307006836, -1.4108245372772217, -2.593388795852661, 0.06298828125, -0.164306640625, -0.828125
118, 2637194860, -5.311639785766602, 2.1025426387786865, 7.992433547973633, -2.69852876663208, -1.457439661026001, -2.618975877761841, 0.0625, -0.166259765625, -0.825439453125
119, 2637211527, -5.325263500213623, 2.069180965423584, 7.99296760559082, -2.7415964603424072, -1.4169459342956543, -2.5803773403167725, 0.0634765625, -0.167236328125, -0.823974609375
120, 2637228194, -5.33746337890625, 2.0817599296569824, 7.990438938140869, -2.663170576095581, -1.4308792352676392, -2.568774938583374, 0.06298828125, -0.166259765625, -0.825439453125
121, 2637244861, -5.337008476257324, 2.07698130607605, 7.983448505401611, -2.611112594604492, -1.511559247970581, -2.37607741355896, 0.060546875, -0.165771484375, -0.82666015625
122, 2637261528, -5.333726406097412, 2.101038694381714, 8.00756549835205, -2.6671273708343506, -1.5912915468215942, -2.3862972259521484, 0.06591796875, -0.166259765625, -0.824462890625
123, 2637278195, -5.346702575683594, 2.0792760848999023, 8.01185131072998, -2.6175923347473145, -1.560825228691101, -2.36100435256958, 0.0634765625, -0.166259765625, -0.826416015625
124, 2637294862, -5.356521129608154, 2.0824027061462402, 8.001230239868164, -2.5700809955596924, -1.6583967208862305, -2.184840202331543, 0.0625, -0.164306640625, -0.8251953125
125, 2637311529, -5.293812274932861, 2.0907933712005615, 8.003300666809082, -2.629477024078369, -1.8050168752670288, -2.129094362258911, 0.0615234375, -0.165283203125, -0.826171875
126, 2637328196, -5.258909702301025, 2.1056087017059326, 8.013354301452637, -2.7468345165252686, -1.5069491863250732, -2.3532826900482178, 0.06298828125, -0.163330078125, -0.823486328125
127, 2637344863, -5.309092044830322, 2.0851728916168213, 8.028865814208984, -2.7702829837799072, -1.1981494426727295, -2.5486433506011963, 0.06298828125, -0.163818359375, -0.8291015625
128, 2637361530, -5.3415021896362305, 2.0700888633728027, 7.996060371398926, -2.552049398422241, -1.1052135229110718, -2.5052552223205566, 0.0634765625, -0.162841796875, -0.82666015625
129, 2637378197, -5.362812519073486, 2.0851333141326904, 8.00111198425293, -2.592017650604248, -1.1751362085342407, -2.3635270595550537, 0.0615234375, -0.164794921875, -0.826171875
130, 2637394864, -5.336080551147461, 2.0784521102905273, 7.972564220428467, -2.565534830093384, -1.366168737411499, -2.3790485858917236, 0.0634765625, -0.166259765625, -0.824951171875
131, 2637411531, -5.352511405944824, 2.0700032711029053, 7.997119903564453, -2.7190189361572266, -1.6367030143737793, -2.210862874984741, 0.06396484375, -0.163818359375, -0.825439453125
132, 2637428198, -5.345892906188965, 2.0860953330993652, 8.003844261169434, -2.5915186405181885, -1.6373175382614136, -2.163581609725952, 0.06298828125, -0.164794921875, -0.8271484375
133, 2637444865, -5.3206467628479, 2.1007535457611084, 8.01292896270752, -2.606130599975586, -1.8134815692901611, -2.076831579208374, 0.06201171875, -0.162841796875, -0.828125
134, 2637461532, -5.31931734085083, 2.0956695079803467, 7.989545822143555, -2.6390817165374756, -1.6299667358398438, -2.0912516117095947, 0.06103515625, -0.166259765625, -0.8271484375
135, 2637478199, -5.338169574737549, 2.0855255126953125, 8.004589080810547, -2.63549542427063, -1.687134027481079, -2.0949394702911377, 0.0625, -0.164306640625, -0.826171875
136, 2637494866, -5.34269905090332, 2.0987355709075928, 7.973866939544678, -2.6514909267425537, -1.7360032796859741, -2.0779073238372803, 0.0615234375, -0.165283203125, -0.8291015625
137, 2637511533, -5.308359146118164, 2.093362808227539, 7.999250411987305, -2.757540702819824, -1.819718599319458, -2.0596070289611816, 0.0615234375, -0.165283203125, -0.82470703125
138, 2637528200, -5.302187442779541, 2.1145224571228027, 7.997252464294434, -2.7608702182769775, -1.818719744682312, -2.173494338989258, 0.0615234375, -0.164794921875, -0.8251953125
139, 2637544867, -5.306097984313965, 2.0858154296875, 8.005404472351074, -2.7772367000579834, -1.646986484527588, -2.2522146701812744, 0.06103515625, -0.165283203125, -0.82763671875
140, 2637561534, -5.296878814697266, 2.1009738445281982, 8.011387825012207, -2.707531690597534, -1.5345337390899658, -2.3098304271698, 0.06201171875, -0.167236328125, -0.828125
141, 2637578201, -5.295986175537109, 2.096278667449951, 8.002731323242188, -2.690255880355835, -1.5122380256652832, -2.454977512359619, 0.06103515625, -0.165771484375, -0.828125
142, 2637594868, -5.3206281661987305, 2.0958878993988037, 8.023886680603027, -2.768618106842041, -1.3399286270141602, -2.5378987789154053, 0.06201171875, -0.165283203125, -0.826171875
143, 2637611535, -5.333552360534668, 2.073267936706543, 8.003683090209961, -2.7313897609710693, -1.3542332649230957, -2.5255534648895264, 0.06298828125, -0.166259765625, -0.825927734375
144, 2637628202, -5.341269016265869, 2.0707995891571045, 7.980223655700684, -2.792386531829834, -1.5250571966171265, -2.4679250717163086, 0.0634765625, -0.165283203125, -0.825439453125
145, 2637644869, -5.325103282928467, 2.0782246589660645, 7.983461380004883, -2.756861925125122, -1.6222190856933594, -2.3267476558685303, 0.06103515625, -0.163818359375, -0.8271484375
146, 2637661536, -5.304349899291992, 2.103015422821045, 7.996648788452148, -2.8368756771087646, -1.693037748336792, -2.472304105758667, 0.06201171875, -0.165283203125, -0.82861328125
147, 2637678203, -5.311783790588379, 2.108771800994873, 8.020376205444336, -2.808227777481079, -1.5239174365997314, -2.5118889808654785, 0.0595703125, -0.164794921875, -0.82763671875
148, 2637694870, -5.322363376617432, 2.089550733566284, 7.992596626281738, -2.8755247592926025, -1.4210948944091797, -2.6058871746063232, 0.05908203125, -0.163330078125, -0.826171875
149, 2637711537, -5.325107574462891, 2.078674077987671, 7.988738059997559, -2.8581082820892334, -1.4727174043655396, -2.5137197971343994, 0.06103515625, -0.164794921875, -0.8251953125
150, 2637728204, -5.305080413818359, 2.090704917907715, 7.991029262542725, -2.844712495803833, -1.6059802770614624, -2.4519293308258057, 0.06103515625, -0.163818359375, -0.826171875
151, 2637744871, -5.291092395782471, 2.094261884689331, 7.999566078186035, -2.929170846939087, -1.5884997844696045, -2.6102287769317627, 0.060546875, -0.164306640625, -0.82861328125
152, 2637761538, -5.319737911224365, 2.078115463256836, 8.009316444396973, -2.9161977767944336, -1.4772891998291016, -2.6504404544830322, 0.06103515625, -0.166748046875, -0.824462890625
153, 2637778205, -5.311753749847412, 2.0802128314971924, 8.002874374389648, -2.7896201610565186, -1.473152995109558, -2.533839225769043, 0.06103515625, -0.162841796875, -0.82763671875
154, 2637794872, -5.314455509185791, 2.0703468322753906, 8.010749816894531, -2.797585964202881, -1.4544942378997803, -2.5334420204162598, 0.06298828125, -0.163818359375, -0.826171875
155, 2637811539, -5.310975074768066, 2.068474531173706, 7.997453212738037, -2.7978804111480713, -1.4346187114715576, -2.5815300941467285, 0.0615234375, -0.165771484375, -0.82568359375
156, 2637828206, -5.325955390930176, 2.0736868381500244, 8.015084266662598, -2.697683572769165, -1.4689654111862183, -2.4188382625579834, 0.05908203125, -0.163330078125, -0.82666015625
157, 2637844873, -5.322665691375732, 2.0630736351013184, 8.027273178100586, -2.56816029548645, -1.563143253326416, -2.368726968765259, 0.0615234375, -0.163818359375, -0.82568359375
158, 2637861540, -5.31727409362793, 2.0868399143218994, 8.004694938659668, -2.543750524520874, -1.5011729001998901, -2.2397537231445312, 0.06005859375, -0.164306640625, -0.8291015625
159, 2637878207, -5.3067498207092285, 2.0702991485595703, 8.004968643188477, -2.5434820652008057, -1.6141765117645264, -2.2654433250427246, 0.06103515625, -0.163330078125, -0.828125
160, 2637894874, -5.294801712036133, 2.0874063968658447, 7.998198509216309, -2.613724708557129, -1.6108723878860474, -2.3166046142578125, 0.0595703125, -0.162841796875, -0.82470703125
161, 2637911541, -5.302725791931152, 2.0976223945617676, 8.004243850708008, -2.6017637252807617, -1.5992571115493774, -2.3189356327056885, 0.060546875, -0.164306640625, -0.82470703125
162, 2637928208, -5.316769599914551, 2.0839309692382812, 8.031129837036133, -2.6694841384887695, -1.5871295928955078, -2.409348726272583, 0.0615234375, -0.162841796875, -0.82568359375
163, 2637944875, -5.313952922821045, 2.087111473083496, 8.001265525817871, -2.65250301361084, -1.6699738502502441, -2.453850746154785, 0.060546875, -0.163330078125, -0.82666015625
164, 2637961542, -5.296403408050537, 2.08074688911438, 8.01159381866455, -2.560373544692993, -1.6957401037216187, -2.294846773147583, 0.06103515625, -0.163330078125, -0.82958984375
165, 2637978209, -5.292446613311768, 2.0841727256774902, 8.0017728805542, -2.638761520385742, -1.5911890268325806, -2.416238307952881, 0.06103515625, -0.163818359375, -0.82666015625
166, 2637994876, -5.307766437530518, 2.0809338092803955, 8.014413833618164, -2.618476390838623, -1.5736316442489624, -2.440173625946045, 0.06201171875, -0.163818359375, -0.8251953125
167, 2638011543, -5.307106018066406, 2.071195363998413, 8.010679244995117, -2.609447717666626, -1.5987321138381958, -2.3015832901000977, 0.06103515625, -0.164306640625, -0.82666015625
168, 2638028210, -5.305467128753662, 2.086940050125122, 8.024962425231934, -2.6066172122955322, -1.5663959980010986, -2.2592580318450928, 0.060546875, -0.163818359375, -0.8271484375
169, 2638044877, -5.307285785675049, 2.0876622200012207, 8.00685977935791, -2.5546748638153076, -1.5110852718353271, -2.237999200820923, 0.06201171875, -0.167724609375, -0.82763671875
170, 2638061544, -5.312127590179443, 2.0883352756500244, 7.996192932128906, -2.5641133785247803, -1.6828315258026123, -2.279402494430542, 0.06005859375, -0.162841796875, -0.8271484375
171, 2638078211, -5.2837677001953125, 2.0862104892730713, 8.011676788330078, -2.605337142944336, -1.5377355813980103, -2.3737852573394775, 0.060546875, -0.164794921875, -0.8271484375
172, 2638094878, -5.2880778312683105, 2.0874879360198975, 8.01306438446045, -2.487351655960083, -1.5037345886230469, -2.3875010013580322, 0.060546875, -0.164306640625, -0.826171875
173, 2638111545, -5.307722091674805, 2.0732333660125732, 8.022900581359863, -2.533838987350464, -1.3802812099456787, -2.3817505836486816, 0.0595703125, -0.163818359375, -0.826171875
174, 2638128212, -5.30342960357666, 2.079580307006836, 8.024110794067383, -2.5609242916107178, -1.4024490118026733, -2.4340901374816895, 0.0615234375, -0.163818359375, -0.8251953125
175, 2638144879, -5.304508686065674, 2.0828804969787598, 8.015894889831543, -2.5510759353637695, -1.5086135864257812, -2.3695714473724365, 0.0625, -0.162841796875, -0.82861328125
176, 2638161546, -5.302638053894043, 2.0748825073242188, 8.008079528808594, -2.562397003173828, -1.4709630012512207, -2.28078556060791, 0.06103515625, -0.163330078125, -0.8271484375
177, 2638178213, -5.286949157714844, 2.0966925621032715, 8.039531707763672, -2.5433666706085205, -1.4272805452346802, -2.3709163665771484, 0.0595703125, -0.164306640625, -0.826171875
178, 2638194880, -5.296133995056152, 2.088715076446533, 8.028420448303223, -2.612995147705078, -1.285821795463562, -2.473482847213745, 0.06103515625, -0.164794921875, -0.828125
179, 2638211547, -5.30942964553833, 2.082169771194458, 8.003379821777344, -2.6501336097717285, -1.356423020362854, -2.517382860183716, 0.06103515625, -0.164794921875, -0.8271484375
180, 2638228214, -5.316041946411133, 2.072010040283203, 7.999972820281982, -2.6195905208587646, -1.4401510953903198, -2.474494457244873, 0.0615234375, -0.164794921875, -0.826171875
181, 2638244881, -5.297004699707031, 2.0917396545410156, 8.030974388122559, -2.609678030014038, -1.5728119611740112, -2.3736186027526855, 0.060546875, -0.16015625, -0.826171875
182, 2638261548, -5.291050434112549, 2.0800178050994873, 8.004901885986328, -2.533980131149292, -1.5776145458221436, -2.4368438720703125, 0.060546875, -0.163330078125, -0.82861328125
183, 2638278215, -5.287179946899414, 2.0970077514648438, 8.015597343444824, -2.6416046619415283, -1.5559718608856201, -2.3795225620269775, 0.05908203125, -0.165771484375, -0.82568359375
184, 2638294882, -5.294088840484619, 2.087778091430664, 8.0096435546875, -2.6377625465393066, -1.409467101097107, -2.4437594413757324, 0.057373046875, -0.165283203125, -0.82763671875
185, 2638311549, -5.284254550933838, 2.087799310684204, 8.003814697265625, -2.580005645751953, -1.3221787214279175, -2.444232702255249, 0.06005859375, -0.163330078125, -0.82373046875
186, 2638328216, -5.3073272705078125, 2.0885426998138428, 8.033997535705566, -2.5755367279052734, -1.4047800302505493, -2.4406731128692627, 0.060546875, -0.162841796875, -0.8251953125
187, 2638344883, -5.321216106414795, 2.0885164737701416, 8.003040313720703, -2.6536295413970947, -1.4550831317901611, -2.4248695373535156, 0.060546875, -0.163330078125, -0.82666015625
188, 2638361550, -5.311407566070557, 2.0788540840148926, 8.027748107910156, -2.6352269649505615, -1.5237510204315186, -2.3752455711364746, 0.05908203125, -0.164306640625, -0.82568359375
189, 2638378217, -5.3002610206604, 2.0914297103881836, 8.027949333190918, -2.6110610961914062, -1.4546990394592285, -2.3824808597564697, 0.058349609375, -0.163330078125, -0.828369140625
190, 2638394884, -5.300090312957764, 2.079179525375366, 8.01438045501709, -2.5167808532714844, -1.3938943147659302, -2.3702375888824463, 0.05908203125, -0.164306640625, -0.82666015625
191, 2638411551, -5.297158241271973, 2.0796382427215576, 8.007631301879883, -2.570439577102661, -1.56169593334198, -2.3815200328826904, 0.06005859375, -0.165283203125, -0.82666015625
192, 2638428218, -5.301141262054443, 2.094231367111206, 8.011932373046875, -2.7055723667144775, -1.5107780694961548, -2.534287214279175, 0.060546875, -0.164794921875, -0.826171875
193, 2638444885, -5.298927307128906, 2.0999178886413574, 8.007035255432129, -2.710310459136963, -1.503568172454834, -2.4441051483154297, 0.0615234375, -0.164306640625, -0.82763671875
194, 2638461552, -5.295944690704346, 2.076634407043457, 8.011202812194824, -2.6513760089874268, -1.4870991706848145, -2.387514114379883, 0.0625, -0.164794921875, -0.82958984375
195, 2638478219, -5.284527778625488, 2.0873517990112305, 8.008891105651855, -2.647956132888794, -1.3116776943206787, -2.508866310119629, 0.058349609375, -0.165771484375, -0.8271484375
196, 2638494886, -5.293335437774658, 2.0769946575164795, 8.01698112487793, -2.6434102058410645, -1.2821717262268066, -2.4896697998046875, 0.06005859375, -0.163818359375, -0.82666015625
197, 2638511553, -5.291048526763916, 2.086446523666382, 8.028059005737305, -2.728201389312744, -1.3618531227111816, -2.5460309982299805, 0.06005859375, -0.164794921875, -0.82470703125
198, 2638528220, -5.318620204925537, 2.0887930393218994, 8.010812759399414, -2.6408233642578125, -1.450281023979187, -2.6026601791381836, 0.0625, -0.163330078125, -0.8251953125
199, 2638544887, -5.301356315612793, 2.0735061168670654, 8.01547622680664, -2.6660518646240234, -1.3877860307693481, -2.4859559535980225, 0.05908203125, -0.163330078125, -0.82861328125
200, 2638561554, -5.284562110900879, 2.071887254714966, 8.02465534210205, -2.622843027114868, -1.2865387201309204, -2.4662468433380127, 0.06103515625, -0.163330078125, -0.828125
201, 2638578221, -5.309978485107422, 2.068798303604126, 8.03382396697998, -2.6057724952697754, -1.3583954572677612, -2.5298690795898438, 0.0595703125, -0.162841796875, -0.82763671875
202, 2638594888, -5.308648109436035, 2.0877459049224854, 8.028294563293457, -2.462123394012451, -1.3505961894989014, -2.5104031562805176, 0.0595703125, -0.164794921875, -0.82666015625
203, 2638611555, -5.291438579559326, 2.0880799293518066, 8.01058292388916, -2.530380964279175, -1.3514413833618164, -2.4904510974884033, 0.0595703125, -0.163330078125, -0.826171875
204, 2638628222, -5.298817157745361, 2.0886666774749756, 8.008227348327637, -2.5583763122558594, -1.2982053756713867, -2.609755277633667, 0.0595703125, -0.163330078125, -0.82470703125
205, 2638644889, -5.306680679321289, 2.0887908935546875, 8.003003120422363, -2.6537835597991943, -1.3421441316604614, -2.6266982555389404, 0.05908203125, -0.165283203125, -0.8251953125
206, 2638661556, -5.305380821228027, 2.0865979194641113, 7.9990105628967285, -2.778325319290161, -1.3947781324386597, -2.613468885421753, 0.060546875, -0.164794921875, -0.8271484375
207, 2638678223, -5.288421154022217, 2.0790116786956787, 8.011926651000977, -2.7448103427886963, -1.3975825309753418, -2.699130058288574, 0.05908203125, -0.163330078125, -0.826171875
208, 2638694890, -5.3116135597229, 2.085095167160034, 7.996333599090576, -2.689897298812866, -1.408570647239685, -2.6495702266693115, 0.057861328125, -0.163330078125, -0.826171875
209, 2638711557, -5.300625801086426, 2.0781490802764893, 8.020490646362305, -2.620755910873413, -1.3263282775878906, -2.624354124069214, 0.060546875, -0.163818359375, -0.826171875
210, 2638728224, -5.30611515045166, 2.077526569366455, 8.032153129577637, -2.6734414100646973, -1.2513726949691772, -2.5985498428344727, 0.06298828125, -0.163818359375, -0.826171875
211, 2638744891, -5.314786434173584, 2.076632499694824, 8.00413990020752, -2.5560836791992188, -1.3201043605804443, -2.6357648372650146, 0.06103515625, -0.162841796875, -0.8291015625
212, 2638761558, -5.32094144821167, 2.0553693771362305, 8.018058776855469, -2.513310670852661, -1.295388102531433, -2.6107027530670166, 0.060546875, -0.163818359375, -0.8271484375
213, 2638778225, -5.305709362030029, 2.0736377239227295, 8.02238941192627, -2.541010618209839, -1.4280874729156494, -2.419875383377075, 0.06005859375, -0.161865234375, -0.82763671875
214, 2638794892, -5.293550491333008, 2.0703954696655273, 8.030315399169922, -2.551485776901245, -1.4638808965682983, -2.3761284351348877, 0.06103515625, -0.164794921875, -0.82763671875
215, 2638811559, -5.304913520812988, 2.0764758586883545, 8.02550220489502, -2.5095579624176025, -1.3632103204727173, -2.4108338356018066, 0.06103515625, -0.163818359375, -0.82763671875
216, 2638828226, -5.302781581878662, 2.088824510574341, 8.03541374206543, -2.5604634284973145, -1.5213688611984253, -2.4333600997924805, 0.0595703125, -0.164306640625, -0.826171875
217, 2638844893, -5.3048295974731445, 2.0856127738952637, 8.025822639465332, -2.547913074493408, -1.4587458372116089, -2.418722629547119, 0.0625, -0.161865234375, -0.82763671875
218, 2638861560, -5.302393913269043, 2.0717718601226807, 8.012075424194336, -2.554213762283325, -1.4207364320755005, -2.440186023712158, 0.0615234375, -0.161376953125, -0.82958984375
219, 2638878227, -5.300178050994873, 2.076906442642212, 8.021827697753906, -2.505408763885498, -1.4926953315734863, -2.3946595191955566, 0.060546875, -0.162841796875, -0.828125
220, 2638894894, -5.293153285980225, 2.0736594200134277, 8.02206039428711, -2.4835352897644043, -1.4617551565170288, -2.3781776428222656, 0.05908203125, -0.164306640625, -0.828125
221, 2638911561, -5.301602840423584, 2.0872135162353516, 8.005077362060547, -2.550743341445923, -1.4547631740570068, -2.4480748176574707, 0.060546875, -0.164794921875, -0.826171875
222, 2638928228, -5.293456554412842, 2.088245153427124, 8.020988464355469, -2.552126169204712, -1.491235375404358, -2.3794710636138916, 0.06103515625, -0.164794921875, -0.8271484375
223, 2638944895, -5.295066833496094, 2.085977077484131, 8.030536651611328, -2.4700634479522705, -1.3900781869888306, -2.359147310256958, 0.06201171875, -0.164306640625, -0.8291015625
224, 2638961562, -5.311036586761475, 2.0822033882141113, 8.019762992858887, -2.4941649436950684, -1.347701907157898, -2.4585630893707275, 0.0625, -0.163818359375, -0.8271484375
225, 2638978229, -5.318977355957031, 2.078836441040039, 8.038896560668945, -2.5974996089935303, -1.4342857599258423, -2.4492790699005127, 0.0595703125, -0.165771484375, -0.82861328125
226, 2638994896, -5.3062591552734375, 2.0867302417755127, 8.009129524230957, -2.586524248123169, -1.4402533769607544, -2.563178300857544, 0.0615234375, -0.164306640625, -0.826171875
227, 2639011563, -5.313580513000488, 2.0844035148620605, 8.018001556396484, -2.6585981845855713, -1.3892199993133545, -2.4163150787353516, 0.060546875, -0.164794921875, -0.8291015625
228, 2639028230, -5.29735803604126, 2.080843687057495, 8.018918991088867, -2.581658124923706, -1.4366549253463745, -2.4526596069335938, 0.058349609375, -0.162353515625, -0.8251953125
229, 2639044897, -5.293128490447998, 2.0824689865112305, 8.003456115722656, -2.643538475036621, -1.473473072052002, -2.515026569366455, 0.060546875, -0.164306640625, -0.82763671875
230, 2639061564, -5.306070804595947, 2.0895934104919434, 7.997114181518555, -2.5410618782043457, -1.3914228677749634, -2.5017848014831543, 0.06005859375, -0.165771484375, -0.828125
231, 2639078231, -5.300429344177246, 2.0787932872772217, 8.014545440673828, -2.4600231647491455, -1.4223885536193848, -2.463160753250122, 0.06103515625, -0.162841796875, -0.828125
232, 2639094898, -5.307333469390869, 2.0863683223724365, 7.9904656410217285, -2.6300787925720215, -1.4193662405014038, -2.4221034049987793, 0.06103515625, -0.163330078125, -0.82958984375
233, 2639111565, -5.297179698944092, 2.0946810245513916, 8.02699089050293, -2.5476441383361816, -1.475483775138855, -2.403610944747925, 0.05859375, -0.162353515625, -0.82763671875
234, 2639128232, -5.299452781677246, 2.085933208465576, 8.026598930358887, -2.7621378898620605, -1.5371719598770142, -2.533980131149292, 0.06103515625, -0.162841796875, -0.82568359375
235, 2639144899, -5.292660713195801, 2.0732262134552, 8.03182601928711, -2.6703035831451416, -1.5547807216644287, -2.526898145675659, 0.06005859375, -0.164306640625, -0.82763671875
236, 2639161566, -5.301849365234375, 2.075410842895508, 8.011343955993652, -2.6562678813934326, -1.5803935527801514, -2.4587554931640625, 0.06103515625, -0.162353515625, -0.82861328125
237, 2639178233, -5.298348903656006, 2.076326370239258, 7.991095066070557, -2.6737358570098877, -1.4264994859695435, -2.437087297439575, 0.05908203125, -0.164306640625, -0.82763671875
238, 2639194900, -5.292970657348633, 2.0897586345672607, 8.001980781555176, -2.5564932823181152, -1.416715383529663, -2.3778319358825684, 0.06298828125, -0.164794921875, -0.828125
239, 2639211567, -5.296306133270264, 2.0778582096099854, 8.032514572143555, -2.5463125705718994, -1.3200658559799194, -2.45320987701416, 0.060546875, -0.163818359375, -0.826171875
240, 2639228234, -5.310253620147705, 2.0606536865234375, 8.027085304260254, -2.4969053268432617, -1.3089627027511597, -2.4247801303863525, 0.060546875, -0.164306640625, -0.82666015625
241, 2639244901, -5.30540132522583, 2.0883045196533203, 8.014790534973145, -2.4106287956237793, -1.3754916191101074, -2.403623342514038, 0.06103515625, -0.163330078125, -0.82666015625
242, 2639261568, -5.294403553009033, 2.0821659564971924, 8.002822875976562, -2.5387051105499268, -1.4468101263046265, -2.3506693840026855, 0.06103515625, -0.164306640625, -0.830078125
243, 2639278235, -5.283751487731934, 2.0859954357147217, 8.010077476501465, -2.5182793140411377, -1.3407096862792969, -2.493473529815674, 0.0595703125, -0.161865234375, -0.8271484375
244, 2639294902, -5.302003860473633, 2.082122325897217, 8.034242630004883, -2.5228123664855957, -1.3577035665512085, -2.4904251098632812, 0.058837890625, -0.162841796875, -0.8271484375
245, 2639311569, -5.313163757324219, 2.0859792232513428, 8.008941650390625, -2.5017335414886475, -1.4070976972579956, -2.439725160598755, 0.058349609375, -0.162353515625, -0.82568359375
246, 2639328236, -5.301619052886963, 2.07977032661438, 8.002419471740723, -2.6323583126068115, -1.4312763214111328, -2.4423887729644775, 0.06005859375, -0.162841796875, -0.8251953125
247, 2639344903, -5.295511722564697, 2.081151008605957, 8.047792434692383, -2.6611344814300537, -1.454148530960083, -2.3903567790985107, 0.05859375, -0.163818359375, -0.82763671875
248, 2639361570, -5.287041664123535, 2.0856738090515137, 7.994431972503662, -2.582784652709961, -1.471897840499878, -2.5437123775482178, 0.060546875, -0.163330078125, -0.8271484375
249, 2639378237, -5.312727451324463, 2.0761771202087402, 8.010343551635742, -2.620858669281006, -1.4123997688293457, -2.5513839721679688, 0.0595703125, -0.163818359375, -0.82861328125
250, 2639394904, -5.289070129394531, 2.0734612941741943, 8.012754440307617, -2.5500006675720215, -1.4668394327163696, -2.4782211780548096, 0.0595703125, -0.165771484375, -0.8271484375
251, 2639411571, -5.306262016296387, 2.074995279312134, 8.014846801757812, -2.6181817054748535, -1.3904881477355957, -2.529728412628174, 0.0595703125, -0.163330078125, -0.82666015625
252, 2639428238, -5.300845146179199, 2.0749425888061523, 8.039453506469727, -2.6240596771240234, -1.3966094255447388, -2.454516649246216, 0.0595703125, -0.164306640625, -0.82470703125
253, 2639444905, -5.286699295043945, 2.064291477203369, 7.993673801422119, -2.5971665382385254, -1.3702411651611328, -2.4834206104278564, 0.0595703125, -0.162841796875, -0.8271484375
254, 2639461572, -5.288596153259277, 2.0801141262054443, 8.028974533081055, -2.57020902633667, -1.4632408618927002, -2.4818835258483887, 0.06103515625, -0.165771484375, -0.8271484375
255, 2639478239, -5.292102336883545, 2.086472511291504, 8.036514282226562, -2.5298306941986084, -1.4391266107559204, -2.507521867752075, 0.05908203125, -0.165283203125, -0.82861328125
256, 2639494906, -5.309976100921631, 2.0730509757995605, 8.019478797912598, -2.5937983989715576, -1.386530876159668, -2.3542301654815674, 0.06005859375, -0.164306640625, -0.82666015625
257, 2639511573, -5.305799961090088, 2.075429677963257, 8.010546684265137, -2.6742606163024902, -1.4119898080825806, -2.3830056190490723, 0.059326171875, -0.162841796875, -0.82470703125
258, 2639528240, -5.297919273376465, 2.08833646774292, 8.014756202697754, -2.688206911087036, -1.5362628698349, -2.4881205558776855, 0.06005859375, -0.164794921875, -0.8271484375
259, 2639544907, -5.279900550842285, 2.0717430114746094, 8.033426284790039, -2.657778739929199, -1.4379740953445435, -2.514296770095825, 0.05908203125, -0.164794921875, -0.829345703125
260, 2639561574, -5.3097310066223145, 2.080980062484741, 8.026885986328125, -2.578814744949341, -1.4214280843734741, -2.4498164653778076, 0.060546875, -0.163818359375, -0.8271484375
261, 2639578241, -5.292343616485596, 2.073890447616577, 8.007627487182617, -2.549117088317871, -1.4981255531311035, -2.4113335609436035, 0.05859375, -0.161865234375, -0.829345703125
262, 2639594908, -5.314897060394287, 2.0772500038146973, 8.009066581726074, -2.6132640838623047, -1.527336835861206, -2.3438057899475098, 0.0595703125, -0.163330078125, -0.826171875
263, 2639611575, -5.290232181549072, 2.086928367614746, 8.020035743713379, -2.5927481651306152, -1.5162465572357178, -2.3453168869018555, 0.06005859375, -0.164794921875, -0.828125
264, 2639628242, -5.291379451751709, 2.090785264968872, 8.010891914367676, -2.6261091232299805, -1.526171326637268, -2.423614978790283, 0.0595703125, -0.164306640625, -0.82666015625
265, 2639644909, -5.285205841064453, 2.0640079975128174, 8.036629676818848, -2.6539371013641357, -1.4432629346847534, -2.416276693344116, 0.0615234375, -0.161865234375, -0.82861328125
266, 2639661576, -5.294572353363037, 2.0557525157928467, 8.04483413696289, -2.5665080547332764, -1.4427763223648071, -2.4344489574432373, 0.06005859375, -0.161865234375, -0.82861328125
267, 2639678243, -5.288958549499512, 2.0714781284332275, 8.014307022094727, -2.630706548690796, -1.4595015048980713, -2.412947177886963, 0.06005859375, -0.165283203125, -0.82763671875
268, 2639694910, -5.278181552886963, 2.0816233158111572, 8.036382675170898, -2.598651885986328, -1.404561996459961, -2.389639139175415, 0.06005859375, -0.164306640625, -0.8271484375
269, 2639711577, -5.2849907875061035, 2.0925371646881104, 8.036578178405762, -2.5583889484405518, -1.2475818395614624, -2.5176644325256348, 0.06005859375, -0.163818359375, -0.8271484375
270, 2639728244, -5.299050807952881, 2.057729959487915, 8.027098655700684, -2.5181639194488525, -1.2102769613265991, -2.5160255432128906, 0.06005859375, -0.163330078125, -0.82666015625
271, 2639744911, -5.298222064971924, 2.0813894271850586, 8.006664276123047, -2.4937551021575928, -1.3138548135757446, -2.4601640701293945, 0.060546875, -0.162841796875, -0.8271484375
272, 2639761578, -5.29383659362793, 2.083319902420044, 8.014323234558105, -2.526667356491089, -1.3029565811157227, -2.4514942169189453, 0.05908203125, -0.163818359375, -0.82763671875
273, 2639778245, -5.302727699279785, 2.093564033508301, 8.011476516723633, -2.548578977584839, -1.4013991355895996, -2.5049993991851807, 0.0595703125, -0.161376953125, -0.829345703125
274, 2639794912, -5.288769245147705, 2.0848639011383057, 8.029472351074219, -2.5610783100128174, -1.3468440771102905, -2.5513839721679688, 0.06005859375, -0.164306640625, -0.82666015625
275, 2639811579, -5.303304195404053, 2.0829687118530273, 8.014055252075195, -2.579212188720703, -1.348572850227356, -2.531252145767212, 0.06005859375, -0.162353515625, -0.82666015625
276, 2639828246, -5.306625843048096, 2.088632583618164, 8.025202751159668, -2.4766454696655273, -1.32977294921875, -2.4433491230010986, 0.0625, -0.164306640625, -0.8251953125
277, 2639844913, -5.300316333770752, 2.0764853954315186, 8.005615234375, -2.497840404510498, -1.3894122838974, -2.455259084701538, 0.0595703125, -0.161865234375, -0.828125
278, 2639861580, -5.306351661682129, 2.0909504890441895, 8.014092445373535, -2.486365556716919, -1.4199424982070923, -2.409911870956421, 0.05859375, -0.163818359375, -0.829345703125
279, 2639878247, -5.300203323364258, 2.0774056911468506, 8.018445014953613, -2.613136053085327, -1.380050778388977, -2.440685749053955, 0.06103515625, -0.163330078125, -0.82763671875
280, 2639894914, -5.289721488952637, 2.085712194442749, 8.020869255065918, -2.56564998626709, -1.368640422821045, -2.4254841804504395, 0.060546875, -0.163818359375, -0.828125
281, 2639911581, -5.29568338394165, 2.0808186531066895, 8.030927658081055, -2.5372326374053955, -1.3649649620056152, -2.464543581008911, 0.0595703125, -0.165771484375, -0.826171875
282, 2639928248, -5.284418106079102, 2.0871856212615967, 8.005688667297363, -2.581965208053589, -1.3519152402877808, -2.4692821502685547, 0.059814453125, -0.163818359375, -0.82421875
283, 2639944915, -5.281796455383301, 2.0961294174194336, 8.044210433959961, -2.633075714111328, -1.4773664474487305, -2.459357500076294, 0.06201171875, -0.163330078125, -0.8251953125
284, 2639961582, -5.293091773986816, 2.0857553482055664, 8.006338119506836, -2.507765054702759, -1.4876881837844849, -2.5591697692871094, 0.06005859375, -0.163330078125, -0.828125
285, 2639978249, -5.308342456817627, 2.074937343597412, 8.01724910736084, -2.533723831176758, -1.3625446557998657, -2.570747137069702, 0.06201171875, -0.164306640625, -0.8291015625
286, 2639994916, -5.290570259094238, 2.0738422870635986, 8.016752243041992, -2.5135281085968018, -1.2910977602005005, -2.524285316467285, 0.06103515625, -0.162841796875, -0.82763671875
287, 2640011583, -5.298527240753174, 2.0709755420684814, 8.02471923828125, -2.542956829071045, -1.3591251373291016, -2.5004653930664062, 0.0595703125, -0.164794921875, -0.826171875
288, 2640028250, -5.306243896484375, 2.069500207901001, 8.016889572143555, -2.4769656658172607, -1.381894826889038, -2.409489154815674, 0.060546875, -0.164794921875, -0.82470703125
289, 2640044917, -5.292817115783691, 2.0933001041412354, 7.999726295471191, -2.4801673889160156, -1.3419389724731445, -2.433347463607788, 0.05859375, -0.164794921875, -0.82763671875
290, 2640061584, -5.2814788818359375, 2.07442045211792, 8.024526596069336, -2.5079572200775146, -1.4023466110229492, -2.3764488697052, 0.05859375, -0.164794921875, -0.82861328125
291, 2640078251, -5.303454875946045, 2.082953453063965, 8.028472900390625, -2.2580156326293945, -1.4937326908111572, -2.400627374649048, 0.05908203125, -0.163818359375, -0.82763671875
292, 2640094918, -5.292162895202637, 2.0913374423980713, 8.034585952758789, -2.5093021392822266, -1.4063040018081665, -2.570183277130127, 0.06005859375, -0.165283203125, -0.82763671875
293, 2640111585, -5.302687168121338, 2.089956521987915, 8.019668579101562, -2.5660345554351807, -1.4099664688110352, -2.6435256004333496, 0.058837890625, -0.163818359375, -0.82666015625
294, 2640128252, -5.2962727546691895, 2.080871820449829, 8.032401084899902, -2.6230990886688232, -1.3881186246871948, -2.5608601570129395, 0.06103515625, -0.164794921875, -0.826171875
295, 2640144919, -5.289030075073242, 2.0772852897644043, 8.045821189880371, -2.5449421405792236, -1.4172406196594238, -2.5149497985839844, 0.060546875, -0.162841796875, -0.82568359375
296, 2640161586, -5.296441078186035, 2.0823605060577393, 8.019845008850098, -2.7245895862579346, -1.4304053783416748, -2.630373477935791, 0.06005859375, -0.163818359375, -0.82763671875
297, 2640178253, -5.290317058563232, 2.06563138961792, 8.015538215637207, -2.582528829574585, -1.2733997106552124, -2.4904768466949463, 0.06005859375, -0.164794921875, -0.8271484375
298, 2640194920, -5.295491695404053, 2.072981595993042, 8.019536972045898, -2.5249383449554443, -1.2450587749481201, -2.540318489074707, 0.059326171875, -0.162353515625, -0.826171875
299, 2640211587, -5.296085357666016, 2.094733476638794, 8.008676528930664, -2.3871676921844482, -1.3201425075531006, -2.5242598056793213, 0.060546875, -0.163818359375, -0.826171875
300, 2640228254, -5.2718424797058105, 2.115631580352783, 8.02855396270752, -2.594028949737549, -1.3766828775405884, -2.5843091011047363, 0.0595703125, -0.165771484375, -0.82568359375
301, 2640244921, -5.338508129119873, 2.0691192150115967, 8.012866973876953, -2.7050726413726807, -1.3626980781555176, -2.745476245880127, 0.0615234375, -0.163330078125, -0.82861328125
302, 2640261588, -5.288410186767578, 2.095816135406494, 8.009608268737793, -2.566918134689331, -1.4631128311157227, -2.5928890705108643, 0.05908203125, -0.162841796875, -0.828369140625
303, 2640278255, -5.279170989990234, 2.0885074138641357, 8.048147201538086, -2.528280735015869, -1.3932796716690063, -2.5870108604431152, 0.0595703125, -0.164306640625, -0.828125
304, 2640294922, -5.306379318237305, 2.077420473098755, 8.033039093017578, -2.502028226852417, -1.2119674682617188, -2.6024043560028076, 0.05908203125, -0.164794921875, -0.82666015625
305, 2640311589, -5.315249919891357, 2.079503297805786, 8.019525527954102, -2.457987070083618, -1.3453967571258545, -2.494357109069824, 0.05908203125, -0.163330078125, -0.82666015625
306, 2640328256, -5.297553539276123, 2.092458486557007, 8.010217666625977, -2.4642746448516846, -1.445798397064209, -2.577303409576416, 0.0595703125, -0.164794921875, -0.826171875
307, 2640344923, -5.295142650604248, 2.082993984222412, 8.006665229797363, -2.5046918392181396, -1.4603084325790405, -2.567174196243286, 0.05908203125, -0.163330078125, -0.8271484375
308, 2640361590, -5.307675361633301, 2.0874767303466797, 8.00583267211914, -2.5057036876678467, -1.4944114685058594, -2.491065740585327, 0.05859375, -0.163330078125, -0.828857421875
309, 2640378257, -5.252126216888428, 2.095924139022827, 8.02434253692627, -2.580979347229004, -1.4516510963439941, -2.537975311279297, 0.059326171875, -0.164794921875, -0.8251953125
310, 2640394924, -5.299973011016846, 2.0656750202178955, 8.019948959350586, -2.5789175033569336, -1.466609001159668, -2.622868776321411, 0.06103515625, -0.164794921875, -0.8271484375
311, 2640411591, -5.289551734924316, 2.089578628540039, 8.022468566894531, -2.615582227706909, -1.4937840700149536, -2.640554666519165, 0.0615234375, -0.164306640625, -0.82470703125
312, 2640428258, -5.288601875305176, 2.081411361694336, 8.026689529418945, -2.5188941955566406, -1.364760160446167, -2.628068447113037, 0.06103515625, -0.164794921875, -0.82373046875
313, 2640444925, -5.293037414550781, 2.0889806747436523, 8.050749778747559, -2.393289566040039, -1.4627158641815186, -2.6333446502685547, 0.06005859375, -0.164794921875, -0.82763671875
314, 2640461592, -5.299510478973389, 2.062774181365967, 7.997055530548096, -2.1825990676879883, -1.504669189453125, -2.5441224575042725, 0.060546875, -0.162841796875, -0.82763671875
315, 2640478259, -5.285041332244873, 2.0910532474517822, 8.017990112304688, -2.3303074836730957, -1.302277684211731, -2.6507480144500732, 0.0615234375, -0.163330078125, -0.830078125
316, 2640494926, -5.285018444061279, 2.0892937183380127, 8.04757308959961, -2.487147092819214, -1.3046727180480957, -2.7071988582611084, 0.060546875, -0.165283203125, -0.8291015625
317, 2640511593, -5.308504581451416, 2.105802297592163, 7.972998142242432, -2.5417916774749756, -1.444108247756958, -2.802029609680176, 0.06005859375, -0.162353515625, -0.82568359375
318, 2640528260, -5.3056464195251465, 2.0635523796081543, 8.024482727050781, -2.4765946865081787, -1.3638635873794556, -2.7494852542877197, 0.06103515625, -0.164794921875, -0.82421875
319, 2640544927, -5.310152530670166, 2.0638108253479004, 8.014970779418945, -2.3433187007904053, -1.4026795625686646, -2.5098395347595215, 0.06201171875, -0.162841796875, -0.82568359375
320, 2640561594, -5.315486907958984, 2.09159517288208, 8.038291931152344, -2.2723588943481445, -1.4344650506973267, -2.4382266998291016, 0.06005859375, -0.166259765625, -0.830078125
321, 2640578261, -5.2975263595581055, 2.0857465267181396, 8.012654304504395, -2.257388114929199, -1.469541311264038, -2.324467897415161, 0.0625, -0.164306640625, -0.828125
322, 2640594928, -5.304471492767334, 2.082920551300049, 8.028864860534668, -2.3052070140838623, -1.414422869682312, -2.356189250946045, 0.0595703125, -0.165283203125, -0.8291015625
323, 2640611595, -5.290838241577148, 2.081843376159668, 8.022266387939453, -2.1820225715637207, -1.3155834674835205, -2.2532899379730225, 0.060546875, -0.163818359375, -0.82666015625
324, 2640628262, -5.306397438049316, 2.079381227493286, 8.041172981262207, -2.1267120838165283, -1.1577835083007812, -2.178372859954834, 0.060546875, -0.166748046875, -0.82470703125
325, 2640644929, -5.314718246459961, 2.0887696743011475, 7.999827861785889, -2.103532552719116, -1.2426000833511353, -2.1674106121063232, 0.0615234375, -0.164794921875, -0.82568359375
326, 2640661596, -5.296360969543457, 2.087416410446167, 8.000167846679688, -2.07297682762146, -1.2795848846435547, -2.195225954055786, 0.060546875, -0.164306640625, -0.82958984375
327, 2640678263, -5.264407634735107, 2.098562479019165, 7.9941277503967285, -2.109692335128784, -1.3233568668365479, -2.2242705821990967, 0.06201171875, -0.163330078125, -0.82861328125
328, 2640694930, -5.302573204040527, 2.0896427631378174, 8.013009071350098, -2.15657639503479, -1.217051386833191, -2.341538429260254, 0.060546875, -0.163818359375, -0.82666015625
329, 2640711597, -5.303893566131592, 2.110069990158081, 8.018378257751465, -2.1247270107269287, -1.220163345336914, -2.261716365814209, 0.05908203125, -0.166748046875, -0.826171875
330, 2640728264, -5.3050856590271, 2.1068997383117676, 7.988287925720215, -2.2518811225891113, -1.3345751762390137, -2.3178210258483887, 0.05859375, -0.165771484375, -0.82666015625
331, 2640744931, -5.301431179046631, 2.094123125076294, 8.015521049499512, -2.2928104400634766, -1.4653024673461914, -2.349926710128784, 0.058837890625, -0.163330078125, -0.826171875
332, 2640761598, -5.294254302978516, 2.0947954654693604, 8.02113151550293, -2.4158408641815186, -1.5523473024368286, -2.3673689365386963, 0.05859375, -0.164794921875, -0.828857421875
333, 2640778265, -5.2781476974487305, 2.1075851917266846, 8.00239372253418, -2.47696590423584, -1.4943602085113525, -2.334367275238037, 0.05810546875, -0.164794921875, -0.828369140625
334, 2640794932, -5.283849239349365, 2.105100631713867, 8.008301734924316, -2.545685052871704, -1.3557443618774414, -2.5277178287506104, 0.060546875, -0.166748046875, -0.828125
335, 2640811599, -5.289194107055664, 2.1029183864593506, 7.996960639953613, -2.507035255432129, -1.2257471084594727, -2.5495777130126953, 0.0595703125, -0.164794921875, -0.82568359375
336, 2640828266, -5.31407356262207, 2.0923590660095215, 8.013529777526855, -2.488414764404297, -1.2820565700531006, -2.4625461101531982, 0.06005859375, -0.164306640625, -0.82763671875
337, 2640844933, -5.316697597503662, 2.0861082077026367, 8.013880729675293, -2.474263906478882, -1.383060336112976, -2.524502992630005, 0.06103515625, -0.166748046875, -0.824462890625
338, 2640861600, -5.285324573516846, 2.104466438293457, 8.019571304321289, -2.368931293487549, -1.514837622642517, -2.3768715858459473, 0.06005859375, -0.163818359375, -0.82666015625
339, 2640878267, -5.297910690307617, 2.116044282913208, 8.011160850524902, -2.523850202560425, -1.4988681077957153, -2.453312635421753, 0.06103515625, -0.164794921875, -0.82666015625
340, 2640894934, -5.280752182006836, 2.1081438064575195, 8.015893936157227, -2.5354652404785156, -1.3143157958984375, -2.447805881500244, 0.060546875, -0.166259765625, -0.82568359375
341, 2640911601, -5.291936874389648, 2.1127355098724365, 8.004352569580078, -2.461918354034424, -1.2384508848190308, -2.516063928604126, 0.060546875, -0.165283203125, -0.82666015625
342, 2640928268, -5.310050964355469, 2.094548463821411, 8.015798568725586, -2.5135152339935303, -1.2215465307235718, -2.55476450920105, 0.05908203125, -0.165283203125, -0.826171875
343, 2640944935, -5.306666374206543, 2.09464430809021, 7.99006462097168, -2.4992871284484863, -1.2898428440093994, -2.497878313064575, 0.057861328125, -0.166259765625, -0.8271484375
344, 2640961602, -5.284465789794922, 2.1145527362823486, 8.020344734191895, -2.357802629470825, -1.2841951847076416, -2.43438458442688, 0.06005859375, -0.165771484375, -0.8271484375
345, 2640978269, -5.298332691192627, 2.1080515384674072, 8.002363204956055, -2.374502182006836, -1.28396475315094, -2.47682523727417, 0.05859375, -0.166748046875, -0.826171875
346, 2640994936, -5.2933526039123535, 2.104428768157959, 8.001787185668945, -2.4034061431884766, -1.2653186321258545, -2.5017716884613037, 0.0595703125, -0.165771484375, -0.8251953125
347, 2641011603, -5.314198970794678, 2.1053173542022705, 8.026000022888184, -2.366703510284424, -1.260721206665039, -2.45564341545105, 0.06103515625, -0.163818359375, -0.8251953125
348, 2641028270, -5.3080902099609375, 2.124925374984741, 8.01652717590332, -2.4597413539886475, -1.2957849502563477, -2.473597764968872, 0.06103515625, -0.166259765625, -0.823974609375
349, 2641044937, -5.295191764831543, 2.11175799369812, 8.024398803710938, -2.67478609085083, -1.419289469718933, -2.546747922897339, 0.06005859375, -0.165771484375, -0.82666015625
350, 2641061604, -5.306312561035156, 2.083688497543335, 8.01237964630127, -2.556711435317993, -1.364158272743225, -2.6427316665649414, 0.0625, -0.167236328125, -0.82958984375
351, 2641078271, -5.294083118438721, 2.1041126251220703, 8.027617454528809, -2.5715537071228027, -1.3178248405456543, -2.5314316749572754, 0.0634765625, -0.165283203125, -0.82763671875
352, 2641094938, -5.317257881164551, 2.0907862186431885, 8.016447067260742, -2.562896490097046, -1.2271044254302979, -2.5738332271575928, 0.0595703125, -0.165283203125, -0.826171875
353, 2641111605, -5.300387859344482, 2.115755558013916, 8.015131950378418, -2.5279734134674072, -1.4044339656829834, -2.499581813812256, 0.06103515625, -0.166259765625, -0.826171875
354, 2641128272, -5.299769878387451, 2.1086182594299316, 8.005396842956543, -2.5487585067749023, -1.4558005332946777, -2.624264717102051, 0.06201171875, -0.166748046875, -0.826171875
355, 2641144939, -5.302559852600098, 2.1052000522613525, 8.00234317779541, -2.7364485263824463, -1.5235717296600342, -2.550794839859009, 0.05859375, -0.165283203125, -0.8271484375
356, 2641161606, -5.304437637329102, 2.097095012664795, 8.025016784667969, -2.6304376125335693, -1.471910834312439, -2.595885753631592, 0.0615234375, -0.165771484375, -0.82666015625
357, 2641178273, -5.303675651550293, 2.091207504272461, 8.013197898864746, -2.667780876159668, -1.4225679636001587, -2.5857431888580322, 0.0615234375, -0.165771484375, -0.828125
358, 2641194940, -5.301220417022705, 2.1101317405700684, 8.010062217712402, -2.629668951034546, -1.4893274307250977, -2.6253020763397217, 0.06201171875, -0.165283203125, -0.82568359375
359, 2641211607, -5.326632499694824, 2.0854692459106445, 8.005970001220703, -2.5599255561828613, -1.52934730052948, -2.4156494140625, 0.0615234375, -0.167724609375, -0.826171875
360, 2641228274, -5.301763534545898, 2.0812010765075684, 8.01233959197998, -2.413203239440918, -1.5877314805984497, -2.346763849258423, 0.06005859375, -0.166259765625, -0.82421875
361, 2641244941, -5.3081440925598145, 2.0854570865631104, 8.014688491821289, -2.4357550144195557, -1.5966317653656006, -2.1706252098083496, 0.058349609375, -0.165283203125, -0.82666015625
362, 2641261608, -5.282082557678223, 2.105210065841675, 8.025383949279785, -2.409182071685791, -1.5434086322784424, -2.207315444946289, 0.0595703125, -0.167724609375, -0.82568359375
363, 2641278275, -5.286253929138184, 2.1123831272125244, 8.00910472869873, -2.278557062149048, -1.331066370010376, -2.3251209259033203, 0.0595703125, -0.166748046875, -0.8271484375
364, 2641294942, -5.3110551834106445, 2.114776372909546, 8.007122993469238, -2.386155843734741, -1.3636969327926636, -2.3444583415985107, 0.060546875, -0.164794921875, -0.82421875
365, 2641311609, -5.319515228271484, 2.09617280960083, 8.00341510772705, -2.3971564769744873, -1.3785011768341064, -2.3832616806030273, 0.0595703125, -0.166748046875, -0.82568359375
366, 2641328276, -5.282437324523926, 2.098475217819214, 8.001803398132324, -2.444706678390503, -1.5106371641159058, -2.2264225482940674, 0.060546875, -0.165771484375, -0.823486328125
367, 2641344943, -5.298247814178467, 2.0976102352142334, 8.001688957214355, -2.510697841644287, -1.384673833847046, -2.2778398990631104, 0.05859375, -0.168212890625, -0.826171875
368, 2641361610, -5.306332111358643, 2.0949809551239014, 7.99490213394165, -2.426393747329712, -1.4379483461380005, -2.3965423107147217, 0.060546875, -0.165283203125, -0.833251953125
369, 2641378277, -5.299405574798584, 2.141021490097046, 8.017450332641602, -2.4169812202453613, -1.5428706407546997, -2.2690420150756836, 0.060546875, -0.164306640625, -0.8291015625
370, 2641394944, -5.312194347381592, 2.095024585723877, 8.019922256469727, -2.5061516761779785, -1.399541974067688, -2.3600950241088867, 0.06005859375, -0.165283203125, -0.82666015625
371, 2641411611, -5.298510551452637, 2.102382183074951, 8.034953117370605, -2.440377712249756, -1.4588351249694824, -2.291721820831299, 0.060546875, -0.164306640625, -0.8251953125
372, 2641428278, -5.308094024658203, 2.097574234008789, 7.998196601867676, -2.422858715057373, -1.4581564664840698, -2.324890375137329, 0.059326171875, -0.166748046875, -0.82373046875
373, 2641444945, -5.291526794433594, 2.1173882484436035, 7.990969657897949, -2.3893191814422607, -1.4213768243789673, -2.3295650482177734, 0.06103515625, -0.167236328125, -0.8271484375
374, 2641461612, -5.294403076171875, 2.096332311630249, 8.009607315063477, -2.30981707572937, -1.3031485080718994, -2.2698357105255127, 0.0625, -0.167236328125, -0.824951171875
375, 2641478279, -5.3018975257873535, 2.1004726886749268, 7.981942653656006, -2.3073842525482178, -1.3833036422729492, -2.3953511714935303, 0.05908203125, -0.166748046875, -0.828125
376, 2641494946, -5.306827068328857, 2.11472487449646, 8.00840950012207, -2.378305673599243, -1.331668496131897, -2.2983558177948, 0.06103515625, -0.166748046875, -0.82568359375
377, 2641511613, -5.30465841293335, 2.097964286804199, 8.015326499938965, -2.510915517807007, -1.376042366027832, -2.321061372756958, 0.06005859375, -0.164306640625, -0.826171875
378, 2641528280, -5.313044548034668, 2.120250940322876, 8.003316879272461, -2.545966386795044, -1.5242758989334106, -2.3044514656066895, 0.0595703125, -0.165771484375, -0.82421875
379, 2641544947, -5.306166172027588, 2.1180925369262695, 8.023594856262207, -2.5514349937438965, -1.6190299987792969, -2.268120050430298, 0.06005859375, -0.165283203125, -0.82568359375
380, 2641561614, -5.296992778778076, 2.125129222869873, 8.012933731079102, -2.512221336364746, -1.50382399559021, -2.2666213512420654, 0.05908203125, -0.166259765625, -0.828125
381, 2641578281, -5.324208736419678, 2.0987842082977295, 8.011999130249023, -2.4944465160369873, -1.4979461431503296, -2.178398609161377, 0.057861328125, -0.166748046875, -0.82861328125
382, 2641594948, -5.30971097946167, 2.106414318084717, 7.993343830108643, -2.5082387924194336, -1.6786692142486572, -2.094721794128418, 0.0615234375, -0.166259765625, -0.826171875
383, 2641611615, -5.293849468231201, 2.1313159465789795, 8.005468368530273, -2.639798879623413, -1.733314037322998, -2.1975443363189697, 0.060546875, -0.166748046875, -0.823486328125
384, 2641628282, -5.282907485961914, 2.1307084560394287, 8.022404670715332, -2.5890603065490723, -1.7333014011383057, -2.2976770401000977, 0.058349609375, -0.166259765625, -0.82470703125
385, 2641644949, -5.299427032470703, 2.1199867725372314, 8.021942138671875, -2.4742636680603027, -1.6908735036849976, -2.2516889572143555, 0.06005859375, -0.167236328125, -0.82666015625
386, 2641661616, -5.278539657592773, 2.133281707763672, 8.004115104675293, -2.5239908695220947, -1.6627253293991089, -2.2253594398498535, 0.05859375, -0.168212890625, -0.828125
387, 2641678283, -5.285247802734375, 2.108430862426758, 8.007866859436035, -2.4583582878112793, -1.5121738910675049, -2.3747713565826416, 0.0576171875, -0.166259765625, -0.829345703125
388, 2641694950, -5.30100679397583, 2.1116750240325928, 7.99481725692749, -2.4522881507873535, -1.5801883935928345, -2.380943536758423, 0.05908203125, -0.166748046875, -0.8251953125
389, 2641711617, -5.292164325714111, 2.108309745788574, 8.008654594421387, -2.3618111610412598, -1.57515549659729, -2.317040205001831, 0.0595703125, -0.165771484375, -0.8251953125
390, 2641728284, -5.282871723175049, 2.1025872230529785, 7.9984450340271, -2.3911633491516113, -1.5488255023956299, -2.1871581077575684, 0.058349609375, -0.164794921875, -0.8232421875
391, 2641744951, -5.27885103225708, 2.1177847385406494, 8.021702766418457, -2.280695676803589, -1.494667410850525, -2.293809175491333, 0.05908203125, -0.165771484375, -0.830810546875
392, 2641761618, -5.291951656341553, 2.1144089698791504, 8.019137382507324, -2.141298294067383, -1.4231696128845215, -2.1773481369018555, 0.06005859375, -0.16845703125, -0.833740234375
393, 2641778285, -5.27474308013916, 2.114513397216797, 8.002497673034668, -2.0988197326660156, -1.3817282915115356, -2.206662178039551, 0.0595703125, -0.165771484375, -0.828125
394, 2641794952, -5.295715808868408, 2.1081702709198, 8.022651672363281, -1.9718446731567383, -1.3658099174499512, -2.082324981689453, 0.058837890625, -0.169189453125, -0.82470703125
395, 2641811619, -5.318974018096924, 2.0998387336730957, 8.012748718261719, -1.7308804988861084, -1.2664839029312134, -1.9498564004898071, 0.057373046875, -0.169189453125, -0.82568359375
396, 2641828286, -5.281947612762451, 2.1203794479370117, 7.99858283996582, -1.6696535348892212, -1.3000879287719727, -1.9251402616500854, 0.05908203125, -0.166748046875, -0.82763671875
397, 2641844953, -5.279026985168457, 2.1464669704437256, 8.012381553649902, -1.5781264305114746, -1.1948707103729248, -1.8809196949005127, 0.06005859375, -0.167724609375, -0.826171875
398, 2641861620, -5.308614730834961, 2.1341652870178223, 8.009305953979492, -1.702655553817749, -1.1904783248901367, -1.952174425125122, 0.06103515625, -0.16943359375, -0.8291015625
399, 2641878287, -5.324923515319824, 2.0892252922058105, 7.996798992156982, -1.4828599691390991, -1.2422927618026733, -1.6685007810592651, 0.05859375, -0.169677734375, -0.826171875
400, 2641894954, -5.25521183013916, 2.156742811203003, 8.000096321105957, -1.2940434217453003, -1.2847203016281128, -1.5513100624084473, 0.0595703125, -0.167724609375, -0.8251953125
401, 2641911621, -5.267243385314941, 2.186701536178589, 7.999236106872559, -1.7222875356674194, -1.287614345550537, -1.791569709777832, 0.057861328125, -0.169677734375, -0.82568359375
402, 2641928288, -5.262219429016113, 2.1650376319885254, 7.983272075653076, -1.8395426273345947, -1.353541612625122, -1.9091194868087769, 0.058837890625, -0.169677734375, -0.82470703125
403, 2641944955, -5.269625186920166, 2.103177785873413, 8.021138191223145, -1.4311095476150513, -1.5061546564102173, -1.9821157455444336, 0.05859375, -0.168701171875, -0.82666015625
404, 2641961622, -5.28792667388916, 2.1058194637298584, 7.995739936828613, -1.2828248739242554, -1.6484845876693726, -1.6780928373336792, 0.0615234375, -0.16943359375, -0.82666015625
405, 2641978289, -5.304508686065674, 2.1647896766662598, 7.9455246925354, -0.7004560828208923, -1.9091320037841797, -1.539015769958496, 0.0576171875, -0.17041015625, -0.828125
406, 2641994956, -5.303685188293457, 2.134812593460083, 7.9438042640686035, -1.6615341901779175, -2.414560317993164, -1.715692162513733, 0.05908203125, -0.16943359375, -0.82666015625
407, 2642011623, -5.271609783172607, 2.0617737770080566, 8.022784233093262, -1.0740814208984375, -3.107998847961426, -1.6451550722122192, 0.06005859375, -0.1708984375, -0.824951171875
408, 2642028290, -5.226944923400879, 2.168191909790039, 7.982599258422852, -0.6659941673278809, -3.0381526947021484, -1.1872382164001465, 0.058349609375, -0.17041015625, -0.8251953125
409, 2642044957, -5.299410820007324, 2.2000598907470703, 7.958088397979736, -0.7974001169204712, -3.1687772274017334, -1.2856038808822632, 0.0595703125, -0.17138671875, -0.826171875
410, 2642061624, -5.377261638641357, 2.2021875381469727, 7.905231475830078, -1.8884754180908203, -4.389235496520996, -1.2276678085327148, 0.057373046875, -0.1708984375, -0.82666015625
411, 2642078291, -5.340855121612549, 2.337759256362915, 7.888840198516846, -2.8560597896575928, -6.161559104919434, -0.8372665047645569, 0.055419921875, -0.171875, -0.8271484375
412, 2642094958, -5.1526970863342285, 2.468149185180664, 7.988986492156982, -3.769728660583496, -6.700231552124023, -1.5365060567855835, 0.053466796875, -0.17138671875, -0.8251953125
413, 2642111625, -5.174184322357178, 2.2207884788513184, 8.116092681884766, -3.5717809200286865, -5.914036273956299, -2.3339829444885254, 0.052978515625, -0.170654296875, -0.82421875
414, 2642128292, -5.180126667022705, 2.081406354904175, 8.140201568603516, -2.6538474559783936, -3.950913190841675, -2.0360686779022217, 0.052001953125, -0.170654296875, -0.825927734375
415, 2642144959, -5.203523635864258, 2.00976824760437, 8.12403678894043, -2.253162145614624, -1.9984053373336792, -1.584926724433899, 0.052001953125, -0.170654296875, -0.8251953125
416, 2642161626, -5.182295799255371, 2.1804773807525635, 8.09286117553711, -1.2795976400375366, -1.0669736862182617, -1.144554615020752, 0.050048828125, -0.171875, -0.826416015625
417, 2642178293, -5.203228950500488, 2.223066806793213, 7.999454021453857, -1.0216906070709229, -0.4910466969013214, -1.2388222217559814, 0.053466796875, -0.171875, -0.829345703125
418, 2642194960, -5.193930625915527, 2.208670139312744, 8.067071914672852, -0.051852911710739136, 0.3438057005405426, -1.1813089847564697, 0.052978515625, -0.17529296875, -0.82763671875
419, 2642211627, -5.268850326538086, 2.1338119506835938, 8.007455825805664, 0.5087131261825562, 1.2289165258407593, -1.1115143299102783, 0.053955078125, -0.1728515625, -0.82568359375
420, 2642228294, -5.269183158874512, 2.0910117626190186, 8.049773216247559, 0.9657843708992004, 1.701176404953003, -0.910480260848999, 0.052978515625, -0.1748046875, -0.82470703125
421, 2642244961, -5.282925128936768, 2.1456077098846436, 8.022706985473633, 0.8402950167655945, 2.4435088634490967, -0.4067424535751343, 0.053955078125, -0.17529296875, -0.82421875
422, 2642261628, -5.282398223876953, 2.182154417037964, 8.001102447509766, 1.6988328695297241, 2.745854139328003, 0.05895403027534485, 0.053955078125, -0.177734375, -0.826171875
423, 2642278295, -5.203098297119141, 2.307150363922119, 8.021127700805664, 1.7071186304092407, 3.2529220581054688, -0.007171556353569031, 0.055908203125, -0.17578125, -0.82666015625
424, 2642294962, -5.249600410461426, 2.2771058082580566, 7.98931360244751, 1.4225616455078125, 3.7583377361297607, -0.29139572381973267, 0.0576171875, -0.179443359375, -0.826416015625
425, 2642311629, -5.216482162475586, 2.205350637435913, 7.920291900634766, 2.5644142627716064, 4.356060981750488, 0.1149049773812294, 0.05859375, -0.180908203125, -0.825439453125
426, 2642328296, -5.137842178344727, 2.2917110919952393, 7.99725866317749, 3.798715591430664, 5.428606033325195, 0.22356683015823364, 0.0595703125, -0.180419921875, -0.825439453125
427, 2642344963, -5.165045738220215, 2.3074252605438232, 7.978001594543457, 4.135740756988525, 6.407395839691162, 0.03542877361178398, 0.0615234375, -0.180419921875, -0.8232421875
428, 2642361630, -5.242773532867432, 2.402597427368164, 7.934762954711914, 5.1930084228515625, 6.428564548492432, -0.34177592396736145, 0.0654296875, -0.183837890625, -0.82470703125
429, 2642378297, -5.211583137512207, 2.436201572418213, 7.921864032745361, 5.240788459777832, 6.0402374267578125, -0.9155645370483398, 0.064453125, -0.183349609375, -0.82568359375
430, 2642394964, -5.2166571617126465, 2.4495389461517334, 7.938017845153809, 4.914622783660889, 5.953192234039307, -1.7292414903640747, 0.0654296875, -0.1875, -0.821533203125
431, 2642411631, -5.335915565490723, 2.4518673419952393, 7.90470552444458, 4.6256608963012695, 6.083150863647461, -2.4268932342529297, 0.068115234375, -0.189453125, -0.822021484375
432, 2642428298, -5.298051834106445, 2.5569911003112793, 7.879831314086914, 4.536887168884277, 6.212764263153076, -3.386319160461426, 0.070556640625, -0.19140625, -0.822021484375
433, 2642444965, -5.393854141235352, 2.4977662563323975, 7.862009048461914, 4.2260894775390625, 6.779125690460205, -3.8165359497070312, 0.071044921875, -0.19189453125, -0.822265625
434, 2642461632, -5.407504558563232, 2.3489980697631836, 7.892274856567383, 4.695852279663086, 7.917623519897461, -3.631331205368042, 0.0751953125, -0.1923828125, -0.82080078125
435, 2642478299, -5.340649127960205, 2.442397356033325, 7.8585004806518555, 5.327334403991699, 9.181381225585938, -3.344827890396118, 0.07568359375, -0.195556640625, -0.819580078125
436, 2642494966, -5.395594596862793, 2.4241158962249756, 7.7823286056518555, 5.975568771362305, 11.03197956085205, -3.3637053966522217, 0.0791015625, -0.197021484375, -0.819580078125
437, 2642511633, -5.340477466583252, 2.483458995819092, 7.85599422454834, 6.948800086975098, 12.953343391418457, -3.7878260612487793, 0.0830078125, -0.199951171875, -0.8154296875
438, 2642528300, -5.411838054656982, 2.5986111164093018, 7.770500659942627, 7.930347442626953, 15.227862358093262, -4.390559673309326, 0.087646484375, -0.20166015625, -0.814697265625
439, 2642544967, -5.480501651763916, 2.5250306129455566, 7.74778413772583, 9.672401428222656, 18.558359146118164, -5.961928844451904, 0.092041015625, -0.2021484375, -0.81396484375
440, 2642561634, -5.458700656890869, 2.6057231426239014, 7.750442981719971, 13.471184730529785, 22.993986129760742, -9.663570404052734, 0.09814453125, -0.2060546875, -0.814208984375
441, 2642578301, -5.461034297943115, 2.676893472671509, 7.727826118469238, 14.600055694580078, 26.83737564086914, -12.46252155303955, 0.104736328125, -0.210693359375, -0.81201171875
442, 2642594968, -5.484958171844482, 2.7018983364105225, 7.883384704589844, 16.96769142150879, 32.29104232788086, -14.429220199584961, 0.11328125, -0.2138671875, -0.80810546875
443, 2642611635, -5.419095039367676, 2.517120122909546, 8.102069854736328, 13.012537956237793, 40.37285232543945, -12.915728569030762, 0.120361328125, -0.2158203125, -0.807373046875
444, 2642628302, -5.362610340118408, 2.6705098152160645, 8.132691383361816, 18.5728816986084, 55.54719543457031, -13.147485733032227, 0.13427734375, -0.220458984375, -0.80078125
445, 2642644969, -5.470561981201172, 2.5598840713500977, 8.03141975402832, 26.817859649658203, 73.63365936279297, -14.38563060760498, 0.14990234375, -0.22509765625, -0.795654296875
446, 2642661636, -5.562863826751709, 2.5590527057647705, 7.9515061378479, 31.765222549438477, 94.54612731933594, -15.72818374633789, 0.17333984375, -0.231201171875, -0.787841796875
447, 2642678303, -5.646575927734375, 2.6621954441070557, 7.7339653968811035, 38.133724212646484, 121.76277923583984, -16.879716873168945, 0.200927734375, -0.240234375, -0.775634765625
448, 2642694970, -5.881492614746094, 2.999048948287964, 7.725536823272705, 43.87464141845703, 152.32785034179688, -22.849042892456055, 0.23291015625, -0.247802734375, -0.760986328125
449, 2642711637, -5.993654251098633, 3.483130931854248, 7.666746616363525, 43.87479019165039, 184.08668518066406, -32.808170318603516, 0.2724609375, -0.254638671875, -0.741943359375
450, 2642728304, -6.251071453094482, 3.340884208679199, 7.20307731628418, 30.38039779663086, 210.2950439453125, -45.84965515136719, 0.319091796875, -0.255859375, -0.7177734375
451, 2642744971, -6.751049041748047, 3.300043821334839, 6.725461006164551, 24.699745178222656, 246.83755493164062, -59.19108963012695, 0.37255859375, -0.25537109375, -0.686279296875
452, 2642761638, -7.449309825897217, 4.134849548339844, 6.943903923034668, 14.764449119567871, 286.2545471191406, -80.44048309326172, 0.431396484375, -0.250244140625, -0.648193359375
453, 2642778305, -9.371879577636719, 4.992074489593506, 7.595550537109375, 0.9027073979377747, 314.3279724121094, -109.8003158569336, 0.495849609375, -0.234619140625, -0.603271484375
454, 2642794972, -10.98520565032959, 4.993749618530273, 7.116697311401367, 2.375321388244629, 350.12994384765625, -137.22743225097656, 0.560791015625, -0.212158203125, -0.54248046875
455, 2642811639, -17.728879928588867, 7.3977861404418945, 10.099785804748535, 3.7136378288269043, 349.0055847167969, -143.67526245117188, 0.623779296875, -0.18701171875, -0.4697265625
456, 2642828306, -18.151845932006836, 5.5644612312316895, 10.711461067199707, 12.892340660095215, 331.3387756347656, -142.4040985107422, 0.67333984375, -0.163330078125, -0.397705078125
457, 2642844973, -18.76919937133789, 6.3072428703308105, 13.144688606262207, 6.1406121253967285, 282.09527587890625, -136.18496704101562, 0.713134765625, -0.13427734375, -0.32666015625
458, 2642861640, -13.140053749084473, 6.676792144775391, 12.85366439819336, -6.067789077758789, 232.35763549804688, -133.44442749023438, 0.739990234375, -0.10693359375, -0.263671875
459, 2642878307, -1.797092080116272, 4.78847599029541, 12.86334228515625, -15.505441665649414, 183.21109008789062, -133.94984436035156, 0.759033203125, -0.0771484375, -0.21044921875
460, 2642894974, -11.789411544799805, 2.431199550628662, 17.901124954223633, 35.437591552734375, 162.1890106201172, -123.04373168945312, 0.771484375, -0.05029296875, -0.159423828125
461, 2642911641, -15.134897232055664, 7.773705005645752, 23.932443618774414, 83.00275421142578, -65.98798370361328, -53.188167572021484, 0.77587890625, -0.0380859375, -0.150390625
462, 2642928308, -3.1556410789489746, 8.352550506591797, 15.191675186157227, 61.94277572631836, -197.60621643066406, -12.8726806640625, 0.773681640625, -0.041259765625, -0.177734375
463, 2642944975, 1.3296266794204712, 6.455382347106934, 9.599538803100586, 18.899343490600586, -220.03746032714844, 1.6226577758789062, 0.76953125, -0.0419921875, -0.22021484375
464, 2642961642, 1.4085900783538818, 4.262633323669434, 7.343639850616455, -8.32659912109375, -209.02667236328125, 18.93880271911621, 0.7666015625, -0.046875, -0.268798828125
465, 2642978309, -0.5996319055557251, 3.3903281688690186, 7.266299247741699, -14.598798751831055, -198.5984344482422, 50.6937255859375, 0.756103515625, -0.0595703125, -0.312255859375
466, 2642994976, -3.046846866607666, 3.80590558052063, 7.993954181671143, -24.516611099243164, -203.4327850341797, 81.73088836669922, 0.744384765625, -0.075439453125, -0.362548828125
467, 2643011643, -5.525697708129883, 3.8813633918762207, 8.896368980407715, -43.25583267211914, -226.7737274169922, 106.53369140625, 0.72265625, -0.09521484375, -0.421142578125
468, 2643028310, -7.259117126464844, 3.0350217819213867, 9.114344596862793, -58.34311294555664, -263.54486083984375, 128.66006469726562, 0.6845703125, -0.118896484375, -0.487060546875
469, 2643044977, -7.471719741821289, 1.9436143636703491, 8.427105903625488, -62.25205993652344, -295.3883972167969, 146.04653930664062, 0.630615234375, -0.134033203125, -0.55126953125
470, 2643061644, -7.281222343444824, 1.096998691558838, 7.664401531219482, -58.471981048583984, -309.11944580078125, 153.7100830078125, 0.5634765625, -0.14697265625, -0.61328125
471, 2643078311, -7.5286126136779785, 0.3223291039466858, 7.50619649887085, -52.913272857666016, -305.5418395996094, 146.68272399902344, 0.49609375, -0.15478515625, -0.66357421875
472, 2643094978, -8.196927070617676, -1.1435539722442627, 7.303057670593262, -40.584190368652344, -288.6363830566406, 122.57240295410156, 0.42822265625, -0.16162109375, -0.699462890625
473, 2643111645, -10.644627571105957, -1.6197969913482666, 8.983455657958984, -11.535365104675293, -255.6771240234375, 84.2718734741211, 0.373046875, -0.164794921875, -0.7158203125
474, 2643128312, -16.31070327758789, -0.38547375798225403, 12.069583892822266, 27.690183639526367, -247.97848510742188, 49.908409118652344, 0.332763671875, -0.16845703125, -0.716552734375
475, 2643144979, -20.107393264770508, 0.20449110865592957, 11.592434883117676, 72.73762512207031, -256.93951416015625, 31.353403091430664, 0.311767578125, -0.18505859375, -0.72705078125
476, 2643161646, -25.325054168701172, 3.173116683959961, 8.119050979614258, 98.53707885742188, -255.5666046142578, 14.094542503356934, 0.29736328125, -0.2177734375, -0.760986328125
477, 2643178313, -29.38934898376465, 6.681241035461426, 3.046278476715088, 69.66089630126953, -253.78016662597656, -15.5386381149292, 0.268310546875, -0.24951171875, -0.8203125
478, 2643194980, -29.286357879638672, 4.529429912567139, -3.6356256008148193, 52.88019561767578, -241.85166931152344, -26.528913497924805, 0.203125, -0.282470703125, -0.876953125
479, 2643211647, -26.723207473754883, -0.7094794511795044, -8.773214340209961, 103.89244079589844, -203.09608459472656, 18.43028450012207, 0.128662109375, -0.3212890625, -0.906005859375
480, 2643228314, -25.278867721557617, -4.400792598724365, -10.174179077148438, 144.43016052246094, -154.20480346679688, 80.62991333007812, 0.056884765625, -0.375, -0.900390625
481, 2643244981, -23.902599334716797, -6.001025676727295, -9.132317543029785, 82.11668395996094, -111.30773162841797, 81.26325988769531, -0.00439453125, -0.41259765625, -0.89208984375
482, 2643261648, -22.21344566345215, -7.937313079833984, -9.281704902648926, -33.74440002441406, -53.331180572509766, -5.4513044357299805, -0.04296875, -0.416015625, -0.893310546875
483, 2643278315, -12.91685676574707, -11.003375053405762, -17.845083236694336, -44.359046936035156, 57.151145935058594, -110.97859954833984, -0.032470703125, -0.407470703125, -0.902099609375
484, 2643294982, -4.142629146575928, 9.717742919921875, 12.82105541229248, -9.122737884521484, 133.35745239257812, -93.01126098632812, 0.009521484375, -0.410888671875, -0.9150390625
485, 2643311649, -6.726273059844971, 13.451427459716797, 9.253113746643066, -51.718772888183594, 119.24668884277344, -46.59014129638672, 0.039794921875, -0.40673828125, -0.921630859375
486, 2643328316, -16.248050689697266, -5.249049186706543, 14.096753120422363, -61.97561264038086, 140.2458038330078, -23.30394744873047, 0.075439453125, -0.391357421875, -0.931884765625
487, 2643344983, -12.078851699829102, -5.933594703674316, 14.268218040466309, -26.35987091064453, 75.59416198730469, -50.49357986450195, 0.10107421875, -0.383056640625, -0.938720703125
488, 2643361650, -5.188044548034668, 4.770321846008301, 6.701927185058594, -2.623735189437866, 57.10142517089844, -42.744869232177734, 0.119384765625, -0.3857421875, -0.941162109375
489, 2643378317, -11.423308372497559, 7.704704284667969, 10.08333969116211, -47.92364501953125, 52.78709411621094, -38.7982177734375, 0.136962890625, -0.37646484375, -0.943359375
490, 2643394984, -6.954026699066162, 0.43692025542259216, 8.375877380371094, -45.82577133178711, 11.849621772766113, -35.22392272949219, 0.14404296875, -0.362548828125, -0.950927734375
491, 2643411651, -6.480014324188232, 2.0561017990112305, 9.16275405883789, -36.980140686035156, 3.803098440170288, -26.838930130004883, 0.14794921875, -0.3515625, -0.95458984375
492, 2643428318, -6.463442325592041, 1.9760483503341675, 8.597868919372559, -23.888944625854492, 0.3117522597312927, -16.911474227905273, 0.150390625, -0.343994140625, -0.95654296875
493, 2643444985, -5.727884292602539, 2.2004952430725098, 8.392641067504883, -14.694931983947754, 0.2595785856246948, -10.946508407592773, 0.150390625, -0.340576171875, -0.960205078125
494, 2643461652, -5.337116241455078, 2.0462088584899902, 8.274646759033203, -8.973133087158203, 2.400967836380005, -7.4275336265563965, 0.151123046875, -0.33740234375, -0.961181640625
495, 2643478319, -5.298556327819824, 2.6332664489746094, 7.937829494476318, -6.1179656982421875, 4.039770126342773, -6.174506187438965, 0.153564453125, -0.33740234375, -0.961669921875
496, 2643494986, -5.412038803100586, 2.701685667037964, 7.802031993865967, -6.107081413269043, 3.4289331436157227, -5.727783203125, 0.154052734375, -0.3369140625, -0.961181640625
497, 2643511653, -5.458808422088623, 2.715096950531006, 7.737912178039551, -7.947023391723633, 0.7418017387390137, -7.1286702156066895, 0.156005859375, -0.33349609375, -0.963134765625
498, 2643528320, -5.327572822570801, 2.4730093479156494, 7.864499092102051, -9.992608070373535, -1.2652934789657593, -7.608141899108887, 0.158447265625, -0.33203125, -0.962646484375
499, 2643544987, -5.303569793701172, 2.049440860748291, 8.095512390136719, -8.912800788879395, -0.6167669296264648, -7.806293964385986, 0.157958984375, -0.3310546875, -0.963623046875
500, 2643561654, -5.43120002746582, 2.140152931213379, 8.072474479675293, -9.757650375366211, -0.21350757777690887, -7.6235857009887695, 0.158447265625, -0.328857421875, -0.963623046875
501, 2643578321, -5.54218864440918, 2.401381731033325, 7.820115089416504, -10.578039169311523, -2.0613882541656494, -8.705199241638184, 0.158447265625, -0.327392578125, -0.964599609375
502, 2643594988, -5.391481876373291, 2.3532023429870605, 7.769834995269775, -10.729704856872559, -4.62687349319458, -8.37156867980957, 0.158447265625, -0.322998046875, -0.9658203125
503, 2643611655, -5.3958940505981445, 2.4479117393493652, 7.91104793548584, -11.518232345581055, -6.717832088470459, -9.371424674987793, 0.158447265625, -0.322998046875, -0.966796875
504, 2643628322, -5.423666954040527, 2.1134495735168457, 7.89573860168457, -11.536947250366211, -8.077306747436523, -9.842243194580078, 0.154541015625, -0.3193359375, -0.968505859375
505, 2643644989, -5.372906684875488, 1.7300299406051636, 7.9633026123046875, -8.063536643981934, -6.897043704986572, -8.824630737304688, 0.154541015625, -0.31689453125, -0.968017578125
506, 2643661656, -5.174352169036865, 1.8911008834838867, 8.079776763916016, -4.6243486404418945, -3.5871620178222656, -8.014676094055176, 0.155029296875, -0.31591796875, -0.971435546875
507, 2643678323, -5.1674981117248535, 2.0362377166748047, 8.11439037322998, -2.5635242462158203, 0.35558757185935974, -7.978113651275635, 0.156494140625, -0.31591796875, -0.969970703125
508, 2643694990, -5.236042499542236, 2.029926300048828, 8.04415512084961, -0.7705455422401428, 3.6275601387023926, -8.711138725280762, 0.155517578125, -0.31591796875, -0.971923828125
509, 2643711657, -5.2907185554504395, 2.1356632709503174, 7.99322509765625, 1.8060228824615479, 7.987560749053955, -10.136205673217773, 0.156494140625, -0.3173828125, -0.967041015625
510, 2643728324, -5.163269996643066, 2.2129008769989014, 8.061477661132812, 3.6665706634521484, 13.013398170471191, -12.691286087036133, 0.159912109375, -0.31640625, -0.9658203125
511, 2643744991, -5.042716026306152, 2.4761319160461426, 8.175509452819824, 4.895450592041016, 21.857608795166016, -15.588735580444336, 0.167236328125, -0.316650390625, -0.968994140625
512, 2643761658, -4.5467610359191895, 2.126763105392456, 9.014251708984375, 5.833244323730469, 37.0023307800293, -18.365530014038086, 0.1787109375, -0.318115234375, -0.962646484375
513, 2643778325, -4.824925899505615, 1.6821482181549072, 8.983795166015625, 12.11954116821289, 59.184417724609375, -18.23981285095215, 0.193603515625, -0.32177734375, -0.9580078125
514, 2643794992, -4.891453742980957, 1.5368660688400269, 9.029092788696289, 23.644363403320312, 89.20853424072266, -17.967021942138672, 0.21533203125, -0.32568359375, -0.94970703125
515, 2643811659, -4.9098896980285645, 2.1698520183563232, 9.236222267150879, 35.6983757019043, 126.5139389038086, -22.379253387451172, 0.246337890625, -0.333984375, -0.935546875
516, 2643828326, -5.146427631378174, 2.972074031829834, 9.424413681030273, 41.83216094970703, 168.53286743164062, -35.222755432128906, 0.289306640625, -0.341796875, -0.91796875
517, 2643844993, -4.486469268798828, 4.667176246643066, 9.401390075683594, 44.35271072387695, 221.44131469726562, -62.29714584350586, 0.34326171875, -0.347900390625, -0.888427734375
518, 2643861660, -5.682066917419434, 4.831982135772705, 9.923166275024414, 32.92951965332031, 292.6795349121094, -106.1964340209961, 0.414306640625, -0.345703125, -0.848876953125
519, 2643878327, -7.067030906677246, 4.008248805999756, 10.486268997192383, 21.859113693237305, 373.8435974121094, -155.93142700195312, 0.505126953125, -0.326904296875, -0.794677734375
520, 2643894994, -7.755587100982666, 5.7828874588012695, 11.956781387329102, 12.551606178283691, 441.7336730957031, -196.90884399414062, 0.607666015625, -0.2958984375, -0.711181640625
521, 2643911661, -18.099729537963867, 7.2850260734558105, 15.738260269165039, 20.680315017700195, 465.8550720214844, -205.49842834472656, 0.70361328125, -0.250244140625, -0.608154296875
522, 2643928328, -21.96588134765625, 7.465371608734131, 16.622047424316406, 14.015216827392578, 417.3973083496094, -188.3455810546875, 0.776123046875, -0.202880859375, -0.49951171875
523, 2643944995, -16.472747802734375, 9.059758186340332, 17.225202560424805, 6.063560485839844, 334.68865966796875, -173.49864196777344, 0.821044921875, -0.154541015625, -0.394775390625
524, 2643961662, -0.3276244103908539, 7.26350212097168, 15.040098190307617, -19.655479431152344, 280.6026611328125, -190.74612426757812, 0.849609375, -0.102294921875, -0.31591796875
525, 2643978329, -5.319591999053955, 12.11990737915039, 13.682523727416992, -62.45401382446289, 310.05462646484375, -191.93161010742188, 0.873779296875, -0.041259765625, -0.229248046875
526, 2643994996, -20.787050247192383, 14.501749038696289, 27.854692459106445, -41.98032760620117, 75.18869018554688, -48.58934783935547, 0.882080078125, -0.010009765625, -0.184326171875
527, 2644011663, -7.544743061065674, 12.079482078552246, 19.515174865722656, -45.44611740112305, -163.8815460205078, 67.96454620361328, 0.878173828125, -0.023193359375, -0.220703125
528, 2644028330, 1.7155101299285889, 6.9350433349609375, 9.397077560424805, -78.6194839477539, -233.88613891601562, 103.63042449951172, 0.8603515625, -0.051513671875, -0.287109375
529, 2644044997, 3.6445517539978027, 2.9299263954162598, 4.84035062789917, -88.59326171875, -229.00982666015625, 105.22173309326172, 0.83203125, -0.077880859375, -0.36083984375
530, 2644061664, 2.646022319793701, 0.5496301651000977, 3.8428566455841064, -67.56307983398438, -206.45323181152344, 115.2149658203125, 0.7900390625, -0.105224609375, -0.4228515625
531, 2644078331, -0.5836120247840881, 0.5807998180389404, 5.164660453796387, -40.86616134643555, -191.79498291015625, 127.32356262207031, 0.73974609375, -0.1357421875, -0.471435546875
532, 2644094998, -5.3433308601379395, 1.8060535192489624, 7.984677791595459, -32.23233413696289, -207.875, 130.45803833007812, 0.68505859375, -0.16162109375, -0.51416015625
533, 2644111665, -9.244975090026855, 2.2645747661590576, 9.75029468536377, -39.15715026855469, -263.771240234375, 133.20498657226562, 0.625244140625, -0.181640625, -0.552001953125
534, 2644128332, -9.301007270812988, 1.6484586000442505, 9.04062557220459, -43.83841323852539, -322.18060302734375, 138.4309539794922, 0.55029296875, -0.197021484375, -0.59619140625
535, 2644144999, -7.107354640960693, 0.2317492514848709, 6.243640422821045, -38.76899337768555, -344.37469482421875, 137.30923461914062, 0.476806640625, -0.212646484375, -0.632080078125
536, 2644161666, -5.46637487411499, -1.5626647472381592, 3.8617746829986572, -18.59585952758789, -319.6483459472656, 118.88362121582031, 0.40380859375, -0.224365234375, -0.661376953125
537, 2644178333, -6.727045059204102, -2.043536424636841, 4.35917329788208, 12.92547607421875, -261.3976135253906, 83.5181884765625, 0.349853515625, -0.236572265625, -0.677001953125
538, 2644195000, -12.872743606567383, 0.6404753923416138, 9.592079162597656, 40.36777877807617, -222.02792358398438, 52.92856216430664, 0.313232421875, -0.251953125, -0.679931640625
539, 2644211667, -19.142045974731445, 2.178875207901001, 12.79827880859375, 66.12287902832031, -242.19883728027344, 44.64973449707031, 0.281005859375, -0.27099609375, -0.689208984375
540, 2644228334, -21.850263595581055, 3.046617031097412, 10.610649108886719, 83.83167266845703, -264.7855224609375, 44.96285629272461, 0.23974609375, -0.3017578125, -0.7099609375
541, 2644245001, -24.011564254760742, 3.8911828994750977, 6.264954090118408, 78.5470199584961, -253.97671508789062, 30.92901611328125, 0.185791015625, -0.330322265625, -0.7353515625
542, 2644261668, -29.211700439453125, 4.915951728820801, 2.502291679382324, 69.82035827636719, -238.5087127685547, 18.274568557739258, 0.1171875, -0.35791015625, -0.751708984375
543, 2644278335, -31.17145538330078, 5.090276718139648, -3.502840757369995, 68.30223083496094, -230.42178344726562, 41.69209289550781, 0.04736328125, -0.382568359375, -0.75
544, 2644295002, -27.555583953857422, -0.5608909726142883, -9.73820972442627, 76.671142578125, -190.33721923828125, 85.28485870361328, -0.0166015625, -0.402587890625, -0.735595703125
545, 2644311669, -24.756118774414062, -7.072556495666504, -12.076982498168945, 91.77091217041016, -117.76314544677734, 115.18115234375, -0.064453125, -0.422607421875, -0.71533203125
546, 2644328336, -23.570663452148438, -10.327444076538086, -16.487314224243164, 4.161402702331543, 9.721174240112305, 48.18619918823242, -0.086181640625, -0.425537109375, -0.703857421875
547, 2644345003, -25.128074645996094, -12.075546264648438, -12.899262428283691, -70.46361541748047, 92.6800537109375, -66.64347839355469, -0.071044921875, -0.41357421875, -0.706298828125
548, 2644361670, -15.401281356811523, -2.402637243270874, 8.906716346740723, -96.81953430175781, 100.60391998291016, -132.94717407226562, -0.037841796875, -0.395751953125, -0.717041015625
549, 2644378337, -7.318902969360352, 9.811756134033203, 15.573434829711914, -94.01190948486328, 29.829065322875977, -106.162353515625, -0.021240234375, -0.37451171875, -0.72607421875
550, 2644395004, -0.38030844926834106, 1.1656054258346558, 3.8064184188842773, -54.385807037353516, 87.43479919433594, -58.73723602294922, -0.003173828125, -0.363525390625, -0.728515625
551, 2644411671, -12.589618682861328, -3.171780586242676, 12.914876937866211, -32.79983901977539, 114.4383773803711, -14.501762390136719, 0.02197265625, -0.354736328125, -0.7294921875
552, 2644428338, -15.007670402526855, 1.621238112449646, 13.739429473876953, -30.484376907348633, 54.63298797607422, -49.15979766845703, 0.03857421875, -0.350830078125, -0.72802734375
553, 2644445005, -6.152496337890625, 2.5220956802368164, 7.25138521194458, -25.24494171142578, 19.877883911132812, -16.05569076538086, 0.0458984375, -0.3427734375, -0.73095703125
554, 2644461672, -6.571721076965332, 2.11666202545166, 9.192090034484863, -15.881345748901367, 5.816864490509033, -13.118206024169922, 0.046142578125, -0.33935546875, -0.7314453125
555, 2644478339, -6.292499542236328, 2.7138216495513916, 8.313246726989746, -7.759498596191406, 2.9949517250061035, -5.9984965324401855, 0.050537109375, -0.337890625, -0.73193359375
556, 2644495006, -5.6963043212890625, 2.6872928142547607, 7.975151538848877, -8.765451431274414, -0.6932592988014221, -7.446000099182129, 0.050048828125, -0.33740234375, -0.73291015625
557, 2644511673, -5.497457504272461, 2.0493743419647217, 8.172383308410645, -6.618246555328369, -1.5653077363967896, -6.1586012840271, 0.051513671875, -0.336669921875, -0.73046875
558, 2644528340, -5.410049915313721, 2.462975263595581, 8.0790433883667, -6.919375419616699, -1.228129267692566, -7.106579303741455, 0.053466796875, -0.334716796875, -0.7333984375
559, 2644545007, -5.298685550689697, 2.181948661804199, 8.208169937133789, -6.405686378479004, -0.02522851713001728, -6.866049766540527, 0.052978515625, -0.331787109375, -0.73291015625
560, 2644561674, -5.376746654510498, 2.1796841621398926, 8.11584758758545, -4.0621747970581055, 1.814922571182251, -6.07526969909668, 0.052490234375, -0.330810546875, -0.73388671875
561, 2644578341, -5.523014068603516, 2.4530160427093506, 8.017894744873047, -5.887452125549316, 2.0211434364318848, -6.516231536865234, 0.053466796875, -0.332275390625, -0.732421875
562, 2644595008, -5.545508861541748, 2.9240050315856934, 7.783104419708252, -10.060213088989258, -0.8966627717018127, -8.361821174621582, 0.0546875, -0.329833984375, -0.73583984375
563, 2644611675, -5.341517925262451, 2.5544073581695557, 7.896793842315674, -11.022805213928223, -3.7060704231262207, -8.917234420776367, 0.05712890625, -0.327880859375, -0.73291015625
564, 2644628342, -5.3344340324401855, 2.1946017742156982, 7.936738014221191, -10.151690483093262, -4.484005928039551, -8.560142517089844, 0.054443359375, -0.325927734375, -0.73486328125
565, 2644645009, -5.3237481117248535, 2.034564733505249, 7.970026969909668, -9.707768440246582, -4.723073482513428, -7.355662822723389, 0.053955078125, -0.3232421875, -0.735107421875
566, 2644661676, -5.268174171447754, 2.1270556449890137, 7.902336120605469, -6.866702556610107, -2.9887213706970215, -6.584604740142822, 0.0556640625, -0.3232421875, -0.737548828125
567, 2644678343, -5.2296576499938965, 2.176151752471924, 7.96220064163208, -4.4222893714904785, -1.5681889057159424, -5.692794322967529, 0.054443359375, -0.322265625, -0.735595703125
568, 2644695010, -5.22251558303833, 2.231581926345825, 7.972349166870117, -2.719377040863037, -0.608583390712738, -5.531049728393555, 0.056640625, -0.3232421875, -0.73583984375
569, 2644711677, -5.219414710998535, 2.2831666469573975, 7.929495811462402, -2.4834461212158203, -0.5049160122871399, -5.915163516998291, 0.054443359375, -0.322265625, -0.735107421875
570, 2644728344, -5.2561821937561035, 2.163691759109497, 7.863807678222656, -2.2882516384124756, -0.9523701071739197, -6.612957000732422, 0.054931640625, -0.32275390625, -0.735107421875
571, 2644745011, -5.117678165435791, 2.1416995525360107, 7.955832481384277, -1.1207736730575562, -0.19835761189460754, -7.325234413146973, 0.05615234375, -0.3212890625, -0.73388671875
572, 2644761678, -5.0353288650512695, 2.158386707305908, 8.160568237304688, 0.9867230653762817, 3.5387861728668213, -8.28819465637207, 0.0556640625, -0.32080078125, -0.735107421875
573, 2644778345, -5.155410289764404, 2.152022123336792, 8.07025146484375, 5.254289150238037, 9.740880966186523, -9.590310096740723, 0.06005859375, -0.322265625, -0.734375
574, 2644795012, -5.212041854858398, 2.2258551120758057, 8.01595687866211, 9.654266357421875, 16.11095428466797, -10.156563758850098, 0.066162109375, -0.327392578125, -0.733642578125
575, 2644811679, -5.193171977996826, 2.5005836486816406, 8.102354049682617, 12.820507049560547, 24.127700805664062, -11.406573295593262, 0.066650390625, -0.328857421875, -0.728515625
576, 2644828346, -4.508202075958252, 2.8095080852508545, 8.882475852966309, 10.842772483825684, 36.3075065612793, -16.491668701171875, 0.076171875, -0.33251953125, -0.7265625
577, 2644845013, -4.688113689422607, 2.1277759075164795, 8.978693962097168, 12.496164321899414, 57.56337356567383, -20.25656509399414, 0.090087890625, -0.333984375, -0.724609375
578, 2644861680, -4.726215362548828, 1.6559226512908936, 9.062444686889648, 19.95091438293457, 86.48744201660156, -21.649898529052734, 0.109375, -0.336181640625, -0.723876953125
579, 2644878347, -4.725948810577393, 2.5714664459228516, 9.304449081420898, 31.59031105041504, 124.79660034179688, -26.118051528930664, 0.13671875, -0.34130859375, -0.70849609375
580, 2644895014, -4.908779144287109, 3.99320387840271, 9.66390609741211, 36.4786376953125, 170.30018615722656, -42.99381637573242, 0.1689453125, -0.349365234375, -0.693603515625
581, 2644911681, -4.573058128356934, 4.348395824432373, 9.448559761047363, 42.08379364013672, 227.24974060058594, -74.90890502929688, 0.217041015625, -0.352783203125, -0.675537109375
582, 2644928348, -5.5061845779418945, 4.534631252288818, 10.083969116210938, 35.38585662841797, 303.5987548828125, -116.66912841796875, 0.281982421875, -0.35107421875, -0.646728515625
583, 2644945015, -6.909253120422363, 3.7269065380096436, 10.66176986694336, 20.149627685546875, 386.1637268066406, -162.5413055419922, 0.361328125, -0.34130859375, -0.601318359375
584, 2644961682, -7.762893199920654, 6.037531852722168, 11.815424919128418, 6.0890936851501465, 448.5592956542969, -199.61346435546875, 0.45068359375, -0.31396484375, -0.544921875
585, 2644978349, -16.799236297607422, 6.174699783325195, 13.767844200134277, 9.910685539245605, 466.3470153808594, -204.8643798828125, 0.539794921875, -0.2802734375, -0.4658203125
586, 2644995016, -20.03356170654297, 6.200891494750977, 13.852023124694824, 8.253701210021973, 418.65118408203125, -183.99130249023438, 0.609130859375, -0.24560546875, -0.3818359375
587, 2645011683, -17.11977195739746, 7.270037651062012, 14.978131294250488, 1.204835295677185, 341.5652160644531, -163.8647918701172, 0.658447265625, -0.207275390625, -0.302001953125
588, 2645028350, -6.235076904296875, 6.665369987487793, 15.608443260192871, -10.385919570922852, 280.7126159667969, -168.28350830078125, 0.691650390625, -0.16552734375, -0.2314453125
589, 2645045017, 1.2366695404052734, 11.707771301269531, 14.153579711914062, -76.69380950927734, 255.36839294433594, -178.92437744140625, 0.71533203125, -0.114013671875, -0.168701171875
590, 2645061684, -23.66338348388672, 14.90024471282959, 30.579803466796875, -76.46620178222656, 34.264278411865234, -48.549625396728516, 0.718017578125, -0.079833984375, -0.127197265625
591, 2645078351, -6.591400146484375, 10.363959312438965, 18.62737274169922, -81.01531219482422, -200.8472137451172, 56.92784118652344, 0.71484375, -0.068115234375, -0.1376953125
592, 2645095018, 1.4706227779388428, 5.0672993659973145, 9.084732055664062, -90.76925659179688, -260.77191162109375, 87.75115966796875, 0.717041015625, -0.059326171875, -0.160400390625
593, 2645111685, 3.2504827976226807, 2.18585205078125, 4.62788724899292, -83.42841339111328, -243.7194061279297, 93.66763305664062, 0.734375, -0.049072265625, -0.184814453125
594, 2645128352, 2.1158809661865234, 0.8179810047149658, 4.003443717956543, -61.68874740600586, -207.20872497558594, 103.93814849853516, 0.775634765625, -0.046142578125, -0.22412109375
595, 2645145019, -2.223020076751709, 1.8460990190505981, 6.015273094177246, -48.43433380126953, -189.1102294921875, 109.26941680908203, 0.81689453125, -0.05078125, -0.285888671875
596, 2645161686, -6.728405952453613, 3.1306142807006836, 8.48248291015625, -55.63311767578125, -211.44186401367188, 106.98897552490234, 0.84521484375, -0.063232421875, -0.388427734375
597, 2645178353, -8.40765380859375, 2.445066213607788, 9.123575210571289, -60.35280227661133, -262.1681213378906, 106.95895385742188, 0.823486328125, -0.077880859375, -0.517822265625
598, 2645195020, -7.844904899597168, 1.2929551601409912, 7.937164306640625, -44.59850311279297, -298.4650573730469, 111.34153747558594, 0.7470703125, -0.09326171875, -0.635009765625
599, 2645211687, -7.11916446685791, 0.9994878172874451, 6.3449296951293945, -20.290945053100586, -307.2682189941406, 108.97169494628906, 0.6474609375, -0.1005859375, -0.723876953125
600, 2645228354, -7.220686435699463, 1.0209792852401733, 5.354415416717529, -2.0477194786071777, -293.6819763183594, 95.71053314208984, 0.550048828125, -0.106689453125, -0.781982421875
601, 2645245021, -7.9648613929748535, 0.7407838106155396, 5.396237850189209, 12.010187149047852, -260.1258544921875, 75.80793762207031, 0.468505859375, -0.114013671875, -0.826416015625
602, 2645261688, -10.982135772705078, 1.612752914428711, 8.4678373336792, 30.7987060546875, -227.46453857421875, 56.995784759521484, 0.39306640625, -0.123779296875, -0.8583984375
603, 2645278355, -15.988370895385742, 2.4135830402374268, 11.41293716430664, 58.231624603271484, -227.8792724609375, 49.69795608520508, 0.31494140625, -0.139404296875, -0.8837890625
604, 2645295022, -20.277029037475586, 2.7443416118621826, 11.533522605895996, 90.71171569824219, -245.07080078125, 54.011749267578125, 0.22900390625, -0.158447265625, -0.890625
605, 2645311689, -23.93620491027832, 3.0815067291259766, 8.860329627990723, 110.8901138305664, -258.748779296875, 57.76781463623047, 0.149169921875, -0.1875, -0.8876953125
606, 2645328356, -27.71324920654297, 4.012583255767822, 5.369862079620361, 104.90786743164062, -266.42034912109375, 56.261409759521484, 0.07275390625, -0.22607421875, -0.8798828125
607, 2645345023, -28.273738861083984, 3.4385390281677246, 0.22213727235794067, 82.43943786621094, -266.3973388671875, 64.23185729980469, -0.00146484375, -0.260009765625, -0.87109375
608, 2645361690, -26.18917465209961, -0.07476162165403366, -6.2536444664001465, 61.609989166259766, -233.0540313720703, 79.65484619140625, -0.075439453125, -0.285888671875, -0.855712890625
609, 2645378357, -27.083398818969727, -5.799285411834717, -11.650696754455566, 51.79726028442383, -168.6221466064453, 89.61019897460938, -0.13037109375, -0.302490234375, -0.84423828125
610, 2645395024, -25.21044158935547, -8.728035926818848, -16.085769653320312, 10.995783805847168, -63.774658203125, 64.4405746459961, -0.1611328125, -0.309326171875, -0.833251953125
611, 2645411691, -19.420143127441406, -11.90787410736084, -18.896230697631836, -54.47663879394531, 87.35761260986328, -24.055908203125, -0.151123046875, -0.298828125, -0.837646484375
612, 2645428358, -13.959158897399902, -4.96359920501709, -2.4462180137634277, -62.081661224365234, 173.53570556640625, -93.24954986572266, -0.10791015625, -0.2822265625, -0.84521484375
613, 2645445025, -12.790620803833008, 10.16796588897705, 20.373023986816406, -76.5036392211914, 112.59315490722656, -79.24544525146484, -0.0732421875, -0.262451171875, -0.85205078125
614, 2645461692, -4.701432228088379, 4.046942710876465, 6.517971515655518, -75.59786987304688, 82.06233215332031, -82.69788360595703, -0.049072265625, -0.240478515625, -0.86181640625
615, 2645478359, -9.127023696899414, -3.0443437099456787, 11.325901985168457, -57.44710159301758, 117.72555541992188, -45.321170806884766, -0.018798828125, -0.220703125, -0.8642578125
616, 2645495026, -10.556009292602539, -4.204721450805664, 11.103062629699707, -30.781173706054688, 94.7880859375, -36.5025749206543, 0.0068359375, -0.21044921875, -0.865966796875
617, 2645511693, -10.53555965423584, 3.5348007678985596, 13.260038375854492, -22.328317642211914, 72.20048522949219, -53.79812240600586, 0.029296875, -0.203857421875, -0.863525390625
618, 2645528360, -10.490559577941895, 3.4487357139587402, 6.710798263549805, -38.43049621582031, 9.5845308303833, -24.711050033569336, 0.034912109375, -0.1923828125, -0.866455078125
619, 2645545027, -7.0465288162231445, 2.469759702682495, 9.935628890991211, -16.556455612182617, 3.3954226970672607, -12.067337989807129, 0.036865234375, -0.1875, -0.866455078125
620, 2645561694, -6.480279445648193, 2.308615207672119, 8.566458702087402, -10.737654685974121, 1.0575553178787231, -5.579370498657227, 0.036865234375, -0.181396484375, -0.866943359375
621, 2645578361, -5.8525285720825195, 2.7296032905578613, 8.045832633972168, -5.86995792388916, -1.9738173484802246, -4.299450874328613, 0.037353515625, -0.183349609375, -0.867919921875
622, 2645595028, -5.655484199523926, 2.315518617630005, 8.053934097290039, -4.49744987487793, -2.7432870864868164, -4.196231842041016, 0.038330078125, -0.181396484375, -0.866943359375
623, 2645611695, -5.369898796081543, 2.0749895572662354, 8.216473579406738, -2.4505722522735596, -0.45753249526023865, -3.898151159286499, 0.038818359375, -0.178466796875, -0.866455078125
624, 2645628362, -5.357017517089844, 1.8457063436508179, 8.266956329345703, 1.702610731124878, 3.4147300720214844, -2.361567735671997, 0.039306640625, -0.181396484375, -0.867919921875
625, 2645645029, -5.393024444580078, 1.9159778356552124, 8.163884162902832, 5.827908992767334, 6.765103340148926, -0.4746290445327759, 0.038818359375, -0.181884765625, -0.867919921875
626, 2645661696, -5.459693908691406, 2.114835262298584, 8.013303756713867, 7.80650520324707, 8.1989164352417, 0.6935601830482483, 0.04345703125, -0.18505859375, -0.8671875
627, 2645678363, -5.398787975311279, 2.3532702922821045, 7.931619644165039, 7.948757171630859, 8.41615104675293, 1.4107930660247803, 0.0458984375, -0.1884765625, -0.86572265625
628, 2645695030, -5.3857951164245605, 2.4059882164001465, 7.868656635284424, 6.838741302490234, 8.217793464660645, 0.7156127691268921, 0.0478515625, -0.189453125, -0.864013671875
629, 2645711697, -5.381576061248779, 2.374793767929077, 7.8880181312561035, 6.015700817108154, 7.430508136749268, -0.2197185903787613, 0.04833984375, -0.192138671875, -0.862060546875
630, 2645728364, -5.301738262176514, 2.4402835369110107, 7.89857292175293, 5.799773216247559, 6.330097198486328, -1.3473949432373047, 0.05029296875, -0.192138671875, -0.86181640625
631, 2645745031, -5.45599889755249, 2.535426616668701, 7.836758613586426, 6.028891563415527, 6.051123142242432, -2.6937780380249023, 0.051025390625, -0.197509765625, -0.8623046875
632, 2645761698, -5.490410804748535, 2.6711113452911377, 7.728175163269043, 2.7009165287017822, 3.8192949295043945, -4.022896766662598, 0.054443359375, -0.197021484375, -0.86279296875
633, 2645778365, -5.398771286010742, 2.7003567218780518, 7.672576904296875, 0.5950278639793396, 1.2275975942611694, -6.288750648498535, 0.056396484375, -0.197998046875, -0.860595703125
634, 2645795032, -5.43841028213501, 2.479149103164673, 7.734490871429443, 0.004475819878280163, -0.09145016223192215, -6.832803726196289, 0.057861328125, -0.19970703125, -0.861083984375
635, 2645811699, -5.382814884185791, 2.4692866802215576, 7.80982780456543, -0.6752917170524597, 0.0017864861292764544, -7.523783206939697, 0.056884765625, -0.19873046875, -0.863037109375
636, 2645828366, -5.395582675933838, 2.487434148788452, 7.80840539932251, -1.7030014991760254, 0.21247662603855133, -8.757854461669922, 0.056396484375, -0.197509765625, -0.860595703125
637, 2645845033, -5.391192436218262, 2.4241182804107666, 7.825320243835449, -1.4550323486328125, 0.6982471942901611, -10.097208976745605, 0.058837890625, -0.19873046875, -0.860595703125
638, 2645861700, -5.34333610534668, 2.394024610519409, 7.883354663848877, 0.08437466621398926, 3.4824130535125732, -10.639533042907715, 0.06201171875, -0.196533203125, -0.85986328125
639, 2645878367, -5.307715892791748, 2.3774654865264893, 7.932588577270508, 2.7314107418060303, 7.698625564575195, -11.361431121826172, 0.06201171875, -0.19873046875, -0.859375
640, 2645895034, -5.270956516265869, 2.4642653465270996, 7.973509311676025, 5.258875846862793, 13.120665550231934, -12.54803466796875, 0.0654296875, -0.201171875, -0.857666015625
641, 2645911701, -5.259087562561035, 2.555694103240967, 8.06121826171875, 8.306587219238281, 23.21763038635254, -15.887207984924316, 0.072998046875, -0.205322265625, -0.85888671875
642, 2645928368, -4.681314468383789, 2.7493937015533447, 8.877425193786621, 8.586273193359375, 37.42991256713867, -20.673824310302734, 0.08203125, -0.205810546875, -0.855712890625
643, 2645945035, -4.858593940734863, 2.120379686355591, 8.781060218811035, 11.10020637512207, 60.74246597290039, -22.02747344970703, 0.09716796875, -0.20947265625, -0.85107421875
644, 2645961702, -4.996280193328857, 1.9989137649536133, 8.823393821716309, 18.019237518310547, 89.7885513305664, -24.106321334838867, 0.1171875, -0.2109375, -0.85009765625
645, 2645978369, -4.994508743286133, 2.8481507301330566, 8.850890159606934, 27.930004119873047, 124.8404541015625, -29.147789001464844, 0.147216796875, -0.214599609375, -0.842529296875
646, 2645995036, -5.191869735717773, 3.747533082962036, 9.217081069946289, 33.00343322753906, 166.51075744628906, -45.19984436035156, 0.1875, -0.220947265625, -0.829833984375
647, 2646011703, -4.856753826141357, 4.051743507385254, 9.07633113861084, 35.854400634765625, 221.4212188720703, -71.67134094238281, 0.239990234375, -0.225830078125, -0.8115234375
648, 2646028370, -5.6596150398254395, 4.3033037185668945, 9.814268112182617, 32.658714294433594, 298.3174133300781, -109.49783325195312, 0.31201171875, -0.2265625, -0.782470703125
649, 2646045037, -6.691112995147705, 4.345707893371582, 10.114787101745605, 17.15165901184082, 379.5650634765625, -157.40829467773438, 0.398193359375, -0.21533203125, -0.737548828125
650, 2646061704, -8.449843406677246, 5.705418109893799, 11.13343620300293, 5.736101150512695, 437.0373229980469, -199.13922119140625, 0.494873046875, -0.19091796875, -0.67724609375
651, 2646078371, -18.110891342163086, 6.915750026702881, 14.006136894226074, 19.903751373291016, 462.8115539550781, -204.29400634765625, 0.593505859375, -0.16064453125, -0.594970703125
652, 2646095038, -22.223133087158203, 6.960144996643066, 15.181987762451172, 23.179136276245117, 406.454345703125, -184.13890075683594, 0.67236328125, -0.13134765625, -0.505859375
653, 2646111705, -15.607523918151855, 7.556262016296387, 16.015483856201172, 21.428537368774414, 335.5409851074219, -165.4678192138672, 0.728271484375, -0.100830078125, -0.42431640625
654, 2646128372, -1.3808579444885254, 5.448635578155518, 13.34683895111084, 3.420527935028076, 293.1976623535156, -174.86534118652344, 0.765869140625, -0.071533203125, -0.348388671875
655, 2646145039, 2.452935218811035, 7.3171820640563965, 11.26641845703125, -21.334793090820312, 306.1567077636719, -188.8104705810547, 0.79052734375, -0.0283203125, -0.267822265625
656, 2646161706, -23.942476272583008, 12.536547660827637, 28.439950942993164, 4.334537029266357, 121.16459655761719, -80.44953918457031, 0.801513671875, -0.003662109375, -0.21337890625
