sep=,
DeviceTag:,A,,,,,,,,,,,,,,,,,
FirmwareVersion:,2.2.1,,,,,,,,,,,,,,,,,
AppVersion:,2022.0.1,,,,,,,,,,,,,,,,,
SyncStatus:,Synced,,,,,,,,,,,,,,,,,
OutputRate:,60Hz,,,,,,,,,,,,,,,,,
FilterProfile:,General,,,,,,,,,,,,,,,,,
Measurement Mode:,Inertial Mode - Rate quantities (with mag),,,,,,,,,,,,,,,,,
StartTime:,2022-08-05 16:31:10.796 +0300,,,,,,,,,,,,,,,,,
© Xsens Technologies B. V. 2005-2022,,,,,,,,,,,,,,,,,,,

PacketCounter,SampleTimeFine,Acc_X,Acc_Y,Acc_Z,Gyr_X,Gyr_Y,Gyr_Z,Mag_X,Mag_Y,Mag_Z
1, 2517825806, -5.288630485534668, 2.06752872467041, 8.030866622924805, -2.5518834590911865, -1.5372616052627563, -2.407517433166504, 0.058837890625, -0.191162109375, -0.800537109375
2, 2517842473, -5.299074649810791, 2.061765670776367, 8.028868675231934, -2.50174617767334, -1.5580205917358398, -2.3364672660827637, 0.060791015625, -0.191162109375, -0.799072265625
3, 2517859140, -5.2786078453063965, 2.064124584197998, 8.010639190673828, -2.6009318828582764, -1.5406297445297241, -2.3862717151641846, 0.058837890625, -0.192626953125, -0.798583984375
4, 2517875807, -5.287521839141846, 2.0499649047851562, 8.002090454101562, -2.5918900966644287, -1.5278232097625732, -2.3826985359191895, 0.058349609375, -0.192138671875, -0.801025390625
5, 2517892474, -5.2736029624938965, 2.048701524734497, 8.030268669128418, -2.595078706741333, -1.5500165224075317, -2.5187785625457764, 0.060302734375, -0.191650390625, -0.801025390625
6, 2517909141, -5.2875752449035645, 2.059997320175171, 8.012393951416016, -2.560117244720459, -1.4820148944854736, -2.4285449981689453, 0.058349609375, -0.192626953125, -0.802978515625
7, 2517925808, -5.302302837371826, 2.04923152923584, 8.026573181152344, -2.608102798461914, -1.3810113668441772, -2.373746633529663, 0.058349609375, -0.192626953125, -0.800537109375
8, 2517942475, -5.289097309112549, 2.0610079765319824, 8.020099639892578, -2.6181817054748535, -1.5130192041397095, -2.4372920989990234, 0.057861328125, -0.191162109375, -0.801513671875
9, 2517959142, -5.2921881675720215, 2.059810161590576, 8.027811050415039, -2.573641300201416, -1.4824633598327637, -2.4089131355285645, 0.060302734375, -0.192138671875, -0.799560546875
10, 2517975809, -5.333171844482422, 2.0562283992767334, 8.048418998718262, -2.5282297134399414, -1.4525730609893799, -2.3924567699432373, 0.057373046875, -0.193359375, -0.802001953125
11, 2517992476, -5.254300117492676, 2.06244158744812, 8.026516914367676, -2.534581422805786, -1.5482490062713623, -2.3444199562072754, 0.058837890625, -0.191162109375, -0.800537109375
12, 2518009143, -5.29542350769043, 2.0684337615966797, 8.040430068969727, -2.5481181144714355, -1.5414109230041504, -2.4523396492004395, 0.058349609375, -0.191650390625, -0.800537109375
13, 2518025810, -5.280614376068115, 2.054701566696167, 8.040498733520508, -2.5614748001098633, -1.4709117412567139, -2.322943925857544, 0.058837890625, -0.192138671875, -0.799560546875
14, 2518042477, -5.295896530151367, 2.0604870319366455, 8.029552459716797, -2.549309253692627, -1.4848964214324951, -2.4205539226531982, 0.056640625, -0.188720703125, -0.800048828125
15, 2518059144, -5.26841402053833, 2.0722525119781494, 8.04033088684082, -2.5378220081329346, -1.4159085750579834, -2.464057207107544, 0.0576171875, -0.188232421875, -0.796630859375
16, 2518075811, -5.293708801269531, 2.0498762130737305, 8.035857200622559, -2.6506075859069824, -1.3986841440200806, -2.4846112728118896, 0.058349609375, -0.190673828125, -0.799560546875
17, 2518092478, -5.290693759918213, 2.057485342025757, 8.027101516723633, -2.5170111656188965, -1.3220890760421753, -2.4190170764923096, 0.058349609375, -0.191162109375, -0.802001953125
18, 2518109145, -5.284318923950195, 2.0402417182922363, 8.023873329162598, -2.4509947299957275, -1.3431429862976074, -2.3502345085144043, 0.056884765625, -0.190673828125, -0.802001953125
19, 2518125812, -5.290829181671143, 2.0570244789123535, 8.031853675842285, -2.5546748638153076, -1.3825606107711792, -2.3940188884735107, 0.05615234375, -0.191650390625, -0.797607421875
20, 2518142479, -5.290143013000488, 2.061786413192749, 8.015951156616211, -2.545236110687256, -1.4019237756729126, -2.4541189670562744, 0.057861328125, -0.194091796875, -0.798583984375
21, 2518159146, -5.294015407562256, 2.0600976943969727, 8.046432495117188, -2.540933847427368, -1.43368399143219, -2.509430408477783, 0.056884765625, -0.192138671875, -0.801025390625
22, 2518175813, -5.280971050262451, 2.0674617290496826, 8.013911247253418, -2.5346968173980713, -1.4229648113250732, -2.4074273109436035, 0.058349609375, -0.192626953125, -0.801513671875
23, 2518192480, -5.280799388885498, 2.053370714187622, 8.033957481384277, -2.5468244552612305, -1.4547117948532104, -2.4012932777404785, 0.057373046875, -0.192626953125, -0.800537109375
24, 2518209147, -5.283470153808594, 2.05680251121521, 8.03352165222168, -2.6654117107391357, -1.5006611347198486, -2.4243576526641846, 0.0556640625, -0.190185546875, -0.80322265625
25, 2518225814, -5.289545059204102, 2.0570356845855713, 8.011466979980469, -2.6361491680145264, -1.4582080841064453, -2.3548834323883057, 0.058837890625, -0.192138671875, -0.800048828125
26, 2518242481, -5.293545246124268, 2.0462136268615723, 8.0293607711792, -2.5881123542785645, -1.4676718711853027, -2.4379706382751465, 0.058349609375, -0.191650390625, -0.799072265625
27, 2518259148, -5.29030179977417, 2.052703380584717, 8.042009353637695, -2.4419662952423096, -1.4084551334381104, -2.3306145668029785, 0.057861328125, -0.190673828125, -0.799072265625
28, 2518275815, -5.281386852264404, 2.0611417293548584, 8.028095245361328, -2.5535221099853516, -1.3316043615341187, -2.375744581222534, 0.055908203125, -0.19384765625, -0.80517578125
29, 2518292482, -5.290713787078857, 2.0619006156921387, 8.022441864013672, -2.511312246322632, -1.3938302993774414, -2.3872063159942627, 0.057861328125, -0.190185546875, -0.801025390625
30, 2518309149, -5.288387298583984, 2.0545542240142822, 8.020716667175293, -2.5974740982055664, -1.4921064376831055, -2.419273614883423, 0.057373046875, -0.192626953125, -0.801025390625
31, 2518325816, -5.2923407554626465, 2.0401225090026855, 8.03662109375, -2.4227309226989746, -1.4687347412109375, -2.4240243434906006, 0.058349609375, -0.193115234375, -0.799560546875
32, 2518342483, -5.30117130279541, 2.0670700073242188, 8.037220001220703, -2.5479514598846436, -1.5116616487503052, -2.339989185333252, 0.05615234375, -0.192138671875, -0.800537109375
33, 2518359150, -5.279541015625, 2.069859743118286, 8.03652286529541, -2.5614752769470215, -1.4705917835235596, -2.451430559158325, 0.056396484375, -0.192626953125, -0.800537109375
34, 2518375817, -5.278331279754639, 2.061328649520874, 8.031116485595703, -2.6458818912506104, -1.4799916744232178, -2.519188642501831, 0.0556640625, -0.191162109375, -0.800048828125
35, 2518392484, -5.279560089111328, 2.053407907485962, 8.028671264648438, -2.621370792388916, -1.4771230220794678, -2.3861305713653564, 0.058349609375, -0.19384765625, -0.802978515625
36, 2518409151, -5.286694049835205, 2.0524232387542725, 8.04706859588623, -2.5380523204803467, -1.4386272430419922, -2.5335960388183594, 0.059326171875, -0.193359375, -0.801513671875
37, 2518425818, -5.277218341827393, 2.0673015117645264, 8.034022331237793, -2.619014263153076, -1.4517921209335327, -2.351463794708252, 0.056396484375, -0.192626953125, -0.800048828125
38, 2518442485, -5.286574363708496, 2.0597610473632812, 8.031804084777832, -2.5921976566314697, -1.429893136024475, -2.4137797355651855, 0.058349609375, -0.191162109375, -0.799560546875
39, 2518459152, -5.28257942199707, 2.0441653728485107, 8.023755073547363, -2.553138017654419, -1.442212700843811, -2.372875928878784, 0.059326171875, -0.190185546875, -0.800537109375
40, 2518475819, -5.2939348220825195, 2.0586016178131104, 8.00271224975586, -2.5222365856170654, -1.466596007347107, -2.4021382331848145, 0.056884765625, -0.191650390625, -0.802490234375
41, 2518492486, -5.287745475769043, 2.0521583557128906, 8.01573371887207, -2.470754861831665, -1.493924856185913, -2.3328306674957275, 0.056396484375, -0.192626953125, -0.80322265625
42, 2518509153, -5.267402648925781, 2.070434093475342, 8.024645805358887, -2.53696346282959, -1.5557024478912354, -2.3605942726135254, 0.05615234375, -0.191650390625, -0.800537109375
43, 2518525820, -5.272104740142822, 2.0406062602996826, 8.037521362304688, -2.5859224796295166, -1.4961276054382324, -2.4080679416656494, 0.057861328125, -0.193115234375, -0.801025390625
44, 2518542487, -5.266992092132568, 2.062152147293091, 8.01761245727539, -2.529676675796509, -1.5798299312591553, -2.331012010574341, 0.058837890625, -0.192138671875, -0.801025390625
45, 2518559154, -5.28737735748291, 2.050440549850464, 8.032247543334961, -2.4908478260040283, -1.467159390449524, -2.3415515422821045, 0.056884765625, -0.193115234375, -0.801513671875
46, 2518575821, -5.28728723526001, 2.0528616905212402, 8.03939151763916, -2.5357725620269775, -1.5140308141708374, -2.367138624191284, 0.057373046875, -0.192138671875, -0.802001953125
47, 2518592488, -5.298283576965332, 2.066723585128784, 8.014850616455078, -2.5774574279785156, -1.508127212524414, -2.404879093170166, 0.059326171875, -0.191650390625, -0.801025390625
48, 2518609155, -5.271829605102539, 2.069417715072632, 8.023362159729004, -2.4799108505249023, -1.4825013875961304, -2.3767433166503906, 0.058349609375, -0.193359375, -0.800537109375
49, 2518625822, -5.287627696990967, 2.0555148124694824, 8.039243698120117, -2.5612828731536865, -1.4426993131637573, -2.400127649307251, 0.056396484375, -0.193603515625, -0.800048828125
50, 2518642489, -5.2882466316223145, 2.0712218284606934, 8.027956008911133, -2.5435333251953125, -1.4687219858169556, -2.385759115219116, 0.057861328125, -0.193115234375, -0.799072265625
51, 2518659156, -5.279446601867676, 2.0552332401275635, 8.02722454071045, -2.5424964427948, -1.4785699844360352, -2.424139976501465, 0.056640625, -0.191650390625, -0.799072265625
52, 2518675823, -5.2827606201171875, 2.0508430004119873, 8.042000770568848, -2.4302353858947754, -1.389348030090332, -2.441056728363037, 0.058349609375, -0.193115234375, -0.799072265625
53, 2518692490, -5.280641078948975, 2.054508686065674, 8.0613374710083, -2.4758002758026123, -1.2096366882324219, -2.431797742843628, 0.058349609375, -0.191162109375, -0.801513671875
54, 2518709157, -5.274983882904053, 2.0699098110198975, 8.046432495117188, -2.3284120559692383, -1.289689064025879, -2.382493257522583, 0.056884765625, -0.1953125, -0.802490234375
55, 2518725824, -5.287335395812988, 2.0587427616119385, 8.009108543395996, -2.379791259765625, -1.2269892692565918, -2.3998844623565674, 0.056396484375, -0.189697265625, -0.801513671875
56, 2518742491, -5.28639030456543, 2.0611460208892822, 8.032526969909668, -2.3596079349517822, -1.2090730667114258, -2.318307638168335, 0.058349609375, -0.190673828125, -0.800048828125
57, 2518759158, -5.278006076812744, 2.0629639625549316, 8.030929565429688, -2.3824164867401123, -1.2529093027114868, -2.375795841217041, 0.058349609375, -0.19384765625, -0.799560546875
58, 2518775825, -5.288410186767578, 2.0546884536743164, 8.018733024597168, -2.3381576538085938, -1.303251028060913, -2.447972297668457, 0.058837890625, -0.192626953125, -0.802001953125
59, 2518792492, -5.279770851135254, 2.0679893493652344, 8.014102935791016, -2.366203546524048, -1.167029857635498, -2.357123851776123, 0.056884765625, -0.193603515625, -0.801025390625
60, 2518809159, -5.286816596984863, 2.0634992122650146, 8.012500762939453, -2.3610427379608154, -1.292135238647461, -2.4075939655303955, 0.056396484375, -0.193115234375, -0.800537109375
61, 2518825826, -5.291650772094727, 2.0746688842773438, 8.02370834350586, -2.3811228275299072, -1.3096412420272827, -2.3901383876800537, 0.056396484375, -0.190673828125, -0.801513671875
62, 2518842493, -5.263942241668701, 2.0730137825012207, 8.034058570861816, -2.455143928527832, -1.2469286918640137, -2.4751474857330322, 0.0556640625, -0.192626953125, -0.799072265625
63, 2518859160, -5.279107570648193, 2.074233293533325, 8.037513732910156, -2.423947811126709, -1.2596454620361328, -2.4205667972564697, 0.057861328125, -0.193115234375, -0.799560546875
64, 2518875827, -5.275537014007568, 2.0699455738067627, 8.024754524230957, -2.5035390853881836, -1.2788166999816895, -2.475006341934204, 0.056396484375, -0.1943359375, -0.800537109375
65, 2518892494, -5.292696475982666, 2.061959981918335, 8.023993492126465, -2.4961369037628174, -1.2572505474090576, -2.5017714500427246, 0.056884765625, -0.191650390625, -0.800048828125
66, 2518909161, -5.2707061767578125, 2.0675442218780518, 8.033862113952637, -2.5830154418945312, -1.3301187753677368, -2.4261505603790283, 0.057861328125, -0.19482421875, -0.801513671875
67, 2518925828, -5.265737533569336, 2.0684432983398438, 8.040196418762207, -2.5736918449401855, -1.3160830736160278, -2.436471939086914, 0.058837890625, -0.19384765625, -0.798583984375
68, 2518942495, -5.295817852020264, 2.0612075328826904, 8.029526710510254, -2.644806146621704, -1.3668218851089478, -2.451263904571533, 0.057861328125, -0.19384765625, -0.799560546875
69, 2518959162, -5.285173416137695, 2.054128646850586, 8.026494979858398, -2.517638683319092, -1.40352463722229, -2.4450266361236572, 0.056884765625, -0.192138671875, -0.800048828125
70, 2518975829, -5.279836654663086, 2.068831205368042, 8.017565727233887, -2.472330093383789, -1.4182778596878052, -2.4303510189056396, 0.056884765625, -0.191650390625, -0.802001953125
71, 2518992496, -5.276040077209473, 2.0756914615631104, 8.054839134216309, -2.4270594120025635, -1.461575984954834, -2.426572799682617, 0.057861328125, -0.193359375, -0.802001953125
72, 2519009163, -5.282308101654053, 2.0661723613739014, 8.045512199401855, -2.459331750869751, -1.385544776916504, -2.4156618118286133, 0.056396484375, -0.193115234375, -0.801513671875
73, 2519025830, -5.276805400848389, 2.0673298835754395, 8.008913040161133, -2.4993512630462646, -1.3846995830535889, -2.382070779800415, 0.057373046875, -0.193603515625, -0.798095703125
74, 2519042497, -5.28727388381958, 2.0588648319244385, 8.044906616210938, -2.542559862136841, -1.378347396850586, -2.4505207538604736, 0.057861328125, -0.193603515625, -0.798583984375
75, 2519059164, -5.273858547210693, 2.067849636077881, 8.047948837280273, -2.5485918521881104, -1.4557363986968994, -2.4699995517730713, 0.057373046875, -0.193603515625, -0.797607421875
76, 2519075831, -5.290428161621094, 2.0633528232574463, 8.034438133239746, -2.5507688522338867, -1.4031789302825928, -2.3939805030822754, 0.05615234375, -0.193603515625, -0.800048828125
77, 2519092498, -5.294344902038574, 2.0601062774658203, 8.033478736877441, -2.466233968734741, -1.4387037754058838, -2.4412362575531006, 0.055908203125, -0.192626953125, -0.802734375
78, 2519109165, -5.28826379776001, 2.069666862487793, 8.054224967956543, -2.5257837772369385, -1.3942402601242065, -2.3801755905151367, 0.058837890625, -0.193115234375, -0.799560546875
79, 2519125832, -5.264936447143555, 2.0556540489196777, 7.991275787353516, -2.465043067932129, -1.4866636991500854, -2.356778383255005, 0.057373046875, -0.190673828125, -0.799072265625
80, 2519142499, -5.286271572113037, 2.0742247104644775, 8.027200698852539, -2.5273332595825195, -1.378629207611084, -2.472163200378418, 0.060302734375, -0.192626953125, -0.800048828125
81, 2519159166, -5.294414520263672, 2.0714359283447266, 8.032968521118164, -2.497955322265625, -1.384238362312317, -2.3485052585601807, 0.057373046875, -0.19384765625, -0.800048828125
82, 2519175833, -5.287841320037842, 2.049514055252075, 8.03110122680664, -2.4230127334594727, -1.4534696340560913, -2.4176597595214844, 0.058349609375, -0.190673828125, -0.802978515625
83, 2519192500, -5.268472671508789, 2.0700063705444336, 8.021410942077637, -2.480795383453369, -1.5232386589050293, -2.452749252319336, 0.058837890625, -0.191162109375, -0.801513671875
84, 2519209167, -5.281243801116943, 2.0808444023132324, 8.029975891113281, -2.484931468963623, -1.431340217590332, -2.4523520469665527, 0.056884765625, -0.193115234375, -0.801025390625
85, 2519225834, -5.275863170623779, 2.0757744312286377, 8.026566505432129, -2.4296467304229736, -1.3910642862319946, -2.3931996822357178, 0.057373046875, -0.193603515625, -0.799560546875
86, 2519242501, -5.273819446563721, 2.0699448585510254, 8.035191535949707, -2.4768118858337402, -1.4553391933441162, -2.3385801315307617, 0.0576171875, -0.192138671875, -0.796142578125
87, 2519259168, -5.2845330238342285, 2.0635297298431396, 8.044897079467773, -2.3488128185272217, -1.3464725017547607, -2.323840618133545, 0.056884765625, -0.191650390625, -0.800048828125
88, 2519275835, -5.276458740234375, 2.0722644329071045, 8.028106689453125, -2.4093358516693115, -1.3901164531707764, -2.446960687637329, 0.056396484375, -0.193603515625, -0.800537109375
89, 2519292502, -5.297830581665039, 2.089101552963257, 8.023269653320312, -2.4319005012512207, -1.3926905393600464, -2.2876367568969727, 0.058837890625, -0.1953125, -0.802978515625
90, 2519309169, -5.274555683135986, 2.0820932388305664, 8.022967338562012, -2.4623923301696777, -1.4927849769592285, -2.356022834777832, 0.058349609375, -0.193115234375, -0.801025390625
91, 2519325836, -5.295478343963623, 2.072613000869751, 8.042011260986328, -2.5419838428497314, -1.4717955589294434, -2.431426525115967, 0.057373046875, -0.192138671875, -0.802001953125
92, 2519342503, -5.286982536315918, 2.067782163619995, 8.02804183959961, -2.5774319171905518, -1.5093181133270264, -2.511953115463257, 0.059326171875, -0.192138671875, -0.799560546875
93, 2519359170, -5.28295373916626, 2.0707473754882812, 8.05374813079834, -2.6421425342559814, -1.5288350582122803, -2.420707941055298, 0.057373046875, -0.194091796875, -0.796875
94, 2519375837, -5.2711381912231445, 2.0664727687835693, 8.024051666259766, -2.5320589542388916, -1.554434895515442, -2.3452014923095703, 0.05615234375, -0.192138671875, -0.800537109375
95, 2519392504, -5.292131423950195, 2.0648510456085205, 8.035037994384766, -2.4699480533599854, -1.5354174375534058, -2.3661141395568848, 0.056640625, -0.193115234375, -0.799560546875
96, 2519409171, -5.270257472991943, 2.0661842823028564, 8.028931617736816, -2.5209555625915527, -1.3974802494049072, -2.358609437942505, 0.057373046875, -0.193115234375, -0.798583984375
97, 2519425838, -5.268515586853027, 2.081177234649658, 8.034758567810059, -2.461751699447632, -1.3736985921859741, -2.482997417449951, 0.05615234375, -0.194091796875, -0.800048828125
98, 2519442505, -5.286139488220215, 2.072448968887329, 8.030344009399414, -2.4180822372436523, -1.379064679145813, -2.380303382873535, 0.058349609375, -0.192626953125, -0.798583984375
99, 2519459172, -5.287172794342041, 2.0651261806488037, 8.037507057189941, -2.394582748413086, -1.443672776222229, -2.313659429550171, 0.057373046875, -0.191650390625, -0.797607421875
100, 2519475839, -5.289151191711426, 2.0744922161102295, 8.043130874633789, -2.4479596614837646, -1.4497941732406616, -2.32541561126709, 0.056640625, -0.1943359375, -0.798583984375
101, 2519492506, -5.28501558303833, 2.0947649478912354, 8.039192199707031, -2.44623064994812, -1.3663479089736938, -2.373183250427246, 0.056884765625, -0.19384765625, -0.801513671875
102, 2519509173, -5.267092227935791, 2.087261199951172, 8.027267456054688, -2.4207844734191895, -1.4154859781265259, -2.4549005031585693, 0.058349609375, -0.19384765625, -0.799560546875
103, 2519525840, -5.278936862945557, 2.070077419281006, 8.052576065063477, -2.5069963932037354, -1.4119768142700195, -2.4002041816711426, 0.0546875, -0.193115234375, -0.797607421875
104, 2519542507, -5.294242858886719, 2.0627074241638184, 8.021105766296387, -2.545748710632324, -1.4510105848312378, -2.357546329498291, 0.057373046875, -0.193115234375, -0.797119140625
105, 2519559174, -5.290248394012451, 2.065843105316162, 8.029616355895996, -2.552433729171753, -1.4176502227783203, -2.3670618534088135, 0.056884765625, -0.193115234375, -0.800048828125
106, 2519575841, -5.284045219421387, 2.059461832046509, 8.029436111450195, -2.477874755859375, -1.4547500610351562, -2.380584955215454, 0.056884765625, -0.192138671875, -0.802001953125
107, 2519592508, -5.269740104675293, 2.0806446075439453, 8.020228385925293, -2.399141550064087, -1.4278055429458618, -2.3041694164276123, 0.056396484375, -0.1943359375, -0.801513671875
108, 2519609175, -5.270481586456299, 2.091026544570923, 8.030046463012695, -2.3685340881347656, -1.4295344352722168, -2.228804349899292, 0.056396484375, -0.19384765625, -0.801513671875
109, 2519625842, -5.300806045532227, 2.076873302459717, 8.026812553405762, -2.4074783325195312, -1.4802346229553223, -2.2882001399993896, 0.057373046875, -0.193115234375, -0.799560546875
110, 2519642509, -5.29050874710083, 2.0730299949645996, 8.029584884643555, -2.526219129562378, -1.4962811470031738, -2.3325231075286865, 0.058837890625, -0.193115234375, -0.799560546875
111, 2519659176, -5.273956775665283, 2.083007574081421, 8.030128479003906, -2.460855484008789, -1.526043176651001, -2.241636276245117, 0.057861328125, -0.191650390625, -0.798583984375
112, 2519675843, -5.269500732421875, 2.0811829566955566, 8.032130241394043, -2.4754292964935303, -1.5063214302062988, -2.322585344314575, 0.057373046875, -0.193603515625, -0.801025390625
113, 2519692510, -5.291121482849121, 2.074976921081543, 8.05145263671875, -2.410167932510376, -1.5212277173995972, -2.387897491455078, 0.056640625, -0.194091796875, -0.799072265625
114, 2519709177, -5.276284694671631, 2.0824737548828125, 8.048251152038574, -2.5011954307556152, -1.476789951324463, -2.3006865978240967, 0.0556640625, -0.194091796875, -0.801025390625
115, 2519725844, -5.266870498657227, 2.0815484523773193, 8.034156799316406, -2.421194076538086, -1.4281257390975952, -2.3586864471435547, 0.056884765625, -0.1953125, -0.801025390625
116, 2519742511, -5.280622959136963, 2.0919735431671143, 8.010581970214844, -2.5040512084960938, -1.4192637205123901, -2.3671131134033203, 0.056640625, -0.192138671875, -0.798095703125
117, 2519759178, -5.2748122215271, 2.079587936401367, 8.034347534179688, -2.3905487060546875, -1.3425922393798828, -2.3840301036834717, 0.056640625, -0.194580078125, -0.797607421875
118, 2519775845, -5.302966594696045, 2.067284345626831, 8.029400825500488, -2.357572078704834, -1.324612021446228, -2.3906638622283936, 0.057373046875, -0.193115234375, -0.801513671875
119, 2519792512, -5.266561508178711, 2.0883548259735107, 8.026093482971191, -2.471625804901123, -1.3830347061157227, -2.408452272415161, 0.057861328125, -0.193115234375, -0.802001953125
120, 2519809179, -5.277836799621582, 2.0893537998199463, 8.015654563903809, -2.4236276149749756, -1.42588472366333, -2.4223082065582275, 0.0556640625, -0.194091796875, -0.798583984375
121, 2519825846, -5.271312236785889, 2.0980935096740723, 8.03124713897705, -2.493396520614624, -1.4276902675628662, -2.4202208518981934, 0.057861328125, -0.1943359375, -0.799560546875
122, 2519842513, -5.275301456451416, 2.078486442565918, 8.036994934082031, -2.5955398082733154, -1.4236693382263184, -2.438610792160034, 0.057861328125, -0.191650390625, -0.798095703125
123, 2519859180, -5.279915809631348, 2.086587429046631, 8.030370712280273, -2.599292278289795, -1.2856167554855347, -2.4291086196899414, 0.057861328125, -0.192626953125, -0.798583984375
124, 2519875847, -5.274463176727295, 2.0868241786956787, 8.039216995239258, -2.537578582763672, -1.3444620370864868, -2.54925799369812, 0.056884765625, -0.1943359375, -0.802001953125
125, 2519892514, -5.302449703216553, 2.0642874240875244, 8.042218208312988, -2.5953481197357178, -1.2924939393997192, -2.4805009365081787, 0.056884765625, -0.19580078125, -0.800048828125
126, 2519909181, -5.299286365509033, 2.0828354358673096, 8.03338623046875, -2.6323583126068115, -1.4041393995285034, -2.520930051803589, 0.055908203125, -0.193115234375, -0.801513671875
127, 2519925848, -5.298737525939941, 2.0870096683502197, 8.021293640136719, -2.601789712905884, -1.4051897525787354, -2.454606294631958, 0.059326171875, -0.1953125, -0.798828125
128, 2519942515, -5.282943248748779, 2.0779287815093994, 8.030844688415527, -2.625648021697998, -1.476534128189087, -2.4664134979248047, 0.057861328125, -0.193603515625, -0.797607421875
129, 2519959182, -5.288442611694336, 2.0728654861450195, 8.04431438446045, -2.7045860290527344, -1.5094077587127686, -2.474443197250366, 0.058349609375, -0.1943359375, -0.799560546875
130, 2519975849, -5.266139030456543, 2.0786304473876953, 8.021288871765137, -2.6280808448791504, -1.4799532890319824, -2.4837534427642822, 0.057861328125, -0.19482421875, -0.800537109375
131, 2519992516, -5.2841973304748535, 2.0778141021728516, 8.027017593383789, -2.5819010734558105, -1.3311562538146973, -2.480372667312622, 0.057373046875, -0.190673828125, -0.801513671875
132, 2520009183, -5.280991554260254, 2.075316905975342, 8.022894859313965, -2.6539626121520996, -1.3391344547271729, -2.570350170135498, 0.055419921875, -0.1943359375, -0.802001953125
133, 2520025850, -5.285741329193115, 2.0882728099823, 8.027531623840332, -2.561577558517456, -1.428484559059143, -2.508815288543701, 0.056884765625, -0.193115234375, -0.800537109375
134, 2520042517, -5.268490791320801, 2.085996627807617, 8.029472351074219, -2.5697481632232666, -1.4167282581329346, -2.4526853561401367, 0.057861328125, -0.193115234375, -0.799072265625
135, 2520059184, -5.264868259429932, 2.0728793144226074, 8.009377479553223, -2.614339828491211, -1.387222409248352, -2.5330963134765625, 0.057373046875, -0.192626953125, -0.799560546875
136, 2520075851, -5.286877632141113, 2.074885368347168, 8.032134056091309, -2.649813652038574, -1.304762363433838, -2.5747809410095215, 0.057373046875, -0.193115234375, -0.802978515625
137, 2520092518, -5.287103652954102, 2.05090069770813, 8.021760940551758, -2.6176822185516357, -1.3698058128356934, -2.559490203857422, 0.057373046875, -0.193359375, -0.802978515625
138, 2520109185, -5.277514934539795, 2.0899300575256348, 8.022324562072754, -2.635854482650757, -1.3185546398162842, -2.523914098739624, 0.059814453125, -0.192626953125, -0.802001953125
139, 2520125852, -5.286501884460449, 2.0669658184051514, 8.042343139648438, -2.6580862998962402, -1.2504762411117554, -2.5010805130004883, 0.057373046875, -0.193115234375, -0.799560546875
140, 2520142519, -5.270458221435547, 2.0866360664367676, 8.03467082977295, -2.5591444969177246, -1.3645424842834473, -2.5581586360931396, 0.058349609375, -0.19384765625, -0.800537109375
141, 2520159186, -5.264723777770996, 2.0847201347351074, 8.0399751663208, -2.553868055343628, -1.2733612060546875, -2.550243616104126, 0.056884765625, -0.193603515625, -0.799560546875
142, 2520175853, -5.279940128326416, 2.0731844902038574, 8.035730361938477, -2.5687620639801025, -1.2092525959014893, -2.6086537837982178, 0.057861328125, -0.193115234375, -0.798095703125
143, 2520192520, -5.283491134643555, 2.0798451900482178, 8.019777297973633, -2.5573644638061523, -1.2362867593765259, -2.5331859588623047, 0.058349609375, -0.192626953125, -0.801025390625
144, 2520209187, -5.277113914489746, 2.0886435508728027, 8.014128684997559, -2.469409942626953, -1.1652113199234009, -2.5335311889648438, 0.058837890625, -0.19384765625, -0.802978515625
145, 2520225854, -5.2960710525512695, 2.087820053100586, 8.028257369995117, -2.543917655944824, -1.1179689168930054, -2.6479434967041016, 0.05615234375, -0.1953125, -0.800048828125
146, 2520242521, -5.292077541351318, 2.0855400562286377, 8.057853698730469, -2.5120296478271484, -1.197406530380249, -2.5739355087280273, 0.058349609375, -0.193115234375, -0.800537109375
147, 2520259188, -5.2984819412231445, 2.0862035751342773, 8.031567573547363, -2.547029972076416, -1.21933114528656, -2.5715794563293457, 0.058349609375, -0.1943359375, -0.798583984375
148, 2520275855, -5.290340423583984, 2.061558961868286, 8.008288383483887, -2.5900332927703857, -1.4109141826629639, -2.5668156147003174, 0.057373046875, -0.19384765625, -0.799560546875
149, 2520292522, -5.280292987823486, 2.076155662536621, 8.029297828674316, -2.66991925239563, -1.3792569637298584, -2.5771632194519043, 0.057373046875, -0.192626953125, -0.800537109375
150, 2520309189, -5.284291744232178, 2.0946264266967773, 8.044960975646973, -2.6643617153167725, -1.417739987373352, -2.5619235038757324, 0.059326171875, -0.193359375, -0.801513671875
151, 2520325856, -5.284805774688721, 2.0746572017669678, 8.012493133544922, -2.746066093444824, -1.317325234413147, -2.6177589893341064, 0.057861328125, -0.19482421875, -0.799560546875
152, 2520342523, -5.282735824584961, 2.0715415477752686, 8.019792556762695, -2.715996503829956, -1.4454913139343262, -2.6482508182525635, 0.058349609375, -0.190673828125, -0.800537109375
153, 2520359190, -5.278195381164551, 2.0705158710479736, 8.016135215759277, -2.710080146789551, -1.443250298500061, -2.594899892807007, 0.055908203125, -0.19580078125, -0.800048828125
154, 2520375857, -5.284147262573242, 2.0576744079589844, 8.020041465759277, -2.7167012691497803, -1.350980520248413, -2.601059913635254, 0.057373046875, -0.193115234375, -0.799560546875
155, 2520392524, -5.288190841674805, 2.068296194076538, 8.040488243103027, -2.6710336208343506, -1.3447309732437134, -2.571950912475586, 0.058349609375, -0.192626953125, -0.801513671875
156, 2520409191, -5.2939982414245605, 2.0659990310668945, 8.028746604919434, -2.5982420444488525, -1.301432490348816, -2.5083160400390625, 0.05615234375, -0.193115234375, -0.799560546875
157, 2520425858, -5.293393135070801, 2.076582670211792, 8.026653289794922, -2.7167909145355225, -1.2868077754974365, -2.518625020980835, 0.056884765625, -0.1943359375, -0.799560546875
158, 2520442525, -5.2964606285095215, 2.066544532775879, 8.028772354125977, -2.650761127471924, -1.370919942855835, -2.5344793796539307, 0.057373046875, -0.1943359375, -0.797607421875
159, 2520459192, -5.293298244476318, 2.062793016433716, 8.00926685333252, -2.6060540676116943, -1.4277287721633911, -2.494382619857788, 0.058349609375, -0.193115234375, -0.798095703125
160, 2520475859, -5.287466049194336, 2.0813815593719482, 8.035233497619629, -2.6745171546936035, -1.4026027917861938, -2.557466983795166, 0.059326171875, -0.19482421875, -0.799560546875
161, 2520492526, -5.286667346954346, 2.0753095149993896, 8.030414581298828, -2.6457154750823975, -1.471744418144226, -2.5497190952301025, 0.057373046875, -0.192138671875, -0.801025390625
162, 2520509193, -5.290647029876709, 2.0818207263946533, 8.026141166687012, -2.573730945587158, -1.3696777820587158, -2.5739872455596924, 0.056884765625, -0.193603515625, -0.801025390625
163, 2520525860, -5.294516563415527, 2.062727689743042, 8.035893440246582, -2.6249945163726807, -1.291827917098999, -2.637288808822632, 0.058349609375, -0.193115234375, -0.799560546875
164, 2520542527, -5.284856796264648, 2.0704264640808105, 8.015027046203613, -2.484624147415161, -1.245827317237854, -2.469230890274048, 0.057861328125, -0.1943359375, -0.798583984375
165, 2520559194, -5.300994873046875, 2.0758841037750244, 8.032154083251953, -2.4833946228027344, -1.2285387516021729, -2.4693076610565186, 0.057373046875, -0.192138671875, -0.799072265625
166, 2520575861, -5.281152248382568, 2.078497886657715, 8.026215553283691, -2.5712461471557617, -1.1819108724594116, -2.4977121353149414, 0.057373046875, -0.192626953125, -0.800048828125
167, 2520592528, -5.300053596496582, 2.064971685409546, 8.051994323730469, -2.588919162750244, -1.2545356750488281, -2.556429386138916, 0.056884765625, -0.193115234375, -0.802001953125
168, 2520609195, -5.28297758102417, 2.071465253829956, 8.023453712463379, -2.5626275539398193, -1.3002673387527466, -2.5729751586914062, 0.057861328125, -0.192626953125, -0.801025390625
169, 2520625862, -5.30715799331665, 2.067986488342285, 8.001689910888672, -2.690729856491089, -1.3195537328720093, -2.513169527053833, 0.058349609375, -0.19384765625, -0.799072265625
170, 2520642529, -5.308766841888428, 2.0596039295196533, 8.02388858795166, -2.550628185272217, -1.5011733770370483, -2.536964178085327, 0.058837890625, -0.192626953125, -0.799560546875
171, 2520659196, -5.2803239822387695, 2.0637717247009277, 8.02011489868164, -2.6593029499053955, -1.4448254108428955, -2.521071195602417, 0.058349609375, -0.192138671875, -0.798583984375
172, 2520675863, -5.284830570220947, 2.0566177368164062, 8.023614883422852, -2.5144245624542236, -1.3470873832702637, -2.5279994010925293, 0.057861328125, -0.192138671875, -0.798583984375
173, 2520692530, -5.287665843963623, 2.0724589824676514, 8.026602745056152, -2.536400079727173, -1.2566102743148804, -2.530214309692383, 0.058349609375, -0.191650390625, -0.799072265625
174, 2520709197, -5.296015739440918, 2.073413372039795, 8.027351379394531, -2.6359572410583496, -1.3335894346237183, -2.4979941844940186, 0.058837890625, -0.19482421875, -0.802490234375
175, 2520725864, -5.2884626388549805, 2.057774543762207, 8.016307830810547, -2.6061439514160156, -1.3968528509140015, -2.463967800140381, 0.056884765625, -0.1943359375, -0.799072265625
176, 2520742531, -5.301329612731934, 2.058785915374756, 8.03377914428711, -2.6443324089050293, -1.354271650314331, -2.475454807281494, 0.057373046875, -0.193115234375, -0.797607421875
177, 2520759198, -5.2695698738098145, 2.073854446411133, 8.009443283081055, -2.5923640727996826, -1.3339864015579224, -2.481550693511963, 0.057861328125, -0.19384765625, -0.800048828125
178, 2520775865, -5.287600994110107, 2.056285858154297, 8.039820671081543, -2.6026089191436768, -1.3116391897201538, -2.5967819690704346, 0.057861328125, -0.192138671875, -0.800537109375
179, 2520792532, -5.303744316101074, 2.0734755992889404, 8.01330280303955, -2.5404088497161865, -1.2626807689666748, -2.5748963356018066, 0.057373046875, -0.192138671875, -0.801025390625
180, 2520809199, -5.302481651306152, 2.0844931602478027, 8.017359733581543, -2.6121370792388916, -1.2708638906478882, -2.5461461544036865, 0.058837890625, -0.192626953125, -0.798583984375
181, 2520825866, -5.294371128082275, 2.074676275253296, 8.00204086303711, -2.5966672897338867, -1.352568507194519, -2.5429060459136963, 0.057373046875, -0.191650390625, -0.802490234375
182, 2520842533, -5.294488906860352, 2.062346935272217, 8.032014846801758, -2.5718863010406494, -1.419596791267395, -2.558004379272461, 0.057373046875, -0.192626953125, -0.798583984375
183, 2520859200, -5.294959545135498, 2.074587345123291, 8.05114459991455, -2.4812564849853516, -1.3136756420135498, -2.6056699752807617, 0.058349609375, -0.191650390625, -0.800048828125
184, 2520875867, -5.2875494956970215, 2.063532590866089, 8.040201187133789, -2.643346071243286, -1.2919045686721802, -2.5692100524902344, 0.058837890625, -0.191650390625, -0.799560546875
185, 2520892534, -5.294623374938965, 2.0660738945007324, 8.029717445373535, -2.5602076053619385, -1.3950473070144653, -2.5812225341796875, 0.058349609375, -0.193359375, -0.801513671875
186, 2520909201, -5.292879581451416, 2.063215970993042, 8.028060913085938, -2.61903977394104, -1.374480128288269, -2.4840991497039795, 0.057861328125, -0.193603515625, -0.800537109375
187, 2520925868, -5.2922282218933105, 2.0694143772125244, 7.996357440948486, -2.5968592166900635, -1.4595143795013428, -2.517664670944214, 0.058349609375, -0.193359375, -0.801025390625
188, 2520942535, -5.280292987823486, 2.0745184421539307, 8.027318954467773, -2.5663158893585205, -1.3900398015975952, -2.5050761699676514, 0.057861328125, -0.190673828125, -0.800537109375
189, 2520959202, -5.300036907196045, 2.056595802307129, 8.021553039550781, -2.5274996757507324, -1.3465750217437744, -2.449368476867676, 0.057373046875, -0.192626953125, -0.798583984375
190, 2520975869, -5.293475151062012, 2.067960023880005, 8.030416488647461, -2.491987705230713, -1.3607900142669678, -2.4722788333892822, 0.057373046875, -0.193603515625, -0.800048828125
191, 2520992536, -5.284570217132568, 2.0698583126068115, 8.040925025939941, -2.5524463653564453, -1.3886182308197021, -2.4182488918304443, 0.059326171875, -0.19384765625, -0.801513671875
192, 2521009203, -5.30205774307251, 2.084322690963745, 8.031744003295898, -2.5518834590911865, -1.3363299369812012, -2.535017490386963, 0.058837890625, -0.191162109375, -0.801513671875
193, 2521025870, -5.2955498695373535, 2.0578370094299316, 8.011181831359863, -2.5430078506469727, -1.3143925666809082, -2.4984805583953857, 0.059814453125, -0.1943359375, -0.798828125
194, 2521042537, -5.28285026550293, 2.0764434337615967, 8.010283470153809, -2.566802740097046, -1.2776128053665161, -2.5320591926574707, 0.058349609375, -0.192138671875, -0.800048828125
195, 2521059204, -5.309399604797363, 2.0696487426757812, 8.03818130493164, -2.635777711868286, -1.2843363285064697, -2.496124505996704, 0.057861328125, -0.193603515625, -0.798095703125
196, 2521075871, -5.285261154174805, 2.077984094619751, 8.0276460647583, -2.5694148540496826, -1.4097615480422974, -2.3703787326812744, 0.056396484375, -0.192138671875, -0.800048828125
197, 2521092538, -5.294505596160889, 2.078636407852173, 8.019731521606445, -2.6508255004882812, -1.4219276905059814, -2.4120123386383057, 0.059814453125, -0.1923828125, -0.803466796875
198, 2521109205, -5.294594764709473, 2.0634002685546875, 8.017391204833984, -2.63470196723938, -1.313444972038269, -2.5252718925476074, 0.058349609375, -0.1943359375, -0.800537109375
199, 2521125872, -5.296665191650391, 2.059880018234253, 8.014971733093262, -2.5937726497650146, -1.3072339296340942, -2.5050888061523438, 0.058349609375, -0.192626953125, -0.798583984375
200, 2521142539, -5.2902936935424805, 2.0684211254119873, 8.038338661193848, -2.631385326385498, -1.4400100708007812, -2.523914337158203, 0.059814453125, -0.193603515625, -0.79833984375
201, 2521159206, -5.289988994598389, 2.0789108276367188, 7.998124599456787, -2.765774965286255, -1.4602699279785156, -2.4937939643859863, 0.058349609375, -0.191650390625, -0.797607421875
202, 2521175873, -5.298580169677734, 2.065070152282715, 8.024735450744629, -2.6368789672851562, -1.441662073135376, -2.5033984184265137, 0.058349609375, -0.19482421875, -0.799072265625
203, 2521192540, -5.297309875488281, 2.0730504989624023, 8.022934913635254, -2.608487367630005, -1.4297523498535156, -2.5745761394500732, 0.059326171875, -0.193359375, -0.799560546875
204, 2521209207, -5.303268909454346, 2.051933765411377, 8.031843185424805, -2.5839245319366455, -1.3702284097671509, -2.58160662651062, 0.057861328125, -0.192626953125, -0.801025390625
205, 2521225874, -5.301424503326416, 2.0524210929870605, 8.012731552124023, -2.5718612670898438, -1.4281259775161743, -2.4727017879486084, 0.058837890625, -0.193115234375, -0.800537109375
206, 2521242541, -5.2905755043029785, 2.049645185470581, 8.019519805908203, -2.6382877826690674, -1.418879747390747, -2.431964635848999, 0.058349609375, -0.192138671875, -0.798095703125
207, 2521259208, -5.286248207092285, 2.060377836227417, 8.013534545898438, -2.5862295627593994, -1.4936686754226685, -2.475249767303467, 0.058837890625, -0.193115234375, -0.798583984375
208, 2521275875, -5.297331809997559, 2.0542349815368652, 8.017755508422852, -2.53108549118042, -1.4000414609909058, -2.494920492172241, 0.059814453125, -0.190673828125, -0.799560546875
209, 2521292542, -5.297553062438965, 2.0765185356140137, 8.000865936279297, -2.6811251640319824, -1.5106372833251953, -2.47432804107666, 0.060302734375, -0.191162109375, -0.801513671875
210, 2521309209, -5.300126552581787, 2.069586753845215, 8.026413917541504, -2.6949687004089355, -1.4669290781021118, -2.5690951347351074, 0.058349609375, -0.192138671875, -0.802490234375
211, 2521325876, -5.288116455078125, 2.0541911125183105, 8.02437973022461, -2.794358253479004, -1.435028314590454, -2.6065914630889893, 0.058837890625, -0.192626953125, -0.800537109375
212, 2521342543, -5.2889862060546875, 2.0581750869750977, 8.028364181518555, -2.689884662628174, -1.3704077005386353, -2.4399685859680176, 0.057373046875, -0.193603515625, -0.799560546875
213, 2521359210, -5.289231300354004, 2.0797672271728516, 8.022232055664062, -2.7187886238098145, -1.3602651357650757, -2.5358242988586426, 0.058349609375, -0.192138671875, -0.799560546875
214, 2521375877, -5.291230201721191, 2.0551156997680664, 8.020516395568848, -2.640042304992676, -1.4248474836349487, -2.5488739013671875, 0.056884765625, -0.192138671875, -0.801513671875
215, 2521392544, -5.283466815948486, 2.0566937923431396, 8.024579048156738, -2.6109848022460938, -1.456261396408081, -2.516793727874756, 0.060791015625, -0.19287109375, -0.802978515625
216, 2521409211, -5.3075971603393555, 2.059235095977783, 8.030840873718262, -2.6681652069091797, -1.3551809787750244, -2.4738543033599854, 0.058837890625, -0.193115234375, -0.801513671875
217, 2521425878, -5.295991897583008, 2.056476593017578, 8.024221420288086, -2.6660900115966797, -1.387068510055542, -2.5049734115600586, 0.058837890625, -0.193115234375, -0.800537109375
218, 2521442545, -5.306607723236084, 2.0481510162353516, 8.026579856872559, -2.6662180423736572, -1.4175606966018677, -2.5105443000793457, 0.059814453125, -0.192626953125, -0.800048828125
219, 2521459212, -5.303757190704346, 2.058823585510254, 8.0223388671875, -2.710541248321533, -1.4579519033432007, -2.5654706954956055, 0.058837890625, -0.190185546875, -0.797607421875
220, 2521475879, -5.267579078674316, 2.075225591659546, 8.017457008361816, -2.640951633453369, -1.4448126554489136, -2.5291390419006348, 0.059326171875, -0.192626953125, -0.801025390625
221, 2521492546, -5.2914228439331055, 2.0608277320861816, 8.033873558044434, -2.648263454437256, -1.279533863067627, -2.5751264095306396, 0.057861328125, -0.192138671875, -0.800537109375
222, 2521509213, -5.313363075256348, 2.0597453117370605, 8.032605171203613, -2.670264959335327, -1.2910209894180298, -2.594400405883789, 0.059814453125, -0.191162109375, -0.799560546875
223, 2521525880, -5.293211936950684, 2.064862012863159, 8.01590347290039, -2.682892322540283, -1.3963278532028198, -2.563485860824585, 0.059326171875, -0.19384765625, -0.802490234375
224, 2521542547, -5.303603172302246, 2.034022331237793, 8.000977516174316, -2.7162530422210693, -1.5080375671386719, -2.486468553543091, 0.059814453125, -0.190673828125, -0.798095703125
225, 2521559214, -5.287511348724365, 2.05355167388916, 8.03769302368164, -2.6662824153900146, -1.431955099105835, -2.3856825828552246, 0.059814453125, -0.192626953125, -0.7978515625
226, 2521575881, -5.287506580352783, 2.072056770324707, 8.036128997802734, -2.7041635513305664, -1.3097825050354004, -2.5481693744659424, 0.05615234375, -0.191162109375, -0.799560546875
227, 2521592548, -5.289713382720947, 2.0505099296569824, 8.021865844726562, -2.7888264656066895, -1.3672188520431519, -2.5242726802825928, 0.059326171875, -0.191650390625, -0.801025390625
228, 2521609215, -5.300385475158691, 2.047194480895996, 8.02663803100586, -2.705470085144043, -1.4102483987808228, -2.453479290008545, 0.0556640625, -0.191650390625, -0.800048828125
229, 2521625882, -5.322495937347412, 2.0523791313171387, 8.0097074508667, -2.623368263244629, -1.4528932571411133, -2.4593958854675293, 0.056884765625, -0.193115234375, -0.799072265625
230, 2521642549, -5.307955741882324, 2.057032823562622, 8.02946662902832, -2.706648111343384, -1.6307096481323242, -2.4949591159820557, 0.059326171875, -0.193359375, -0.800537109375
231, 2521659216, -5.3044915199279785, 2.054534435272217, 8.02966594696045, -2.7094526290893555, -1.5131473541259766, -2.4934608936309814, 0.057861328125, -0.192138671875, -0.797119140625
232, 2521675883, -5.279253005981445, 2.054114580154419, 8.020791053771973, -2.717764139175415, -1.499803066253662, -2.4509947299957275, 0.05712890625, -0.190185546875, -0.797119140625
233, 2521692550, -5.290335178375244, 2.0518364906311035, 8.032048225402832, -2.6104085445404053, -1.3997471332550049, -2.526731491088867, 0.059814453125, -0.191650390625, -0.799560546875
234, 2521709217, -5.297307968139648, 2.051950693130493, 8.021461486816406, -2.642040252685547, -1.2929164171218872, -2.5143864154815674, 0.058837890625, -0.19384765625, -0.802978515625
235, 2521725884, -5.303823471069336, 2.057596445083618, 8.029916763305664, -2.6610958576202393, -1.389386773109436, -2.451929807662964, 0.057373046875, -0.192626953125, -0.799560546875
236, 2521742551, -5.305816173553467, 2.048557996749878, 8.018794059753418, -2.6012001037597656, -1.32859468460083, -2.380751371383667, 0.059326171875, -0.190673828125, -0.798095703125
237, 2521759218, -5.302219390869141, 2.0606672763824463, 8.033672332763672, -2.650082588195801, -1.4977668523788452, -2.4572956562042236, 0.057373046875, -0.191162109375, -0.800048828125
238, 2521775885, -5.3007683753967285, 2.0669901371002197, 8.014486312866211, -2.719505548477173, -1.6279178857803345, -2.477862596511841, 0.057373046875, -0.192626953125, -0.801513671875
239, 2521792552, -5.297962188720703, 2.065068483352661, 8.014130592346191, -2.7903504371643066, -1.5789591073989868, -2.5025789737701416, 0.059326171875, -0.190673828125, -0.801025390625
240, 2521809219, -5.291910648345947, 2.0530195236206055, 8.02597427368164, -2.8315484523773193, -1.537479281425476, -2.4589731693267822, 0.059326171875, -0.192626953125, -0.801513671875
241, 2521825886, -5.291549205780029, 2.0415265560150146, 8.002128601074219, -2.814656972885132, -1.4225552082061768, -2.517382860183716, 0.057861328125, -0.191162109375, -0.800537109375
242, 2521842553, -5.299065113067627, 2.0598554611206055, 8.041848182678223, -2.8082151412963867, -1.4098384380340576, -2.546415090560913, 0.058837890625, -0.193115234375, -0.798583984375
243, 2521859220, -5.284330368041992, 2.0509822368621826, 8.032561302185059, -2.8094444274902344, -1.4875473976135254, -2.511338233947754, 0.057373046875, -0.192138671875, -0.798583984375
244, 2521875887, -5.297365665435791, 2.039787530899048, 8.043950080871582, -2.7386512756347656, -1.4173173904418945, -2.5246057510375977, 0.059326171875, -0.191650390625, -0.798095703125
245, 2521892554, -5.297025203704834, 2.044149398803711, 8.011938095092773, -2.726510524749756, -1.433402180671692, -2.4871087074279785, 0.058837890625, -0.192138671875, -0.802490234375
246, 2521909221, -5.301016807556152, 2.049471855163574, 8.019462585449219, -2.7650959491729736, -1.4325697422027588, -2.42262864112854, 0.057861328125, -0.193115234375, -0.802001953125
247, 2521925888, -5.305559158325195, 2.0577447414398193, 8.032979965209961, -2.749318838119507, -1.57302987575531, -2.530240535736084, 0.059326171875, -0.192626953125, -0.800048828125
248, 2521942555, -5.294408798217773, 2.050826072692871, 8.030210494995117, -2.648212432861328, -1.5940577983856201, -2.46763014793396, 0.059326171875, -0.191162109375, -0.800048828125
249, 2521959222, -5.290177345275879, 2.062805414199829, 8.017912864685059, -2.7737276554107666, -1.5908305644989014, -2.444002628326416, 0.058837890625, -0.190673828125, -0.799072265625
250, 2521975889, -5.289412975311279, 2.0446114540100098, 8.043082237243652, -2.6915364265441895, -1.4887126684188843, -2.525912284851074, 0.058349609375, -0.190185546875, -0.798095703125
251, 2521992556, -5.28384256362915, 2.0571725368499756, 8.039137840270996, -2.598177909851074, -1.4880338907241821, -2.5160255432128906, 0.058349609375, -0.190185546875, -0.798583984375
252, 2522009223, -5.303612232208252, 2.0505175590515137, 8.035179138183594, -2.7090938091278076, -1.5005074739456177, -2.5138742923736572, 0.056396484375, -0.190185546875, -0.801513671875
253, 2522025890, -5.301656723022461, 2.0318429470062256, 8.042871475219727, -2.677680015563965, -1.4779809713363647, -2.545992374420166, 0.057373046875, -0.192626953125, -0.801025390625
254, 2522042557, -5.28486967086792, 2.0431392192840576, 8.014266967773438, -2.628606081008911, -1.4815540313720703, -2.4559764862060547, 0.058837890625, -0.193115234375, -0.79736328125
255, 2522059224, -5.287141799926758, 2.047520160675049, 8.030649185180664, -2.631269693374634, -1.4363348484039307, -2.5253231525421143, 0.059326171875, -0.191650390625, -0.799072265625
256, 2522075891, -5.292262554168701, 2.0489606857299805, 8.037599563598633, -2.5201234817504883, -1.3732378482818604, -2.4378809928894043, 0.058837890625, -0.193603515625, -0.7978515625
257, 2522092558, -5.276319980621338, 2.0542402267456055, 8.033490180969238, -2.609102249145508, -1.4460164308547974, -2.4412620067596436, 0.056640625, -0.190673828125, -0.798583984375
258, 2522109225, -5.287903785705566, 2.044971227645874, 8.030954360961914, -2.663144826889038, -1.3285565376281738, -2.5060877799987793, 0.059814453125, -0.190185546875, -0.801025390625
259, 2522125892, -5.285428524017334, 2.0478482246398926, 8.031412124633789, -2.5551745891571045, -1.4510236978530884, -2.4868781566619873, 0.059326171875, -0.192626953125, -0.800048828125
260, 2522142559, -5.276706218719482, 2.0571465492248535, 8.053415298461914, -2.6072452068328857, -1.3708302974700928, -2.5297539234161377, 0.056884765625, -0.191162109375, -0.799072265625
261, 2522159226, -5.300942897796631, 2.0423057079315186, 8.028714179992676, -2.689500331878662, -1.380204677581787, -2.4937939643859863, 0.05615234375, -0.191650390625, -0.798095703125
262, 2522175893, -5.30450439453125, 2.0544636249542236, 8.036417961120605, -2.6254687309265137, -1.364363193511963, -2.493256092071533, 0.059814453125, -0.192138671875, -0.798583984375
263, 2522192560, -5.286905288696289, 2.0430006980895996, 8.03248119354248, -2.5423810482025146, -1.396583914756775, -2.5249385833740234, 0.057373046875, -0.192138671875, -0.800048828125
264, 2522209227, -5.285633087158203, 2.0435054302215576, 8.023506164550781, -2.614365577697754, -1.2765884399414062, -2.53786039352417, 0.057373046875, -0.191650390625, -0.801025390625
265, 2522225894, -5.290180206298828, 2.0408883094787598, 8.024579048156738, -2.5863964557647705, -1.302597999572754, -2.520930528640747, 0.059326171875, -0.190673828125, -0.801513671875
266, 2522242561, -5.294012069702148, 2.052170991897583, 8.029679298400879, -2.605452537536621, -1.3128303289413452, -2.4494071006774902, 0.059326171875, -0.189697265625, -0.801025390625
267, 2522259228, -5.27746057510376, 2.0536386966705322, 8.018401145935059, -2.705047369003296, -1.3094239234924316, -2.488812208175659, 0.056884765625, -0.190185546875, -0.799560546875
268, 2522275895, -5.2968339920043945, 2.0566132068634033, 8.02210807800293, -2.7336182594299316, -1.4797868728637695, -2.5357472896575928, 0.058349609375, -0.191162109375, -0.801513671875
269, 2522292562, -5.296645641326904, 2.053882122039795, 8.013260841369629, -2.7949602603912354, -1.5429857969284058, -2.5802745819091797, 0.059814453125, -0.190673828125, -0.800537109375
270, 2522309229, -5.297017574310303, 2.0477705001831055, 8.024096488952637, -2.8492844104766846, -1.4811952114105225, -2.5862677097320557, 0.056884765625, -0.190185546875, -0.80419921875
271, 2522325896, -5.291575908660889, 2.039785623550415, 8.052861213684082, -2.810276508331299, -1.389373779296875, -2.6120214462280273, 0.059814453125, -0.192138671875, -0.802001953125
272, 2522342563, -5.294731140136719, 2.033080577850342, 8.062606811523438, -2.7178666591644287, -1.2837599515914917, -2.4768636226654053, 0.059326171875, -0.188720703125, -0.802001953125
273, 2522359230, -5.317232131958008, 2.041306257247925, 8.011295318603516, -2.6204612255096436, -1.4294960498809814, -2.4189274311065674, 0.057861328125, -0.191650390625, -0.797607421875
274, 2522375897, -5.282170295715332, 2.0343425273895264, 8.018413543701172, -2.634894371032715, -1.4081865549087524, -2.462059736251831, 0.057373046875, -0.191162109375, -0.800537109375
275, 2522392564, -5.293674468994141, 2.05060076713562, 8.021240234375, -2.667755126953125, -1.4276649951934814, -2.43300199508667, 0.059326171875, -0.191162109375, -0.800048828125
276, 2522409231, -5.275801181793213, 2.0587360858917236, 8.008411407470703, -2.539307117462158, -1.408429503440857, -2.340552568435669, 0.059326171875, -0.190185546875, -0.802490234375
277, 2522425898, -5.288064002990723, 2.034494638442993, 8.02391529083252, -2.659405469894409, -1.4702460765838623, -2.4194529056549072, 0.058837890625, -0.191162109375, -0.802978515625
278, 2522442565, -5.296594142913818, 2.032557487487793, 8.035244941711426, -2.7093498706817627, -1.5178728103637695, -2.4327199459075928, 0.05712890625, -0.191162109375, -0.796630859375
279, 2522459232, -5.287326335906982, 2.031811475753784, 8.044249534606934, -2.6861448287963867, -1.5882819890975952, -2.393967866897583, 0.059326171875, -0.190185546875, -0.798583984375
280, 2522475899, -5.28937292098999, 2.0413596630096436, 8.017008781433105, -2.7261903285980225, -1.582749843597412, -2.4839839935302734, 0.057861328125, -0.189208984375, -0.801025390625
281, 2522492566, -5.289530277252197, 2.041337490081787, 8.032180786132812, -2.6679089069366455, -1.4922088384628296, -2.500670909881592, 0.057373046875, -0.188232421875, -0.8017578125
282, 2522509233, -5.291852951049805, 2.028687000274658, 8.014581680297852, -2.6173367500305176, -1.4989192485809326, -2.4707038402557373, 0.058837890625, -0.190185546875, -0.803955078125
283, 2522525900, -5.296319007873535, 2.0406875610351562, 8.027092933654785, -2.6550512313842773, -1.3691399097442627, -2.4194142818450928, 0.058837890625, -0.191162109375, -0.800048828125
284, 2522542567, -5.295263290405273, 2.0313880443573, 8.031115531921387, -2.6571385860443115, -1.524762749671936, -2.4886839389801025, 0.05517578125, -0.190673828125, -0.799072265625
285, 2522559234, -5.2824859619140625, 2.0520176887512207, 8.028952598571777, -2.7066991329193115, -1.5269908905029297, -2.4567577838897705, 0.058349609375, -0.190185546875, -0.800537109375
286, 2522575901, -5.280793190002441, 2.0415055751800537, 8.047089576721191, -2.6966335773468018, -1.5715827941894531, -2.478259563446045, 0.057373046875, -0.190185546875, -0.800537109375
287, 2522592568, -5.290740966796875, 2.023252248764038, 8.042227745056152, -2.7892234325408936, -1.451395034790039, -2.535862445831299, 0.058349609375, -0.191162109375, -0.802001953125
288, 2522609235, -5.2985920906066895, 2.0230181217193604, 8.03787612915039, -2.7262802124023438, -1.5603643655776978, -2.5089821815490723, 0.056396484375, -0.192138671875, -0.800537109375
289, 2522625902, -5.272316932678223, 2.037116289138794, 8.022380828857422, -2.6782948970794678, -1.5020314455032349, -2.472970485687256, 0.0556640625, -0.193115234375, -0.80224609375
290, 2522642569, -5.276561737060547, 2.038438081741333, 8.029555320739746, -2.6280298233032227, -1.4357842206954956, -2.4760310649871826, 0.056640625, -0.191650390625, -0.799560546875
291, 2522659236, -5.2822346687316895, 2.0204110145568848, 8.024431228637695, -2.7374725341796875, -1.3725463151931763, -2.465324878692627, 0.057861328125, -0.188720703125, -0.798583984375
292, 2522675903, -5.280493259429932, 2.0396251678466797, 8.023241996765137, -2.6158511638641357, -1.4046647548675537, -2.523568630218506, 0.056884765625, -0.191650390625, -0.800048828125
293, 2522692570, -5.297099590301514, 2.0397403240203857, 8.04178524017334, -2.5624611377716064, -1.4168179035186768, -2.429377555847168, 0.056640625, -0.188720703125, -0.799560546875
294, 2522709237, -5.28369140625, 2.0436718463897705, 8.013651847839355, -2.604081630706787, -1.374902606010437, -2.405673027038574, 0.057861328125, -0.189208984375, -0.8037109375
295, 2522725904, -5.285804271697998, 2.0285565853118896, 8.045486450195312, -2.6055288314819336, -1.4660712480545044, -2.439276933670044, 0.058837890625, -0.191162109375, -0.802490234375
296, 2522742571, -5.293835163116455, 2.011340856552124, 8.011896133422852, -2.615799903869629, -1.463330626487732, -2.404238700866699, 0.0556640625, -0.190185546875, -0.800537109375
297, 2522759238, -5.289209842681885, 2.0502679347991943, 8.015433311462402, -2.575587511062622, -1.4737675189971924, -2.3786258697509766, 0.057861328125, -0.187744140625, -0.798583984375
298, 2522775905, -5.278232097625732, 2.046220541000366, 8.032269477844238, -2.504422187805176, -1.3991576433181763, -2.398782968521118, 0.05712890625, -0.191650390625, -0.797607421875
299, 2522792572, -5.293611526489258, 2.0468196868896484, 8.045313835144043, -2.5124268531799316, -1.4435575008392334, -2.42512583732605, 0.061279296875, -0.191162109375, -0.802490234375
300, 2522809239, -5.270749092102051, 2.0419352054595947, 8.011528968811035, -2.5320208072662354, -1.3937665224075317, -2.481550931930542, 0.056884765625, -0.190673828125, -0.802490234375
301, 2522825906, -5.2740092277526855, 2.032762289047241, 8.01107406616211, -2.5871644020080566, -1.3149689435958862, -2.531508207321167, 0.059814453125, -0.190673828125, -0.801513671875
302, 2522842573, -5.293439865112305, 2.0381381511688232, 8.040836334228516, -2.5443270206451416, -1.2600806951522827, -2.4764533042907715, 0.057861328125, -0.190185546875, -0.801025390625
303, 2522859240, -5.290213584899902, 2.03251314163208, 8.033138275146484, -2.497929811477661, -1.3514413833618164, -2.4110772609710693, 0.059326171875, -0.192138671875, -0.7978515625
304, 2522875907, -5.286761283874512, 2.031219959259033, 8.046531677246094, -2.494408130645752, -1.2735915184020996, -2.4424526691436768, 0.058837890625, -0.190673828125, -0.799072265625
305, 2522892574, -5.280852794647217, 2.014267921447754, 8.018657684326172, -2.5469908714294434, -1.3696902990341187, -2.387807846069336, 0.058837890625, -0.190185546875, -0.800537109375
306, 2522909241, -5.280776500701904, 2.0520570278167725, 8.034531593322754, -2.4782848358154297, -1.3491106033325195, -2.4536967277526855, 0.057861328125, -0.190185546875, -0.801513671875
307, 2522925908, -5.302279472351074, 2.0358970165252686, 8.050952911376953, -2.456834554672241, -1.3609308004379272, -2.438598155975342, 0.056884765625, -0.191162109375, -0.80322265625
308, 2522942575, -5.284181594848633, 2.0238547325134277, 8.04086971282959, -2.5134894847869873, -1.359009861946106, -2.441927671432495, 0.059326171875, -0.189697265625, -0.799072265625
309, 2522959242, -5.295685768127441, 2.043164014816284, 8.030377388000488, -2.4723687171936035, -1.4795176982879639, -2.4136767387390137, 0.058349609375, -0.189697265625, -0.802001953125
310, 2522975909, -5.293356418609619, 2.0392837524414062, 8.045531272888184, -2.5190858840942383, -1.467838168144226, -2.4089386463165283, 0.05712890625, -0.191650390625, -0.798583984375
311, 2522992576, -5.293561935424805, 2.0286169052124023, 8.020639419555664, -2.502373695373535, -1.4080454111099243, -2.377562999725342, 0.0556640625, -0.190185546875, -0.8017578125
312, 2523009243, -5.296619892120361, 2.0344409942626953, 8.039534568786621, -2.490156412124634, -1.3348956108093262, -2.3518991470336914, 0.058349609375, -0.191162109375, -0.800537109375
313, 2523025910, -5.286251544952393, 2.0412814617156982, 8.056631088256836, -2.4790022373199463, -1.3410555124282837, -2.4523136615753174, 0.057373046875, -0.191162109375, -0.802001953125
314, 2523042577, -5.305056095123291, 2.0418524742126465, 8.04090404510498, -2.4898617267608643, -1.3652722835540771, -2.4523394107818604, 0.056884765625, -0.190673828125, -0.800048828125
315, 2523059244, -5.299116611480713, 2.0319082736968994, 8.030656814575195, -2.486929416656494, -1.4584383964538574, -2.4042258262634277, 0.058349609375, -0.192138671875, -0.800537109375
316, 2523075911, -5.290157794952393, 2.0264804363250732, 8.050919532775879, -2.4927942752838135, -1.5654864311218262, -2.3407700061798096, 0.057861328125, -0.190673828125, -0.800048828125
317, 2523092578, -5.2663774490356445, 2.0398149490356445, 8.050881385803223, -2.425868511199951, -1.4588993787765503, -2.327387571334839, 0.057373046875, -0.190185546875, -0.800537109375
318, 2523109245, -5.276691913604736, 2.031742811203003, 8.01760482788086, -2.4154059886932373, -1.4325439929962158, -2.3939807415008545, 0.058837890625, -0.191650390625, -0.801025390625
319, 2523125912, -5.285349369049072, 2.04402232170105, 8.040056228637695, -2.5315208435058594, -1.4022057056427002, -2.4233713150024414, 0.058837890625, -0.191162109375, -0.801513671875
320, 2523142579, -5.289490699768066, 2.0263442993164062, 8.043488502502441, -2.472637414932251, -1.354578971862793, -2.435140371322632, 0.059326171875, -0.190673828125, -0.800048828125
321, 2523159246, -5.280879974365234, 2.0305938720703125, 8.004196166992188, -2.4478442668914795, -1.4145126342773438, -2.32218861579895, 0.059814453125, -0.190185546875, -0.798583984375
322, 2523175913, -5.278208255767822, 2.044863224029541, 8.013877868652344, -2.4677963256835938, -1.3357791900634766, -2.380418539047241, 0.059326171875, -0.191162109375, -0.800048828125
323, 2523192580, -5.289052486419678, 2.045154094696045, 8.052741050720215, -2.3831465244293213, -1.3066062927246094, -2.3419101238250732, 0.057861328125, -0.188720703125, -0.800537109375
324, 2523209247, -5.291804313659668, 2.038658618927002, 8.017010688781738, -2.5139122009277344, -1.3647855520248413, -2.3622848987579346, 0.058837890625, -0.192138671875, -0.801513671875
325, 2523225914, -5.294562816619873, 2.0470635890960693, 8.0203218460083, -2.413830518722534, -1.4050103425979614, -2.269925594329834, 0.057373046875, -0.190673828125, -0.800537109375
326, 2523242581, -5.302303314208984, 2.0467348098754883, 8.04541301727295, -2.4354348182678223, -1.5153368711471558, -2.3440744876861572, 0.058837890625, -0.188720703125, -0.799072265625
327, 2523259248, -5.291767120361328, 2.049177646636963, 8.034948348999023, -2.5015153884887695, -1.549670696258545, -2.3877952098846436, 0.057861328125, -0.189208984375, -0.797119140625
328, 2523275915, -5.281564235687256, 2.046984910964966, 8.026162147521973, -2.516998529434204, -1.499841332435608, -2.3115975856781006, 0.060302734375, -0.191650390625, -0.800048828125
329, 2523292582, -5.283933639526367, 2.057570457458496, 8.022614479064941, -2.522402763366699, -1.5070512294769287, -2.409322738647461, 0.057861328125, -0.187744140625, -0.801513671875
330, 2523309249, -5.283935546875, 2.030259609222412, 8.026679992675781, -2.579801321029663, -1.479889154434204, -2.4920778274536133, 0.058349609375, -0.190185546875, -0.80615234375
331, 2523325916, -5.28030252456665, 2.048340320587158, 8.026015281677246, -2.5673022270202637, -1.4065343141555786, -2.444450616836548, 0.058349609375, -0.190185546875, -0.802001953125
332, 2523342583, -5.302975654602051, 2.032498359680176, 8.03498649597168, -2.5805182456970215, -1.4980486631393433, -2.450751543045044, 0.059326171875, -0.191162109375, -0.799072265625
333, 2523359250, -5.29741096496582, 2.040341377258301, 8.005072593688965, -2.5488479137420654, -1.5013141632080078, -2.380995035171509, 0.057861328125, -0.190673828125, -0.798583984375
334, 2523375917, -5.29155969619751, 2.0571467876434326, 8.031927108764648, -2.5600154399871826, -1.5153371095657349, -2.394442081451416, 0.058349609375, -0.190185546875, -0.798095703125
335, 2523392584, -5.290842056274414, 2.053901433944702, 8.036945343017578, -2.539127826690674, -1.5553568601608276, -2.292656898498535, 0.058837890625, -0.190185546875, -0.803466796875
336, 2523409251, -5.280124664306641, 2.041332960128784, 8.026480674743652, -2.4810256958007812, -1.412156343460083, -2.410936117172241, 0.058349609375, -0.191162109375, -0.803466796875
337, 2523425918, -5.2832207679748535, 2.047165632247925, 8.0179443359375, -2.6035566329956055, -1.515132188796997, -2.3596854209899902, 0.058837890625, -0.192138671875, -0.802978515625
338, 2523442585, -5.279379844665527, 2.039551258087158, 8.035685539245605, -2.483497142791748, -1.5689188241958618, -2.3297183513641357, 0.058349609375, -0.192138671875, -0.800537109375
339, 2523459252, -5.289979934692383, 2.037724733352661, 8.045504570007324, -2.4948434829711914, -1.5149400234222412, -2.3316009044647217, 0.057861328125, -0.191162109375, -0.800537109375
340, 2523475919, -5.279669761657715, 2.0596365928649902, 8.038215637207031, -2.550013542175293, -1.494808554649353, -2.4417357444763184, 0.057373046875, -0.191162109375, -0.801025390625
341, 2523492586, -5.274929523468018, 2.045966386795044, 8.033132553100586, -2.5078163146972656, -1.469285249710083, -2.412536859512329, 0.056884765625, -0.192138671875, -0.802001953125
342, 2523509253, -5.281596660614014, 2.050405740737915, 8.023006439208984, -2.561180353164673, -1.4823352098464966, -2.3805980682373047, 0.057373046875, -0.191162109375, -0.801513671875
343, 2523525920, -5.273318290710449, 2.0476861000061035, 8.03788948059082, -2.5944769382476807, -1.384328007698059, -2.3376967906951904, 0.057373046875, -0.192626953125, -0.802978515625
344, 2523542587, -5.271255016326904, 2.025336980819702, 8.037372589111328, -2.481781005859375, -1.4359248876571655, -2.4303510189056396, 0.058349609375, -0.191162109375, -0.801513671875
345, 2523559254, -5.291382789611816, 2.043041229248047, 8.036524772644043, -2.4201695919036865, -1.4179190397262573, -2.3829798698425293, 0.057861328125, -0.192138671875, -0.801025390625
346, 2523575921, -5.279305934906006, 2.043272018432617, 8.034594535827637, -2.4631094932556152, -1.429214358329773, -2.349043369293213, 0.057373046875, -0.191162109375, -0.799072265625
347, 2523592588, -5.296411514282227, 2.05997371673584, 8.029890060424805, -2.379509210586548, -1.418149471282959, -2.314939498901367, 0.059814453125, -0.191162109375, -0.801513671875
348, 2523609255, -5.298614025115967, 2.0435633659362793, 8.040716171264648, -2.499056816101074, -1.4413931369781494, -2.2990217208862305, 0.056396484375, -0.191650390625, -0.801513671875
349, 2523625922, -5.272101879119873, 2.0543782711029053, 8.05069637298584, -2.3746044635772705, -1.3926904201507568, -2.3428704738616943, 0.057373046875, -0.191650390625, -0.802001953125
350, 2523642589, -5.291877269744873, 2.03645396232605, 8.051919937133789, -2.4150984287261963, -1.2350188493728638, -2.4341413974761963, 0.056884765625, -0.190185546875, -0.800537109375
351, 2523659256, -5.271493434906006, 2.0568578243255615, 8.042696952819824, -2.3447017669677734, -1.2672265768051147, -2.336620807647705, 0.056884765625, -0.191162109375, -0.800048828125
352, 2523675923, -5.292301654815674, 2.061201333999634, 8.045021057128906, -2.411128282546997, -1.2980901002883911, -2.3534486293792725, 0.057373046875, -0.191162109375, -0.798583984375
353, 2523692590, -5.293239593505859, 2.0543618202209473, 8.0451021194458, -2.334559440612793, -1.3359456062316895, -2.3640780448913574, 0.056396484375, -0.192626953125, -0.801025390625
354, 2523709257, -5.2882771492004395, 2.080524206161499, 8.032790184020996, -2.493255853652954, -1.4538280963897705, -2.3737595081329346, 0.056884765625, -0.190673828125, -0.800537109375
355, 2523725924, -5.28431510925293, 2.0450432300567627, 8.046964645385742, -2.4559764862060547, -1.4688243865966797, -2.4355628490448, 0.056396484375, -0.193115234375, -0.801025390625
356, 2523742591, -5.277223110198975, 2.0568227767944336, 8.024914741516113, -2.3716719150543213, -1.2987816333770752, -2.3688290119171143, 0.059326171875, -0.190185546875, -0.802001953125
357, 2523759258, -5.292220592498779, 2.0557076930999756, 8.03334903717041, -2.400947332382202, -1.3065166473388672, -2.4515068531036377, 0.057373046875, -0.192626953125, -0.801025390625
358, 2523775925, -5.297329902648926, 2.062591314315796, 8.018730163574219, -2.4886326789855957, -1.3408377170562744, -2.3564326763153076, 0.057373046875, -0.189697265625, -0.799560546875
359, 2523792592, -5.278265476226807, 2.06795334815979, 8.02932357788086, -2.6201794147491455, -1.466980218887329, -2.3543450832366943, 0.058837890625, -0.191650390625, -0.802001953125
360, 2523809259, -5.268988132476807, 2.0572407245635986, 8.030757904052734, -2.5790836811065674, -1.3234593868255615, -2.4450266361236572, 0.057861328125, -0.191162109375, -0.800537109375
361, 2523825926, -5.268327713012695, 2.053154945373535, 8.052997589111328, -2.569620132446289, -1.3987096548080444, -2.484483480453491, 0.058837890625, -0.192138671875, -0.801513671875
362, 2523842593, -5.286600112915039, 2.0632052421569824, 8.034543991088867, -2.5974996089935303, -1.3120619058609009, -2.4687318801879883, 0.059326171875, -0.191162109375, -0.800048828125
363, 2523859260, -5.293502330780029, 2.063690423965454, 8.049152374267578, -2.527628183364868, -1.3243176937103271, -2.5424578189849854, 0.057861328125, -0.190185546875, -0.799072265625
364, 2523875927, -5.301422595977783, 2.0481746196746826, 8.035889625549316, -2.543917417526245, -1.3562437295913696, -2.4119350910186768, 0.058349609375, -0.193115234375, -0.800537109375
365, 2523892594, -5.300662040710449, 2.045867681503296, 8.050080299377441, -2.5156025886535645, -1.4410345554351807, -2.4296979904174805, 0.058349609375, -0.192626953125, -0.801513671875
366, 2523909261, -5.288919448852539, 2.050302028656006, 8.022895812988281, -2.5077779293060303, -1.4351308345794678, -2.3703529834747314, 0.057861328125, -0.191650390625, -0.800537109375
367, 2523925928, -5.287219047546387, 2.0450708866119385, 8.036580085754395, -2.5283191204071045, -1.4260255098342896, -2.3905742168426514, 0.056396484375, -0.192138671875, -0.801025390625
368, 2523942595, -5.272567272186279, 2.0607926845550537, 8.027722358703613, -2.516576051712036, -1.4620498418807983, -2.445577383041382, 0.057861328125, -0.192138671875, -0.798095703125
369, 2523959262, -5.280659198760986, 2.0637857913970947, 8.036829948425293, -2.5150907039642334, -1.4872270822525024, -2.433014392852783, 0.058837890625, -0.192138671875, -0.800537109375
370, 2523975929, -5.284310340881348, 2.0498995780944824, 8.034165382385254, -2.488247871398926, -1.3904621601104736, -2.3721585273742676, 0.058837890625, -0.192626953125, -0.798095703125
371, 2523992596, -5.284459590911865, 2.050558567047119, 8.03965950012207, -2.531059980392456, -1.4330178499221802, -2.2625234127044678, 0.057373046875, -0.192138671875, -0.800048828125
372, 2524009263, -5.274530410766602, 2.0774409770965576, 8.032017707824707, -2.573781967163086, -1.497088074684143, -2.3904075622558594, 0.059326171875, -0.192138671875, -0.800048828125
373, 2524025930, -5.283471584320068, 2.0466232299804688, 8.030769348144531, -2.5124521255493164, -1.2978978157043457, -2.396388053894043, 0.056396484375, -0.192626953125, -0.802490234375
374, 2524042597, -5.278387069702148, 2.0627365112304688, 8.025348663330078, -2.511760711669922, -1.3658612966537476, -2.3722355365753174, 0.055908203125, -0.192626953125, -0.8046875
375, 2524059264, -5.292802333831787, 2.0525362491607666, 8.044775009155273, -2.652682065963745, -1.3473435640335083, -2.417147636413574, 0.059326171875, -0.193115234375, -0.800048828125
376, 2524075931, -5.291054725646973, 2.054155111312866, 8.032017707824707, -2.604158639907837, -1.5081783533096313, -2.5028603076934814, 0.058349609375, -0.191162109375, -0.798583984375
377, 2524092598, -5.271233558654785, 2.05444073677063, 8.051429748535156, -2.503718137741089, -1.386325716972351, -2.4450392723083496, 0.057861328125, -0.189697265625, -0.801025390625
378, 2524109265, -5.2885894775390625, 2.0624287128448486, 8.029985427856445, -2.4747121334075928, -1.444274663925171, -2.4198496341705322, 0.057373046875, -0.191162109375, -0.802490234375
379, 2524125932, -5.26873779296875, 2.067150592803955, 8.032313346862793, -2.5944771766662598, -1.493656039237976, -2.4336676597595215, 0.058349609375, -0.193115234375, -0.800537109375
380, 2524142599, -5.268528461456299, 2.054858922958374, 8.046716690063477, -2.5617313385009766, -1.4172662496566772, -2.516012668609619, 0.059326171875, -0.191162109375, -0.801513671875
381, 2524159266, -5.287397861480713, 2.059537410736084, 8.016551971435547, -2.4638776779174805, -1.357562780380249, -2.408400774002075, 0.05712890625, -0.191650390625, -0.797607421875
382, 2524175933, -5.284411907196045, 2.0511090755462646, 8.04978084564209, -2.510608196258545, -1.3763495683670044, -2.461611270904541, 0.056884765625, -0.191162109375, -0.800048828125
383, 2524192600, -5.285772323608398, 2.062612295150757, 8.025110244750977, -2.5340819358825684, -1.3275830745697021, -2.5015408992767334, 0.057373046875, -0.192626953125, -0.800537109375
384, 2524209267, -5.296818256378174, 2.0384111404418945, 8.00872802734375, -2.5505638122558594, -1.3437447547912598, -2.411064386367798, 0.057861328125, -0.192138671875, -0.801513671875
385, 2524225934, -5.288533687591553, 2.048055410385132, 8.040528297424316, -2.519021987915039, -1.4766106605529785, -2.4238321781158447, 0.058837890625, -0.191162109375, -0.801513671875
386, 2524242601, -5.274661540985107, 2.057960271835327, 8.032567977905273, -2.521045446395874, -1.3562949895858765, -2.416046142578125, 0.057373046875, -0.19384765625, -0.801025390625
387, 2524259268, -5.270552635192871, 2.0775392055511475, 8.015922546386719, -2.598780393600464, -1.369203805923462, -2.4889400005340576, 0.057861328125, -0.193115234375, -0.798583984375
388, 2524275935, -5.2914533615112305, 2.049060821533203, 8.02888298034668, -2.618130922317505, -1.3441418409347534, -2.537501811981201, 0.057861328125, -0.191162109375, -0.797607421875
389, 2524292602, -5.290558815002441, 2.0432536602020264, 8.020379066467285, -2.6449851989746094, -1.38852858543396, -2.4879026412963867, 0.060302734375, -0.191162109375, -0.801513671875
390, 2524309269, -5.271459579467773, 2.0508761405944824, 8.023738861083984, -2.5475802421569824, -1.435463786125183, -2.4291982650756836, 0.058837890625, -0.192138671875, -0.802978515625
391, 2524325936, -5.285090923309326, 2.0719377994537354, 8.043283462524414, -2.521583318710327, -1.411976933479309, -2.352821111679077, 0.057861328125, -0.192626953125, -0.802001953125
392, 2524342603, -5.271642208099365, 2.0769433975219727, 8.03005599975586, -2.631781816482544, -1.2765241861343384, -2.5651118755340576, 0.058349609375, -0.193115234375, -0.799560546875
393, 2524359270, -5.276525974273682, 2.0462253093719482, 8.053869247436523, -2.661684989929199, -1.242113709449768, -2.582554578781128, 0.056884765625, -0.191162109375, -0.800537109375
394, 2524375937, -5.30855655670166, 2.0354862213134766, 7.997599124908447, -2.518970489501953, -1.2444571256637573, -2.5083415508270264, 0.058349609375, -0.191650390625, -0.800048828125
395, 2524392604, -5.281883239746094, 2.0578691959381104, 8.02925968170166, -2.5174338817596436, -1.3064525127410889, -2.4486637115478516, 0.058837890625, -0.190185546875, -0.800537109375
396, 2524409271, -5.279787540435791, 2.053524971008301, 8.018253326416016, -2.531149387359619, -1.3561668395996094, -2.441441059112549, 0.057861328125, -0.192138671875, -0.800537109375
397, 2524425938, -5.270185470581055, 2.068629503250122, 8.044594764709473, -2.518995761871338, -1.3584847450256348, -2.4637749195098877, 0.056884765625, -0.192138671875, -0.800537109375
398, 2524442605, -5.28977632522583, 2.0699496269226074, 8.036006927490234, -2.5095582008361816, -1.2826584577560425, -2.4935245513916016, 0.059326171875, -0.191162109375, -0.801025390625
399, 2524459272, -5.291143894195557, 2.061171770095825, 8.028289794921875, -2.5460691452026367, -1.2410250902175903, -2.562845230102539, 0.057373046875, -0.191650390625, -0.800048828125
400, 2524475939, -5.293657302856445, 2.053786516189575, 8.033899307250977, -2.5513193607330322, -1.2758710384368896, -2.5117993354797363, 0.05712890625, -0.190673828125, -0.797607421875
401, 2524492606, -5.292292594909668, 2.051783800125122, 8.037617683410645, -2.6512093544006348, -1.3582161664962769, -2.449150800704956, 0.058349609375, -0.191650390625, -0.802001953125
402, 2524509273, -5.271327018737793, 2.062216281890869, 8.04577922821045, -2.528191089630127, -1.3171331882476807, -2.447831392288208, 0.058837890625, -0.192138671875, -0.802001953125
403, 2524525940, -5.278005599975586, 2.0565357208251953, 8.01570987701416, -2.5709261894226074, -1.2652674913406372, -2.5110690593719482, 0.057861328125, -0.191650390625, -0.801025390625
404, 2524542607, -5.296435356140137, 2.0637290477752686, 8.0238618850708, -2.5890345573425293, -1.3046214580535889, -2.4948947429656982, 0.059814453125, -0.192626953125, -0.798583984375
405, 2524559274, -5.297264099121094, 2.067650318145752, 8.036592483520508, -2.7345786094665527, -1.3978132009506226, -2.5204179286956787, 0.060302734375, -0.19482421875, -0.79931640625
406, 2524575941, -5.308959484100342, 2.030127763748169, 8.000946044921875, -2.6244568824768066, -1.6365364789962769, -2.4528772830963135, 0.057861328125, -0.193603515625, -0.799072265625
407, 2524592608, -5.268406391143799, 2.0587034225463867, 8.028407096862793, -2.5785462856292725, -1.585349440574646, -2.395709991455078, 0.059814453125, -0.189697265625, -0.800048828125
408, 2524609275, -5.280385971069336, 2.0400803089141846, 8.05079174041748, -2.5934014320373535, -1.6166609525680542, -2.389434576034546, 0.057373046875, -0.190673828125, -0.799072265625
409, 2524625942, -5.2837700843811035, 2.0673015117645264, 8.041659355163574, -2.7043302059173584, -1.6103603839874268, -2.4323742389678955, 0.058837890625, -0.192626953125, -0.801513671875
410, 2524642609, -5.311890602111816, 2.0478153228759766, 8.04088306427002, -2.674645185470581, -1.6421072483062744, -2.428391695022583, 0.059326171875, -0.1943359375, -0.802001953125
411, 2524659276, -5.3103837966918945, 2.0483455657958984, 8.026422500610352, -2.6833150386810303, -1.8480334281921387, -2.332228899002075, 0.057373046875, -0.191162109375, -0.798583984375
412, 2524675943, -5.324523448944092, 2.050567388534546, 8.056598663330078, -2.69279146194458, -2.1049413681030273, -2.13746976852417, 0.057373046875, -0.192626953125, -0.799072265625
413, 2524692610, -5.334502220153809, 2.054152250289917, 8.03707218170166, -2.5650994777679443, -2.3415262699127197, -1.9628422260284424, 0.057861328125, -0.191162109375, -0.800048828125
414, 2524709277, -5.363816261291504, 2.0480096340179443, 8.048397064208984, -2.832162618637085, -2.7233853340148926, -1.8095115423202515, 0.057861328125, -0.191650390625, -0.802490234375
415, 2524725944, -5.340314865112305, 2.053011417388916, 8.043638229370117, -2.933525323867798, -3.2384958267211914, -1.5397716760635376, 0.056884765625, -0.192626953125, -0.801025390625
416, 2524742611, -5.309548377990723, 2.055572509765625, 8.057181358337402, -3.207119941711426, -3.5488574504852295, -1.577575922012329, 0.058349609375, -0.192626953125, -0.800048828125
417, 2524759278, -5.2531890869140625, 2.0780892372131348, 8.0322847366333, -4.001485347747803, -3.45855975151062, -1.7513965368270874, 0.052734375, -0.194091796875, -0.8017578125
418, 2524775945, -5.259390830993652, 2.075716257095337, 8.046026229858398, -3.534181833267212, -3.2759416103363037, -1.703065276145935, 0.0546875, -0.191650390625, -0.800048828125
419, 2524792612, -5.210490703582764, 2.0812571048736572, 8.053234100341797, -3.688523292541504, -3.112058401107788, -1.98973548412323, 0.05517578125, -0.192138671875, -0.801025390625
420, 2524809279, -5.242255210876465, 2.023064613342285, 8.058262825012207, -3.8583743572235107, -3.00612473487854, -2.092634439468384, 0.05517578125, -0.190185546875, -0.802734375
421, 2524825946, -5.220195293426514, 2.07983660697937, 8.062028884887695, -3.596548080444336, -2.776787757873535, -1.9677213430404663, 0.0546875, -0.191650390625, -0.8037109375
422, 2524842613, -5.20912504196167, 2.0602316856384277, 8.075051307678223, -3.2333860397338867, -2.714587926864624, -2.0050389766693115, 0.05322265625, -0.191650390625, -0.80224609375
423, 2524859280, -5.258698463439941, 2.0707881450653076, 8.066864967346191, -3.1150166988372803, -1.9481021165847778, -2.3652045726776123, 0.05419921875, -0.192626953125, -0.80078125
424, 2524875947, -5.210812568664551, 2.049112558364868, 8.0618257522583, -2.2839481830596924, -1.2054232358932495, -2.7832679748535156, 0.0537109375, -0.191162109375, -0.80078125
425, 2524892614, -5.259443759918213, 2.0343377590179443, 8.037392616271973, -2.5976016521453857, -1.4993929862976074, -3.3966667652130127, 0.0556640625, -0.189208984375, -0.80126953125
426, 2524909281, -5.22155237197876, 2.0058441162109375, 8.039603233337402, -2.7132043838500977, -1.5182695388793945, -2.945549964904785, 0.0537109375, -0.193603515625, -0.802734375
427, 2524925948, -5.195219993591309, 2.0788657665252686, 8.050905227661133, -2.689871311187744, -1.8251994848251343, -2.7809760570526123, 0.05322265625, -0.192138671875, -0.802734375
428, 2524942615, -5.210412502288818, 1.9803301095962524, 8.094075202941895, -2.2563250064849854, -1.3696775436401367, -2.458037853240967, 0.05224609375, -0.190185546875, -0.80322265625
429, 2524959282, -5.287121295928955, 2.0153300762176514, 8.046402931213379, -1.7593623399734497, -1.0780513286590576, -2.3060524463653564, 0.05419921875, -0.192138671875, -0.80126953125
430, 2524975949, -5.241547107696533, 2.043569326400757, 8.035489082336426, -1.2063068151474, -1.2735275030136108, -1.8790498971939087, 0.0546875, -0.193115234375, -0.798583984375
431, 2524992616, -5.1883864402771, 2.000194787979126, 8.04088020324707, -1.015774130821228, -1.6429907083511353, -1.6094125509262085, 0.05419921875, -0.189697265625, -0.80224609375
432, 2525009283, -5.191638469696045, 2.0389668941497803, 8.048872947692871, -0.6659302115440369, -1.564718246459961, -1.375350832939148, 0.05419921875, -0.193115234375, -0.80322265625
433, 2525025950, -5.278461933135986, 2.074444532394409, 8.009448051452637, -0.9686722755432129, -1.7603223323822021, -1.495973825454712, 0.05419921875, -0.192138671875, -0.80224609375
434, 2525042617, -5.256006717681885, 2.040026903152466, 8.001952171325684, -0.4585569202899933, -2.1253671646118164, -1.3806781768798828, 0.05322265625, -0.194580078125, -0.80126953125
435, 2525059284, -5.201541900634766, 2.0998165607452393, 7.996543884277344, -0.6914147734642029, -2.284921646118164, -1.385621428489685, 0.052734375, -0.193115234375, -0.798583984375
436, 2525075951, -5.291833400726318, 2.0012364387512207, 7.969646453857422, -1.3728790283203125, -2.8215460777282715, -1.2542922496795654, 0.0517578125, -0.193115234375, -0.80029296875
437, 2525092618, -5.330012321472168, 1.9350157976150513, 7.996664524078369, -1.146988034248352, -4.402785301208496, -0.24955737590789795, 0.052734375, -0.194091796875, -0.8017578125
438, 2525109285, -5.238970756530762, 2.248551607131958, 7.930330753326416, -2.706737518310547, -5.745787143707275, -0.29712018370628357, 0.05126953125, -0.192138671875, -0.8037109375
439, 2525125952, -5.235424518585205, 2.1812479496002197, 8.014775276184082, -4.5378031730651855, -7.812157154083252, -1.3220765590667725, 0.0498046875, -0.192138671875, -0.80078125
440, 2525142619, -5.167961120605469, 2.1545658111572266, 8.098126411437988, -5.4805684089660645, -8.24359130859375, -1.7159618139266968, 0.0478515625, -0.192138671875, -0.80224609375
441, 2525159286, -5.128785610198975, 2.154954433441162, 8.18405532836914, -5.505373954772949, -7.027985095977783, -1.8898460865020752, 0.045654296875, -0.191162109375, -0.802490234375
442, 2525175953, -5.056376934051514, 2.14101505279541, 8.150640487670898, -5.3246378898620605, -6.396632194519043, -1.8212041854858398, 0.044189453125, -0.191162109375, -0.802001953125
443, 2525192620, -5.139202117919922, 2.0110208988189697, 8.18818473815918, -5.089858531951904, -4.86068868637085, -1.8766297101974487, 0.044189453125, -0.190673828125, -0.803466796875
444, 2525209287, -5.130433559417725, 2.030724287033081, 8.190300941467285, -3.9968490600585938, -4.066208362579346, -1.0472007989883423, 0.044189453125, -0.189697265625, -0.804443359375
445, 2525225954, -5.088895797729492, 1.9357848167419434, 8.232705116271973, -2.903404712677002, -2.5159997940063477, -0.908866822719574, 0.044677734375, -0.191162109375, -0.805419921875
446, 2525242621, -5.005782127380371, 2.0429320335388184, 8.290031433105469, -2.077049493789673, -1.144721269607544, -0.8703196048736572, 0.041259765625, -0.191650390625, -0.801025390625
447, 2525259288, -5.18284273147583, 2.0143823623657227, 8.241106986999512, -1.4165101051330566, 0.08281224220991135, -1.2005054950714111, 0.041259765625, -0.191162109375, -0.802490234375
448, 2525275955, -5.2232208251953125, 2.120051622390747, 8.100072860717773, -1.0373270511627197, 0.2401510328054428, -1.04196298122406, 0.045654296875, -0.193115234375, -0.802001953125
449, 2525292622, -5.207412242889404, 2.1977899074554443, 8.065217971801758, -2.885065793991089, -1.0412203073501587, -2.0912387371063232, 0.043701171875, -0.193115234375, -0.801025390625
450, 2525309289, -5.028467178344727, 2.2287755012512207, 8.106391906738281, -5.09113883972168, -2.3943777084350586, -3.76387619972229, 0.042724609375, -0.191162109375, -0.804443359375
451, 2525325956, -5.156404972076416, 2.169846534729004, 8.099480628967285, -7.665831089019775, -3.1436007022857666, -5.335677146911621, 0.041748046875, -0.190185546875, -0.80517578125
452, 2525342623, -5.159590721130371, 2.0619945526123047, 8.098685264587402, -9.615191459655762, -3.8660852909088135, -6.167169094085693, 0.044189453125, -0.188232421875, -0.80517578125
453, 2525359290, -5.157565593719482, 2.0905606746673584, 8.122797012329102, -11.121732711791992, -4.6837077140808105, -6.378500938415527, 0.041748046875, -0.18603515625, -0.80322265625
454, 2525375957, -5.246218681335449, 2.1952102184295654, 8.15064525604248, -14.140157699584961, -5.715710163116455, -6.988188743591309, 0.042236328125, -0.18310546875, -0.80322265625
455, 2525392624, -5.530893802642822, 2.456298828125, 8.060195922851562, -19.675098419189453, -9.436452865600586, -8.488730430603027, 0.039794921875, -0.1796875, -0.807861328125
456, 2525409291, -4.818958282470703, 2.483074903488159, 7.871840000152588, -21.114803314208984, -11.082207679748535, -11.973557472229004, 0.037841796875, -0.175537109375, -0.81005859375
457, 2525425958, -4.715553283691406, 1.7581779956817627, 8.1359224319458, -20.28357696533203, -10.260150909423828, -13.613950729370117, 0.03564453125, -0.172119140625, -0.80712890625
458, 2525442625, -4.682343482971191, 1.3382116556167603, 8.397966384887695, -16.519128799438477, -7.495389938354492, -12.064677238464355, 0.0361328125, -0.16748046875, -0.809814453125
459, 2525459292, -4.614155292510986, 1.353711485862732, 8.28531265258789, -12.25655746459961, -4.462799072265625, -10.063813209533691, 0.03515625, -0.16552734375, -0.810302734375
460, 2525475959, -4.6753926277160645, 1.31972336769104, 8.250314712524414, -7.581259250640869, -2.334726333618164, -8.601171493530273, 0.03515625, -0.1640625, -0.810791015625
461, 2525492626, -4.717130184173584, 1.5288950204849243, 8.131854057312012, -3.893451690673828, -0.08020620048046112, -8.049613952636719, 0.037109375, -0.1611328125, -0.811767578125
462, 2525509293, -4.617610454559326, 1.4800946712493896, 8.300835609436035, -0.5683972239494324, 3.256354570388794, -8.253887176513672, 0.0361328125, -0.16162109375, -0.812744140625
463, 2525525960, -4.981800079345703, 1.5990010499954224, 8.34645938873291, 3.6787092685699463, 7.153648853302002, -6.625931739807129, 0.0380859375, -0.16650390625, -0.811279296875
464, 2525542627, -4.927461624145508, 1.6605150699615479, 8.32557201385498, 5.537232875823975, 11.874319076538086, -5.837484359741211, 0.044189453125, -0.1650390625, -0.810546875
465, 2525559294, -5.005992889404297, 1.9044902324676514, 8.462851524353027, 7.747462272644043, 16.655073165893555, -7.795121669769287, 0.048828125, -0.167724609375, -0.806640625
466, 2525575961, -5.123213291168213, 1.7038688659667969, 8.533690452575684, 10.332850456237793, 25.09368133544922, -7.581789016723633, 0.05224609375, -0.168212890625, -0.8046875
467, 2525592628, -5.1304731369018555, 1.8917903900146484, 8.501533508300781, 12.432866096496582, 33.43513488769531, -9.365750312805176, 0.061279296875, -0.172607421875, -0.8056640625
468, 2525609295, -4.962403774261475, 2.0869507789611816, 8.642740249633789, 10.196563720703125, 44.639564514160156, -8.876083374023438, 0.072265625, -0.17626953125, -0.803466796875
469, 2525625962, -4.699764251708984, 2.051346778869629, 9.272797584533691, 12.254709243774414, 62.44712829589844, -10.152445793151855, 0.0830078125, -0.178466796875, -0.802001953125
470, 2525642629, -4.62217378616333, 2.408430576324463, 9.265414237976074, 22.255538940429688, 90.4970703125, -19.462839126586914, 0.10546875, -0.18359375, -0.797607421875
471, 2525659296, -4.946109294891357, 2.2826321125030518, 9.328852653503418, 26.97316551208496, 123.52950286865234, -26.968915939331055, 0.131591796875, -0.189208984375, -0.788818359375
472, 2525675963, -5.440837860107422, 2.1984739303588867, 9.284873008728027, 27.179649353027344, 156.56602478027344, -36.326866149902344, 0.168701171875, -0.19189453125, -0.77783203125
473, 2525692630, -5.405005931854248, 2.676668882369995, 9.084311485290527, 31.71926498413086, 187.55874633789062, -51.0215950012207, 0.210693359375, -0.197021484375, -0.762939453125
474, 2525709297, -6.128024101257324, 3.053518772125244, 8.952444076538086, 21.244762420654297, 225.95140075683594, -75.70053100585938, 0.265380859375, -0.1982421875, -0.743408203125
475, 2525725964, -6.719185829162598, 3.167470693588257, 9.263236045837402, -4.918646812438965, 263.51385498046875, -104.23222351074219, 0.32177734375, -0.18896484375, -0.718017578125
476, 2525742631, -8.232821464538574, 4.02310848236084, 10.363710403442383, -22.06032371520996, 301.67059326171875, -126.82723236083984, 0.390869140625, -0.172119140625, -0.680908203125
477, 2525759298, -9.33697509765625, 4.808422565460205, 10.369333267211914, -27.633901596069336, 332.4664611816406, -150.70907592773438, 0.46142578125, -0.145751953125, -0.631103515625
478, 2525775965, -13.641375541687012, 4.826943874359131, 12.10763931274414, -22.6230525970459, 330.900146484375, -161.1057586669922, 0.53076171875, -0.116943359375, -0.57470703125
479, 2525792632, -13.692119598388672, 5.400727272033691, 13.180209159851074, -26.816408157348633, 338.1791687011719, -161.2678680419922, 0.5927734375, -0.085205078125, -0.51123046875
480, 2525809299, -15.257892608642578, 6.3187255859375, 14.055039405822754, -35.687904357910156, 304.9354553222656, -144.78976440429688, 0.646728515625, -0.052001953125, -0.4462890625
481, 2525825966, -8.996384620666504, 4.0849103927612305, 11.910117149353027, -35.236209869384766, 260.92071533203125, -141.6803436279297, 0.684814453125, -0.02392578125, -0.38525390625
482, 2525842633, -0.21327707171440125, 6.049378395080566, 9.266863822937012, -56.26511001586914, 232.0452117919922, -136.070068359375, 0.715576171875, 0.012451171875, -0.327880859375
483, 2525859300, -16.320947647094727, 10.435953140258789, 23.626426696777344, 12.406901359558105, 112.81867218017578, -38.65627670288086, 0.73583984375, 0.02392578125, -0.285888671875
484, 2525875967, -6.183928489685059, 10.320477485656738, 18.452926635742188, 12.598160743713379, -49.93153381347656, 27.882457733154297, 0.7412109375, 0.01953125, -0.279541015625
485, 2525892634, -0.0030096620321273804, 6.370607852935791, 12.229291915893555, -8.812185287475586, -124.46021270751953, 57.25151443481445, 0.742431640625, 0.00390625, -0.298095703125
486, 2525909301, 2.2396552562713623, 3.6077191829681396, 8.361370086669922, -13.474419593811035, -138.87149047851562, 71.32614135742188, 0.736328125, -0.01123046875, -0.326416015625
487, 2525925968, 1.2148104906082153, 2.4751834869384766, 7.329487323760986, -7.700082778930664, -138.64102172851562, 83.77665710449219, 0.732666015625, -0.031494140625, -0.35498046875
488, 2525942635, -2.2313365936279297, 2.590019702911377, 8.711836814880371, -8.029556274414062, -151.1798858642578, 96.19241333007812, 0.72314453125, -0.05029296875, -0.38671875
489, 2525959302, -5.511828899383545, 2.9051413536071777, 9.930877685546875, -20.17758560180664, -191.6260223388672, 108.34069061279297, 0.70751953125, -0.075927734375, -0.431884765625
490, 2525975969, -5.843685626983643, 1.864608645439148, 9.277982711791992, -32.930152893066406, -237.73696899414062, 121.40348815917969, 0.6796875, -0.097412109375, -0.490966796875
491, 2525992636, -5.205845832824707, 0.3726365566253662, 7.892385005950928, -34.102352142333984, -260.64971923828125, 134.88003540039062, 0.632568359375, -0.120849609375, -0.5517578125
492, 2526009303, -6.086421966552734, -0.21434052288532257, 7.489225387573242, -34.83221435546875, -266.6324462890625, 137.33456420898438, 0.576904296875, -0.138916015625, -0.6103515625
493, 2526025970, -7.021414756774902, -1.0536913871765137, 7.372790813446045, -37.135921478271484, -270.6907958984375, 120.40103149414062, 0.515625, -0.1494140625, -0.655517578125
494, 2526042637, -7.1618547439575195, -2.683440923690796, 6.816787242889404, -25.35740089416504, -263.7528991699219, 91.4554214477539, 0.455322265625, -0.15673828125, -0.6953125
495, 2526059304, -8.415108680725098, -2.1826014518737793, 7.552530765533447, -4.262984275817871, -242.67039489746094, 53.74058151245117, 0.400146484375, -0.159912109375, -0.72119140625
496, 2526075971, -11.38851547241211, -0.17502374947071075, 10.371996879577637, 14.331299781799316, -228.2340087890625, 21.137191772460938, 0.349609375, -0.1611328125, -0.73486328125
497, 2526092638, -15.672475814819336, 1.9018751382827759, 12.790811538696289, 31.71308135986328, -238.47389221191406, 12.192774772644043, 0.309814453125, -0.16455078125, -0.740966796875
498, 2526109305, -18.066884994506836, 3.1234328746795654, 11.73942756652832, 49.617774963378906, -258.8846435546875, 28.611629486083984, 0.279296875, -0.17041015625, -0.74609375
499, 2526125972, -18.268524169921875, 4.823054790496826, 8.999490737915039, 51.6750373840332, -255.02621459960938, 49.59627151489258, 0.257080078125, -0.18603515625, -0.770751953125
500, 2526142639, -21.13658905029297, 5.958182334899902, 7.575868129730225, 41.589664459228516, -236.9189910888672, 69.9189682006836, 0.22705078125, -0.208984375, -0.816162109375
501, 2526159306, -23.592985153198242, 5.47781229019165, 5.387753009796143, 44.44599914550781, -230.8835906982422, 108.1990737915039, 0.17138671875, -0.24365234375, -0.868408203125
502, 2526175973, -22.524168014526367, 2.5817177295684814, 0.9185504913330078, 48.3263053894043, -212.10325622558594, 138.9542999267578, 0.09033203125, -0.284423828125, -0.90185546875
503, 2526192640, -22.921010971069336, -4.614274501800537, -2.795008897781372, 64.12297058105469, -171.56216430664062, 147.48336791992188, 0.004638671875, -0.316162109375, -0.91357421875
504, 2526209307, -25.92655372619629, -10.297221183776855, -6.615631103515625, 87.55794525146484, -135.35528564453125, 117.58214569091797, -0.067138671875, -0.34912109375, -0.904541015625
505, 2526225974, -24.43740463256836, -10.385211944580078, -10.13145923614502, 67.1927261352539, -91.95994567871094, 37.14697265625, -0.114990234375, -0.374755859375, -0.8935546875
506, 2526242641, -18.34553337097168, -8.187478065490723, -9.673480033874512, 8.821898460388184, 3.595536708831787, -74.42699432373047, -0.127685546875, -0.38427734375, -0.891357421875
507, 2526259308, -17.46417236328125, -4.6250433921813965, -5.63546895980835, -27.95014190673828, 96.17942810058594, -163.3245086669922, -0.095703125, -0.383544921875, -0.8994140625
508, 2526275975, -11.532207489013672, 6.946140289306641, 16.614648818969727, -38.251800537109375, 68.64136505126953, -157.90509033203125, -0.060546875, -0.38134765625, -0.909423828125
509, 2526292642, 3.121518850326538, 11.211311340332031, 5.30747127532959, -18.518415451049805, 36.65665817260742, -112.36216735839844, -0.04248046875, -0.37646484375, -0.918212890625
510, 2526309309, -4.826066970825195, 6.941561222076416, 7.901171684265137, 1.2384850978851318, 120.41922760009766, -25.943992614746094, -0.0146484375, -0.3818359375, -0.9228515625
511, 2526325976, -14.486809730529785, -2.0651886463165283, 14.436429023742676, -14.052490234375, 99.41152954101562, -9.773695945739746, 0.011474609375, -0.38330078125, -0.927001953125
512, 2526342643, -9.74397087097168, -2.091207265853882, 12.232125282287598, -2.311549186706543, 58.283084869384766, -41.445152282714844, 0.03076171875, -0.383056640625, -0.927490234375
513, 2526359310, -4.954936504364014, 7.089508533477783, 7.743885040283203, 7.090076446533203, 56.05770492553711, -21.367708206176758, 0.04541015625, -0.38818359375, -0.929443359375
514, 2526375977, -6.995579242706299, 4.203413486480713, 8.95240592956543, 1.1315382719039917, 59.16463088989258, -0.6122663021087646, 0.059326171875, -0.391357421875, -0.930419921875
515, 2526392644, -6.093011379241943, 1.5982881784439087, 8.954361915588379, -0.2681283950805664, 41.910736083984375, -13.686814308166504, 0.073486328125, -0.391845703125, -0.929931640625
516, 2526409311, -4.9818620681762695, 4.432817459106445, 7.574155807495117, -3.1693215370178223, 39.31945037841797, -13.116315841674805, 0.08203125, -0.3935546875, -0.931640625
517, 2526425978, -4.965005397796631, 3.102440357208252, 7.657780647277832, -10.813726425170898, 44.514617919921875, -9.176946640014648, 0.0947265625, -0.39111328125, -0.933349609375
518, 2526442645, -5.247760772705078, 3.557338237762451, 9.602699279785156, -24.544368743896484, 48.739166259765625, -20.63047218322754, 0.106689453125, -0.38916015625, -0.9345703125
519, 2526459312, -7.5444560050964355, 2.529359817504883, 8.003358840942383, -39.55751037597656, 33.57997131347656, -25.369882583618164, 0.119140625, -0.377685546875, -0.937255859375
520, 2526475979, -6.274564743041992, 1.3931150436401367, 8.974706649780273, -21.624216079711914, 23.150442123413086, -15.35726261138916, 0.126220703125, -0.370849609375, -0.937255859375
521, 2526492646, -5.659708499908447, 3.125166416168213, 7.934952735900879, -18.153270721435547, 18.607633590698242, -12.107068061828613, 0.1328125, -0.3662109375, -0.941162109375
522, 2526509313, -5.290506839752197, 2.135024309158325, 8.221982955932617, -15.538912773132324, 14.307943344116211, -11.856002807617188, 0.13720703125, -0.36083984375, -0.942138671875
523, 2526525980, -5.116930961608887, 2.458629846572876, 7.981080055236816, -11.967154502868652, 12.05359172821045, -11.083169937133789, 0.140869140625, -0.35888671875, -0.942626953125
524, 2526542647, -5.265183448791504, 2.056589365005493, 8.078710556030273, -6.623117923736572, 12.580336570739746, -9.46340274810791, 0.144287109375, -0.357421875, -0.94189453125
525, 2526559314, -5.447942733764648, 2.6829750537872314, 7.859485626220703, -2.4657492637634277, 12.153651237487793, -7.566035270690918, 0.14892578125, -0.3583984375, -0.94287109375
526, 2526575981, -5.354569911956787, 3.059929132461548, 7.6676740646362305, -2.4715628623962402, 10.623265266418457, -8.585766792297363, 0.154296875, -0.359375, -0.943115234375
527, 2526592648, -5.5899834632873535, 2.964157819747925, 7.785093307495117, -4.100390911102295, 7.0236406326293945, -11.578868865966797, 0.156005859375, -0.35791015625, -0.941162109375
528, 2526609315, -5.784745216369629, 2.4097492694854736, 7.949305057525635, -6.919839859008789, 2.9637820720672607, -13.007572174072266, 0.159912109375, -0.35888671875, -0.945556640625
529, 2526625982, -5.787198543548584, 2.274460792541504, 7.986165523529053, -6.015044212341309, 0.848389208316803, -13.061039924621582, 0.158935546875, -0.35546875, -0.945068359375
530, 2526642649, -5.650498390197754, 2.2217750549316406, 7.865279197692871, -2.949252128601074, 1.1427301168441772, -10.382123947143555, 0.159912109375, -0.3544921875, -0.944580078125
531, 2526659316, -5.461310863494873, 2.469205141067505, 7.797114372253418, -1.2366710901260376, 2.0311195850372314, -8.943778038024902, 0.160400390625, -0.35400390625, -0.944580078125
532, 2526675983, -5.450815200805664, 2.575202465057373, 7.863924980163574, -0.38707202672958374, 3.084019660949707, -8.800935745239258, 0.162353515625, -0.3544921875, -0.94482421875
533, 2526692650, -5.5430498123168945, 2.5963332653045654, 7.862249374389648, -2.3752458095550537, 4.398387432098389, -10.414000511169434, 0.164306640625, -0.35302734375, -0.94091796875
534, 2526709317, -5.407524585723877, 2.546290874481201, 7.87185525894165, -1.1730496883392334, 8.72120189666748, -11.492440223693848, 0.1669921875, -0.35302734375, -0.94287109375
535, 2526725984, -5.500467300415039, 2.530536651611328, 7.7535552978515625, 5.26629638671875, 16.829238891601562, -17.726369857788086, 0.17041015625, -0.35546875, -0.942626953125
536, 2526742651, -4.865891933441162, 3.0823264122009277, 8.475706100463867, 14.212360382080078, 26.51345443725586, -27.840038299560547, 0.180908203125, -0.358154296875, -0.936767578125
537, 2526759318, -4.460888862609863, 2.4193692207336426, 8.977896690368652, 6.614235877990723, 46.24885559082031, -28.850189208984375, 0.192626953125, -0.358154296875, -0.932373046875
538, 2526775985, -4.606216907501221, 1.8779851198196411, 8.984001159667969, 13.069989204406738, 81.73414611816406, -28.611465454101562, 0.212158203125, -0.359130859375, -0.925048828125
539, 2526792652, -5.038702011108398, 1.9229503870010376, 9.025513648986816, 24.0709285736084, 124.08889770507812, -29.35153579711914, 0.2451171875, -0.3623046875, -0.913330078125
540, 2526809319, -5.411140441894531, 2.2856733798980713, 9.196019172668457, 29.776472091674805, 168.86947631835938, -35.925636291503906, 0.28466796875, -0.36767578125, -0.89599609375
541, 2526825986, -5.048275470733643, 3.188918352127075, 9.31191349029541, 31.23428726196289, 219.43077087402344, -50.68133544921875, 0.338134765625, -0.369873046875, -0.869384765625
542, 2526842653, -5.312461853027344, 4.253368377685547, 9.323330879211426, 25.572311401367188, 287.1145324707031, -80.74980926513672, 0.40625, -0.366943359375, -0.83203125
543, 2526859320, -5.741763591766357, 4.664679527282715, 9.369377136230469, 8.424054145812988, 366.70989990234375, -133.80091857910156, 0.494384765625, -0.349365234375, -0.776123046875
544, 2526875987, -9.354903221130371, 5.675159931182861, 11.851824760437012, 3.5996408462524414, 433.7010192871094, -184.10250854492188, 0.592529296875, -0.31640625, -0.70263671875
545, 2526892654, -14.436076164245605, 6.8614912033081055, 14.317187309265137, 6.7346577644348145, 482.47528076171875, -206.65151977539062, 0.69189453125, -0.269775390625, -0.601806640625
546, 2526909321, -23.49260711669922, 7.9584059715271, 17.348508834838867, 8.608498573303223, 462.4381408691406, -186.18113708496094, 0.7724609375, -0.220947265625, -0.48388671875
547, 2526925988, -20.496976852416992, 10.211857795715332, 19.068883895874023, -6.176872730255127, 380.23748779296875, -169.84967041015625, 0.825439453125, -0.16845703125, -0.374267578125
548, 2526942655, -8.6630859375, 6.403886795043945, 19.49875259399414, 4.332581520080566, 326.51995849609375, -167.363037109375, 0.85888671875, -0.118408203125, -0.27685546875
549, 2526959322, 3.74385929107666, 15.475116729736328, 18.731351852416992, -67.96011352539062, 271.5553894042969, -160.73167419433594, 0.87890625, -0.064697265625, -0.19873046875
550, 2526975989, -24.505496978759766, 18.605716705322266, 38.11564636230469, -86.5404281616211, 36.9810791015625, -9.8941650390625, 0.888671875, -0.048095703125, -0.162841796875
551, 2526992656, -3.7599828243255615, 9.73671817779541, 23.99927520751953, -102.95791625976562, -203.85484313964844, 81.37618255615234, 0.882568359375, -0.063232421875, -0.212890625
552, 2527009323, 2.1155476570129395, 3.625056743621826, 14.482795715332031, -90.89005279541016, -271.529296875, 101.29635620117188, 0.85986328125, -0.0869140625, -0.296142578125
553, 2527025990, 2.3729560375213623, 0.651481568813324, 9.61305046081543, -63.7692756652832, -287.8917541503906, 101.27388763427734, 0.814697265625, -0.11865234375, -0.384521484375
554, 2527042657, 1.004457950592041, -1.0277864933013916, 8.021485328674316, -25.211572647094727, -291.80267333984375, 103.27774047851562, 0.752685546875, -0.143310546875, -0.458251953125
555, 2527059324, -1.3312959671020508, 0.15596500039100647, 7.871776580810547, -4.348020076751709, -291.972900390625, 98.21829223632812, 0.68212890625, -0.167236328125, -0.517333984375
556, 2527075991, -5.341278553009033, 1.721422791481018, 8.985084533691406, -10.308341026306152, -306.9092712402344, 86.63060760498047, 0.60888671875, -0.185546875, -0.562255859375
557, 2527092658, -7.9255828857421875, 2.431666851043701, 9.204083442687988, -20.304859161376953, -341.35626220703125, 79.0140380859375, 0.535400390625, -0.193359375, -0.603759765625
558, 2527109325, -8.23556900024414, 2.341949224472046, 8.165565490722656, -14.781746864318848, -367.8459167480469, 78.43666076660156, 0.459716796875, -0.199462890625, -0.637939453125
559, 2527125992, -8.114794731140137, 2.9067471027374268, 6.688736438751221, 7.817831039428711, -366.3563232421875, 76.99368286132812, 0.38623046875, -0.211181640625, -0.662109375
560, 2527142659, -10.068894386291504, 4.975165367126465, 5.857974529266357, 27.25397300720215, -327.6003723144531, 65.08602905273438, 0.3291015625, -0.222412109375, -0.681396484375
561, 2527159326, -17.74801254272461, 7.53250789642334, 9.455718994140625, 43.96413040161133, -283.62640380859375, 64.57722473144531, 0.28515625, -0.243896484375, -0.694580078125
562, 2527175993, -29.631547927856445, 6.849470615386963, 12.256141662597656, 85.00590515136719, -294.4930725097656, 102.18286895751953, 0.236572265625, -0.275390625, -0.718505859375
563, 2527192660, -34.45609664916992, 8.134941101074219, 8.842550277709961, 108.55574798583984, -342.70928955078125, 141.901123046875, 0.1591796875, -0.321044921875, -0.742919921875
564, 2527209327, -35.00564193725586, 6.838997840881348, -0.14491355419158936, 66.10400390625, -351.0829162597656, 151.4958038330078, 0.052490234375, -0.357666015625, -0.75830078125
565, 2527225994, -34.35435104370117, 1.5235166549682617, -9.558638572692871, 29.313383102416992, -300.040283203125, 146.2949676513672, -0.048583984375, -0.371337890625, -0.751220703125
566, 2527242661, -33.12351989746094, -4.312796592712402, -13.872028350830078, 42.56728744506836, -204.7845916748047, 138.6291046142578, -0.122314453125, -0.378173828125, -0.733642578125
567, 2527259328, -32.73603820800781, -10.14901065826416, -15.630025863647461, 68.40765380859375, -118.3141098022461, 127.56253051757812, -0.168701171875, -0.38671875, -0.71533203125
568, 2527275995, -25.321632385253906, -10.764453887939453, -19.583890914916992, -1.7480666637420654, 28.67627716064453, 57.7812614440918, -0.184326171875, -0.3876953125, -0.70751953125
569, 2527292662, -21.010639190673828, -14.930707931518555, -8.560990333557129, -78.40025329589844, 172.59010314941406, -58.869529724121094, -0.153564453125, -0.373779296875, -0.716552734375
570, 2527309329, -11.826601028442383, 1.841699242591858, 26.008747100830078, -50.494232177734375, 76.98870849609375, -74.90118408203125, -0.12744140625, -0.361083984375, -0.721923828125
571, 2527325996, 3.5054991245269775, 1.1187915802001953, 3.0953097343444824, -50.84117126464844, 64.67363739013672, -100.04170989990234, -0.1123046875, -0.354248046875, -0.72509765625
572, 2527342663, -11.930212020874023, 4.240753173828125, 12.899312973022461, -46.448150634765625, 147.8189697265625, -46.91694259643555, -0.08056640625, -0.343994140625, -0.73291015625
573, 2527359330, -10.920574188232422, -2.1294455528259277, 12.403936386108398, -46.70957565307617, 122.20402526855469, -47.94089889526367, -0.051025390625, -0.33349609375, -0.7314453125
574, 2527375997, -9.51350212097168, -0.11915798485279083, 11.132184028625488, -17.561403274536133, 92.20285034179688, -49.66252517700195, -0.02783203125, -0.3291015625, -0.73095703125
575, 2527392664, -5.612369060516357, 4.906245708465576, 7.759402275085449, -12.965063095092773, 83.55706024169922, -36.5902099609375, -0.01025390625, -0.327392578125, -0.728759765625
576, 2527409331, -8.01616096496582, 5.106064319610596, 10.647439002990723, -26.809194564819336, 84.55501556396484, -33.96263885498047, 0.01025390625, -0.323486328125, -0.730224609375
577, 2527425998, -11.66000747680664, 2.9555416107177734, 9.411673545837402, -54.958587646484375, 26.18895721435547, -34.5822868347168, 0.023193359375, -0.3125, -0.733154296875
578, 2527442665, -5.8080291748046875, 2.6261444091796875, 9.562918663024902, -34.54448318481445, 12.231815338134766, -23.418970108032227, 0.0263671875, -0.302490234375, -0.74072265625
579, 2527459332, -5.836871147155762, 1.8032540082931519, 8.814756393432617, -22.57289695739746, 8.402034759521484, -16.503414154052734, 0.0283203125, -0.298095703125, -0.736572265625
580, 2527475999, -5.348462104797363, 2.278658628463745, 8.448394775390625, -16.47154426574707, 9.116517066955566, -12.349735260009766, 0.033935546875, -0.2939453125, -0.736083984375
581, 2527492666, -5.600003719329834, 1.8284645080566406, 8.234373092651367, -10.533462524414062, 6.620357036590576, -9.62796401977539, 0.036376953125, -0.29150390625, -0.737060546875
582, 2527509333, -5.4221696853637695, 2.2624034881591797, 8.10422134399414, -10.190032005310059, 2.9463396072387695, -9.573904991149902, 0.037841796875, -0.2900390625, -0.739990234375
583, 2527526000, -5.209299087524414, 2.1146864891052246, 7.906349182128906, -10.685342788696289, 0.3663322329521179, -9.806147575378418, 0.038818359375, -0.28857421875, -0.738525390625
584, 2527542667, -5.1094136238098145, 1.8279285430908203, 8.02886962890625, -6.7369489669799805, 0.8219566345214844, -8.130690574645996, 0.038818359375, -0.28662109375, -0.736083984375
585, 2527559334, -4.784600257873535, 2.139796733856201, 8.159821510314941, -3.537639856338501, 2.1818509101867676, -8.811156272888184, 0.040283203125, -0.28515625, -0.735595703125
586, 2527576001, -5.248793601989746, 2.1104445457458496, 8.03777027130127, -2.737217664718628, 2.68182373046875, -10.172945976257324, 0.04296875, -0.28662109375, -0.736328125
587, 2527592668, -5.467649459838867, 1.9846761226654053, 8.02849006652832, -1.7563273906707764, 3.26434588432312, -9.199649810791016, 0.04443359375, -0.2890625, -0.73828125
588, 2527609335, -5.583145618438721, 1.9987980127334595, 7.912196636199951, -0.9025917053222656, 2.1145272254943848, -7.672348976135254, 0.0439453125, -0.28759765625, -0.736328125
589, 2527626002, -5.305723190307617, 2.237891674041748, 7.95412540435791, -0.5686916708946228, 0.3939681947231293, -7.691378593444824, 0.0458984375, -0.28955078125, -0.73681640625
590, 2527642669, -5.174676895141602, 2.1280744075775146, 8.03119945526123, 1.1292961835861206, 1.9805471897125244, -7.530531883239746, 0.044921875, -0.28759765625, -0.73681640625
591, 2527659336, -5.025122165679932, 2.1066839694976807, 8.13899040222168, 2.8309149742126465, 5.471841335296631, -8.280050277709961, 0.04931640625, -0.28759765625, -0.733154296875
592, 2527676003, -5.123601913452148, 2.0917911529541016, 8.088294982910156, 6.471854209899902, 9.302443504333496, -11.351916313171387, 0.05029296875, -0.2890625, -0.730712890625
593, 2527692670, -5.02703332901001, 2.065051555633545, 8.195721626281738, 9.05181884765625, 16.02992057800293, -11.73180103302002, 0.054931640625, -0.290283203125, -0.73291015625
594, 2527709337, -4.789258003234863, 2.652055025100708, 8.462458610534668, 12.570560455322266, 26.449914932250977, -13.440633773803711, 0.0615234375, -0.293701171875, -0.730224609375
595, 2527726004, -4.49885892868042, 2.5797855854034424, 9.054875373840332, 17.174663543701172, 45.36977767944336, -18.61675453186035, 0.06982421875, -0.296875, -0.726806640625
596, 2527742671, -4.3706231117248535, 2.04679799079895, 9.265251159667969, 25.553489685058594, 77.40618896484375, -22.117658615112305, 0.08642578125, -0.30126953125, -0.72265625
597, 2527759338, -4.547725677490234, 2.188706398010254, 9.488004684448242, 37.59263610839844, 118.18633270263672, -27.980018615722656, 0.111572265625, -0.30908203125, -0.71435546875
598, 2527776005, -5.138124465942383, 2.681276798248291, 9.73684310913086, 45.4057731628418, 161.8001708984375, -38.938289642333984, 0.142578125, -0.317626953125, -0.700927734375
599, 2527792672, -4.693208694458008, 3.0791208744049072, 9.618796348571777, 40.55690383911133, 212.62628173828125, -56.27824401855469, 0.186767578125, -0.322509765625, -0.685791015625
600, 2527809339, -5.325037002563477, 3.782000780105591, 9.504781723022461, 42.59143829345703, 282.71527099609375, -83.86710357666016, 0.246826171875, -0.32470703125, -0.661865234375
601, 2527826006, -5.765990257263184, 4.221088886260986, 9.421345710754395, 26.014467239379883, 357.641845703125, -125.28378295898438, 0.31787109375, -0.3173828125, -0.623779296875
602, 2527842673, -8.111976623535156, 4.913578510284424, 11.572805404663086, 19.844615936279297, 427.2962951660156, -166.86416625976562, 0.40478515625, -0.30322265625, -0.5703125
603, 2527859340, -11.755824089050293, 6.186226844787598, 13.67110824584961, 25.458908081054688, 481.2232666015625, -189.68508911132812, 0.494873046875, -0.2783203125, -0.498046875
604, 2527876007, -21.01275634765625, 7.256723403930664, 16.37480926513672, 33.84528350830078, 467.5701599121094, -170.41619873046875, 0.57275390625, -0.24951171875, -0.4111328125
605, 2527892674, -19.221630096435547, 7.529259204864502, 16.92342758178711, 24.6605281829834, 396.77142333984375, -154.66555786132812, 0.633056640625, -0.2158203125, -0.321533203125
606, 2527909341, -10.89126205444336, 6.500959873199463, 17.29441261291504, 23.69112777709961, 333.0800476074219, -152.73654174804688, 0.673095703125, -0.180419921875, -0.241943359375
607, 2527926008, 3.756944417953491, 10.393075942993164, 18.625160217285156, -5.675708293914795, 285.5286865234375, -174.2682342529297, 0.700927734375, -0.136474609375, -0.163330078125
608, 2527942675, -26.326087951660156, 19.766155242919922, 36.75750732421875, -31.569128036499023, 99.36540985107422, -61.198631286621094, 0.713134765625, -0.099609375, -0.10791015625
609, 2527959342, -6.794722080230713, 13.680970191955566, 26.459087371826172, -65.88057708740234, -227.2633819580078, 67.24651336669922, 0.711669921875, -0.086669921875, -0.11328125
610, 2527976009, 5.415936470031738, 5.665858745574951, 13.701492309570312, -88.65458679199219, -287.2825012207031, 96.16734313964844, 0.72802734375, -0.077880859375, -0.1416015625
611, 2527992676, 4.100780963897705, 1.2216696739196777, 8.890739440917969, -83.66864013671875, -268.7605285644531, 90.96052551269531, 0.765625, -0.068359375, -0.178466796875
612, 2528009343, 0.7000889778137207, -0.8235263824462891, 8.160604476928711, -49.47742462158203, -264.8093566894531, 92.26499938964844, 0.814697265625, -0.067138671875, -0.25439453125
613, 2528026010, -2.15152907371521, 0.7124385833740234, 8.056539535522461, -25.86357307434082, -276.89599609375, 88.18242645263672, 0.845703125, -0.08056640625, -0.373046875
614, 2528042677, -4.912356853485107, 2.284754753112793, 8.596965789794922, -26.93632698059082, -295.73492431640625, 80.01659393310547, 0.816650390625, -0.093017578125, -0.51611328125
615, 2528059344, -7.305612087249756, 2.6421172618865967, 8.77175235748291, -30.412885665893555, -322.2669372558594, 81.50589752197266, 0.736083984375, -0.106201171875, -0.6376953125
616, 2528076011, -7.259047031402588, 2.474385976791382, 7.439154148101807, -23.585630416870117, -340.9565124511719, 89.795166015625, 0.62744140625, -0.1083984375, -0.72998046875
617, 2528092678, -7.092088222503662, 2.4164955615997314, 6.1781182289123535, -10.990252494812012, -329.0391845703125, 90.76887512207031, 0.52392578125, -0.107666015625, -0.789794921875
618, 2528109345, -7.986999988555908, 2.8109073638916016, 6.191867828369141, -0.6803162693977356, -293.54022216796875, 80.69851684570312, 0.43408203125, -0.11474609375, -0.83642578125
619, 2528126012, -12.149910926818848, 3.8735461235046387, 9.325654029846191, 13.720849990844727, -258.7625732421875, 69.05477142333984, 0.3427734375, -0.122802734375, -0.8701171875
620, 2528142679, -17.893051147460938, 4.464819431304932, 11.903383255004883, 45.35960006713867, -261.5635681152344, 70.9781265258789, 0.2509765625, -0.1337890625, -0.885986328125
621, 2528159346, -23.15105438232422, 3.471309185028076, 11.527632713317871, 82.91717529296875, -272.524658203125, 81.13172149658203, 0.1630859375, -0.15625, -0.8857421875
622, 2528176013, -27.554147720336914, 2.159764528274536, 7.669517517089844, 112.70911407470703, -278.92926025390625, 85.05223846435547, 0.079345703125, -0.1962890625, -0.879150390625
623, 2528192680, -32.49822235107422, 2.1499240398406982, 3.3406448364257812, 118.22708129882812, -275.4444580078125, 85.35050201416016, -0.001220703125, -0.239501953125, -0.868896484375
624, 2528209347, -33.78646469116211, 1.4553183317184448, -2.6986584663391113, 95.48868560791016, -266.10894775390625, 89.34612274169922, -0.078125, -0.27197265625, -0.85107421875
625, 2528226014, -31.28756332397461, -4.0087571144104, -10.04257583618164, 68.60533142089844, -224.087646484375, 88.70729064941406, -0.14501953125, -0.29443359375, -0.83154296875
626, 2528242681, -28.111310958862305, -10.991585731506348, -19.166032791137695, 52.42810821533203, -112.15262603759766, 60.515682220458984, -0.1865234375, -0.30859375, -0.81201171875
627, 2528259348, -28.626277923583984, -12.821868896484375, -20.779499053955078, -4.216195583343506, 46.16844177246094, -19.92534828186035, -0.1875, -0.3115234375, -0.806396484375
628, 2528276015, -24.091140747070312, -11.401004791259766, -12.168502807617188, -77.32749938964844, 157.83441162109375, -112.71759796142578, -0.15185546875, -0.29736328125, -0.816162109375
629, 2528292682, -14.261666297912598, 5.884244441986084, 26.11022186279297, -68.55322265625, 110.38798522949219, -101.54020690917969, -0.111572265625, -0.279541015625, -0.82470703125
630, 2528309349, -1.4684854745864868, 6.263739109039307, 6.347788333892822, -52.964698791503906, 45.159568786621094, -90.65982818603516, -0.096923828125, -0.265625, -0.83251953125
631, 2528326016, -10.067451477050781, -0.009232334792613983, 10.902244567871094, -42.36690902709961, 108.71000671386719, -40.58858871459961, -0.0693359375, -0.253173828125, -0.8359375
632, 2528342683, -8.833587646484375, -2.225403308868408, 10.794262886047363, -34.64828109741211, 86.50947570800781, -44.423526763916016, -0.044677734375, -0.242431640625, -0.8359375
633, 2528359350, -5.102710723876953, 1.8177229166030884, 8.128726959228516, -16.89610481262207, 89.20402526855469, -44.711299896240234, -0.023681640625, -0.236572265625, -0.83837890625
634, 2528376017, -5.5575270652771, 2.905606985092163, 7.999563694000244, -12.05902099609375, 103.18669128417969, -29.75825309753418, 0.0, -0.232666015625, -0.838134765625
635, 2528392684, -17.678956985473633, 5.99464750289917, 13.48935317993164, -38.902740478515625, 55.22800064086914, -32.87268829345703, 0.021484375, -0.220703125, -0.837158203125
636, 2528409351, -4.8622965812683105, 0.006080080755054951, 9.212261199951172, -6.22083854675293, 23.254274368286133, -8.324606895446777, 0.029052734375, -0.2177734375, -0.840576171875
637, 2528426018, -6.595221042633057, 2.92097806930542, 8.34742546081543, 1.644190788269043, 20.83562660217285, -1.3343214988708496, 0.03125, -0.216796875, -0.83984375
638, 2528442685, -5.654788970947266, 2.3037171363830566, 8.406322479248047, 10.296011924743652, 20.45488739013672, 3.088634967803955, 0.03759765625, -0.221435546875, -0.838134765625
639, 2528459352, -5.783680438995361, 2.4159631729125977, 8.098169326782227, 12.303526878356934, 20.315488815307617, 2.667267322540283, 0.043212890625, -0.222412109375, -0.8349609375
640, 2528476019, -5.315674304962158, 2.5935051441192627, 7.899877071380615, 12.929717063903809, 18.70522689819336, 1.6497489213943481, 0.048828125, -0.2275390625, -0.833740234375
641, 2528492686, -5.286574840545654, 2.5172300338745117, 7.919613838195801, 12.666777610778809, 18.97296714782715, -0.12379920482635498, 0.05322265625, -0.23095703125, -0.83154296875
642, 2528509353, -5.494321346282959, 2.743906021118164, 7.836573123931885, 10.624159812927246, 19.13376235961914, -3.003798484802246, 0.057861328125, -0.234619140625, -0.832275390625
643, 2528526020, -5.741136074066162, 2.731919765472412, 7.634385585784912, 8.142742156982422, 16.99216079711914, -5.559013843536377, 0.062255859375, -0.237548828125, -0.83056640625
644, 2528542687, -5.8252458572387695, 3.069934129714966, 7.474013328552246, 4.2528581619262695, 13.235150337219238, -8.429991722106934, 0.066162109375, -0.237060546875, -0.827392578125
645, 2528559354, -6.019705295562744, 2.723201036453247, 7.535586357116699, 1.2432348728179932, 8.999521255493164, -10.033191680908203, 0.0712890625, -0.237548828125, -0.826171875
646, 2528576021, -5.838573455810547, 2.590223550796509, 7.5250701904296875, 0.2528294324874878, 5.46080207824707, -7.6738739013671875, 0.07080078125, -0.2392578125, -0.826171875
647, 2528592688, -5.678277015686035, 2.7381556034088135, 7.573045253753662, -0.5242152214050293, 3.5400915145874023, -7.0934247970581055, 0.074462890625, -0.23974609375, -0.828125
648, 2528609355, -5.66130256652832, 2.9729502201080322, 7.416841506958008, -2.8368756771087646, 0.6497622728347778, -8.272364616394043, 0.07275390625, -0.23974609375, -0.82666015625
649, 2528626022, -5.635995864868164, 3.113661050796509, 7.344358444213867, -6.2267584800720215, -2.4070699214935303, -10.407444953918457, 0.07373046875, -0.23779296875, -0.8271484375
