sep=,
DeviceTag:,A,,,,,,,,,,,,,,,,,
FirmwareVersion:,2.2.1,,,,,,,,,,,,,,,,,
AppVersion:,2022.0.1,,,,,,,,,,,,,,,,,
SyncStatus:,Synced,,,,,,,,,,,,,,,,,
OutputRate:,60Hz,,,,,,,,,,,,,,,,,
FilterProfile:,General,,,,,,,,,,,,,,,,,
Measurement Mode:,Inertial Mode - Rate quantities (with mag),,,,,,,,,,,,,,,,,
StartTime:,2022-08-05 16:45:07.433 +0300,,,,,,,,,,,,,,,,,
© Xsens Technologies B. V. 2005-2022,,,,,,,,,,,,,,,,,,,

PacketCounter,SampleTimeFine,Acc_X,Acc_Y,Acc_Z,Gyr_X,Gyr_Y,Gyr_Z,Mag_X,Mag_Y,Mag_Z
1, 3354475872, -5.276554584503174, 2.0941708087921143, 8.039044380187988, -2.54124116897583, -1.3894250392913818, -2.540114164352417, 0.053955078125, -0.19921875, -0.80517578125
2, 3354492539, -5.2883172035217285, 2.089054822921753, 8.027586936950684, -2.6080901622772217, -1.4832186698913574, -2.4714081287384033, 0.057373046875, -0.19921875, -0.803466796875
3, 3354509206, -5.2693586349487305, 2.1008620262145996, 8.009109497070312, -2.6087944507598877, -1.5805469751358032, -2.433257579803467, 0.056396484375, -0.1982421875, -0.802490234375
4, 3354525873, -5.273373603820801, 2.1016271114349365, 8.016242027282715, -2.659571886062622, -1.5762571096420288, -2.4817047119140625, 0.054931640625, -0.197265625, -0.802978515625
5, 3354542540, -5.262346267700195, 2.1036713123321533, 8.023381233215332, -2.5517165660858154, -1.4416236877441406, -2.45829439163208, 0.056884765625, -0.2001953125, -0.804443359375
6, 3354559207, -5.254731178283691, 2.0891036987304688, 8.030730247497559, -2.563908338546753, -1.2711199522018433, -2.5728983879089355, 0.055419921875, -0.19921875, -0.8095703125
7, 3354575874, -5.284332752227783, 2.1041440963745117, 8.021751403808594, -2.513233184814453, -1.3086678981781006, -2.4729957580566406, 0.056396484375, -0.20068359375, -0.803466796875
8, 3354592541, -5.275602340698242, 2.101092576980591, 8.03712272644043, -2.546081781387329, -1.2885749340057373, -2.458063840866089, 0.056884765625, -0.19873046875, -0.803955078125
9, 3354609208, -5.26259183883667, 2.1037070751190186, 8.029390335083008, -2.5426371097564697, -1.5155420303344727, -2.447293996810913, 0.058349609375, -0.19921875, -0.802490234375
10, 3354625875, -5.270338535308838, 2.1011359691619873, 8.031452178955078, -2.6879122257232666, -1.4964350461959839, -2.5043463706970215, 0.056396484375, -0.19873046875, -0.803466796875
11, 3354642542, -5.281155586242676, 2.089714288711548, 8.023189544677734, -2.5533816814422607, -1.5560230016708374, -2.378971815109253, 0.055419921875, -0.20068359375, -0.802490234375
12, 3354659209, -5.282100677490234, 2.083935260772705, 8.034102439880371, -2.5181639194488525, -1.5349820852279663, -2.3384010791778564, 0.0537109375, -0.2001953125, -0.80419921875
13, 3354675876, -5.271133899688721, 2.122333288192749, 8.031973838806152, -2.4431698322296143, -1.3796025514602661, -2.3752963542938232, 0.054931640625, -0.19677734375, -0.80322265625
14, 3354692543, -5.2624831199646, 2.105520486831665, 8.021721839904785, -2.4024202823638916, -1.4299442768096924, -2.436075210571289, 0.0546875, -0.19873046875, -0.802001953125
15, 3354709210, -5.28101921081543, 2.0993306636810303, 8.009231567382812, -2.2860870361328125, -1.3401204347610474, -2.446742534637451, 0.053955078125, -0.19873046875, -0.8056640625
16, 3354725877, -5.284022808074951, 2.0885634422302246, 8.018433570861816, -2.3685343265533447, -1.333064317703247, -2.3613884449005127, 0.055908203125, -0.19921875, -0.802490234375
17, 3354742544, -5.268144130706787, 2.1088197231292725, 8.020597457885742, -2.346212863922119, -1.3373160362243652, -2.2838845252990723, 0.0546875, -0.1982421875, -0.801025390625
18, 3354759211, -5.280869483947754, 2.1082377433776855, 8.021002769470215, -2.4047763347625732, -1.4967806339263916, -2.368547201156616, 0.056884765625, -0.20068359375, -0.803466796875
19, 3354775878, -5.2592878341674805, 2.1061136722564697, 8.011185646057129, -2.577098846435547, -1.5980404615402222, -2.4729321002960205, 0.056396484375, -0.2001953125, -0.803955078125
20, 3354792545, -5.260220527648926, 2.1157615184783936, 8.043586730957031, -2.5700552463531494, -1.538222074508667, -2.4546444416046143, 0.05517578125, -0.20068359375, -0.800537109375
21, 3354809212, -5.24632453918457, 2.113863945007324, 8.026007652282715, -2.641848087310791, -1.4155244827270508, -2.607219696044922, 0.054931640625, -0.20068359375, -0.80810546875
22, 3354825879, -5.278159141540527, 2.105762004852295, 8.047411918640137, -2.5215065479278564, -1.4041523933410645, -2.5966286659240723, 0.055419921875, -0.2001953125, -0.801513671875
23, 3354842546, -5.267315864562988, 2.1150219440460205, 8.009778022766113, -2.6933038234710693, -1.3097823858261108, -2.5171525478363037, 0.0546875, -0.19873046875, -0.802978515625
24, 3354859213, -5.277398109436035, 2.0932765007019043, 8.030500411987305, -2.614967107772827, -1.3856472969055176, -2.511594533920288, 0.055419921875, -0.2001953125, -0.802978515625
25, 3354875880, -5.268041610717773, 2.110196590423584, 8.012731552124023, -2.5987162590026855, -1.401565670967102, -2.475506067276001, 0.055908203125, -0.19775390625, -0.803955078125
26, 3354892547, -5.270235538482666, 2.113269567489624, 7.997379302978516, -2.6185405254364014, -1.3672831058502197, -2.5207767486572266, 0.055419921875, -0.2001953125, -0.802490234375
27, 3354909214, -5.269261837005615, 2.1034774780273438, 8.004331588745117, -2.5778543949127197, -1.3317581415176392, -2.5085337162017822, 0.055908203125, -0.19970703125, -0.801513671875
28, 3354925881, -5.262508869171143, 2.106407642364502, 8.010933876037598, -2.562896490097046, -1.393061876296997, -2.461021900177002, 0.055419921875, -0.1982421875, -0.803955078125
29, 3354942548, -5.274881839752197, 2.105454206466675, 8.024715423583984, -2.6794729232788086, -1.422965168952942, -2.5289087295532227, 0.05517578125, -0.20166015625, -0.800537109375
30, 3354959215, -5.284966945648193, 2.1066415309906006, 8.025151252746582, -2.6571898460388184, -1.448987603187561, -2.4826395511627197, 0.055419921875, -0.19873046875, -0.803466796875
31, 3354975882, -5.276465892791748, 2.116842746734619, 8.032092094421387, -2.6719810962677, -1.3724180459976196, -2.4475369453430176, 0.055908203125, -0.19921875, -0.802978515625
32, 3354992549, -5.2692742347717285, 2.100170135498047, 8.002848625183105, -2.6808817386627197, -1.4549808502197266, -2.5286781787872314, 0.056396484375, -0.1982421875, -0.802490234375
33, 3355009216, -5.252726078033447, 2.1059300899505615, 8.031213760375977, -2.698976755142212, -1.4621011018753052, -2.5174853801727295, 0.058349609375, -0.1982421875, -0.802490234375
34, 3355025883, -5.260634899139404, 2.113694429397583, 8.010009765625, -2.731940269470215, -1.397147297859192, -2.5879201889038086, 0.05419921875, -0.19921875, -0.8037109375
35, 3355042550, -5.264762878417969, 2.100254774093628, 8.032934188842773, -2.797137498855591, -1.353029489517212, -2.631013870239258, 0.05419921875, -0.2001953125, -0.803955078125
36, 3355059217, -5.2783050537109375, 2.0823121070861816, 7.996158599853516, -2.7665817737579346, -1.3667963743209839, -2.6192703247070312, 0.056884765625, -0.1982421875, -0.803955078125
37, 3355075884, -5.279428005218506, 2.0796515941619873, 8.021815299987793, -2.752955675125122, -1.4519456624984741, -2.565790891647339, 0.054931640625, -0.2001953125, -0.802490234375
38, 3355092551, -5.262531280517578, 2.096029758453369, 8.034383773803711, -2.6624789237976074, -1.4169204235076904, -2.5032832622528076, 0.0537109375, -0.20068359375, -0.802001953125
39, 3355109218, -5.267994403839111, 2.0996158123016357, 8.014180183410645, -2.6940338611602783, -1.3171844482421875, -2.5274999141693115, 0.056884765625, -0.1982421875, -0.802490234375
40, 3355125885, -5.276525020599365, 2.0873637199401855, 8.023210525512695, -2.5999326705932617, -1.2904831171035767, -2.5555715560913086, 0.056396484375, -0.2001953125, -0.802978515625
41, 3355142552, -5.285650253295898, 2.0814387798309326, 8.015732765197754, -2.6854665279388428, -1.3732891082763672, -2.5708365440368652, 0.054931640625, -0.19873046875, -0.802978515625
42, 3355159219, -5.290690898895264, 2.0986552238464355, 8.014640808105469, -2.6030445098876953, -1.3256494998931885, -2.5166659355163574, 0.054931640625, -0.19775390625, -0.80419921875
43, 3355175886, -5.281973838806152, 2.1061251163482666, 8.025431632995605, -2.604081869125366, -1.4032174348831177, -2.557800054550171, 0.052734375, -0.2001953125, -0.80419921875
44, 3355192553, -5.266425132751465, 2.0970592498779297, 8.01819133758545, -2.5457236766815186, -1.4336967468261719, -2.466080904006958, 0.055908203125, -0.20068359375, -0.801513671875
45, 3355209220, -5.270333290100098, 2.107570171356201, 8.018954277038574, -2.5329039096832275, -1.3578317165374756, -2.4932427406311035, 0.055908203125, -0.19873046875, -0.800048828125
46, 3355225887, -5.272029399871826, 2.106426477432251, 8.00861930847168, -2.545799970626831, -1.2575708627700806, -2.503718376159668, 0.055908203125, -0.19921875, -0.802978515625
47, 3355242554, -5.2777910232543945, 2.1047561168670654, 8.023880958557129, -2.6549103260040283, -1.3302215337753296, -2.554367780685425, 0.055419921875, -0.19921875, -0.802490234375
48, 3355259221, -5.261788845062256, 2.096407175064087, 8.025375366210938, -2.58227276802063, -1.3920503854751587, -2.5297794342041016, 0.056396484375, -0.19873046875, -0.802978515625
49, 3355275888, -5.273233413696289, 2.09692120552063, 8.017635345458984, -2.4957656860351562, -1.3954951763153076, -2.457756519317627, 0.055419921875, -0.2001953125, -0.802490234375
50, 3355292555, -5.269807815551758, 2.1037867069244385, 7.998236656188965, -2.476529836654663, -1.2671881914138794, -2.4359467029571533, 0.054931640625, -0.19873046875, -0.802978515625
51, 3355309222, -5.264913558959961, 2.1024587154388428, 8.045860290527344, -2.495790958404541, -1.267021894454956, -2.4701144695281982, 0.056396484375, -0.1982421875, -0.800537109375
52, 3355325889, -5.274692535400391, 2.096064805984497, 8.013579368591309, -2.4336929321289062, -1.3069648742675781, -2.3722097873687744, 0.057373046875, -0.2001953125, -0.803466796875
53, 3355342556, -5.267711639404297, 2.1003401279449463, 8.022313117980957, -2.4718177318573, -1.3610204458236694, -2.459280490875244, 0.054931640625, -0.19873046875, -0.803955078125
54, 3355359223, -5.277658462524414, 2.1138854026794434, 8.034952163696289, -2.5364644527435303, -1.2800458669662476, -2.4886066913604736, 0.05419921875, -0.1982421875, -0.8037109375
55, 3355375890, -5.266280174255371, 2.103280782699585, 8.015900611877441, -2.5169601440429688, -1.4197505712509155, -2.5894570350646973, 0.055908203125, -0.19775390625, -0.801025390625
56, 3355392557, -5.252302646636963, 2.1168360710144043, 8.040282249450684, -2.464620351791382, -1.296566128730774, -2.544442653656006, 0.057373046875, -0.20166015625, -0.802001953125
57, 3355409224, -5.2692341804504395, 2.1096174716949463, 8.013336181640625, -2.476120710372925, -1.176775574684143, -2.6132895946502686, 0.056396484375, -0.19970703125, -0.802490234375
58, 3355425891, -5.277647972106934, 2.1021063327789307, 8.010076522827148, -2.5388078689575195, -1.1839855909347534, -2.585026264190674, 0.055419921875, -0.19921875, -0.801025390625
59, 3355442558, -5.280402183532715, 2.0945897102355957, 8.031034469604492, -2.5650227069854736, -1.2425490617752075, -2.537578582763672, 0.055908203125, -0.2001953125, -0.802490234375
60, 3355459225, -5.276035308837891, 2.103698253631592, 8.029012680053711, -2.554828405380249, -1.1872895956039429, -2.591762065887451, 0.055419921875, -0.201171875, -0.804443359375
61, 3355475892, -5.290637016296387, 2.1069395542144775, 7.991266250610352, -2.571425676345825, -1.2875889539718628, -2.564100503921509, 0.055419921875, -0.19970703125, -0.803466796875
62, 3355492559, -5.266146183013916, 2.1085994243621826, 8.011411666870117, -2.5537402629852295, -1.2628984451293945, -2.5770606994628906, 0.055908203125, -0.201171875, -0.802001953125
63, 3355509226, -5.275187015533447, 2.097376823425293, 8.032613754272461, -2.574371337890625, -1.198738694190979, -2.6935088634490967, 0.057373046875, -0.19970703125, -0.801025390625
64, 3355525893, -5.281327724456787, 2.0996649265289307, 8.031030654907227, -2.585397481918335, -1.1502794027328491, -2.561743974685669, 0.057861328125, -0.1982421875, -0.801025390625
65, 3355542560, -5.281459808349609, 2.1025164127349854, 8.022368431091309, -2.5914933681488037, -1.2817109823226929, -2.4880950450897217, 0.054931640625, -0.2001953125, -0.801513671875
66, 3355559227, -5.294684410095215, 2.093686819076538, 8.031599998474121, -2.562077283859253, -1.3157886266708374, -2.4951767921447754, 0.0546875, -0.19970703125, -0.802001953125
67, 3355575894, -5.281583309173584, 2.1101057529449463, 8.044174194335938, -2.5325841903686523, -1.3903985023498535, -2.491642475128174, 0.056396484375, -0.19970703125, -0.802978515625
68, 3355592561, -5.2685346603393555, 2.1100993156433105, 8.026663780212402, -2.5322508811950684, -1.2601064443588257, -2.557440996170044, 0.056884765625, -0.19921875, -0.803466796875
69, 3355609228, -5.278619766235352, 2.119178056716919, 8.026737213134766, -2.5413432121276855, -1.218319296836853, -2.660417079925537, 0.055908203125, -0.19921875, -0.802001953125
70, 3355625895, -5.292086124420166, 2.087899923324585, 8.004793167114258, -2.568096399307251, -1.352607011795044, -2.5328660011291504, 0.056884765625, -0.19970703125, -0.802490234375
71, 3355642562, -5.288090705871582, 2.0917065143585205, 8.012075424194336, -2.638249397277832, -1.4023467302322388, -2.439635753631592, 0.055908203125, -0.19970703125, -0.802001953125
72, 3355659229, -5.269256114959717, 2.0923683643341064, 8.015300750732422, -2.643320322036743, -1.368896484375, -2.441953420639038, 0.057373046875, -0.19970703125, -0.803466796875
73, 3355675896, -5.266480922698975, 2.1382460594177246, 8.02071475982666, -2.7289695739746094, -1.3475099802017212, -2.580902576446533, 0.055908203125, -0.19970703125, -0.8056640625
74, 3355692563, -5.28725528717041, 2.1048102378845215, 8.013232231140137, -2.795997381210327, -1.3724308013916016, -2.647879123687744, 0.055908203125, -0.19921875, -0.803466796875
75, 3355709230, -5.282047748565674, 2.099571704864502, 8.03530502319336, -2.8033225536346436, -1.4329792261123657, -2.7074029445648193, 0.056396484375, -0.19921875, -0.802001953125
76, 3355725897, -5.268167018890381, 2.096068859100342, 8.018404006958008, -2.6744911670684814, -1.3735580444335938, -2.5751266479492188, 0.0546875, -0.19921875, -0.800537109375
77, 3355742564, -5.2848992347717285, 2.0913546085357666, 8.012482643127441, -2.731774091720581, -1.357729434967041, -2.556877851486206, 0.055908203125, -0.19873046875, -0.802978515625
78, 3355759231, -5.285862445831299, 2.0944128036499023, 8.026908874511719, -2.624802350997925, -1.3636716604232788, -2.574960470199585, 0.055908203125, -0.19921875, -0.803955078125
79, 3355775898, -5.250854969024658, 2.08581280708313, 8.028922080993652, -2.6657190322875977, -1.310333013534546, -2.5075602531433105, 0.054443359375, -0.2001953125, -0.803955078125
80, 3355792565, -5.274893760681152, 2.0937232971191406, 8.021242141723633, -2.7054314613342285, -1.2090604305267334, -2.6386592388153076, 0.056884765625, -0.19921875, -0.802490234375
81, 3355809232, -5.288089752197266, 2.0931589603424072, 8.01718521118164, -2.6850435733795166, -1.247018575668335, -2.59367036819458, 0.05517578125, -0.19921875, -0.801513671875
82, 3355825899, -5.27675724029541, 2.099553346633911, 8.05872631072998, -2.6595077514648438, -1.3099232912063599, -2.5926713943481445, 0.055419921875, -0.19775390625, -0.802490234375
83, 3355842566, -5.283066749572754, 2.0848982334136963, 8.03836441040039, -2.64271879196167, -1.278816819190979, -2.5915699005126953, 0.055908203125, -0.19970703125, -0.801513671875
84, 3355859233, -5.277895927429199, 2.0905208587646484, 8.023737907409668, -2.525629758834839, -1.140136480331421, -2.589879274368286, 0.05419921875, -0.19970703125, -0.803466796875
85, 3355875900, -5.263311862945557, 2.1292760372161865, 8.0120210647583, -2.6193089485168457, -1.2300885915756226, -2.6302196979522705, 0.057861328125, -0.19970703125, -0.802978515625
86, 3355892567, -5.279106616973877, 2.090751886367798, 8.009279251098633, -2.6577789783477783, -1.1561191082000732, -2.5885608196258545, 0.058349609375, -0.19921875, -0.803955078125
87, 3355909234, -5.286493301391602, 2.0911145210266113, 8.025774002075195, -2.6101009845733643, -1.1782995462417603, -2.593132257461548, 0.057861328125, -0.19775390625, -0.802978515625
88, 3355925901, -5.268054485321045, 2.075333833694458, 8.010540008544922, -2.705111503601074, -1.2639869451522827, -2.5992541313171387, 0.055419921875, -0.19921875, -0.801513671875
89, 3355942568, -5.28132438659668, 2.079577922821045, 8.022637367248535, -2.645753860473633, -1.2819029092788696, -2.5287678241729736, 0.055908203125, -0.19921875, -0.801513671875
90, 3355959235, -5.27795934677124, 2.089923620223999, 8.013206481933594, -2.6555376052856445, -1.1739710569381714, -2.5885863304138184, 0.058349609375, -0.2001953125, -0.802490234375
91, 3355975902, -5.287379741668701, 2.09108304977417, 8.011801719665527, -2.5776240825653076, -1.2127999067306519, -2.6393635272979736, 0.056396484375, -0.1982421875, -0.802490234375
92, 3355992569, -5.266030311584473, 2.093724489212036, 8.018798828125, -2.601635694503784, -1.1621507406234741, -2.6763482093811035, 0.056884765625, -0.19921875, -0.803955078125
93, 3356009236, -5.276941299438477, 2.0822086334228516, 7.991288661956787, -2.557581901550293, -1.1233218908309937, -2.607987642288208, 0.057373046875, -0.19970703125, -0.802978515625
94, 3356025903, -5.272945880889893, 2.0933685302734375, 8.013189315795898, -2.4759538173675537, -1.0923175811767578, -2.6233553886413574, 0.056884765625, -0.19970703125, -0.802490234375
95, 3356042570, -5.2832536697387695, 2.096653461456299, 7.9944963455200195, -2.445615530014038, -1.0089480876922607, -2.582284927368164, 0.055908203125, -0.19970703125, -0.801513671875
96, 3356059237, -5.295715808868408, 2.0803887844085693, 8.017724990844727, -2.503654718399048, -1.0312443971633911, -2.7215161323547363, 0.057861328125, -0.19873046875, -0.801513671875
97, 3356075904, -5.306229591369629, 2.0990145206451416, 8.016189575195312, -2.5496292114257812, -1.1387536525726318, -2.6074116230010986, 0.057373046875, -0.19921875, -0.802978515625
98, 3356092571, -5.295202732086182, 2.0804197788238525, 8.033225059509277, -2.4901821613311768, -1.148691177368164, -2.458012342453003, 0.057373046875, -0.19873046875, -0.802490234375
99, 3356109238, -5.274212837219238, 2.09946608543396, 8.014376640319824, -2.4729576110839844, -1.234942078590393, -2.4971742630004883, 0.058837890625, -0.19775390625, -0.802001953125
100, 3356125905, -5.265152454376221, 2.1084117889404297, 8.001516342163086, -2.4707164764404297, -1.1644173860549927, -2.591032028198242, 0.057373046875, -0.2001953125, -0.803466796875
101, 3356142572, -5.2604827880859375, 2.1207821369171143, 7.9985785484313965, -2.6343562602996826, -1.1107076406478882, -2.7111687660217285, 0.059814453125, -0.19873046875, -0.802978515625
102, 3356159239, -5.304797172546387, 2.086622714996338, 8.025208473205566, -2.5685956478118896, -1.1063791513442993, -2.658726692199707, 0.055908203125, -0.19873046875, -0.802978515625
103, 3356175906, -5.309600830078125, 2.109956979751587, 8.019458770751953, -2.5274229049682617, -1.1337846517562866, -2.632627010345459, 0.058349609375, -0.19677734375, -0.803955078125
104, 3356192573, -5.283342361450195, 2.1066644191741943, 8.008696556091309, -2.6115353107452393, -1.244585394859314, -2.651670217514038, 0.055908203125, -0.2001953125, -0.801025390625
105, 3356209240, -5.293434143066406, 2.0668013095855713, 8.045790672302246, -2.5101089477539062, -1.1410331726074219, -2.6704957485198975, 0.056884765625, -0.19970703125, -0.801025390625
106, 3356225907, -5.304805278778076, 2.0912728309631348, 8.019035339355469, -2.582618236541748, -1.092727541923523, -2.6391842365264893, 0.057373046875, -0.19873046875, -0.801513671875
107, 3356242574, -5.303339004516602, 2.1057779788970947, 8.001336097717285, -2.5230307579040527, -1.2018121480941772, -2.6222925186157227, 0.058349609375, -0.19970703125, -0.802001953125
108, 3356259241, -5.319285869598389, 2.075852632522583, 8.016308784484863, -2.649250030517578, -1.3251501321792603, -2.602442979812622, 0.057373046875, -0.201171875, -0.802490234375
109, 3356275908, -5.290933132171631, 2.1036038398742676, 8.012947082519531, -2.7620739936828613, -1.5018905401229858, -2.5281403064727783, 0.057861328125, -0.19873046875, -0.802490234375
110, 3356292575, -5.278670787811279, 2.089715003967285, 8.018521308898926, -2.7393298149108887, -1.4969472885131836, -2.5031933784484863, 0.058837890625, -0.19970703125, -0.801025390625
111, 3356309242, -5.298488616943359, 2.089056968688965, 8.010611534118652, -2.7215416431427, -1.3825993537902832, -2.549514055252075, 0.057373046875, -0.1982421875, -0.799072265625
112, 3356325909, -5.302966594696045, 2.0784013271331787, 8.004082679748535, -2.7519311904907227, -1.4133217334747314, -2.5691208839416504, 0.058837890625, -0.19921875, -0.804931640625
113, 3356342576, -5.303596019744873, 2.0890276432037354, 8.006423950195312, -2.727778673171997, -1.4659816026687622, -2.532520055770874, 0.056884765625, -0.19970703125, -0.802490234375
114, 3356359243, -5.2920122146606445, 2.0990190505981445, 8.035846710205078, -2.7486658096313477, -1.5084729194641113, -2.5738205909729004, 0.057861328125, -0.1982421875, -0.802978515625
115, 3356375910, -5.300586223602295, 2.1023507118225098, 7.99776029586792, -2.835453748703003, -1.5792661905288696, -2.5105438232421875, 0.058837890625, -0.19921875, -0.803955078125
116, 3356392577, -5.284974575042725, 2.0786595344543457, 8.014185905456543, -2.8422155380249023, -1.5437285900115967, -2.5073297023773193, 0.056396484375, -0.1982421875, -0.802978515625
117, 3356409244, -5.285985469818115, 2.084456205368042, 8.029603004455566, -2.769207239151001, -1.408698558807373, -2.55448317527771, 0.060302734375, -0.19921875, -0.80126953125
118, 3356425911, -5.305470943450928, 2.0883078575134277, 8.004106521606445, -2.763251781463623, -1.3620193004608154, -2.6696243286132812, 0.057861328125, -0.19921875, -0.801513671875
119, 3356442578, -5.3051652908325195, 2.0785164833068848, 8.023575782775879, -2.6749267578125, -1.30646550655365, -2.565624475479126, 0.059326171875, -0.1982421875, -0.803466796875
120, 3356459245, -5.29864501953125, 2.071141242980957, 8.018335342407227, -2.699873447418213, -1.4061758518218994, -2.532520294189453, 0.056884765625, -0.19921875, -0.802490234375
121, 3356475912, -5.293964862823486, 2.1050620079040527, 8.011052131652832, -2.738075017929077, -1.4224399328231812, -2.5689542293548584, 0.057373046875, -0.19970703125, -0.804931640625
122, 3356492579, -5.274776935577393, 2.0894522666931152, 8.005558013916016, -2.7906064987182617, -1.2847204208374023, -2.6309239864349365, 0.058837890625, -0.19775390625, -0.804443359375
123, 3356509246, -5.283720970153809, 2.088799238204956, 7.996642112731934, -2.7963943481445312, -1.1559652090072632, -2.755209445953369, 0.058837890625, -0.19873046875, -0.802001953125
124, 3356525913, -5.30281400680542, 2.078143835067749, 8.00124454498291, -2.7612671852111816, -1.1850740909576416, -2.668510675430298, 0.056396484375, -0.197265625, -0.801025390625
125, 3356542580, -5.311166286468506, 2.0801682472229004, 8.019089698791504, -2.7222845554351807, -1.1744447946548462, -2.567647933959961, 0.057373046875, -0.19775390625, -0.801513671875
126, 3356559247, -5.293353080749512, 2.0719962120056152, 7.999978065490723, -2.5789687633514404, -1.182256817817688, -2.6081671714782715, 0.058349609375, -0.197265625, -0.804443359375
127, 3356575914, -5.293813705444336, 2.0923523902893066, 8.038678169250488, -2.6049399375915527, -1.157053828239441, -2.6558964252471924, 0.059326171875, -0.19677734375, -0.803955078125
128, 3356592581, -5.293148040771484, 2.0854592323303223, 8.002509117126465, -2.671212673187256, -1.1395859718322754, -2.7568745613098145, 0.059326171875, -0.20068359375, -0.80078125
129, 3356609248, -5.292759418487549, 2.07993483543396, 8.017441749572754, -2.630988359451294, -1.2297042608261108, -2.7643280029296875, 0.056884765625, -0.2001953125, -0.801513671875
130, 3356625915, -5.312921524047852, 2.0569844245910645, 8.002899169921875, -2.6466758251190186, -1.0075525045394897, -2.846954584121704, 0.058837890625, -0.1982421875, -0.801513671875
131, 3356642582, -5.299056053161621, 2.073153018951416, 7.990595817565918, -2.61624813079834, -1.1047526597976685, -2.7323503494262695, 0.057861328125, -0.19677734375, -0.801025390625
132, 3356659249, -5.318204879760742, 2.0704121589660645, 8.022490501403809, -2.478489637374878, -1.0774109363555908, -2.6448440551757812, 0.058349609375, -0.19970703125, -0.804443359375
133, 3356675916, -5.2782206535339355, 2.0968987941741943, 7.996243000030518, -2.615210771560669, -1.0575742721557617, -2.630821704864502, 0.059814453125, -0.19775390625, -0.802490234375
134, 3356692583, -5.303684234619141, 2.1022989749908447, 7.9937744140625, -2.618027925491333, -1.1421345472335815, -2.7807326316833496, 0.056884765625, -0.1982421875, -0.801025390625
135, 3356709250, -5.326628684997559, 2.0826146602630615, 8.018447875976562, -2.679741382598877, -1.2532293796539307, -2.818549394607544, 0.061279296875, -0.1982421875, -0.802490234375
136, 3356725917, -5.310841083526611, 2.0854978561401367, 7.998597145080566, -2.7274584770202637, -1.3574861288070679, -2.6229970455169678, 0.060791015625, -0.1982421875, -0.802001953125
137, 3356742584, -5.319062232971191, 2.069568395614624, 7.981812000274658, -2.664541006088257, -1.3244329690933228, -2.468693256378174, 0.059326171875, -0.19970703125, -0.802978515625
138, 3356759251, -5.286031246185303, 2.0975871086120605, 8.003724098205566, -2.6463046073913574, -1.404715895652771, -2.6530277729034424, 0.059814453125, -0.1962890625, -0.802978515625
139, 3356775918, -5.283481121063232, 2.0818607807159424, 8.007485389709473, -2.7860732078552246, -1.245033621788025, -2.6771295070648193, 0.058837890625, -0.1982421875, -0.804931640625
140, 3356792585, -5.301887035369873, 2.061915159225464, 8.013686180114746, -2.7890307903289795, -1.3560515642166138, -2.6800103187561035, 0.059814453125, -0.19970703125, -0.802490234375
141, 3356809252, -5.302240371704102, 2.0899977684020996, 8.023979187011719, -2.7045092582702637, -1.3158910274505615, -2.589277982711792, 0.057373046875, -0.197265625, -0.801513671875
142, 3356825919, -5.3038530349731445, 2.0809214115142822, 8.005071640014648, -2.7398934364318848, -1.2882548570632935, -2.627363681793213, 0.057373046875, -0.19921875, -0.802490234375
143, 3356842586, -5.308075428009033, 2.0705726146698, 8.002791404724121, -2.6846723556518555, -1.3260722160339355, -2.661454200744629, 0.058349609375, -0.19775390625, -0.801513671875
144, 3356859253, -5.308356285095215, 2.0609657764434814, 8.036054611206055, -2.7196462154388428, -1.305415391921997, -2.6553843021392822, 0.059814453125, -0.19775390625, -0.802978515625
145, 3356875920, -5.2988786697387695, 2.0675666332244873, 8.013493537902832, -2.7674143314361572, -1.2554066181182861, -2.6894233226776123, 0.058837890625, -0.197265625, -0.802978515625
146, 3356892587, -5.301140308380127, 2.0714948177337646, 8.000829696655273, -2.825913429260254, -1.1527124643325806, -2.6257500648498535, 0.058349609375, -0.1982421875, -0.803955078125
147, 3356909254, -5.297603130340576, 2.061027765274048, 8.02741813659668, -2.727099657058716, -1.27117121219635, -2.5960521697998047, 0.057861328125, -0.197265625, -0.798828125
148, 3356925921, -5.29854679107666, 2.0877561569213867, 8.009698867797852, -2.677859306335449, -1.325918436050415, -2.5979607105255127, 0.058837890625, -0.2001953125, -0.802490234375
149, 3356942588, -5.302363872528076, 2.069535732269287, 8.018510818481445, -2.634138345718384, -1.1903760433197021, -2.636110782623291, 0.057861328125, -0.2001953125, -0.803466796875
150, 3356959255, -5.3057708740234375, 2.069606065750122, 8.00111198425293, -2.575305938720703, -1.263884425163269, -2.5880355834960938, 0.058349609375, -0.19775390625, -0.803466796875
151, 3356975922, -5.292160987854004, 2.0927846431732178, 7.993509292602539, -2.70772385597229, -1.2724518775939941, -2.6496596336364746, 0.061279296875, -0.1982421875, -0.8017578125
152, 3356992589, -5.3002119064331055, 2.067887544631958, 8.005553245544434, -2.7034080028533936, -1.291968822479248, -2.686875104904175, 0.059814453125, -0.1982421875, -0.804931640625
153, 3357009256, -5.31372594833374, 2.068751811981201, 8.001102447509766, -2.7490756511688232, -1.1946147680282593, -2.6648995876312256, 0.061767578125, -0.19970703125, -0.8017578125
154, 3357025923, -5.310713768005371, 2.0736231803894043, 8.005254745483398, -2.6933934688568115, -1.1714098453521729, -2.6927785873413086, 0.060302734375, -0.19873046875, -0.803466796875
155, 3357042590, -5.3132805824279785, 2.088229179382324, 7.991059303283691, -2.8723742961883545, -1.1795543432235718, -2.6715452671051025, 0.059326171875, -0.19921875, -0.802978515625
156, 3357059257, -5.3172287940979, 2.069124221801758, 8.004186630249023, -2.7968039512634277, -1.2318682670593262, -2.728290319442749, 0.059814453125, -0.19775390625, -0.803955078125
157, 3357075924, -5.310275554656982, 2.064526081085205, 8.00472354888916, -2.8171279430389404, -1.2416141033172607, -2.7126665115356445, 0.058837890625, -0.19482421875, -0.803955078125
158, 3357092591, -5.304763317108154, 2.071666717529297, 7.9792561531066895, -2.844085216522217, -1.1779664754867554, -2.6909213066101074, 0.060302734375, -0.19775390625, -0.803466796875
159, 3357109258, -5.2986836433410645, 2.051445245742798, 8.003805160522461, -2.8102643489837646, -1.0898717641830444, -2.6864781379699707, 0.059326171875, -0.19775390625, -0.802978515625
160, 3357125925, -5.297461032867432, 2.0812783241271973, 8.020061492919922, -2.6904735565185547, -0.9861658811569214, -2.7242441177368164, 0.058837890625, -0.19580078125, -0.802490234375
161, 3357142592, -5.319771766662598, 2.070969343185425, 8.004575729370117, -2.7732534408569336, -0.9505256414413452, -2.837169885635376, 0.057373046875, -0.19580078125, -0.802490234375
162, 3357159259, -5.313767910003662, 2.0431535243988037, 7.9981794357299805, -2.5523059368133545, -1.09285569190979, -2.753737211227417, 0.061279296875, -0.19677734375, -0.803955078125
163, 3357175926, -5.309014797210693, 2.0611557960510254, 8.026856422424316, -2.31593918800354, -1.2484912872314453, -2.754133939743042, 0.060302734375, -0.197265625, -0.803466796875
164, 3357192593, -5.326751708984375, 2.0419669151306152, 8.020203590393066, -2.286240339279175, -1.2002110481262207, -2.782627582550049, 0.058837890625, -0.19677734375, -0.802490234375
165, 3357209260, -5.325485706329346, 2.0483031272888184, 8.006810188293457, -2.337120771408081, -1.2233524322509766, -2.7451696395874023, 0.061767578125, -0.1982421875, -0.802490234375
166, 3357225927, -5.305908679962158, 2.0610287189483643, 8.020560264587402, -2.399820327758789, -1.1209142208099365, -2.7086713314056396, 0.060791015625, -0.1982421875, -0.803955078125
167, 3357242594, -5.322516441345215, 2.056455135345459, 8.012455940246582, -2.3703911304473877, -1.154710054397583, -2.5349271297454834, 0.058349609375, -0.19775390625, -0.802001953125
168, 3357259261, -5.325167179107666, 2.0776050090789795, 8.013603210449219, -2.5033602714538574, -1.2121851444244385, -2.615274667739868, 0.059326171875, -0.19482421875, -0.803955078125
169, 3357275928, -5.319113731384277, 2.076007843017578, 7.9943389892578125, -2.6593284606933594, -1.2214953899383545, -2.74985671043396, 0.059326171875, -0.197265625, -0.802001953125
170, 3357292595, -5.314436912536621, 2.0575904846191406, 8.007712364196777, -2.8896632194519043, -1.2799818515777588, -2.7086453437805176, 0.059814453125, -0.19775390625, -0.804443359375
171, 3357309262, -5.320293426513672, 2.067093849182129, 7.999891757965088, -2.9437954425811768, -1.3594452142715454, -2.632857322692871, 0.059326171875, -0.19775390625, -0.802001953125
172, 3357325929, -5.318741321563721, 2.0497677326202393, 8.031651496887207, -2.8424336910247803, -1.2334052324295044, -2.5910706520080566, 0.061279296875, -0.1982421875, -0.8017578125
173, 3357342596, -5.331519603729248, 2.0638744831085205, 8.008296012878418, -2.9163002967834473, -1.2954391241073608, -2.6516571044921875, 0.062255859375, -0.1982421875, -0.80224609375
174, 3357359263, -5.318930625915527, 2.0557150840759277, 8.01437759399414, -2.922869920730591, -1.1977779865264893, -2.612879514694214, 0.061279296875, -0.19482421875, -0.802001953125
175, 3357375930, -5.319149971008301, 2.0696442127227783, 8.012696266174316, -2.9025206565856934, -1.2625141143798828, -2.610689878463745, 0.060791015625, -0.197265625, -0.802001953125
176, 3357392597, -5.338346481323242, 2.055363893508911, 7.988542556762695, -2.747269868850708, -1.345998764038086, -2.637519121170044, 0.060791015625, -0.19873046875, -0.802978515625
177, 3357409264, -5.334478378295898, 2.0383074283599854, 8.006649017333984, -2.8418312072753906, -1.3819971084594727, -2.5878942012786865, 0.061279296875, -0.19677734375, -0.802001953125
178, 3357425931, -5.314786434173584, 2.0627634525299072, 7.984125137329102, -2.8964247703552246, -1.4002846479415894, -2.6060791015625, 0.060791015625, -0.19580078125, -0.7998046875
179, 3357442598, -5.304193496704102, 2.0475265979766846, 8.00307846069336, -2.9372899532318115, -1.457977294921875, -2.618924140930176, 0.060302734375, -0.19580078125, -0.802490234375
180, 3357459265, -5.309436321258545, 2.0610392093658447, 8.01401138305664, -2.945012092590332, -1.404126524925232, -2.689653158187866, 0.062744140625, -0.19677734375, -0.8017578125
181, 3357475932, -5.318787097930908, 2.0618748664855957, 7.985252380371094, -2.986248731613159, -1.3748642206192017, -2.6635799407958984, 0.061279296875, -0.19580078125, -0.802490234375
182, 3357492599, -5.31900691986084, 2.0471622943878174, 7.997314453125, -2.95235013961792, -1.3528498411178589, -2.762470245361328, 0.061279296875, -0.197265625, -0.80029296875
183, 3357509266, -5.335756301879883, 2.0374579429626465, 8.0098237991333, -2.9801270961761475, -1.3794615268707275, -2.696953058242798, 0.060791015625, -0.19677734375, -0.806884765625
184, 3357525933, -5.332038879394531, 2.0350778102874756, 7.98836612701416, -2.983713388442993, -1.5759879350662231, -2.647226333618164, 0.060791015625, -0.19775390625, -0.801513671875
185, 3357542600, -5.330087184906006, 2.038947343826294, 8.002915382385254, -2.9446535110473633, -1.6376760005950928, -2.5421626567840576, 0.060791015625, -0.19482421875, -0.798828125
186, 3357559267, -5.314182281494141, 2.040656089782715, 8.013810157775879, -2.851320743560791, -1.641351342201233, -2.5521132946014404, 0.059326171875, -0.19677734375, -0.804443359375
187, 3357575934, -5.313344478607178, 2.0677859783172607, 7.984035015106201, -2.8627827167510986, -1.5909968614578247, -2.5645737648010254, 0.062255859375, -0.19677734375, -0.8017578125
188, 3357592601, -5.321344375610352, 2.0256195068359375, 8.007031440734863, -2.9505574703216553, -1.6433748006820679, -2.6152868270874023, 0.060791015625, -0.1953125, -0.802978515625
189, 3357609268, -5.330723285675049, 2.0435476303100586, 8.01109504699707, -2.8896121978759766, -1.6433876752853394, -2.5627684593200684, 0.061279296875, -0.19580078125, -0.801513671875
190, 3357625935, -5.340888023376465, 2.041743278503418, 8.016160011291504, -2.987478017807007, -1.7127723693847656, -2.52630877494812, 0.059814453125, -0.1953125, -0.801513671875
191, 3357642602, -5.329634189605713, 2.0438127517700195, 8.00145435333252, -3.0333378314971924, -1.8510427474975586, -2.6064252853393555, 0.061767578125, -0.1962890625, -0.802978515625
192, 3357659269, -5.315928936004639, 2.050386428833008, 8.026046752929688, -2.9519147872924805, -1.7884196043014526, -2.6068475246429443, 0.058349609375, -0.1953125, -0.802490234375
193, 3357675936, -5.311930179595947, 2.031355142593384, 8.024630546569824, -2.849271774291992, -1.6389565467834473, -2.539562940597534, 0.059814453125, -0.19580078125, -0.802978515625
194, 3357692603, -5.313349723815918, 2.0211594104766846, 8.028742790222168, -2.6203970909118652, -1.435796856880188, -2.490054130554199, 0.059326171875, -0.1953125, -0.802978515625
195, 3357709270, -5.314364910125732, 2.062720775604248, 8.024040222167969, -2.585538387298584, -1.3466774225234985, -2.4547343254089355, 0.061279296875, -0.19580078125, -0.803955078125
196, 3357725937, -5.323469161987305, 2.037895917892456, 7.9984211921691895, -2.708901882171631, -1.344679594039917, -2.4064924716949463, 0.060302734375, -0.19482421875, -0.802001953125
197, 3357742604, -5.32082462310791, 2.0317296981811523, 8.037262916564941, -2.696582078933716, -1.3493027687072754, -2.459024667739868, 0.059326171875, -0.1962890625, -0.803466796875
198, 3357759271, -5.315781593322754, 2.034027338027954, 8.022481918334961, -2.608999252319336, -1.1698986291885376, -2.351912021636963, 0.061279296875, -0.197265625, -0.803955078125
199, 3357775938, -5.325883865356445, 2.011138916015625, 8.022284507751465, -2.416635036468506, -1.0715841054916382, -2.241495132446289, 0.059814453125, -0.19580078125, -0.802490234375
200, 3357792605, -5.3288373947143555, 2.0201728343963623, 8.049895286560059, -2.277775526046753, -1.0246104001998901, -1.9757506847381592, 0.059326171875, -0.1962890625, -0.802001953125
201, 3357809272, -5.30178689956665, 2.051442861557007, 8.036624908447266, -2.068148612976074, -0.8105522990226746, -2.0262718200683594, 0.061767578125, -0.19384765625, -0.802978515625
202, 3357825939, -5.324601650238037, 1.988985538482666, 8.024100303649902, -1.6328864097595215, -0.4250427186489105, -1.822804570198059, 0.062744140625, -0.19580078125, -0.80224609375
203, 3357842606, -5.367900371551514, 2.0099096298217773, 8.022735595703125, -1.4121304750442505, -0.5293375849723816, -1.415549635887146, 0.060791015625, -0.1943359375, -0.802001953125
204, 3357859273, -5.375067234039307, 2.0167152881622314, 8.002354621887207, -1.368166208267212, -0.7147223353385925, -1.1514956951141357, 0.061767578125, -0.1953125, -0.803955078125
205, 3357875940, -5.351102352142334, 2.057274580001831, 8.008100509643555, -1.1603577136993408, -0.8463844060897827, -0.7963371872901917, 0.060302734375, -0.197265625, -0.805419921875
206, 3357892607, -5.32918119430542, 2.07070255279541, 8.01534652709961, -1.3036224842071533, -0.8189917206764221, -0.7151578664779663, 0.059814453125, -0.19775390625, -0.805419921875
207, 3357909274, -5.227643013000488, 2.1027345657348633, 7.961812496185303, -1.4986374378204346, -0.8372023105621338, -0.9670714735984802, 0.063720703125, -0.197265625, -0.80078125
208, 3357925941, -5.160685062408447, 2.1145730018615723, 7.99664831161499, -1.8089096546173096, -0.424325555562973, -1.9649677276611328, 0.060791015625, -0.197265625, -0.80126953125
209, 3357942608, -5.299740791320801, 2.0241611003875732, 8.004425048828125, -1.4489487409591675, 0.17842446267604828, -2.275047779083252, 0.061767578125, -0.19970703125, -0.8017578125
210, 3357959275, -5.374440670013428, 2.0051891803741455, 7.976751804351807, -1.0136866569519043, 0.30592453479766846, -1.9162014722824097, 0.062744140625, -0.19775390625, -0.802734375
211, 3357975942, -5.375391483306885, 2.0528621673583984, 7.961780071258545, -0.8949717879295349, 0.02629784122109413, -1.586053729057312, 0.061279296875, -0.197265625, -0.802490234375
212, 3357992609, -5.358436584472656, 2.089414119720459, 7.969637870788574, -0.9156540036201477, -0.11647374927997589, -1.3594835996627808, 0.062255859375, -0.19580078125, -0.802490234375
213, 3358009276, -5.315246105194092, 2.1178159713745117, 7.996535778045654, -1.2290124893188477, -0.047281041741371155, -1.4397538900375366, 0.062744140625, -0.19775390625, -0.80078125
214, 3358025943, -5.307580471038818, 2.0779333114624023, 7.948018550872803, -0.9252332448959351, -0.06965373456478119, -1.4885590076446533, 0.064453125, -0.19775390625, -0.80224609375
215, 3358042610, -5.296147346496582, 2.094355821609497, 7.972804546356201, -0.8863402009010315, -0.1171012595295906, -1.5910862684249878, 0.063232421875, -0.2001953125, -0.7998046875
216, 3358059277, -5.348923206329346, 2.1136314868927, 7.984830856323242, -1.0709565877914429, -0.2187708616256714, -1.6709723472595215, 0.06494140625, -0.200927734375, -0.802734375
217, 3358075944, -5.343830108642578, 2.1300294399261475, 7.930820465087891, -1.114895224571228, -0.4608493447303772, -1.7274101972579956, 0.0634765625, -0.2001953125, -0.8037109375
218, 3358092611, -5.328639030456543, 2.154508352279663, 7.939727783203125, -1.2495027780532837, -0.421572208404541, -1.9452718496322632, 0.0634765625, -0.202392578125, -0.80126953125
219, 3358109278, -5.328332901000977, 2.1404190063476562, 7.935619831085205, -1.2493491172790527, -0.3223486542701721, -2.148162841796875, 0.061767578125, -0.20068359375, -0.8017578125
220, 3358125945, -5.348429203033447, 2.129436492919922, 7.933374881744385, -1.3566148281097412, -0.23862069845199585, -2.21356463432312, 0.063232421875, -0.201171875, -0.7998046875
221, 3358142612, -5.37691068649292, 2.115858793258667, 7.920211315155029, -1.3495203256607056, -0.5771565437316895, -2.183469533920288, 0.06494140625, -0.201904296875, -0.80078125
222, 3358159279, -5.33714485168457, 2.1513302326202393, 7.9403910636901855, -1.3405686616897583, -0.6351308822631836, -2.1506597995758057, 0.062744140625, -0.201904296875, -0.802734375
223, 3358175946, -5.335116863250732, 2.163661003112793, 7.933367729187012, -1.2417550086975098, -0.4782787263393402, -2.2920167446136475, 0.06494140625, -0.202880859375, -0.80126953125
224, 3358192613, -5.353189468383789, 2.1306328773498535, 7.903260231018066, -1.1094268560409546, -0.3376010060310364, -2.2068417072296143, 0.06591796875, -0.203857421875, -0.800048828125
225, 3358209280, -5.3335137367248535, 2.0873939990997314, 7.91780948638916, -0.2197825312614441, -0.2370326966047287, -1.8476486206054688, 0.06689453125, -0.203369140625, -0.797607421875
226, 3358225947, -5.341305255889893, 2.098087787628174, 7.937607288360596, 0.19500871002674103, -0.10152874141931534, -1.6947282552719116, 0.064453125, -0.203857421875, -0.799560546875
227, 3358242614, -5.377354145050049, 2.110163450241089, 7.889982223510742, 0.3137235641479492, -0.20036815106868744, -1.5812768936157227, 0.06494140625, -0.205810546875, -0.799072265625
228, 3358259281, -5.334300518035889, 2.179697275161743, 7.822996139526367, 0.19906830787658691, -0.7478396892547607, -1.548351764678955, 0.0654296875, -0.205322265625, -0.801513671875
229, 3358275948, -5.302029609680176, 2.1835439205169678, 7.881261348724365, 0.33640360832214355, -1.2191005945205688, -1.8767706155776978, 0.0654296875, -0.204345703125, -0.799560546875
230, 3358292615, -5.460088729858398, 2.022676706314087, 7.918910980224609, 0.8330850601196289, -1.9081077575683594, -1.8274918794631958, 0.06396484375, -0.206787109375, -0.800537109375
231, 3358309282, -5.340415954589844, 2.190929412841797, 7.968250274658203, 0.4919623136520386, -3.22265362739563, -1.0071425437927246, 0.063720703125, -0.206787109375, -0.798583984375
232, 3358325949, -5.383907318115234, 2.215709686279297, 7.721980571746826, -2.0722339153289795, -4.498422622680664, -0.8381372094154358, 0.063232421875, -0.206298828125, -0.798095703125
233, 3358342616, -5.365103721618652, 2.008728265762329, 7.816631317138672, -1.576910138130188, -6.140965938568115, -1.3750308752059937, 0.063232421875, -0.206298828125, -0.799072265625
234, 3358359283, -5.366682052612305, 2.1992862224578857, 8.038413047790527, -1.1653012037277222, -5.734774112701416, -1.037698745727539, 0.06396484375, -0.205810546875, -0.800537109375
235, 3358375950, -5.309899806976318, 2.433652877807617, 7.985264301300049, -1.1232450008392334, -4.939217567443848, -0.8632248640060425, 0.060302734375, -0.208251953125, -0.798828125
236, 3358392617, -5.250929832458496, 2.450442314147949, 8.04896354675293, -1.3960586786270142, -3.8753421306610107, -1.5236610174179077, 0.059814453125, -0.208251953125, -0.80078125
237, 3358409284, -5.105142116546631, 2.4397101402282715, 8.143845558166504, -1.8570106029510498, -1.894238829612732, -2.9451019763946533, 0.061767578125, -0.208740234375, -0.799072265625
238, 3358425951, -5.212850570678711, 2.2555456161499023, 8.085942268371582, -2.0703771114349365, 0.3556644022464752, -4.252784729003906, 0.059814453125, -0.207763671875, -0.7978515625
239, 3358442618, -5.255568504333496, 2.12811017036438, 8.082259178161621, -1.5236612558364868, 2.0692310333251953, -4.919073104858398, 0.060791015625, -0.208740234375, -0.80029296875
240, 3358459285, -5.335832595825195, 2.0686471462249756, 8.065044403076172, -1.1188268661499023, 3.5103297233581543, -4.9390764236450195, 0.063232421875, -0.209228515625, -0.798095703125
241, 3358475952, -5.3537211418151855, 2.2918131351470947, 8.026206016540527, -0.6168820261955261, 5.298020839691162, -4.412787437438965, 0.063232421875, -0.209716796875, -0.798583984375
242, 3358492619, -5.366524696350098, 2.419023036956787, 7.860654830932617, -1.4997646808624268, 5.695734024047852, -4.747186660766602, 0.06494140625, -0.209228515625, -0.799072265625
243, 3358509286, -5.3961286544799805, 2.331432819366455, 7.865157127380371, -2.294924020767212, 5.318753242492676, -5.469247341156006, 0.06982421875, -0.2109375, -0.7978515625
244, 3358525953, -5.346615314483643, 2.269357442855835, 7.91360330581665, -2.5639090538024902, 5.7521467208862305, -6.011276721954346, 0.0693359375, -0.2099609375, -0.79736328125
245, 3358542620, -5.296701908111572, 2.2626516819000244, 7.957178592681885, -2.3213181495666504, 6.808093547821045, -6.712988376617432, 0.0703125, -0.208740234375, -0.7978515625
246, 3358559287, -5.363537788391113, 2.30389142036438, 7.888997554779053, -2.769374370574951, 7.774333953857422, -8.41678524017334, 0.072998046875, -0.208984375, -0.79833984375
247, 3358575954, -5.436779975891113, 2.2626888751983643, 7.810500621795654, -3.338501214981079, 8.637777328491211, -9.176599502563477, 0.075927734375, -0.2080078125, -0.79833984375
248, 3358592621, -5.417092800140381, 2.379800319671631, 7.908665657043457, -3.325631856918335, 9.710747718811035, -10.750182151794434, 0.078369140625, -0.20849609375, -0.799072265625
249, 3358609288, -5.400896072387695, 2.293811082839966, 7.930851459503174, -4.1648850440979, 10.781131744384766, -11.838968276977539, 0.08349609375, -0.20654296875, -0.797119140625
250, 3358625955, -5.367345333099365, 2.177717447280884, 8.104217529296875, -3.1977241039276123, 13.86453628540039, -13.154314041137695, 0.08642578125, -0.2060546875, -0.79638671875
251, 3358642622, -5.432198524475098, 1.9423350095748901, 8.123372077941895, -2.4925942420959473, 19.690345764160156, -12.611717224121094, 0.092041015625, -0.20556640625, -0.796142578125
252, 3358659289, -5.428041934967041, 1.964634895324707, 8.119556427001953, 0.09622079133987427, 26.95586585998535, -12.475982666015625, 0.09912109375, -0.20751953125, -0.794921875
253, 3358675956, -5.527529716491699, 1.984423279762268, 8.072235107421875, 2.772543430328369, 35.23862838745117, -11.71200180053711, 0.10693359375, -0.2060546875, -0.793701171875
254, 3358692623, -5.623842716217041, 2.2347259521484375, 7.968979358673096, 5.589277267456055, 43.71221160888672, -13.266095161437988, 0.11669921875, -0.208740234375, -0.79150390625
255, 3358709290, -5.718270301818848, 2.188796043395996, 7.911452293395996, 8.114834785461426, 51.796852111816406, -15.558751106262207, 0.130615234375, -0.209228515625, -0.785888671875
256, 3358725957, -5.957023620605469, 2.1715011596679688, 7.7542314529418945, 7.484575271606445, 59.083309173583984, -17.792526245117188, 0.14501953125, -0.211669921875, -0.78125
257, 3358742624, -5.926592826843262, 2.083339214324951, 7.562661647796631, 8.420804023742676, 67.25668334960938, -20.24819564819336, 0.15869140625, -0.21142578125, -0.779052734375
258, 3358759291, -6.121863842010498, 2.172301769256592, 7.816193103790283, 8.002338409423828, 76.73108673095703, -22.216306686401367, 0.1787109375, -0.215576171875, -0.772705078125
259, 3358775958, -6.1594014167785645, 2.636007070541382, 7.721556663513184, 7.598789691925049, 87.0822982788086, -27.922679901123047, 0.19921875, -0.212158203125, -0.765625
260, 3358792625, -6.5576629638671875, 2.7397003173828125, 7.486777305603027, 8.631233215332031, 98.95889282226562, -40.15511703491211, 0.223388671875, -0.213134765625, -0.7607421875
261, 3358809292, -6.475353240966797, 2.7516844272613525, 7.652724266052246, 8.458752632141113, 114.24677276611328, -52.34882354736328, 0.2529296875, -0.21337890625, -0.74755859375
262, 3358825959, -6.975229740142822, 2.6399877071380615, 7.583239555358887, 4.449413299560547, 134.07444763183594, -67.32331085205078, 0.283935546875, -0.20849609375, -0.734619140625
263, 3358842626, -6.9472880363464355, 2.8777079582214355, 7.988790512084961, -0.5302827954292297, 160.19863891601562, -85.10884857177734, 0.3203125, -0.203125, -0.719970703125
264, 3358859293, -7.195044994354248, 2.8931310176849365, 8.386610984802246, -11.463873863220215, 194.84127807617188, -105.14930725097656, 0.366943359375, -0.189208984375, -0.698486328125
265, 3358875960, -7.829110622406006, 4.045976161956787, 9.293465614318848, -19.62003517150879, 234.55255126953125, -124.64869689941406, 0.416259765625, -0.17041015625, -0.66943359375
266, 3358892627, -8.532337188720703, 3.81593656539917, 8.70302963256836, -27.79000473022461, 265.81695556640625, -149.30856323242188, 0.474609375, -0.143798828125, -0.628662109375
267, 3358909294, -12.535650253295898, 4.986384868621826, 10.837343215942383, -10.404460906982422, 295.3215026855469, -167.5432891845703, 0.533203125, -0.117431640625, -0.57666015625
268, 3358925961, -13.826350212097168, 4.1344780921936035, 11.430794715881348, -11.956501007080078, 307.99932861328125, -179.37948608398438, 0.591796875, -0.08544921875, -0.520751953125
269, 3358942628, -14.329941749572754, 3.532334566116333, 11.961407661437988, -9.414275169372559, 308.30169677734375, -166.71551513671875, 0.643310546875, -0.052734375, -0.45703125
270, 3358959295, -12.002833366394043, 3.4915237426757812, 11.58662223815918, -10.705512046813965, 278.42449951171875, -150.44447326660156, 0.685791015625, -0.02197265625, -0.389404296875
271, 3358975962, -6.193886756896973, 2.825489044189453, 10.024755477905273, -18.609670639038086, 247.67164611816406, -149.4783477783203, 0.71728515625, 0.012939453125, -0.328369140625
272, 3358992629, -2.6722517013549805, 5.562659740447998, 6.729147911071777, -31.14378547668457, 232.50750732421875, -142.23721313476562, 0.738525390625, 0.047119140625, -0.27197265625
273, 3359009296, -17.560218811035156, 11.69616413116455, 19.380985260009766, 0.2422970086336136, 148.3845977783203, -39.164310455322266, 0.758056640625, 0.06005859375, -0.216552734375
274, 3359025963, -11.646984100341797, 11.938965797424316, 17.47697639465332, -34.32783889770508, -43.77988052368164, 50.85562515258789, 0.763427734375, 0.053466796875, -0.210693359375
275, 3359042630, -4.072107791900635, 6.055980682373047, 11.193482398986816, -70.42587280273438, -140.29580688476562, 99.5658187866211, 0.763916015625, 0.038330078125, -0.231689453125
276, 3359059297, -1.0080424547195435, 2.1451494693756104, 7.446742057800293, -69.39813995361328, -165.32522583007812, 120.09429931640625, 0.76123046875, 0.015380859375, -0.264892578125
277, 3359075964, -0.6522291302680969, 0.7690160274505615, 6.272719860076904, -55.80531311035156, -165.79351806640625, 124.33008575439453, 0.755615234375, -0.013916015625, -0.29833984375
278, 3359092631, -1.7874118089675903, 0.2522376477718353, 6.394639015197754, -43.68666076660156, -168.2185516357422, 116.45723724365234, 0.7470703125, -0.033203125, -0.3388671875
279, 3359109298, -3.5852761268615723, 0.17202112078666687, 7.254199504852295, -35.610107421875, -177.584716796875, 106.63294982910156, 0.734619140625, -0.056884765625, -0.380859375
280, 3359125965, -5.930224418640137, 0.19816085696220398, 8.36744213104248, -28.293493270874023, -201.0806884765625, 100.9119644165039, 0.714599609375, -0.080078125, -0.43408203125
281, 3359142632, -7.182291030883789, 0.25849783420562744, 8.899375915527344, -20.984128952026367, -237.33949279785156, 97.1201400756836, 0.68115234375, -0.100830078125, -0.492431640625
282, 3359159299, -7.327763557434082, 0.11827318370342255, 8.582596778869629, -11.158504486083984, -267.92095947265625, 95.5244369506836, 0.634521484375, -0.115966796875, -0.55078125
283, 3359175966, -7.235414028167725, 0.1828853338956833, 7.947149276733398, 0.3096584379673004, -283.1416015625, 92.98670959472656, 0.577392578125, -0.12939453125, -0.6064453125
284, 3359192633, -7.744968414306641, 0.5143516063690186, 7.823716640472412, 10.091578483581543, -284.2861328125, 87.61395263671875, 0.51904296875, -0.143310546875, -0.653076171875
285, 3359209300, -8.290620803833008, 0.857431173324585, 7.874300479888916, 17.48074722290039, -276.5720520019531, 80.53619384765625, 0.4560546875, -0.1552734375, -0.690673828125
286, 3359225967, -8.47134780883789, 0.7507507801055908, 7.587609767913818, 26.584686279296875, -256.1684875488281, 71.3414077758789, 0.400146484375, -0.1669921875, -0.716064453125
287, 3359242634, -10.28756046295166, 1.0685498714447021, 8.96760368347168, 39.29539489746094, -224.09458923339844, 57.045570373535156, 0.35205078125, -0.1748046875, -0.721923828125
288, 3359259301, -13.386919021606445, 2.215592384338379, 10.88084888458252, 55.615142822265625, -208.58380126953125, 45.982181549072266, 0.3203125, -0.18359375, -0.7216796875
289, 3359275968, -15.601618766784668, 2.6230218410491943, 10.703971862792969, 75.22712707519531, -200.09823608398438, 46.72846221923828, 0.305908203125, -0.196044921875, -0.72607421875
290, 3359292635, -18.51375389099121, 3.686957597732544, 9.234664916992188, 91.37214660644531, -187.28237915039062, 57.82929992675781, 0.306884765625, -0.222412109375, -0.755859375
291, 3359309302, -21.850435256958008, 5.162715435028076, 6.931822299957275, 86.25323486328125, -176.10166931152344, 67.78328704833984, 0.290283203125, -0.263671875, -0.805419921875
292, 3359325969, -25.220726013183594, 4.573484420776367, 4.173465728759766, 67.84127044677734, -172.03085327148438, 82.66619873046875, 0.241943359375, -0.31640625, -0.855712890625
293, 3359342636, -27.197593688964844, 1.2632321119308472, 0.7103022336959839, 60.993473052978516, -183.5655517578125, 107.58430480957031, 0.16796875, -0.36572265625, -0.890625
294, 3359359303, -27.060771942138672, -4.423972129821777, -4.126192569732666, 66.28404235839844, -191.9628143310547, 129.3167724609375, 0.07568359375, -0.40283203125, -0.8974609375
295, 3359375970, -25.89542007446289, -10.238612174987793, -9.876280784606934, 80.92081451416016, -173.83262634277344, 134.49339294433594, -0.00927734375, -0.4326171875, -0.885498046875
296, 3359392637, -19.370582580566406, -8.609127044677734, -11.575075149536133, 57.65297317504883, -109.13816833496094, 84.7166976928711, -0.0693359375, -0.457275390625, -0.869140625
297, 3359409304, -12.06851863861084, -6.5955810546875, -13.089452743530273, -34.577842712402344, 28.77355194091797, -48.61737060546875, -0.080810546875, -0.4541015625, -0.86962890625
298, 3359425971, -12.48326301574707, -4.594180583953857, -5.34065580368042, -78.08834838867188, 126.90546417236328, -151.31884765625, -0.04345703125, -0.4423828125, -0.88232421875
299, 3359442638, -11.238848686218262, 8.790703773498535, 16.184232711791992, -93.82853698730469, 103.25637817382812, -128.79490661621094, -0.003662109375, -0.4248046875, -0.89892578125
300, 3359459305, -2.673208475112915, 9.629412651062012, 6.60720682144165, -70.79886627197266, 79.20275115966797, -80.37010955810547, 0.0224609375, -0.406982421875, -0.9091796875
301, 3359475972, -1.766361951828003, 1.594970703125, 6.7004289627075195, -85.01839447021484, 122.5014419555664, -78.8860855102539, 0.0546875, -0.388671875, -0.919921875
302, 3359492639, -11.77055549621582, -2.8831024169921875, 12.66330623626709, -69.31634521484375, 119.09518432617188, -59.642032623291016, 0.08740234375, -0.373046875, -0.9267578125
303, 3359509306, -11.245382308959961, -4.655378818511963, 11.029702186584473, -34.69319152832031, 87.6903076171875, -56.97136306762695, 0.115478515625, -0.362060546875, -0.92822265625
304, 3359525973, -16.554899215698242, 8.11819839477539, 12.882933616638184, -61.315914154052734, 25.586013793945312, -44.19158935546875, 0.133056640625, -0.345703125, -0.934814453125
305, 3359542640, -6.230437755584717, -1.5650144815444946, 9.93596363067627, -27.601869583129883, 6.508053779602051, -20.05856704711914, 0.133056640625, -0.337158203125, -0.93798828125
306, 3359559307, -5.800726890563965, 2.9284558296203613, 8.143282890319824, -16.027637481689453, 3.4695444107055664, -7.402525901794434, 0.1357421875, -0.332763671875, -0.93896484375
307, 3359575974, -6.331412315368652, 2.2914328575134277, 8.023252487182617, -8.194708824157715, -0.6303415298461914, -5.713720798492432, 0.13671875, -0.331787109375, -0.93896484375
308, 3359592641, -5.646683216094971, 1.8783785104751587, 8.07000732421875, -5.78183650970459, -4.135875225067139, -5.088578224182129, 0.1337890625, -0.32958984375, -0.941650390625
309, 3359609308, -5.505091190338135, 1.6153889894485474, 8.201363563537598, -2.5848331451416016, -2.2510359287261963, -2.8086628913879395, 0.1357421875, -0.330078125, -0.942626953125
310, 3359625975, -5.472927093505859, 1.7700663805007935, 8.215903282165527, 2.568063974380493, 1.708027720451355, -0.507592499256134, 0.13818359375, -0.330810546875, -0.942626953125
311, 3359642642, -5.468637466430664, 1.8784321546554565, 8.13622760772705, 6.375367164611816, 6.005890369415283, 0.7152795195579529, 0.1357421875, -0.333740234375, -0.93896484375
312, 3359659309, -5.4722089767456055, 2.140876293182373, 8.03498363494873, 8.561541557312012, 8.727652549743652, 1.3527929782867432, 0.138671875, -0.336669921875, -0.937255859375
313, 3359675976, -5.528758525848389, 2.2913150787353516, 7.925302982330322, 8.466403007507324, 9.924560546875, 1.005279779434204, 0.1396484375, -0.338134765625, -0.936767578125
314, 3359692643, -5.444701671600342, 2.2103002071380615, 7.9550933837890625, 7.595290184020996, 9.836543083190918, 0.15657691657543182, 0.14111328125, -0.34130859375, -0.938720703125
315, 3359709310, -5.475082874298096, 2.2388718128204346, 7.931502342224121, 7.592459678649902, 9.632204055786133, -0.8525575399398804, 0.149169921875, -0.3466796875, -0.932373046875
316, 3359725977, -5.516101360321045, 2.3146591186523438, 7.8805365562438965, 7.898774147033691, 9.597513198852539, -0.9967186450958252, 0.149169921875, -0.348876953125, -0.932373046875
317, 3359742644, -5.553462982177734, 2.5252766609191895, 7.827402591705322, 7.576964378356934, 8.987532615661621, -1.9353480339050293, 0.149169921875, -0.352294921875, -0.92919921875
318, 3359759311, -5.512764930725098, 2.538785696029663, 7.755231857299805, 6.85825777053833, 7.827301979064941, -3.265249252319336, 0.15234375, -0.354248046875, -0.927978515625
319, 3359775978, -5.5567216873168945, 2.4667539596557617, 7.764686584472656, 5.604656219482422, 6.829761981964111, -4.026547908782959, 0.15576171875, -0.35546875, -0.928466796875
320, 3359792645, -5.55905818939209, 2.5463528633117676, 7.668909549713135, 2.9853594303131104, 5.189140796661377, -5.603842258453369, 0.158203125, -0.35791015625, -0.928466796875
321, 3359809312, -5.527032375335693, 2.5876383781433105, 7.650779724121094, -0.5131505131721497, 3.501711130142212, -7.768153667449951, 0.1572265625, -0.35888671875, -0.92431640625
322, 3359825979, -5.591283798217773, 2.4476492404937744, 7.664597511291504, -3.2739696502685547, 2.151717185974121, -8.336653709411621, 0.161865234375, -0.359375, -0.924560546875
323, 3359842646, -5.578151226043701, 2.4650816917419434, 7.649765968322754, -4.273045063018799, 0.3358530104160309, -9.10207748413086, 0.16064453125, -0.3564453125, -0.92578125
324, 3359859313, -5.536443710327148, 2.4135608673095703, 7.699641227722168, -4.356093883514404, -0.08617395907640457, -10.257365226745605, 0.163818359375, -0.35693359375, -0.9267578125
325, 3359875980, -5.395258903503418, 2.4502389430999756, 7.755711555480957, -3.5523812770843506, 1.1323189735412598, -12.087998390197754, 0.163818359375, -0.35498046875, -0.9267578125
326, 3359892647, -5.389950752258301, 2.3367714881896973, 7.820394515991211, -0.7116621136665344, 4.900474548339844, -14.19331169128418, 0.165283203125, -0.35498046875, -0.925537109375
327, 3359909314, -5.40033483505249, 2.30070424079895, 7.917394161224365, 3.904668092727661, 10.120417594909668, -17.080005645751953, 0.169189453125, -0.35498046875, -0.924072265625
328, 3359925981, -5.183139801025391, 2.396618366241455, 8.31908130645752, 2.706223964691162, 17.759723663330078, -16.994905471801758, 0.17626953125, -0.35546875, -0.920166015625
329, 3359942648, -5.161505699157715, 2.1901166439056396, 8.36263656616211, 2.152097225189209, 31.541223526000977, -15.344122886657715, 0.184814453125, -0.35546875, -0.921875
330, 3359959315, -5.059722423553467, 2.1985480785369873, 8.420196533203125, 5.95350456237793, 48.88813400268555, -16.942232131958008, 0.19580078125, -0.3564453125, -0.9169921875
331, 3359975982, -5.131318092346191, 2.282850503921509, 8.538535118103027, 11.620635986328125, 70.52676391601562, -19.118623733520508, 0.21337890625, -0.355712890625, -0.910400390625
332, 3359992649, -5.282358169555664, 2.3381996154785156, 8.673970222473145, 19.44495964050293, 98.93704986572266, -24.358205795288086, 0.238525390625, -0.35986328125, -0.8984375
333, 3360009316, -5.450700759887695, 3.0761666297912598, 8.897411346435547, 27.210681915283203, 134.6522979736328, -35.85987091064453, 0.2734375, -0.364501953125, -0.88427734375
334, 3360025983, -5.101252555847168, 3.928513526916504, 8.855842590332031, 31.848066329956055, 175.86180114746094, -58.13158416748047, 0.31689453125, -0.365234375, -0.86376953125
335, 3360042650, -5.643705368041992, 4.06069278717041, 9.321065902709961, 33.725337982177734, 235.2227020263672, -88.91464233398438, 0.37548828125, -0.36328125, -0.83447265625
336, 3360059317, -5.525837421417236, 3.354074001312256, 9.537532806396484, 19.653230667114258, 309.0041809082031, -127.00125122070312, 0.451904296875, -0.35009765625, -0.7919921875
337, 3360075984, -7.632580757141113, 4.102817535400391, 11.229369163513184, 11.143084526062012, 390.818115234375, -164.91769409179688, 0.542236328125, -0.3232421875, -0.728515625
338, 3360092651, -8.852234840393066, 5.716090679168701, 11.450484275817871, 6.005107879638672, 449.43023681640625, -196.87942504882812, 0.642578125, -0.2841796875, -0.642578125
339, 3360109318, -20.032958984375, 6.581614017486572, 14.625105857849121, 17.77483367919922, 455.1882019042969, -191.0376739501953, 0.729248046875, -0.239013671875, -0.536865234375
340, 3360125985, -20.527297973632812, 6.036778450012207, 13.730738639831543, 12.401286125183105, 399.0127258300781, -171.6761016845703, 0.7919921875, -0.191162109375, -0.43212890625
341, 3360142652, -14.732765197753906, 6.5371599197387695, 13.858697891235352, 13.168719291687012, 322.14971923828125, -151.08522033691406, 0.8359375, -0.146240234375, -0.33740234375
342, 3360159319, -1.4134615659713745, 4.89333438873291, 12.560295104980469, 9.525910377502441, 278.6947937011719, -159.08798217773438, 0.86572265625, -0.09814453125, -0.25634765625
343, 3360175986, 1.8125375509262085, 11.754670143127441, 10.346385955810547, -39.64554977416992, 278.6522216796875, -156.60562133789062, 0.88525390625, -0.050537109375, -0.1806640625
344, 3360192653, -21.85131072998047, 16.306264877319336, 26.878931045532227, -54.31669235229492, 86.2889633178711, -21.48482894897461, 0.894775390625, -0.0322265625, -0.1376953125
345, 3360209320, -10.003026962280273, 11.913468360900879, 19.877355575561523, -88.42826080322266, -162.56080627441406, 80.94660949707031, 0.89111328125, -0.046142578125, -0.169921875
346, 3360225987, -2.4435007572174072, 5.6645097732543945, 10.946833610534668, -116.32144165039062, -260.3017272949219, 112.8401107788086, 0.879638671875, -0.0771484375, -0.250732421875
347, 3360242654, -0.5318140387535095, 2.1766326427459717, 6.403307914733887, -115.62995147705078, -278.5669860839844, 105.87213897705078, 0.841796875, -0.10498046875, -0.33837890625
348, 3360259321, -0.0795486718416214, -0.4997763931751251, 4.697722911834717, -85.55548095703125, -265.27325439453125, 103.22386169433594, 0.79248046875, -0.129150390625, -0.41796875
349, 3360275988, -2.677401542663574, -0.7601580023765564, 5.9370903968811035, -38.44169235229492, -250.90003967285156, 101.66073608398438, 0.73486328125, -0.15234375, -0.4794921875
350, 3360292655, -5.700984001159668, 0.8426424264907837, 7.793124198913574, -10.128863334655762, -258.28131103515625, 94.40917205810547, 0.6728515625, -0.1728515625, -0.528564453125
351, 3360309322, -7.557262420654297, 1.8900576829910278, 8.963536262512207, -6.445794582366943, -287.8133239746094, 85.65056610107422, 0.607421875, -0.190185546875, -0.572265625
352, 3360325989, -7.699220657348633, 1.8503243923187256, 8.6688232421875, -6.194499969482422, -313.8240661621094, 81.61284637451172, 0.534423828125, -0.202392578125, -0.607666015625
353, 3360342656, -7.714057922363281, 1.6396441459655762, 8.038267135620117, 1.4328362941741943, -321.4132385253906, 81.02647399902344, 0.46630859375, -0.212646484375, -0.64208984375
354, 3360359323, -7.810032844543457, 1.3043800592422485, 7.756558895111084, 16.553787231445312, -312.4059753417969, 76.70846557617188, 0.4033203125, -0.224365234375, -0.661376953125
355, 3360375990, -8.503774642944336, 1.1279369592666626, 7.846951484680176, 36.61422348022461, -288.7998962402344, 66.43026733398438, 0.34619140625, -0.238037109375, -0.677734375
356, 3360392657, -10.27945327758789, 1.9604898691177368, 9.143900871276855, 57.19231033325195, -254.57276916503906, 55.01393127441406, 0.30224609375, -0.2548828125, -0.684326171875
357, 3360409324, -14.03987979888916, 3.072871208190918, 10.802059173583984, 72.9107894897461, -229.05335998535156, 53.16094207763672, 0.271728515625, -0.275390625, -0.692138671875
358, 3360425991, -18.468603134155273, 3.2754318714141846, 11.018869400024414, 85.74146270751953, -211.77688598632812, 61.1867561340332, 0.23779296875, -0.304443359375, -0.707763671875
359, 3360442658, -24.473682403564453, 3.976287603378296, 9.47225570678711, 93.1362075805664, -210.89288330078125, 78.33528900146484, 0.19091796875, -0.33935546875, -0.73046875
360, 3360459325, -28.104324340820312, 5.208166599273682, 5.644000053405762, 77.47306823730469, -223.8362579345703, 92.259033203125, 0.123291015625, -0.376953125, -0.74169921875
361, 3360475992, -29.789045333862305, 3.474395990371704, 0.6956325769424438, 51.1088752746582, -232.35093688964844, 107.49029541015625, 0.0439453125, -0.400634765625, -0.744384765625
362, 3360492659, -29.451448440551758, -1.8849846124649048, -5.213289260864258, 45.38838195800781, -227.67434692382812, 130.6195526123047, -0.0302734375, -0.41455078125, -0.72607421875
363, 3360509326, -27.972225189208984, -10.407702445983887, -12.454538345336914, 75.20039367675781, -189.75885009765625, 142.445556640625, -0.0966796875, -0.424560546875, -0.707763671875
364, 3360525993, -21.92241096496582, -13.323141098022461, -22.592222213745117, 40.17677307128906, -45.18651580810547, 71.142333984375, -0.12744140625, -0.435546875, -0.68896484375
365, 3360542660, -17.83039093017578, -11.41321849822998, -18.478158950805664, -41.18151092529297, 114.2496109008789, -81.69972229003906, -0.111572265625, -0.43017578125, -0.6865234375
366, 3360559327, -17.296680450439453, -3.4044454097747803, 0.687451958656311, -84.26821899414062, 171.6961212158203, -181.4237518310547, -0.062744140625, -0.41552734375, -0.69287109375
367, 3360575994, -16.679759979248047, 12.783069610595703, 19.412588119506836, -99.8509521484375, 87.3568344116211, -136.37481689453125, -0.0263671875, -0.3994140625, -0.705078125
368, 3360592661, -1.09820556640625, 5.07452392578125, 4.442384719848633, -89.19445037841797, 77.30075073242188, -100.81462860107422, -0.00341796875, -0.37841796875, -0.710205078125
369, 3360609328, -7.696869373321533, -1.3892242908477783, 10.185053825378418, -71.02099609375, 146.44615173339844, -47.01018142700195, 0.025390625, -0.361083984375, -0.712646484375
370, 3360625995, -23.547061920166016, -2.1246509552001953, 18.96024513244629, -72.08462524414062, 85.54059600830078, -54.171913146972656, 0.053466796875, -0.348876953125, -0.717041015625
371, 3360642662, -7.312933921813965, 1.4217923879623413, 7.194849014282227, -32.71630859375, -8.98769474029541, -26.491579055786133, 0.055419921875, -0.33984375, -0.715576171875
372, 3360659329, -5.068782329559326, 2.331493377685547, 9.631269454956055, -26.791126251220703, -5.978180408477783, -17.380781173706055, 0.052978515625, -0.332275390625, -0.7177734375
373, 3360675996, -6.956715106964111, 1.2025036811828613, 8.260834693908691, -19.855098724365234, -8.743837356567383, -12.991201400756836, 0.054931640625, -0.3271484375, -0.72021484375
374, 3360692663, -6.036572456359863, 2.884370803833008, 8.001363754272461, -16.998397827148438, -8.636719703674316, -12.625455856323242, 0.052490234375, -0.32421875, -0.721923828125
375, 3360709330, -5.570436477661133, 1.694482445716858, 8.148930549621582, -16.672388076782227, -10.098977088928223, -12.723567008972168, 0.053466796875, -0.31982421875, -0.723876953125
376, 3360725997, -5.391293048858643, 1.9301766157150269, 8.218465805053711, -12.040426254272461, -7.994626998901367, -9.685848236083984, 0.053466796875, -0.318603515625, -0.720458984375
377, 3360742664, -5.305962085723877, 2.126943349838257, 8.275254249572754, -8.97698974609375, -4.955536365509033, -8.377408027648926, 0.052001953125, -0.318603515625, -0.72607421875
378, 3360759331, -5.369793891906738, 1.8779685497283936, 8.16849136352539, -6.638365268707275, -1.8913445472717285, -7.168560981750488, 0.053955078125, -0.316162109375, -0.72412109375
379, 3360775998, -5.322079181671143, 1.9403116703033447, 8.143771171569824, -4.845283508300781, 0.0960412546992302, -5.660933494567871, 0.053466796875, -0.315185546875, -0.72412109375
380, 3360792665, -5.251581192016602, 1.974805235862732, 8.066957473754883, -3.7156217098236084, 1.425558090209961, -4.737094402313232, 0.055419921875, -0.314208984375, -0.722900390625
381, 3360809332, -5.2319817543029785, 1.9218497276306152, 8.097424507141113, -3.760610818862915, 1.8302900791168213, -4.910287857055664, 0.053466796875, -0.314208984375, -0.72314453125
382, 3360825999, -5.254953384399414, 1.8970732688903809, 8.083452224731445, -4.090938091278076, 2.062417984008789, -4.722994804382324, 0.054443359375, -0.313232421875, -0.721923828125
383, 3360842666, -5.26789665222168, 2.136638879776001, 8.055675506591797, -4.883458614349365, 2.608621597290039, -4.881845474243164, 0.056884765625, -0.312255859375, -0.722412109375
384, 3360859333, -5.228387832641602, 2.276226758956909, 7.940276145935059, -5.90424108505249, 0.47221505641937256, -7.254209995269775, 0.056884765625, -0.311767578125, -0.722900390625
385, 3360876000, -5.324557781219482, 1.8959167003631592, 7.976390838623047, -6.250115394592285, -1.5974518060684204, -8.807339668273926, 0.058349609375, -0.310791015625, -0.724853515625
386, 3360892667, -5.324792385101318, 1.6436575651168823, 8.025104522705078, -5.141085147857666, -1.9005908966064453, -7.878443241119385, 0.059326171875, -0.310791015625, -0.725830078125
387, 3360909334, -5.266078472137451, 1.780257225036621, 7.9709625244140625, -3.082603931427002, -0.8340392112731934, -6.458755016326904, 0.06103515625, -0.309814453125, -0.725830078125
388, 3360926001, -5.2418532371521, 1.9509073495864868, 7.9590888023376465, -1.4210566282272339, -0.7874624729156494, -6.454310894012451, 0.059814453125, -0.310302734375, -0.723876953125
389, 3360942668, -5.274084091186523, 1.9570486545562744, 8.004963874816895, 0.4997614920139313, -0.2628760039806366, -7.3824262619018555, 0.059814453125, -0.312255859375, -0.723876953125
390, 3360959335, -5.262489318847656, 2.0082359313964844, 8.049738883972168, 2.0320160388946533, 1.0003875494003296, -9.598246574401855, 0.0625, -0.311767578125, -0.724365234375
391, 3360976002, -5.170604228973389, 2.199737787246704, 8.173283576965332, 2.0897350311279297, 2.3800039291381836, -12.792872428894043, 0.06396484375, -0.313232421875, -0.72412109375
392, 3360992669, -5.0689826011657715, 1.980649471282959, 8.198458671569824, 2.058410882949829, 5.243531703948975, -14.074060440063477, 0.06689453125, -0.314697265625, -0.7236328125
393, 3361009336, -4.849305629730225, 1.8687000274658203, 8.363771438598633, 1.6473528146743774, 11.421399116516113, -13.843063354492188, 0.06787109375, -0.313232421875, -0.72119140625
394, 3361026003, -4.751932144165039, 2.3286688327789307, 8.569912910461426, -0.017724035307765007, 23.772598266601562, -15.407027244567871, 0.072021484375, -0.314208984375, -0.719482421875
395, 3361042670, -4.480037689208984, 1.9313932657241821, 9.106586456298828, 1.2191671133041382, 42.51101303100586, -16.786725997924805, 0.0830078125, -0.312744140625, -0.714599609375
396, 3361059337, -4.631610870361328, 1.5327746868133545, 9.220627784729004, 5.818211555480957, 67.5848388671875, -18.492753982543945, 0.09765625, -0.314453125, -0.716064453125
397, 3361076004, -4.973043918609619, 1.8979238271713257, 9.185290336608887, 13.867496490478516, 95.48812866210938, -23.130556106567383, 0.1162109375, -0.316162109375, -0.7099609375
398, 3361092671, -5.134585380554199, 2.922382354736328, 9.19266128540039, 15.88451862335205, 126.38134002685547, -35.189849853515625, 0.14404296875, -0.319091796875, -0.701904296875
399, 3361109338, -5.553929328918457, 3.868743658065796, 9.601069450378418, 12.043580055236816, 162.10403442382812, -57.720821380615234, 0.17919921875, -0.31689453125, -0.690185546875
400, 3361126005, -5.860723972320557, 3.9506447315216064, 9.603821754455566, 7.310360908508301, 210.06044006347656, -95.6810302734375, 0.225830078125, -0.314697265625, -0.672607421875
401, 3361142672, -5.719498634338379, 4.255753040313721, 10.8401517868042, -6.213828086853027, 275.54107666015625, -138.3006591796875, 0.285400390625, -0.30224609375, -0.65234375
402, 3361159339, -5.635598659515381, 3.825594425201416, 11.530900001525879, -21.69409942626953, 352.42803955078125, -173.5186309814453, 0.35986328125, -0.279541015625, -0.617431640625
403, 3361176006, -7.506713390350342, 4.957006454467773, 12.199152946472168, -23.632156372070312, 419.9933166503906, -211.4315185546875, 0.447021484375, -0.24658203125, -0.560302734375
404, 3361192673, -15.714205741882324, 5.617146015167236, 15.264968872070312, 10.911136627197266, 453.5550842285156, -228.83328247070312, 0.531005859375, -0.210205078125, -0.48681640625
405, 3361209340, -19.535057067871094, 7.2611284255981445, 16.20064926147461, 15.390451431274414, 437.0595397949219, -214.584716796875, 0.6064453125, -0.16845703125, -0.40234375
406, 3361226007, -16.03590202331543, 7.270238399505615, 16.984949111938477, 13.989286422729492, 354.9587097167969, -180.40313720703125, 0.65478515625, -0.125732421875, -0.318603515625
407, 3361242674, -0.1715305745601654, 5.803348541259766, 14.160187721252441, 12.13733196258545, 296.5295715332031, -185.68260192871094, 0.6904296875, -0.080322265625, -0.245361328125
408, 3361259341, -8.879016876220703, 16.70118522644043, 11.802483558654785, -41.3409538269043, 303.45166015625, -131.4519500732422, 0.712158203125, -0.033203125, -0.16455078125
409, 3361276008, -20.55905532836914, 16.846357345581055, 24.947385787963867, -43.548065185546875, 69.28813171386719, 40.101409912109375, 0.718505859375, -0.014892578125, -0.1162109375
410, 3361292675, -7.4590582847595215, 10.706335067749023, 16.69149398803711, -84.3157958984375, -132.91209411621094, 146.38966369628906, 0.724609375, -0.018310546875, -0.107666015625
411, 3361309342, -0.22788956761360168, 3.055870294570923, 8.75505256652832, -109.21575164794922, -195.2526397705078, 175.0261993408203, 0.74072265625, -0.027587890625, -0.1171875
412, 3361326009, 1.87381112575531, -1.1495606899261475, 5.060244083404541, -101.65096282958984, -195.38380432128906, 170.06858825683594, 0.774658203125, -0.033447265625, -0.14453125
413, 3361342676, 1.5946882963180542, -3.9161319732666016, 4.498272895812988, -65.95673370361328, -179.45962524414062, 156.6955108642578, 0.820556640625, -0.05078125, -0.19287109375
414, 3361359343, -0.892594039440155, -3.1009199619293213, 5.895402431488037, -34.36836624145508, -171.86224365234375, 131.87635803222656, 0.86376953125, -0.073486328125, -0.266845703125
415, 3361376010, -4.462947368621826, -1.3899576663970947, 7.995594024658203, -33.20736312866211, -192.07716369628906, 101.38434600830078, 0.87841796875, -0.093017578125, -0.371337890625
416, 3361392677, -6.9194183349609375, -1.0956307649612427, 9.432917594909668, -38.1207160949707, -240.0836181640625, 83.05501556396484, 0.845947265625, -0.113037109375, -0.486083984375
417, 3361409344, -7.425410270690918, -0.9367015957832336, 9.211337089538574, -29.96978187561035, -287.5066223144531, 81.60953521728516, 0.77587890625, -0.123779296875, -0.59130859375
418, 3361426011, -7.381518840789795, -0.15697139501571655, 8.200430870056152, -19.820903778076172, -318.14764404296875, 84.37108612060547, 0.684814453125, -0.132080078125, -0.681884765625
419, 3361442678, -7.060898780822754, 0.22382991015911102, 7.0561842918396, -13.038408279418945, -326.9953918457031, 82.01258087158203, 0.58935546875, -0.136962890625, -0.75048828125
420, 3361459345, -7.093374729156494, -0.20892661809921265, 6.405228614807129, -0.2579098641872406, -310.94110107421875, 70.61151123046875, 0.49609375, -0.140625, -0.806396484375
421, 3361476012, -8.68517780303955, 0.24405845999717712, 7.154154300689697, 22.081546783447266, -274.6522521972656, 51.989967346191406, 0.405517578125, -0.14892578125, -0.84912109375
422, 3361492679, -14.344334602355957, 2.7988860607147217, 10.98147964477539, 42.884307861328125, -247.12249755859375, 36.98826217651367, 0.3173828125, -0.157958984375, -0.874267578125
423, 3361509346, -20.074234008789062, 4.352677345275879, 12.612738609313965, 65.20767211914062, -260.0940856933594, 41.079986572265625, 0.2275390625, -0.17333984375, -0.876953125
424, 3361526013, -23.788127899169922, 5.328134059906006, 9.616700172424316, 80.6414794921875, -266.36737060546875, 65.62342834472656, 0.14501953125, -0.19677734375, -0.87353515625
425, 3361542680, -27.870677947998047, 6.618973255157471, 4.399137496948242, 63.12916564941406, -248.8233642578125, 88.1908950805664, 0.069091796875, -0.23291015625, -0.867431640625
426, 3361559347, -31.448017120361328, 4.791904449462891, -1.1562178134918213, 28.45398712158203, -228.6712188720703, 114.38196563720703, -0.001708984375, -0.25244140625, -0.861083984375
427, 3361576014, -29.164474487304688, -0.6887194514274597, -7.12990665435791, 9.132436752319336, -201.4093780517578, 144.15443420410156, -0.066162109375, -0.264892578125, -0.854736328125
428, 3361592681, -25.24977684020996, -10.482590675354004, -13.146171569824219, -8.543227195739746, -116.48561096191406, 121.15383911132812, -0.112060546875, -0.26416015625, -0.84326171875
429, 3361609348, -25.636125564575195, -16.680335998535156, -18.564897537231445, 5.330349922180176, -0.9302823543548584, 32.4539794921875, -0.125, -0.264404296875, -0.8359375
430, 3361626015, -26.31593132019043, -14.060383796691895, -18.201171875, -0.8025369048118591, 87.2053451538086, -80.47978210449219, -0.110107421875, -0.26513671875, -0.8330078125
431, 3361642682, -11.615610122680664, -1.9075850248336792, 7.531692028045654, 0.40967828035354614, 149.62525939941406, -140.4161834716797, -0.0673828125, -0.263916015625, -0.835205078125
432, 3361659349, -14.760140419006348, 18.605140686035156, 16.30844497680664, -14.752836227416992, 58.16263198852539, -98.44719696044922, -0.041259765625, -0.259521484375, -0.8349609375
433, 3361676016, -4.688974857330322, 6.300196170806885, 4.756772994995117, -40.4272346496582, 95.64747619628906, -43.4063835144043, -0.021484375, -0.25, -0.83544921875
434, 3361692683, -9.048321723937988, -4.187460899353027, 10.929191589355469, -32.497711181640625, 102.4761962890625, -22.606473922729492, 0.005615234375, -0.236328125, -0.837890625
435, 3361709350, -15.641545295715332, 5.968748092651367, 12.427050590515137, -50.64216613769531, 48.834938049316406, -65.04437255859375, 0.024169921875, -0.226318359375, -0.8369140625
436, 3361726017, -7.675294399261475, -0.4662126302719116, 8.72095012664795, -48.01164627075195, 3.6464028358459473, -34.21299362182617, 0.031005859375, -0.21044921875, -0.841064453125
437, 3361742684, -5.779030799865723, 2.6499698162078857, 8.648418426513672, -28.390783309936523, -2.420973539352417, -19.940210342407227, 0.029541015625, -0.201904296875, -0.8427734375
438, 3361759351, -6.065762042999268, 1.1981643438339233, 8.861634254455566, -11.244200706481934, -2.118722677230835, -10.076236724853516, 0.030029296875, -0.19970703125, -0.84228515625
439, 3361776018, -5.846073150634766, 1.5631555318832397, 8.33627700805664, -6.217779159545898, -0.19601403176784515, -6.642091751098633, 0.030029296875, -0.1962890625, -0.841796875
440, 3361792685, -5.583454132080078, 1.771295189857483, 8.141127586364746, -3.2225260734558105, 0.6785380840301514, -4.00065279006958, 0.031494140625, -0.19580078125, -0.84375
441, 3361809352, -5.41213846206665, 2.2711222171783447, 8.11949634552002, -0.9467477798461914, 2.73421311378479, -3.0337600708007812, 0.03466796875, -0.1962890625, -0.841552734375
442, 3361826019, -5.443564414978027, 2.2901713848114014, 8.081896781921387, -0.3698729872703552, 4.287598133087158, -3.527240753173828, 0.03369140625, -0.19482421875, -0.841064453125
443, 3361842686, -5.490319728851318, 2.2093634605407715, 8.029353141784668, -0.6182650923728943, 5.3248372077941895, -4.536164283752441, 0.03369140625, -0.197265625, -0.840576171875
444, 3361859353, -5.447710037231445, 2.112556219100952, 8.012639999389648, -1.0825207233428955, 5.304320335388184, -4.935797691345215, 0.03369140625, -0.19580078125, -0.841064453125
445, 3361876020, -5.3242106437683105, 2.100600004196167, 8.057880401611328, -0.5453200936317444, 5.589505195617676, -4.164536476135254, 0.03759765625, -0.1982421875, -0.840576171875
446, 3361892687, -5.407608985900879, 2.148557186126709, 7.918123245239258, 0.5114280581474304, 6.142265319824219, -3.0245654582977295, 0.04150390625, -0.19775390625, -0.83984375
447, 3361909354, -5.430500507354736, 2.1153242588043213, 7.895711898803711, 0.46962806582450867, 5.104540824890137, -2.9713804721832275, 0.041259765625, -0.200439453125, -0.83984375
448, 3361926021, -5.447062015533447, 2.2326295375823975, 7.875338554382324, -0.04690966010093689, 3.94883131980896, -3.0138332843780518, 0.043701171875, -0.200927734375, -0.83837890625
449, 3361942688, -5.4795918464660645, 2.3289873600006104, 7.77103328704834, -0.6581952571868896, 2.2977988719940186, -3.270947217941284, 0.043212890625, -0.197509765625, -0.8388671875
450, 3361959355, -5.395910263061523, 2.3197457790374756, 7.754406452178955, -0.6962299346923828, 1.15317964553833, -3.8798630237579346, 0.045166015625, -0.202392578125, -0.839599609375
451, 3361976022, -5.284257888793945, 2.1749534606933594, 7.861955642700195, -0.7464693784713745, 0.21074768900871277, -4.278537750244141, 0.045654296875, -0.201416015625, -0.840087890625
452, 3361992689, -5.406100273132324, 2.1077184677124023, 7.854570388793945, -0.16468966007232666, -0.04256831109523773, -4.25227165222168, 0.046142578125, -0.201416015625, -0.840576171875
453, 3362009356, -5.362546443939209, 1.9977281093597412, 7.861567974090576, 1.4509787559509277, 0.8098928332328796, -3.342419147491455, 0.046630859375, -0.198974609375, -0.84033203125
454, 3362026023, -5.283931732177734, 2.189145088195801, 7.907532215118408, 3.576845645904541, 2.17574143409729, -2.9676284790039062, 0.045654296875, -0.204833984375, -0.837646484375
455, 3362042690, -5.278563499450684, 2.139425039291382, 7.968422889709473, 6.6676459312438965, 4.966924667358398, -2.925316572189331, 0.046142578125, -0.205322265625, -0.837158203125
456, 3362059357, -5.281913757324219, 2.2458438873291016, 7.954941272735596, 8.951407432556152, 8.64828109741211, -3.5870096683502197, 0.0517578125, -0.2080078125, -0.8388671875
457, 3362076024, -5.312629222869873, 2.2769529819488525, 7.929006576538086, 9.728678703308105, 12.409869194030762, -4.680251121520996, 0.0537109375, -0.2099609375, -0.835205078125
458, 3362092691, -5.24155855178833, 2.584428310394287, 8.075539588928223, 9.448609352111816, 17.439565658569336, -7.077567100524902, 0.05859375, -0.21044921875, -0.835205078125
459, 3362109358, -5.17210578918457, 2.906809091567993, 8.11542797088623, 8.19894027709961, 26.325170516967773, -12.754960060119629, 0.065673828125, -0.214111328125, -0.832275390625
460, 3362126025, -4.7649383544921875, 2.543271780014038, 8.802840232849121, 5.119954586029053, 39.722721099853516, -17.12021827697754, 0.07421875, -0.215576171875, -0.83251953125
461, 3362142692, -4.804574012756348, 2.175154447555542, 8.85908317565918, 10.144814491271973, 61.69381332397461, -20.95364761352539, 0.0908203125, -0.2177734375, -0.826416015625
462, 3362159359, -4.946096897125244, 2.168383836746216, 8.833534240722656, 19.127918243408203, 90.05396270751953, -25.54233169555664, 0.109375, -0.220947265625, -0.82568359375
463, 3362176026, -5.197617530822754, 2.7456955909729004, 8.925464630126953, 25.834339141845703, 124.79672241210938, -31.692928314208984, 0.139892578125, -0.22607421875, -0.815673828125
464, 3362192693, -4.961970329284668, 3.940526247024536, 9.471890449523926, 27.490962982177734, 164.28848266601562, -47.643436431884766, 0.17919921875, -0.231689453125, -0.808349609375
465, 3362209360, -5.283699989318848, 4.473779678344727, 9.173259735107422, 31.70973014831543, 219.5485076904297, -77.669677734375, 0.227783203125, -0.235595703125, -0.7890625
466, 3362226027, -5.987468242645264, 3.802398920059204, 9.282591819763184, 23.8723087310791, 285.6912841796875, -120.28096771240234, 0.29736328125, -0.23193359375, -0.76171875
467, 3362242694, -6.831960678100586, 4.0286760330200195, 10.746156692504883, 9.217459678649902, 363.1506042480469, -159.7208251953125, 0.3818359375, -0.218505859375, -0.723388671875
468, 3362259361, -7.626021862030029, 6.013230323791504, 11.544663429260254, 1.0731092691421509, 430.5531921386719, -200.28831481933594, 0.47607421875, -0.1943359375, -0.665283203125
469, 3362276028, -18.19849967956543, 7.340197563171387, 14.857430458068848, 15.575662612915039, 453.24072265625, -212.2652130126953, 0.5703125, -0.161376953125, -0.58837890625
470, 3362292695, -21.367469787597656, 7.344807147979736, 15.569260597229004, 19.781177520751953, 406.1624450683594, -194.66482543945312, 0.649169921875, -0.13232421875, -0.504150390625
471, 3362309362, -16.55992317199707, 8.318868637084961, 16.547500610351562, 14.51123046875, 330.6559143066406, -177.795166015625, 0.7080078125, -0.0986328125, -0.424560546875
472, 3362326029, -1.8623707294464111, 6.673473834991455, 14.298583984375, -8.377488136291504, 277.4466857910156, -189.87765502929688, 0.744873046875, -0.062744140625, -0.34814453125
473, 3362342696, -4.09843111038208, 9.921015739440918, 10.376254081726074, -42.21744918823242, 295.9223937988281, -190.0613250732422, 0.77294921875, -0.014892578125, -0.272705078125
474, 3362359363, -20.34640884399414, 12.884657859802246, 24.482900619506836, -23.84922981262207, 98.6132583618164, -62.89226531982422, 0.785888671875, 0.007080078125, -0.22509765625
475, 3362376030, -8.92238998413086, 11.73452091217041, 18.318510055541992, -30.79108428955078, -119.86100769042969, 43.468196868896484, 0.77392578125, 9.765625E-4, -0.229248046875
476, 3362392697, -0.31977134943008423, 6.931276798248291, 9.511959075927734, -67.2718734741211, -200.31008911132812, 84.44554138183594, 0.754638671875, -0.011474609375, -0.25390625
477, 3362409364, 1.9425121545791626, 3.1388096809387207, 5.194519519805908, -81.92632293701172, -207.75213623046875, 91.75700378417969, 0.73583984375, -0.029052734375, -0.28271484375
478, 3362426031, 2.0305001735687256, 1.2353382110595703, 3.667768716812134, -70.89083099365234, -192.17347717285156, 100.43763732910156, 0.720703125, -0.047119140625, -0.30615234375
479, 3362442698, 0.3149349093437195, 0.8719943761825562, 4.067471981048584, -52.35401916503906, -173.8563690185547, 111.35980224609375, 0.70947265625, -0.06396484375, -0.327880859375
480, 3362459365, -3.5222487449645996, 2.191976308822632, 6.161629676818848, -47.011619567871094, -175.24679565429688, 114.76103210449219, 0.698486328125, -0.08642578125, -0.344482421875
481, 3362476032, -7.536648750305176, 3.187201738357544, 8.456957817077637, -55.32901382446289, -213.40281677246094, 118.74868774414062, 0.68994140625, -0.110107421875, -0.372802734375
482, 3362492699, -8.634527206420898, 3.1126935482025146, 8.657940864562988, -63.968711853027344, -267.79852294921875, 130.01226806640625, 0.678955078125, -0.137939453125, -0.422119140625
483, 3362509366, -7.79598331451416, 2.4479713439941406, 7.295014381408691, -65.72679138183594, -301.68206787109375, 139.8899383544922, 0.650634765625, -0.16796875, -0.490478515625
484, 3362526033, -7.281631946563721, 1.5842522382736206, 6.033479690551758, -59.57741165161133, -307.5896911621094, 140.20631408691406, 0.602294921875, -0.19921875, -0.56982421875
485, 3362542700, -7.664241313934326, 0.41837096214294434, 5.381106853485107, -41.44993591308594, -292.7216796875, 126.69023132324219, 0.534912109375, -0.22509765625, -0.63720703125
486, 3362559367, -8.93968391418457, -0.603275716304779, 5.902570724487305, -8.374131202697754, -257.30303955078125, 99.32280731201172, 0.45849609375, -0.24560546875, -0.67919921875
487, 3362576034, -14.600112915039062, 1.1005640029907227, 9.631109237670898, 28.295673370361328, -230.01239013671875, 67.71508026123047, 0.3916015625, -0.2646484375, -0.6884765625
488, 3362592701, -21.189512252807617, 2.540900230407715, 11.627561569213867, 61.25151062011719, -248.4246063232422, 51.148258209228516, 0.33984375, -0.2802734375, -0.683349609375
489, 3362609368, -25.802562713623047, 3.005561590194702, 8.690876007080078, 88.09416198730469, -273.7705078125, 52.050209045410156, 0.2998046875, -0.301025390625, -0.6787109375
490, 3362626035, -28.751590728759766, 4.424661636352539, 2.716627597808838, 87.27088165283203, -273.3793640136719, 49.62594985961914, 0.268310546875, -0.328125, -0.686767578125
491, 3362642702, -30.33155632019043, 3.5470080375671387, -4.060554504394531, 69.47688293457031, -252.9957275390625, 52.04379653930664, 0.236328125, -0.35205078125, -0.708740234375
492, 3362659369, -28.459854125976562, 0.10763503611087799, -10.205398559570312, 68.52661895751953, -205.2413787841797, 73.2863998413086, 0.193359375, -0.3759765625, -0.72998046875
493, 3362676036, -26.811920166015625, -5.522670745849609, -11.973688125610352, 77.6164779663086, -133.1090087890625, 103.48309326171875, 0.156494140625, -0.40478515625, -0.744873046875
494, 3362692703, -25.317169189453125, -9.722088813781738, -11.577072143554688, 71.73558044433594, -63.09735107421875, 109.19176483154297, 0.1240234375, -0.430908203125, -0.75341796875
495, 3362709370, -25.679325103759766, -7.550669193267822, -8.276657104492188, 11.694439888000488, 2.777012825012207, 50.324466705322266, 0.109130859375, -0.4482421875, -0.757080078125
496, 3362726037, -18.092525482177734, -9.457236289978027, -8.071986198425293, -48.06107711791992, 66.2337417602539, -61.578041076660156, 0.126708984375, -0.4365234375, -0.762451171875
497, 3362742704, -4.642583847045898, 12.23338794708252, 14.896560668945312, -63.47703170776367, 52.90978240966797, -83.30640411376953, 0.1552734375, -0.426025390625, -0.76611328125
498, 3362759371, 3.870105028152466, 8.050299644470215, 3.1604607105255127, -77.15673065185547, 69.53611755371094, -86.52365112304688, 0.18310546875, -0.4072265625, -0.776611328125
499, 3362776038, -9.060590744018555, -2.4319963455200195, 9.766026496887207, -81.68572998046875, 131.5601348876953, -55.90569305419922, 0.220703125, -0.386962890625, -0.780029296875
500, 3362792705, -12.650888442993164, -6.336002826690674, 12.594644546508789, -48.87961959838867, 99.52416229248047, -58.770206451416016, 0.2568359375, -0.36962890625, -0.781982421875
501, 3362809372, -15.196695327758789, 6.742763996124268, 13.038561820983887, -52.38185119628906, 54.631195068359375, -53.21052551269531, 0.283935546875, -0.35888671875, -0.783447265625
502, 3362826039, -6.5172224044799805, -1.0757302045822144, 9.74992847442627, -33.08495330810547, 26.911052703857422, -25.37428092956543, 0.29638671875, -0.347412109375, -0.78515625
503, 3362842706, -6.7034149169921875, 3.4031996726989746, 7.642345905303955, -12.780635833740234, 10.460501670837402, -9.101995468139648, 0.303466796875, -0.343505859375, -0.78662109375
504, 3362859373, -5.924086093902588, 2.929832935333252, 7.916509628295898, -8.030405044555664, 5.155819416046143, -6.490991592407227, 0.3046875, -0.341064453125, -0.78955078125
505, 3362876040, -6.091877460479736, 2.234325647354126, 7.996697425842285, -5.692232131958008, 1.3516913652420044, -5.824880123138428, 0.303466796875, -0.33984375, -0.78466796875
506, 3362892707, -5.742520809173584, 2.36810302734375, 8.13585376739502, -1.7869726419448853, 2.862468957901001, -4.734046936035156, 0.30810546875, -0.33837890625, -0.784423828125
507, 3362909374, -5.64840841293335, 2.114044189453125, 8.099334716796875, 2.589860439300537, 5.078671932220459, -3.8183670043945312, 0.30810546875, -0.33935546875, -0.783935546875
508, 3362926041, -5.66702127456665, 2.2520132064819336, 7.93943452835083, 5.570450782775879, 8.35689640045166, -2.108015775680542, 0.31298828125, -0.341552734375, -0.78369140625
509, 3362942708, -5.580682277679443, 2.2125205993652344, 7.859432697296143, 7.553401947021484, 10.83559513092041, -0.8693214058876038, 0.3154296875, -0.343017578125, -0.78173828125
510, 3362959375, -5.572014808654785, 2.6864378452301025, 7.678843021392822, 7.3472065925598145, 11.838869094848633, -1.5137243270874023, 0.316650390625, -0.34765625, -0.781494140625
511, 3362976042, -5.702514171600342, 2.7705094814300537, 7.584101676940918, 4.858890533447266, 10.150579452514648, -2.8060004711151123, 0.320068359375, -0.347900390625, -0.77734375
512, 3362992709, -5.715726852416992, 2.660893678665161, 7.571331024169922, 2.662485361099243, 7.636869430541992, -3.6206889152526855, 0.322021484375, -0.35009765625, -0.7763671875
513, 3363009376, -5.676873207092285, 2.6523797512054443, 7.6009416580200195, 1.890531301498413, 5.921317100524902, -3.53069806098938, 0.325439453125, -0.3515625, -0.773681640625
514, 3363026043, -5.713755130767822, 2.5210957527160645, 7.603521347045898, 1.6109044551849365, 4.762431621551514, -3.527522087097168, 0.32666015625, -0.3515625, -0.774169921875
515, 3363042710, -5.708958625793457, 2.541224718093872, 7.608823776245117, 2.4552013874053955, 3.921285390853882, -3.1196014881134033, 0.330078125, -0.35302734375, -0.7734375
516, 3363059377, -5.63903284072876, 2.5739192962646484, 7.583594799041748, 3.272170305252075, 4.06770133972168, -2.68294358253479, 0.328125, -0.356201171875, -0.771484375
517, 3363076044, -5.571665287017822, 2.666261672973633, 7.560188293457031, 4.026963710784912, 4.670406341552734, -3.2331559658050537, 0.33154296875, -0.357666015625, -0.771728515625
518, 3363092711, -5.563955783843994, 2.746842622756958, 7.515515327453613, 3.6950743198394775, 5.234128952026367, -4.353237628936768, 0.33154296875, -0.356689453125, -0.769775390625
519, 3363109378, -5.609243869781494, 2.675147771835327, 7.547050952911377, 3.735786199569702, 6.30518913269043, -4.679889678955078, 0.333984375, -0.358642578125, -0.767822265625
520, 3363126045, -5.641266822814941, 2.680615186691284, 7.565275192260742, 4.923281669616699, 8.184754371643066, -4.808696746826172, 0.337158203125, -0.360107421875, -0.76513671875
521, 3363142712, -5.536540985107422, 2.7726640701293945, 7.603344917297363, 5.835608005523682, 11.451580047607422, -5.842644691467285, 0.342041015625, -0.362548828125, -0.764404296875
522, 3363159379, -5.6100993156433105, 2.558466911315918, 7.572257041931152, 9.230311393737793, 16.368837356567383, -7.978648662567139, 0.344482421875, -0.361572265625, -0.763427734375
523, 3363176046, -5.4915666580200195, 2.856017589569092, 7.708139896392822, 16.019927978515625, 21.102079391479492, -13.348420143127441, 0.35107421875, -0.365234375, -0.760009765625
524, 3363192713, -5.6573076248168945, 2.6995058059692383, 7.859861373901367, 20.377559661865234, 26.6091365814209, -17.123571395874023, 0.357177734375, -0.36962890625, -0.754150390625
525, 3363209380, -5.418582916259766, 2.644819974899292, 8.19158935546875, 13.804128646850586, 38.50475311279297, -16.100994110107422, 0.3681640625, -0.371337890625, -0.749755859375
526, 3363226047, -5.403304576873779, 2.7769405841827393, 8.066908836364746, 16.475984573364258, 55.15150451660156, -18.560108184814453, 0.380126953125, -0.372802734375, -0.74169921875
527, 3363242714, -5.373222827911377, 2.728579044342041, 8.270770072937012, 19.402997970581055, 78.16291809082031, -22.07584571838379, 0.398681640625, -0.375, -0.732666015625
528, 3363259381, -5.2516188621521, 3.0532355308532715, 8.268767356872559, 22.71729278564453, 109.07000732421875, -26.44725799560547, 0.422607421875, -0.37890625, -0.7197265625
529, 3363276048, -5.449113845825195, 3.463615655899048, 8.243430137634277, 28.01649284362793, 146.39102172851562, -36.33755874633789, 0.45263671875, -0.381591796875, -0.700439453125
530, 3363292715, -5.301066875457764, 4.208320140838623, 8.732391357421875, 32.7370719909668, 194.42465209960938, -54.18853759765625, 0.493408203125, -0.38134765625, -0.67236328125
531, 3363309382, -5.28397798538208, 3.743713140487671, 8.385865211486816, 27.56037139892578, 256.6992492675781, -82.22455596923828, 0.54736328125, -0.3759765625, -0.635986328125
532, 3363326049, -6.284065246582031, 4.130112171173096, 8.832483291625977, 27.666454315185547, 334.2518005371094, -119.75892639160156, 0.61474609375, -0.366943359375, -0.58154296875
533, 3363342716, -9.369976997375488, 5.294618129730225, 11.171525001525879, 19.725811004638672, 403.8558044433594, -162.06077575683594, 0.693115234375, -0.341552734375, -0.5087890625
534, 3363359383, -13.379401206970215, 7.286035060882568, 12.11202621459961, 17.927278518676758, 459.6321716308594, -190.86212158203125, 0.76953125, -0.3037109375, -0.41796875
535, 3363376050, -23.630178451538086, 7.8507399559021, 14.779060363769531, 25.832279205322266, 428.7370910644531, -177.59725952148438, 0.830322265625, -0.266357421875, -0.322021484375
536, 3363392717, -20.184566497802734, 7.861883163452148, 15.65339469909668, 16.47344970703125, 353.823974609375, -166.48648071289062, 0.866455078125, -0.2265625, -0.244140625
537, 3363409384, -10.416919708251953, 6.941301345825195, 15.523283958435059, 6.1185383796691895, 301.16510009765625, -158.9636688232422, 0.88037109375, -0.193115234375, -0.1796875
538, 3363426051, 4.054183483123779, 6.485537528991699, 13.023234367370605, -11.324433326721191, 268.96978759765625, -168.79368591308594, 0.88818359375, -0.1552734375, -0.1279296875
539, 3363442718, -13.456670761108398, 8.513694763183594, 17.64979362487793, 0.8589566349983215, 254.5275421142578, -128.43875122070312, 0.8828125, -0.12109375, -0.073486328125
540, 3363459385, -18.409849166870117, 12.573843955993652, 25.18052101135254, 9.537873268127441, -27.212326049804688, -9.059330940246582, 0.86376953125, -0.11865234375, -0.07958984375
541, 3363476052, -4.622148036956787, 9.657349586486816, 15.337041854858398, -36.800445556640625, -201.8411407470703, 51.368873596191406, 0.8232421875, -0.131591796875, -0.1298828125
542, 3363492719, 0.009158551692962646, 5.225142002105713, 8.627327919006348, -82.58987426757812, -251.6895751953125, 53.52803421020508, 0.778076171875, -0.13916015625, -0.1787109375
543, 3363509386, 0.3095407485961914, 2.5700225830078125, 5.5582427978515625, -93.05229949951172, -256.6822509765625, 46.26294708251953, 0.74462890625, -0.13525390625, -0.218994140625
544, 3363526053, -0.5449321866035461, 0.9991632103919983, 4.7509965896606445, -69.45726776123047, -251.44137573242188, 56.801422119140625, 0.718994140625, -0.1357421875, -0.247802734375
545, 3363542720, -1.977668285369873, 1.746054768562317, 5.0450758934021, -37.87844467163086, -245.9263458251953, 72.22802734375, 0.707763671875, -0.139892578125, -0.279296875
546, 3363559387, -4.6080002784729, 3.424464225769043, 6.456823825836182, -25.949954986572266, -251.06248474121094, 83.51364135742188, 0.70654296875, -0.15771484375, -0.320556640625
547, 3363576054, -7.1843085289001465, 4.5436601638793945, 7.6183671951293945, -34.04385757446289, -275.72528076171875, 93.7170639038086, 0.701904296875, -0.176025390625, -0.3759765625
548, 3363592721, -8.182897567749023, 4.440996170043945, 7.9160966873168945, -44.97618103027344, -304.6034240722656, 106.45531463623047, 0.689697265625, -0.20361328125, -0.44775390625
549, 3363609388, -7.879552841186523, 3.494797468185425, 6.818569660186768, -45.261863708496094, -320.5328674316406, 118.83065032958984, 0.6640625, -0.242431640625, -0.537841796875
550, 3363626055, -7.589386940002441, 2.4894237518310547, 5.992892265319824, -31.126678466796875, -310.4911804199219, 122.21088409423828, 0.607421875, -0.29296875, -0.639404296875
551, 3363642722, -8.683958053588867, 1.83829927444458, 5.891413688659668, -10.612837791442871, -279.4511413574219, 113.0921630859375, 0.51611328125, -0.342041015625, -0.72802734375
552, 3363659389, -11.75118637084961, 2.734182357788086, 8.4528226852417, 10.890137672424316, -243.391357421875, 94.48149108886719, 0.39501953125, -0.37255859375, -0.773193359375
553, 3363676056, -18.019474029541016, 4.287877082824707, 12.09103012084961, 35.004432678222656, -242.9259490966797, 83.64732360839844, 0.2861328125, -0.390380859375, -0.77783203125
554, 3363692723, -21.66570472717285, 5.05630350112915, 11.467772483825684, 55.290096282958984, -262.79449462890625, 84.75376892089844, 0.1884765625, -0.400146484375, -0.76513671875
555, 3363709390, -23.725536346435547, 5.667102336883545, 7.557799339294434, 58.50891876220703, -261.3410949707031, 80.34467315673828, 0.109375, -0.406982421875, -0.74462890625
556, 3363726057, -27.047149658203125, 5.639908790588379, 3.5751447677612305, 48.77107238769531, -242.6824951171875, 70.40013122558594, 0.044677734375, -0.408935546875, -0.7197265625
557, 3363742724, -30.2840576171875, 2.915736198425293, -1.168864130973816, 55.83781433105469, -233.562744140625, 82.49617767333984, -0.00146484375, -0.408447265625, -0.69091796875
558, 3363759391, -27.37786102294922, -1.5329535007476807, -6.973573207855225, 68.15382385253906, -209.4794921875, 100.35853576660156, -0.034423828125, -0.418212890625, -0.669677734375
559, 3363776058, -25.42559051513672, -10.588887214660645, -11.667593002319336, 81.6280288696289, -147.33998107910156, 97.4919662475586, -0.056640625, -0.429443359375, -0.656494140625
560, 3363792725, -23.591047286987305, -12.16148853302002, -15.04847526550293, 58.31389617919922, -46.285240173339844, 29.560163497924805, -0.063232421875, -0.443359375, -0.645751953125
561, 3363809392, -22.50462532043457, -9.093971252441406, -12.76228141784668, -23.829317092895508, 53.01795196533203, -84.70052337646484, -0.0439453125, -0.43994140625, -0.646728515625
562, 3363826059, -16.00935173034668, -5.029736518859863, -4.4039201736450195, -58.18039321899414, 108.04532623291016, -148.82656860351562, 0.001220703125, -0.427734375, -0.647216796875
563, 3363842726, -8.103299140930176, 12.600003242492676, 15.80494499206543, -68.7810287475586, 95.55004119873047, -101.12741088867188, 0.036376953125, -0.406494140625, -0.6494140625
564, 3363859393, -3.153815746307373, 8.321711540222168, 6.371683597564697, -62.9588623046875, 98.9617919921875, -61.29631805419922, 0.06787109375, -0.3896484375, -0.652099609375
565, 3363876060, -10.075577735900879, -2.9940550327301025, 11.758767127990723, -56.373435974121094, 134.97076416015625, -38.15578842163086, 0.10107421875, -0.371337890625, -0.65087890625
566, 3363892727, -12.157539367675781, -6.803361415863037, 11.936895370483398, -24.892620086669922, 97.15657806396484, -46.68130874633789, 0.130126953125, -0.3583984375, -0.644775390625
567, 3363909394, -9.049617767333984, 6.8963398933410645, 11.978015899658203, -19.780303955078125, 75.57555389404297, -60.71124267578125, 0.1552734375, -0.35107421875, -0.638916015625
568, 3363926061, -12.357977867126465, 3.9766008853912354, 6.764570713043213, -55.615962982177734, 27.721885681152344, -37.013824462890625, 0.170166015625, -0.338623046875, -0.641845703125
569, 3363942728, -6.651203155517578, 0.33049750328063965, 10.169784545898438, -22.970172882080078, 4.355562686920166, -20.209688186645508, 0.172119140625, -0.3310546875, -0.642333984375
570, 3363959395, -6.223672389984131, 1.769333004951477, 8.81983757019043, -8.06826114654541, 8.415255546569824, -6.0761942863464355, 0.1767578125, -0.32763671875, -0.642578125
571, 3363976062, -5.747941493988037, 2.066791534423828, 8.25778865814209, 1.2716130018234253, 8.358648300170898, -1.043448805809021, 0.17919921875, -0.32666015625, -0.64208984375
572, 3363992729, -5.803309917449951, 2.264413595199585, 7.983722686767578, 6.053877830505371, 8.859967231750488, 1.236037254333496, 0.18115234375, -0.3271484375, -0.642578125
573, 3364009396, -5.70029878616333, 2.5701000690460205, 7.988821983337402, 9.512492179870605, 10.177898406982422, 1.8814653158187866, 0.183349609375, -0.3291015625, -0.636474609375
574, 3364026063, -5.820895195007324, 2.705392599105835, 7.894262790679932, 10.404253005981445, 10.984689712524414, 0.2833215296268463, 0.186279296875, -0.33203125, -0.634765625
575, 3364042730, -5.747166633605957, 2.5440542697906494, 7.8766303062438965, 10.789904594421387, 11.781768798828125, 0.13895542919635773, 0.186767578125, -0.334716796875, -0.631103515625
576, 3364059397, -5.612120151519775, 2.5963292121887207, 7.841005325317383, 10.940316200256348, 13.401904106140137, 0.30479785799980164, 0.191650390625, -0.338623046875, -0.63037109375
577, 3364076064, -5.623173236846924, 2.51417875289917, 7.765300750732422, 10.320384979248047, 14.482516288757324, -0.1816326379776001, 0.190673828125, -0.340087890625, -0.63037109375
578, 3364092731, -5.60375452041626, 2.363633155822754, 7.769283294677734, 10.162727355957031, 15.547035217285156, 0.04292052984237671, 0.19677734375, -0.34228515625, -0.626220703125
579, 3364109398, -5.676577568054199, 2.595235586166382, 7.615813732147217, 10.16482925415039, 16.174434661865234, 0.5922623872756958, 0.19873046875, -0.3427734375, -0.623046875
580, 3364126065, -5.722875595092773, 2.888435125350952, 7.430654525756836, 8.511743545532227, 15.06788444519043, 0.3668190836906433, 0.20068359375, -0.34716796875, -0.620361328125
581, 3364142732, -5.812984466552734, 3.010817289352417, 7.326998710632324, 6.176973342895508, 11.795711517333984, -1.2421525716781616, 0.204345703125, -0.34912109375, -0.619140625
582, 3364159399, -5.888546466827393, 2.8458828926086426, 7.303784370422363, 4.030728816986084, 7.9998273849487305, -2.5671615600585938, 0.206298828125, -0.349853515625, -0.61767578125
583, 3364176066, -5.862961292266846, 2.7649219036102295, 7.333195686340332, 2.2085254192352295, 5.027305603027344, -2.644831657409668, 0.209228515625, -0.350830078125, -0.616943359375
584, 3364192733, -5.780512809753418, 2.746314764022827, 7.399940013885498, 0.9872990250587463, 3.254880905151367, -2.566392421722412, 0.208740234375, -0.351318359375, -0.61669921875
585, 3364209400, -5.629336833953857, 2.8205349445343018, 7.444529056549072, 0.8561237454414368, 2.965918779373169, -2.9822661876678467, 0.210205078125, -0.351806640625, -0.616943359375
586, 3364226067, -5.633365154266357, 2.76320743560791, 7.505314350128174, 1.7672570943832397, 3.6646974086761475, -4.087838172912598, 0.210693359375, -0.355224609375, -0.614013671875
587, 3364242734, -5.741885662078857, 2.6201045513153076, 7.483154773712158, 3.1374988555908203, 4.898462295532227, -4.712315559387207, 0.212158203125, -0.355712890625, -0.61328125
588, 3364259401, -5.775982856750488, 2.6776814460754395, 7.453693866729736, 4.078125953674316, 6.204761505126953, -4.474399089813232, 0.2138671875, -0.353759765625, -0.61328125
589, 3364276068, -5.748725891113281, 2.7768213748931885, 7.416906356811523, 4.9481635093688965, 7.496461391448975, -4.749979019165039, 0.21533203125, -0.356201171875, -0.611328125
590, 3364292735, -5.674597263336182, 2.855750799179077, 7.320483684539795, 6.255194664001465, 9.577214241027832, -5.600284099578857, 0.21875, -0.354736328125, -0.609130859375
591, 3364309402, -5.527709484100342, 2.9161336421966553, 7.515190124511719, 9.910508155822754, 12.98192310333252, -8.651161193847656, 0.22265625, -0.356689453125, -0.607421875
592, 3364326069, -5.37128210067749, 3.022677183151245, 7.709912300109863, 15.918768882751465, 20.708242416381836, -13.393176078796387, 0.228271484375, -0.359375, -0.602783203125
593, 3364342736, -5.36531925201416, 2.964916229248047, 8.111942291259766, 21.365989685058594, 32.4722785949707, -17.70979881286621, 0.235107421875, -0.36181640625, -0.597900390625
594, 3364359403, -5.30173921585083, 2.567533016204834, 8.372868537902832, 14.964847564697266, 51.82276153564453, -16.725278854370117, 0.24609375, -0.36279296875, -0.591552734375
595, 3364376070, -5.235598564147949, 2.9852991104125977, 8.466723442077637, 19.96495819091797, 78.7810287475586, -19.409564971923828, 0.26123046875, -0.365478515625, -0.5859375
596, 3364392737, -5.14898681640625, 3.2592966556549072, 8.408775329589844, 23.464263916015625, 111.29238891601562, -26.817354202270508, 0.28076171875, -0.367919921875, -0.57275390625
597, 3364409404, -4.921917915344238, 3.9239907264709473, 8.399306297302246, 30.327651977539062, 154.11985778808594, -39.01540756225586, 0.309814453125, -0.369140625, -0.5556640625
598, 3364426071, -4.983488082885742, 4.05231237411499, 8.705744743347168, 38.5438232421875, 209.57545471191406, -58.0838737487793, 0.3486328125, -0.372314453125, -0.531982421875
599, 3364442738, -4.9557204246521, 4.056188583374023, 9.152480125427246, 31.776752471923828, 278.4564208984375, -87.47151184082031, 0.399169921875, -0.368408203125, -0.500732421875
600, 3364459405, -6.405740261077881, 3.6527798175811768, 9.027475357055664, 31.85536003112793, 369.1104736328125, -121.42625427246094, 0.4619140625, -0.3583984375, -0.451416015625
601, 3364476072, -10.224896430969238, 6.0241827964782715, 11.352867126464844, 21.3392391204834, 439.68060302734375, -167.04420471191406, 0.53515625, -0.339599609375, -0.38330078125
602, 3364492739, -19.4348201751709, 9.421869277954102, 14.47158432006836, 21.96224594116211, 476.0788879394531, -193.03536987304688, 0.611083984375, -0.30908203125, -0.302490234375
603, 3364509406, -23.400997161865234, 8.510445594787598, 14.71071720123291, 17.666637420654297, 407.1752014160156, -185.68165588378906, 0.673828125, -0.279296875, -0.220703125
604, 3364526073, -17.62847900390625, 9.311760902404785, 15.800060272216797, 12.97286605834961, 328.3621826171875, -172.4099578857422, 0.721923828125, -0.253662109375, -0.15234375
605, 3364542740, -6.477469444274902, 8.149687767028809, 14.768640518188477, 2.3992629051208496, 280.1356201171875, -174.76429748535156, 0.76171875, -0.222900390625, -0.093017578125
606, 3364559407, 1.971964955329895, 8.96609115600586, 9.787165641784668, -41.28973388671875, 275.8837890625, -181.47952270507812, 0.794189453125, -0.1826171875, -0.036865234375
607, 3364576074, -20.086856842041016, 14.567059516906738, 25.04877471923828, -45.039222717285156, 135.7318878173828, -74.1124496459961, 0.82080078125, -0.16455078125, 0.00244140625
608, 3364592741, -9.863685607910156, 12.065618515014648, 21.0047607421875, -66.29685974121094, -93.94296264648438, 29.926166534423828, 0.836669921875, -0.17333984375, -0.01904296875
609, 3364609408, -0.6068984270095825, 6.864577770233154, 12.118196487426758, -99.8760757446289, -194.79331970214844, 65.43447875976562, 0.8486328125, -0.19482421875, -0.0830078125
610, 3364626075, 1.1285123825073242, 3.2827975749969482, 7.419033050537109, -115.9224624633789, -220.95703125, 60.08298873901367, 0.849365234375, -0.212890625, -0.157958984375
611, 3364642742, 1.2581145763397217, 0.6099919080734253, 5.085817337036133, -101.49633026123047, -223.61207580566406, 57.31055450439453, 0.84130859375, -0.227294921875, -0.242919921875
612, 3364659409, -1.1100763082504272, -0.04284006357192993, 5.6097564697265625, -61.183597564697266, -222.81954956054688, 63.08980178833008, 0.814208984375, -0.24072265625, -0.32861328125
613, 3364676076, -4.665139198303223, 1.871069312095642, 6.882568836212158, -34.75927734375, -241.84080505371094, 68.58177947998047, 0.765869140625, -0.25341796875, -0.4072265625
614, 3364692743, -6.912965774536133, 3.4035232067108154, 7.689021110534668, -36.69952392578125, -282.6546936035156, 71.09596252441406, 0.694580078125, -0.257568359375, -0.478515625
615, 3364709410, -6.998901844024658, 3.450270652770996, 7.321412563323975, -45.8715934753418, -319.8766784667969, 75.70968627929688, 0.610107421875, -0.251220703125, -0.533447265625
616, 3364726077, -6.816336631774902, 3.249356508255005, 6.545231819152832, -45.45249557495117, -335.16900634765625, 83.51590728759766, 0.53369140625, -0.240234375, -0.572265625
617, 3364742744, -7.066705703735352, 2.7406563758850098, 5.936192512512207, -33.819576263427734, -333.35797119140625, 91.38648986816406, 0.468505859375, -0.22607421875, -0.59619140625
618, 3364759411, -7.815911769866943, 2.1500422954559326, 5.844941139221191, -10.688803672790527, -314.06072998046875, 88.74908447265625, 0.43212890625, -0.221923828125, -0.6162109375
619, 3364776078, -9.999640464782715, 2.8887407779693604, 6.678163051605225, 16.704771041870117, -281.02764892578125, 72.38496398925781, 0.413330078125, -0.23291015625, -0.6513671875
620, 3364792745, -17.06919288635254, 5.266361236572266, 10.208292961120605, 43.14665603637695, -264.25714111328125, 59.425384521484375, 0.39697265625, -0.265869140625, -0.70458984375
621, 3364809412, -23.3880558013916, 6.291402339935303, 10.774187088012695, 62.76207733154297, -278.4120788574219, 64.06938934326172, 0.337890625, -0.31396484375, -0.770751953125
622, 3364826079, -27.446340560913086, 6.794763565063477, 6.708223819732666, 60.88050079345703, -284.88287353515625, 74.7303237915039, 0.23291015625, -0.355224609375, -0.810791015625
623, 3364842746, -30.75168228149414, 6.081006050109863, 2.1074934005737305, 43.113468170166016, -275.33648681640625, 89.61248016357422, 0.126953125, -0.380126953125, -0.815673828125
624, 3364859413, -30.286033630371094, 2.697554349899292, -3.649700164794922, 32.373104095458984, -254.49058532714844, 117.8973617553711, 0.035400390625, -0.392822265625, -0.80126953125
625, 3364876080, -25.17851448059082, -3.4963178634643555, -8.108734130859375, 30.82963752746582, -194.0343017578125, 133.92449951171875, -0.026611328125, -0.3994140625, -0.787353515625
626, 3364892747, -25.01906394958496, -10.929045677185059, -10.341226577758789, 36.08290100097656, -113.50556945800781, 119.0275650024414, -0.06884765625, -0.406982421875, -0.77197265625
627, 3364909414, -24.24531364440918, -13.614130020141602, -12.845574378967285, 7.793270587921143, -24.18548583984375, 40.44497299194336, -0.08349609375, -0.411865234375, -0.765625
628, 3364926081, -23.581567764282227, -13.71905517578125, -13.364431381225586, -24.784412384033203, 64.30007934570312, -67.27959442138672, -0.06640625, -0.407958984375, -0.766845703125
629, 3364942748, -11.444014549255371, -6.234391212463379, -0.8272738456726074, -12.367587089538574, 123.3170166015625, -131.9830780029297, -0.02978515625, -0.401123046875, -0.76318359375
630, 3364959415, -6.649608612060547, 12.599672317504883, 15.981816291809082, -6.942320346832275, 104.21076202392578, -102.46053314208984, 0.00830078125, -0.393310546875, -0.76025390625
631, 3364976082, -4.275559902191162, 10.048273086547852, 3.7427210807800293, -18.558597564697266, 127.3699722290039, -79.13274383544922, 0.04345703125, -0.384521484375, -0.758544921875
632, 3364992749, -13.362019538879395, 1.2184860706329346, 11.76783275604248, -38.901763916015625, 152.675048828125, -37.941123962402344, 0.0810546875, -0.372802734375, -0.755615234375
633, 3365009416, -22.089101791381836, 1.3453365564346313, 15.775162696838379, -49.340965270996094, 76.52108001708984, -56.93952560424805, 0.111083984375, -0.35498046875, -0.7548828125
634, 3365026083, -5.184011459350586, 2.628770589828491, 7.483525276184082, -25.510658264160156, 25.279495239257812, -20.582386016845703, 0.11962890625, -0.35107421875, -0.75390625
635, 3365042750, -6.6513566970825195, 1.452309250831604, 8.664346694946289, -14.219501495361328, 5.3816142082214355, -14.228645324707031, 0.124755859375, -0.344970703125, -0.753662109375
636, 3365059417, -6.389804363250732, 1.9634124040603638, 8.511062622070312, -5.174331188201904, 1.8798896074295044, -5.561057090759277, 0.126708984375, -0.343505859375, -0.754638671875
637, 3365076084, -5.947056293487549, 1.965687870979309, 8.267889976501465, -1.528322696685791, 3.928431272506714, -3.579029083251953, 0.126708984375, -0.340576171875, -0.75732421875
638, 3365092751, -5.667762279510498, 1.871220588684082, 8.156085014343262, 5.277940273284912, 7.374546051025391, 0.5120684504508972, 0.126708984375, -0.340087890625, -0.754150390625
639, 3365109418, -5.660919189453125, 2.4117825031280518, 8.060136795043945, 9.445771217346191, 11.050024032592773, 2.555041551589966, 0.130126953125, -0.343505859375, -0.754638671875
640, 3365126085, -5.603628635406494, 2.695101499557495, 7.913708209991455, 11.294527053833008, 14.069743156433105, 2.4289638996124268, 0.134765625, -0.34765625, -0.75341796875
641, 3365142752, -5.624974250793457, 2.8241231441497803, 7.8061981201171875, 11.981733322143555, 16.45977210998535, 1.6970933675765991, 0.13623046875, -0.35107421875, -0.744140625
642, 3365159419, -5.747764587402344, 2.8765430450439453, 7.669785976409912, 10.787885665893555, 16.89517593383789, 1.0329680442810059, 0.140625, -0.353515625, -0.743896484375
643, 3365176086, -5.742119789123535, 2.96767258644104, 7.571220874786377, 9.030900955200195, 15.61789321899414, 0.34011784195899963, 0.144287109375, -0.355712890625, -0.7412109375
644, 3365192753, -5.811691761016846, 2.714691162109375, 7.587189197540283, 8.021986961364746, 14.144682884216309, -0.23078341782093048, 0.147216796875, -0.360595703125, -0.7412109375
645, 3365209420, -5.862067699432373, 2.5526154041290283, 7.5744781494140625, 8.326139450073242, 13.033488273620605, 0.1557701677083969, 0.150634765625, -0.361572265625, -0.738037109375
646, 3365226087, -5.786300182342529, 2.7048532962799072, 7.43290901184082, 8.7985258102417, 12.507862091064453, 1.0178942680358887, 0.15283203125, -0.362548828125, -0.736328125
647, 3365242754, -5.5922064781188965, 3.0932552814483643, 7.358391284942627, 8.070355415344238, 11.280115127563477, -0.10061955451965332, 0.15478515625, -0.36572265625, -0.733642578125
648, 3365259421, -5.664117336273193, 3.1096034049987793, 7.374660491943359, 6.145059108734131, 10.969687461853027, -2.212759017944336, 0.15966796875, -0.369140625, -0.732177734375
649, 3365276088, -5.8336663246154785, 2.870495557785034, 7.318780899047852, 5.311160564422607, 10.073473930358887, -3.2948832511901855, 0.160888671875, -0.372802734375, -0.7314453125
650, 3365292755, -5.880521297454834, 2.852018117904663, 7.298881530761719, 5.486517906188965, 8.776752471923828, -4.085470676422119, 0.162353515625, -0.373291015625, -0.72998046875
651, 3365309422, -5.888316631317139, 2.8343050479888916, 7.274505138397217, 5.654165744781494, 8.311753273010254, -4.1086883544921875, 0.166259765625, -0.373291015625, -0.729248046875
652, 3365326089, -5.814374923706055, 2.93819522857666, 7.286234378814697, 5.0896100997924805, 7.429139614105225, -4.42837381362915, 0.166259765625, -0.374267578125, -0.7255859375
653, 3365342756, -5.88844108581543, 2.8752501010894775, 7.300169944763184, 5.1671271324157715, 7.47213077545166, -4.844643592834473, 0.168701171875, -0.376220703125, -0.7255859375
654, 3365359423, -5.905071258544922, 2.845463752746582, 7.332298755645752, 6.427695274353027, 7.928740501403809, -5.10708475112915, 0.17138671875, -0.378173828125, -0.723388671875
655, 3365376090, -5.8145904541015625, 2.8116605281829834, 7.321389675140381, 8.97635555267334, 10.108078002929688, -5.670373916625977, 0.173828125, -0.379150390625, -0.721435546875
656, 3365392757, -5.799675941467285, 2.9739620685577393, 7.27349328994751, 11.653940200805664, 12.644718170166016, -7.228847026824951, 0.17724609375, -0.380859375, -0.72314453125
