sep=,
DeviceTag:,A,,,,,,,,,,,,,,,,,
FirmwareVersion:,2.2.1,,,,,,,,,,,,,,,,,
AppVersion:,2022.0.1,,,,,,,,,,,,,,,,,
SyncStatus:,Synced,,,,,,,,,,,,,,,,,
OutputRate:,60Hz,,,,,,,,,,,,,,,,,
FilterProfile:,General,,,,,,,,,,,,,,,,,
Measurement Mode:,Inertial Mode - Rate quantities (with mag),,,,,,,,,,,,,,,,,
StartTime:,2022-08-05 16:30:31.768 +0300,,,,,,,,,,,,,,,,,
© Xsens Technologies B. V. 2005-2022,,,,,,,,,,,,,,,,,,,

PacketCounter,SampleTimeFine,Acc_X,Acc_Y,Acc_Z,Gyr_X,Gyr_Y,Gyr_Z,Mag_X,Mag_Y,Mag_Z
1, 2478825026, -5.295087814331055, 2.047307252883911, 8.011849403381348, -2.732555389404297, -1.4277546405792236, -2.4623031616210938, 0.06201171875, -0.21142578125, -0.80859375
2, 2478841693, -5.308521747589111, 2.036630392074585, 8.025482177734375, -2.691972017288208, -1.3737502098083496, -2.5210072994232178, 0.0615234375, -0.21142578125, -0.812255859375
3, 2478858360, -5.31344747543335, 2.0326571464538574, 8.023683547973633, -2.665117025375366, -1.4457473754882812, -2.476043939590454, 0.06396484375, -0.2109375, -0.812255859375
4, 2478875027, -5.311007976531982, 2.033487319946289, 8.026775360107422, -2.620871067047119, -1.4219149351119995, -2.471484899520874, 0.06103515625, -0.21337890625, -0.810302734375
5, 2478891694, -5.309919834136963, 2.0306944847106934, 8.010818481445312, -2.6256351470947266, -1.4128479957580566, -2.4026381969451904, 0.060546875, -0.2109375, -0.809326171875
6, 2478908361, -5.320401191711426, 2.0269525051116943, 8.013818740844727, -2.4910783767700195, -1.47544527053833, -2.307192087173462, 0.060546875, -0.21044921875, -0.807373046875
7, 2478925028, -5.30522346496582, 2.048750400543213, 8.010629653930664, -2.5476441383361816, -1.511866569519043, -2.303337335586548, 0.06201171875, -0.21142578125, -0.808837890625
8, 2478941695, -5.295098304748535, 2.05900502204895, 8.001949310302734, -2.6460609436035156, -1.4003105163574219, -2.446000337600708, 0.06103515625, -0.21142578125, -0.810791015625
9, 2478958362, -5.301974296569824, 2.046710729598999, 8.031336784362793, -2.552011013031006, -1.2748849391937256, -2.484867572784424, 0.06201171875, -0.2119140625, -0.812744140625
10, 2478975029, -5.316335678100586, 2.0312817096710205, 8.04163932800293, -2.586473226547241, -1.2132865190505981, -2.5657269954681396, 0.06201171875, -0.21240234375, -0.810791015625
11, 2478991696, -5.306044101715088, 2.046447992324829, 7.996621608734131, -2.644831657409668, -1.3151099681854248, -2.580902576446533, 0.06103515625, -0.21240234375, -0.808349609375
12, 2479008363, -5.3073296546936035, 2.0338118076324463, 8.021331787109375, -2.657855749130249, -1.3699209690093994, -2.580198049545288, 0.06396484375, -0.2119140625, -0.80859375
13, 2479025030, -5.304210662841797, 2.0479822158813477, 8.022335052490234, -2.6433849334716797, -1.378924012184143, -2.4783878326416016, 0.06201171875, -0.21240234375, -0.810791015625
14, 2479041697, -5.3142924308776855, 2.040351152420044, 8.012791633605957, -2.621434211730957, -1.5447531938552856, -2.476325511932373, 0.0625, -0.21142578125, -0.811279296875
15, 2479058364, -5.304076671600342, 2.0254173278808594, 8.017232894897461, -2.615402936935425, -1.542076826095581, -2.4772608280181885, 0.0615234375, -0.21142578125, -0.814208984375
16, 2479075031, -5.302098274230957, 2.049800157546997, 8.014364242553711, -2.662235736846924, -1.5580589771270752, -2.3928539752960205, 0.06201171875, -0.21337890625, -0.810791015625
17, 2479091698, -5.305516719818115, 2.043645143508911, 8.00657844543457, -2.6559219360351562, -1.6188253164291382, -2.396516799926758, 0.06201171875, -0.21142578125, -0.812255859375
18, 2479108365, -5.299036026000977, 2.0375263690948486, 8.041339874267578, -2.636533260345459, -1.5982327461242676, -2.4464101791381836, 0.0634765625, -0.21142578125, -0.811279296875
19, 2479125032, -5.308712482452393, 2.029927968978882, 8.023704528808594, -2.66801118850708, -1.5334837436676025, -2.4414925575256348, 0.0615234375, -0.2099609375, -0.808837890625
20, 2479141699, -5.29979133605957, 2.0441055297851562, 8.016772270202637, -2.634150981903076, -1.4914789199829102, -2.4661829471588135, 0.06298828125, -0.2109375, -0.811767578125
21, 2479158366, -5.291396141052246, 2.0362467765808105, 8.021326065063477, -2.631129026412964, -1.4972034692764282, -2.520648717880249, 0.06298828125, -0.212890625, -0.811767578125
22, 2479175033, -5.313209056854248, 2.0287482738494873, 8.021788597106934, -2.5858330726623535, -1.5877571105957031, -2.498595952987671, 0.06201171875, -0.2119140625, -0.813720703125
23, 2479191700, -5.30399751663208, 2.0436863899230957, 8.042325019836426, -2.6329216957092285, -1.6149576902389526, -2.386873245239258, 0.0615234375, -0.21044921875, -0.809326171875
24, 2479208367, -5.284664630889893, 2.047783613204956, 8.024394989013672, -2.6492245197296143, -1.4573627710342407, -2.423384428024292, 0.06005859375, -0.2099609375, -0.810791015625
25, 2479225034, -5.311498165130615, 2.0385820865631104, 8.0272855758667, -2.652425765991211, -1.4036785364151, -2.445155143737793, 0.0625, -0.2119140625, -0.80810546875
26, 2479241701, -5.304025650024414, 2.0245285034179688, 8.008152961730957, -2.6241238117218018, -1.4036144018173218, -2.4540812969207764, 0.06396484375, -0.20849609375, -0.811767578125
27, 2479258368, -5.319462776184082, 2.034461259841919, 8.008831977844238, -2.6553843021392822, -1.5128271579742432, -2.471036911010742, 0.06201171875, -0.208984375, -0.812744140625
28, 2479275035, -5.3148884773254395, 2.030256748199463, 8.027958869934082, -2.596231698989868, -1.4862796068191528, -2.3810975551605225, 0.06103515625, -0.2109375, -0.810791015625
29, 2479291702, -5.299192905426025, 2.042207956314087, 8.033512115478516, -2.56792950630188, -1.5132241249084473, -2.3808414936065674, 0.0615234375, -0.21240234375, -0.80859375
30, 2479308369, -5.302516460418701, 2.030829906463623, 8.0376558303833, -2.5768046379089355, -1.4177272319793701, -2.5085465908050537, 0.06103515625, -0.21044921875, -0.809326171875
31, 2479325036, -5.300343990325928, 2.023693084716797, 8.033248901367188, -2.5789432525634766, -1.4900447130203247, -2.449970245361328, 0.06201171875, -0.2099609375, -0.810302734375
32, 2479341703, -5.305359363555908, 2.0440821647644043, 7.999177932739258, -2.4884018898010254, -1.4398181438446045, -2.4391489028930664, 0.0615234375, -0.21044921875, -0.809814453125
33, 2479358370, -5.30145788192749, 2.034372091293335, 8.024977684020996, -2.5615646839141846, -1.540207028388977, -2.4167890548706055, 0.06005859375, -0.21142578125, -0.811279296875
34, 2479375037, -5.294103145599365, 2.031705379486084, 8.03022289276123, -2.5235040187835693, -1.5119047164916992, -2.3192172050476074, 0.06103515625, -0.212890625, -0.813720703125
35, 2479391704, -5.2963547706604, 2.0537662506103516, 8.039897918701172, -2.6440889835357666, -1.460615634918213, -2.5294721126556396, 0.0615234375, -0.20947265625, -0.811767578125
36, 2479408371, -5.298184871673584, 2.0409343242645264, 8.02892780303955, -2.633293390274048, -1.3854167461395264, -2.507176399230957, 0.06103515625, -0.21337890625, -0.808837890625
37, 2479425038, -5.296939373016357, 2.0380547046661377, 8.036052703857422, -2.643115758895874, -1.4506651163101196, -2.5543935298919678, 0.06005859375, -0.2119140625, -0.809326171875
38, 2479441705, -5.315106391906738, 2.0379586219787598, 8.03519344329834, -2.581696033477783, -1.3357151746749878, -2.526167869567871, 0.0615234375, -0.2119140625, -0.814208984375
39, 2479458372, -5.3102617263793945, 2.0251142978668213, 8.037677764892578, -2.4597413539886475, -1.3804733753204346, -2.401959180831909, 0.06103515625, -0.2119140625, -0.813720703125
40, 2479475039, -5.294990062713623, 2.0442864894866943, 7.991260051727295, -2.4641594886779785, -1.366002082824707, -2.3940062522888184, 0.06005859375, -0.21142578125, -0.813232421875
41, 2479491706, -5.30460262298584, 2.028639554977417, 8.023748397827148, -2.5315849781036377, -1.3913459777832031, -2.4670920372009277, 0.06005859375, -0.21142578125, -0.810791015625
42, 2479508373, -5.3103156089782715, 2.034154176712036, 8.032490730285645, -2.6353681087493896, -1.3476125001907349, -2.421694040298462, 0.06103515625, -0.2119140625, -0.808837890625
43, 2479525040, -5.305797576904297, 2.0426902770996094, 8.006235122680664, -2.5479769706726074, -1.3905261754989624, -2.3667030334472656, 0.06103515625, -0.21142578125, -0.810302734375
44, 2479541707, -5.317113876342773, 2.0348172187805176, 8.002562522888184, -2.5794036388397217, -1.3887332677841187, -2.41180682182312, 0.06005859375, -0.21044921875, -0.809814453125
45, 2479558374, -5.287502288818359, 2.040128707885742, 8.007745742797852, -2.542816162109375, -1.4840511083602905, -2.3565478324890137, 0.06298828125, -0.2109375, -0.811279296875
46, 2479575041, -5.299960136413574, 2.0344491004943848, 8.030481338500977, -2.637608528137207, -1.5316009521484375, -2.4256508350372314, 0.06201171875, -0.21240234375, -0.812255859375
47, 2479591708, -5.310049533843994, 2.0365166664123535, 8.03248119354248, -2.590122699737549, -1.4806574583053589, -2.3669466972351074, 0.0625, -0.2119140625, -0.809814453125
48, 2479608375, -5.312708854675293, 2.039931297302246, 8.021391868591309, -2.512746810913086, -1.3896938562393188, -2.410616159439087, 0.06201171875, -0.21142578125, -0.80810546875
49, 2479625042, -5.3076677322387695, 2.0294787883758545, 8.014845848083496, -2.5159101486206055, -1.5447403192520142, -2.3773837089538574, 0.0625, -0.21044921875, -0.8076171875
50, 2479641709, -5.285217761993408, 2.0493834018707275, 8.012083053588867, -2.502655506134033, -1.4935534000396729, -2.419004440307617, 0.0615234375, -0.2109375, -0.810302734375
51, 2479658376, -5.294191360473633, 2.0431971549987793, 8.017301559448242, -2.5002224445343018, -1.4782882928848267, -2.4618287086486816, 0.06201171875, -0.21142578125, -0.812255859375
52, 2479675043, -5.312302589416504, 2.0500433444976807, 8.013143539428711, -2.673659086227417, -1.5075894594192505, -2.412358045578003, 0.060546875, -0.2119140625, -0.812255859375
53, 2479691710, -5.327182769775391, 2.0272955894470215, 8.02511978149414, -2.605759620666504, -1.4622803926467896, -2.4571163654327393, 0.059326171875, -0.2099609375, -0.809326171875
54, 2479708377, -5.320758819580078, 2.04193377494812, 8.018606185913086, -2.581260919570923, -1.6198241710662842, -2.3649747371673584, 0.060546875, -0.21142578125, -0.807861328125
55, 2479725044, -5.295241832733154, 2.043757677078247, 8.032465934753418, -2.597947835922241, -1.5170916318893433, -2.4217963218688965, 0.060546875, -0.2109375, -0.809326171875
56, 2479741711, -5.311102390289307, 2.0399811267852783, 8.013599395751953, -2.5863964557647705, -1.5538971424102783, -2.424088478088379, 0.0634765625, -0.212890625, -0.811279296875
57, 2479758378, -5.309289932250977, 2.0383918285369873, 8.028656959533691, -2.5784950256347656, -1.5399383306503296, -2.4422738552093506, 0.06103515625, -0.2099609375, -0.809814453125
58, 2479775045, -5.296139240264893, 2.039269208908081, 8.021879196166992, -2.565765142440796, -1.525338888168335, -2.3980917930603027, 0.06103515625, -0.212890625, -0.811279296875
59, 2479791712, -5.299067497253418, 2.0481889247894287, 8.002891540527344, -2.601213216781616, -1.5331891775131226, -2.319345712661743, 0.0634765625, -0.21240234375, -0.810791015625
60, 2479808379, -5.30763578414917, 2.0378153324127197, 8.038891792297363, -2.5603227615356445, -1.5582256317138672, -2.351809501647949, 0.0615234375, -0.2109375, -0.80810546875
61, 2479825046, -5.302174091339111, 2.03810715675354, 8.04072380065918, -2.564279794692993, -1.6904257535934448, -2.3514254093170166, 0.06201171875, -0.21044921875, -0.809814453125
62, 2479841713, -5.304818153381348, 2.0430047512054443, 8.023924827575684, -2.636559009552002, -1.6187485456466675, -2.344369411468506, 0.0595703125, -0.21044921875, -0.811767578125
63, 2479858380, -5.313415050506592, 2.0482265949249268, 8.02611255645752, -2.6278247833251953, -1.689170479774475, -2.388205051422119, 0.060546875, -0.212890625, -0.811767578125
64, 2479875047, -5.2944817543029785, 2.0550801753997803, 8.026148796081543, -2.6278634071350098, -1.6699354648590088, -2.3089725971221924, 0.06103515625, -0.21142578125, -0.810302734375
65, 2479891714, -5.281080722808838, 2.041699171066284, 8.03184986114502, -2.677999973297119, -1.5679457187652588, -2.4308247566223145, 0.059814453125, -0.2109375, -0.807373046875
66, 2479908381, -5.313236236572266, 2.051358938217163, 8.019391059875488, -2.6698296070098877, -1.5421279668807983, -2.4899260997772217, 0.057861328125, -0.2119140625, -0.809326171875
67, 2479925048, -5.3030476570129395, 2.036370277404785, 8.016700744628906, -2.6967613697052, -1.5207158327102661, -2.4726247787475586, 0.06201171875, -0.2119140625, -0.808837890625
68, 2479941715, -5.299132347106934, 2.0409345626831055, 8.057674407958984, -2.5253357887268066, -1.4038962125778198, -2.4983909130096436, 0.05859375, -0.21044921875, -0.811279296875
69, 2479958382, -5.291509628295898, 2.0264246463775635, 8.019857406616211, -2.5143091678619385, -1.3435399532318115, -2.4260735511779785, 0.060546875, -0.21142578125, -0.811279296875
70, 2479975049, -5.308358669281006, 2.034888982772827, 8.018207550048828, -2.5171520709991455, -1.3437190055847168, -2.409489154815674, 0.0615234375, -0.212890625, -0.811279296875
71, 2479991716, -5.296767234802246, 2.035808563232422, 8.022348403930664, -2.498211622238159, -1.5027996301651, -2.35931396484375, 0.059326171875, -0.21240234375, -0.806884765625
72, 2480008383, -5.294281959533691, 2.0587127208709717, 8.018061637878418, -2.581798791885376, -1.4129120111465454, -2.4450013637542725, 0.0595703125, -0.21044921875, -0.809326171875
73, 2480025050, -5.308893203735352, 2.034956216812134, 8.038527488708496, -2.5408952236175537, -1.3504297733306885, -2.5365796089172363, 0.06103515625, -0.2109375, -0.808837890625
74, 2480041717, -5.293928146362305, 2.0475914478302, 8.021651268005371, -2.472278594970703, -1.2456992864608765, -2.49652099609375, 0.0615234375, -0.2109375, -0.811279296875
75, 2480058384, -5.2993855476379395, 2.0410993099212646, 8.036710739135742, -2.460765838623047, -1.1564263105392456, -2.4647867679595947, 0.0595703125, -0.2119140625, -0.811279296875
76, 2480075051, -5.302765846252441, 2.045661449432373, 8.05742359161377, -2.489938735961914, -1.178786039352417, -2.489631414413452, 0.06005859375, -0.212890625, -0.810302734375
77, 2480091718, -5.301760196685791, 2.054091691970825, 8.034692764282227, -2.4735467433929443, -1.1921817064285278, -2.501861572265625, 0.059326171875, -0.208740234375, -0.808837890625
78, 2480108385, -5.3008880615234375, 2.031048536300659, 8.023180961608887, -2.520904302597046, -1.102460265159607, -2.5512940883636475, 0.0615234375, -0.21142578125, -0.8076171875
79, 2480125052, -5.302719593048096, 2.0370230674743652, 8.017328262329102, -2.576957941055298, -1.1842546463012695, -2.5993947982788086, 0.060546875, -0.208251953125, -0.809326171875
80, 2480141719, -5.295053005218506, 2.0498147010803223, 8.018643379211426, -2.5712716579437256, -1.200300693511963, -2.5816707611083984, 0.0595703125, -0.21240234375, -0.812255859375
81, 2480158386, -5.305201530456543, 2.0432913303375244, 8.025514602661133, -2.571451425552368, -1.1832300424575806, -2.6311163902282715, 0.06005859375, -0.21044921875, -0.811279296875
82, 2480175053, -5.293699264526367, 2.042287588119507, 8.005326271057129, -2.5909554958343506, -1.196305274963379, -2.568019390106201, 0.0625, -0.21240234375, -0.811279296875
83, 2480191720, -5.29632043838501, 2.0409162044525146, 8.027840614318848, -2.5242083072662354, -1.1171746253967285, -2.567429780960083, 0.06201171875, -0.2109375, -0.810302734375
84, 2480208387, -5.308913230895996, 2.0454559326171875, 8.021552085876465, -2.511146306991577, -1.047021746635437, -2.6751060485839844, 0.06103515625, -0.2119140625, -0.809814453125
85, 2480225054, -5.318164348602295, 2.057094097137451, 8.014039993286133, -2.48636531829834, -1.0514525175094604, -2.672903060913086, 0.06103515625, -0.2109375, -0.809326171875
86, 2480241721, -5.314991474151611, 2.037433385848999, 8.032089233398438, -2.5203664302825928, -1.0376986265182495, -2.6253912448883057, 0.06396484375, -0.21142578125, -0.80908203125
87, 2480258388, -5.320738315582275, 2.0477190017700195, 8.031999588012695, -2.53373646736145, -1.120491623878479, -2.596116304397583, 0.0625, -0.208984375, -0.809814453125
88, 2480275055, -5.30753231048584, 2.0314440727233887, 8.01826000213623, -2.5729877948760986, -1.1959595680236816, -2.6292335987091064, 0.06005859375, -0.2099609375, -0.809814453125
89, 2480291722, -5.304845809936523, 2.047334671020508, 8.020748138427734, -2.663285970687866, -1.2965534925460815, -2.6567158699035645, 0.0615234375, -0.21240234375, -0.80859375
90, 2480308389, -5.313497066497803, 2.035658359527588, 8.00866985321045, -2.698951482772827, -1.2223918437957764, -2.579801082611084, 0.06005859375, -0.2109375, -0.809814453125
91, 2480325056, -5.3184003829956055, 2.0484299659729004, 8.027050018310547, -2.6130974292755127, -1.2290256023406982, -2.588099479675293, 0.06103515625, -0.21044921875, -0.809814453125
92, 2480341723, -5.314082622528076, 2.0426769256591797, 8.014482498168945, -2.6620819568634033, -1.3374570608139038, -2.615978956222534, 0.06201171875, -0.2109375, -0.813720703125
93, 2480358390, -5.333169937133789, 2.024703025817871, 8.042421340942383, -2.67683482170105, -1.4163440465927124, -2.5692102909088135, 0.06103515625, -0.2099609375, -0.810302734375
94, 2480375057, -5.3050360679626465, 2.038743257522583, 8.033875465393066, -2.691754102706909, -1.5088571310043335, -2.497084856033325, 0.0615234375, -0.21240234375, -0.810791015625
95, 2480391724, -5.287595272064209, 2.034245014190674, 8.018956184387207, -2.707813262939453, -1.4222862720489502, -2.5676991939544678, 0.06201171875, -0.212890625, -0.809814453125
96, 2480408391, -5.29415225982666, 2.045571804046631, 8.01585865020752, -2.6471240520477295, -1.346818447113037, -2.5989468097686768, 0.0615234375, -0.21044921875, -0.809814453125
97, 2480425058, -5.306215286254883, 2.0410401821136475, 8.009839057922363, -2.6369428634643555, -1.2651138305664062, -2.6611852645874023, 0.0615234375, -0.21142578125, -0.808349609375
98, 2480441725, -5.318551063537598, 2.0411999225616455, 7.997406959533691, -2.5331478118896484, -1.2923786640167236, -2.5789945125579834, 0.0615234375, -0.2109375, -0.811279296875
99, 2480458392, -5.311285972595215, 2.0292165279388428, 8.013553619384766, -2.5217621326446533, -1.2978466749191284, -2.506087303161621, 0.06103515625, -0.2109375, -0.811279296875
100, 2480475059, -5.30150032043457, 2.0351057052612305, 8.010882377624512, -2.5203540325164795, -1.410325050354004, -2.480654239654541, 0.06201171875, -0.2109375, -0.812744140625
101, 2480491726, -5.300017356872559, 2.0363030433654785, 8.027576446533203, -2.514719009399414, -1.4021673202514648, -2.4774012565612793, 0.0615234375, -0.21044921875, -0.810302734375
102, 2480508393, -5.320611000061035, 2.0370311737060547, 8.038366317749023, -2.6036078929901123, -1.4354254007339478, -2.4610607624053955, 0.0625, -0.212890625, -0.810791015625
103, 2480525060, -5.314794540405273, 2.0348637104034424, 8.0236234664917, -2.514859914779663, -1.3960075378417969, -2.473982095718384, 0.06103515625, -0.21142578125, -0.808349609375
104, 2480541727, -5.29438591003418, 2.029336929321289, 8.021283149719238, -2.5827465057373047, -1.3856985569000244, -2.5603737831115723, 0.06103515625, -0.208984375, -0.810302734375
105, 2480558394, -5.3083672523498535, 2.044041395187378, 8.048012733459473, -2.608346700668335, -1.3596118688583374, -2.499108076095581, 0.06005859375, -0.2109375, -0.812255859375
106, 2480575061, -5.313388347625732, 2.0454905033111572, 8.01701545715332, -2.570746898651123, -1.2377722263336182, -2.5597589015960693, 0.0615234375, -0.2109375, -0.813720703125
107, 2480591728, -5.330227375030518, 2.0564427375793457, 8.02361011505127, -2.521557569503784, -1.4163568019866943, -2.52931809425354, 0.060546875, -0.21044921875, -0.810302734375
108, 2480608395, -5.314648628234863, 2.0459868907928467, 8.030655860900879, -2.597742795944214, -1.4913125038146973, -2.5919413566589355, 0.06103515625, -0.2099609375, -0.809814453125
109, 2480625062, -5.315364837646484, 2.029224395751953, 8.023963928222656, -2.6261472702026367, -1.461857795715332, -2.603428602218628, 0.06005859375, -0.21142578125, -0.807861328125
110, 2480641729, -5.307518482208252, 2.0283432006835938, 8.033740043640137, -2.6341512203216553, -1.4839617013931274, -2.5084824562072754, 0.06201171875, -0.21142578125, -0.812255859375
111, 2480658396, -5.30916690826416, 2.02213716506958, 8.00927734375, -2.5387818813323975, -1.4218121767044067, -2.496380090713501, 0.06396484375, -0.21142578125, -0.810302734375
112, 2480675063, -5.313604354858398, 2.0380523204803467, 8.02899169921875, -2.5251305103302, -1.3426433801651, -2.4904637336730957, 0.06298828125, -0.2119140625, -0.812255859375
113, 2480691730, -5.302854537963867, 2.0366342067718506, 8.011625289916992, -2.5378220081329346, -1.3077718019485474, -2.538897752761841, 0.06396484375, -0.2099609375, -0.810302734375
114, 2480708397, -5.295208930969238, 2.034956216812134, 8.009370803833008, -2.6157102584838867, -1.3054667711257935, -2.6291441917419434, 0.06103515625, -0.2109375, -0.809814453125
115, 2480725064, -5.314066410064697, 2.024995803833008, 8.019115447998047, -2.590059280395508, -1.3577550649642944, -2.5231075286865234, 0.0625, -0.21240234375, -0.80859375
116, 2480741731, -5.31765079498291, 2.0197701454162598, 7.997492790222168, -2.581747531890869, -1.4136801958084106, -2.5552639961242676, 0.0615234375, -0.21044921875, -0.811279296875
117, 2480758398, -5.319840908050537, 2.022571325302124, 8.017746925354004, -2.614928960800171, -1.5024796724319458, -2.4643518924713135, 0.0615234375, -0.2109375, -0.811279296875
118, 2480775065, -5.300448417663574, 2.0333497524261475, 8.023785591125488, -2.544595718383789, -1.478710651397705, -2.3717358112335205, 0.060546875, -0.2109375, -0.811279296875
119, 2480791732, -5.306582450866699, 2.0361762046813965, 8.016655921936035, -2.592850923538208, -1.4285742044448853, -2.495496988296509, 0.06201171875, -0.208984375, -0.811279296875
120, 2480808399, -5.318310260772705, 2.0440714359283447, 8.033453941345215, -2.6528103351593018, -1.2989355325698853, -2.5105957984924316, 0.0634765625, -0.21142578125, -0.809814453125
121, 2480825066, -5.318456172943115, 2.023225784301758, 8.005367279052734, -2.6064765453338623, -1.469464898109436, -2.582580089569092, 0.06103515625, -0.2109375, -0.809326171875
122, 2480841733, -5.309067249298096, 2.03944730758667, 8.02310562133789, -2.723219394683838, -1.3319246768951416, -2.6112279891967773, 0.0625, -0.21044921875, -0.810302734375
123, 2480858400, -5.324646472930908, 2.018693208694458, 8.035022735595703, -2.583847999572754, -1.442981243133545, -2.49013090133667, 0.06298828125, -0.2119140625, -0.810302734375
124, 2480875067, -5.321671485900879, 2.0345160961151123, 8.018710136413574, -2.554918050765991, -1.379372000694275, -2.429659366607666, 0.060546875, -0.21337890625, -0.808349609375
125, 2480891734, -5.297826290130615, 2.040496349334717, 8.03105640411377, -2.560450553894043, -1.3590484857559204, -2.5015668869018555, 0.0625, -0.2109375, -0.808837890625
126, 2480908401, -5.307923316955566, 2.0521018505096436, 8.020003318786621, -2.5734236240386963, -1.3198994398117065, -2.4913477897644043, 0.06103515625, -0.2119140625, -0.806640625
127, 2480925068, -5.30985689163208, 2.05049729347229, 8.022656440734863, -2.592005491256714, -1.3132785558700562, -2.553279161453247, 0.06298828125, -0.20947265625, -0.809814453125
128, 2480941735, -5.314858913421631, 2.038217067718506, 8.017620086669922, -2.5747039318084717, -1.3792822360992432, -2.5448267459869385, 0.06298828125, -0.21044921875, -0.809814453125
129, 2480958402, -5.315042972564697, 2.031846284866333, 8.03292179107666, -2.5787253379821777, -1.3897069692611694, -2.5253231525421143, 0.06201171875, -0.2099609375, -0.811279296875
130, 2480975069, -5.316691875457764, 2.024090051651001, 8.025336265563965, -2.583092451095581, -1.2877811193466187, -2.5350043773651123, 0.0615234375, -0.21142578125, -0.810302734375
131, 2480991736, -5.308400630950928, 2.0477213859558105, 8.008747100830078, -2.58050537109375, -1.3791543245315552, -2.5451085567474365, 0.06298828125, -0.2119140625, -0.810791015625
132, 2481008403, -5.30418586730957, 2.028007984161377, 8.013972282409668, -2.6646690368652344, -1.2857191562652588, -2.5435590744018555, 0.0625, -0.2109375, -0.810302734375
133, 2481025070, -5.3165764808654785, 2.0354385375976562, 8.014599800109863, -2.6501078605651855, -1.3939458131790161, -2.5972561836242676, 0.0634765625, -0.2119140625, -0.810791015625
134, 2481041737, -5.310014247894287, 2.0215981006622314, 8.021646499633789, -2.5961291790008545, -1.415755033493042, -2.6108951568603516, 0.0615234375, -0.21044921875, -0.811767578125
135, 2481058404, -5.311246871948242, 2.016256809234619, 8.023534774780273, -2.5866012573242188, -1.3976466655731201, -2.532660722732544, 0.06298828125, -0.2119140625, -0.810302734375
136, 2481075071, -5.313615798950195, 2.0285589694976807, 8.01890754699707, -2.6119191646575928, -1.429201602935791, -2.530637264251709, 0.06201171875, -0.2119140625, -0.811279296875
137, 2481091738, -5.302407264709473, 2.037978172302246, 8.020734786987305, -2.577662706375122, -1.4938864707946777, -2.3898699283599854, 0.06298828125, -0.2109375, -0.811767578125
138, 2481108405, -5.314347743988037, 2.0158419609069824, 8.042317390441895, -2.6141347885131836, -1.5098559856414795, -2.4662599563598633, 0.06201171875, -0.2119140625, -0.80615234375
139, 2481125072, -5.2831926345825195, 2.0220887660980225, 8.015512466430664, -2.651555299758911, -1.4302005767822266, -2.489093542098999, 0.0625, -0.2109375, -0.80810546875
140, 2481141739, -5.320840835571289, 2.011179208755493, 8.013630867004395, -2.7061102390289307, -1.455698013305664, -2.5291261672973633, 0.060546875, -0.20947265625, -0.807861328125
141, 2481158406, -5.308757781982422, 2.020861864089966, 8.007169723510742, -2.7083256244659424, -1.4376282691955566, -2.5031933784484863, 0.06298828125, -0.2109375, -0.811767578125
142, 2481175073, -5.303747177124023, 2.0345661640167236, 8.019925117492676, -2.6172468662261963, -1.4820407629013062, -2.4683220386505127, 0.060546875, -0.21240234375, -0.812255859375
143, 2481191740, -5.307555675506592, 2.036259889602661, 8.033774375915527, -2.634305000305176, -1.4642527103424072, -2.4465253353118896, 0.06103515625, -0.21044921875, -0.810791015625
144, 2481208407, -5.313982009887695, 2.0196619033813477, 8.030003547668457, -2.579941987991333, -1.4277417659759521, -2.470895767211914, 0.0625, -0.2119140625, -0.810302734375
145, 2481225074, -5.320536136627197, 2.01792311668396, 8.02708625793457, -2.569812059402466, -1.484653115272522, -2.4129343032836914, 0.060302734375, -0.2099609375, -0.806884765625
146, 2481241741, -5.312185764312744, 2.0278728008270264, 7.999471664428711, -2.627901792526245, -1.5646800994873047, -2.367920160293579, 0.06396484375, -0.2109375, -0.810302734375
147, 2481258408, -5.310963153839111, 2.030731439590454, 8.015600204467773, -2.615185022354126, -1.4909284114837646, -2.390254497528076, 0.06298828125, -0.2109375, -0.810302734375
148, 2481275075, -5.310901165008545, 2.026594877243042, 8.019728660583496, -2.6463301181793213, -1.53221595287323, -2.4828953742980957, 0.06201171875, -0.21142578125, -0.810791015625
149, 2481291742, -5.301023960113525, 2.0408174991607666, 8.04482650756836, -2.696018934249878, -1.4188541173934937, -2.4754037857055664, 0.06201171875, -0.21142578125, -0.80859375
150, 2481308409, -5.315938472747803, 2.0264434814453125, 8.026533126831055, -2.665309190750122, -1.442968487739563, -2.4955098628997803, 0.06103515625, -0.21044921875, -0.810302734375
151, 2481325076, -5.322043418884277, 2.0099680423736572, 8.035274505615234, -2.596846580505371, -1.4388961791992188, -2.4546446800231934, 0.0625, -0.2099609375, -0.809326171875
152, 2481341743, -5.2932448387146, 2.0294413566589355, 8.011433601379395, -2.5619232654571533, -1.4958330392837524, -2.33982253074646, 0.0625, -0.2109375, -0.809814453125
153, 2481358410, -5.294527530670166, 2.0194900035858154, 8.025010108947754, -2.582310914993286, -1.4117722511291504, -2.5147705078125, 0.06201171875, -0.21044921875, -0.808349609375
154, 2481375077, -5.312954425811768, 2.042114019393921, 8.037755012512207, -2.4357292652130127, -1.3332819938659668, -2.501554012298584, 0.0625, -0.2119140625, -0.812255859375
155, 2481391744, -5.316137790679932, 2.032158136367798, 8.015244483947754, -2.5899696350097656, -1.3266996145248413, -2.529459238052368, 0.06201171875, -0.21142578125, -0.80859375
156, 2481408411, -5.329925060272217, 2.033393383026123, 8.00140380859375, -2.6251611709594727, -1.4704381227493286, -2.5206615924835205, 0.06201171875, -0.21240234375, -0.80908203125
157, 2481425078, -5.3114094734191895, 2.0369837284088135, 8.017193794250488, -2.58756160736084, -1.4206470251083374, -2.417250394821167, 0.06298828125, -0.2109375, -0.80908203125
158, 2481441745, -5.320950031280518, 2.0226194858551025, 8.025591850280762, -2.5314440727233887, -1.4375640153884888, -2.427021026611328, 0.0615234375, -0.21044921875, -0.811279296875
159, 2481458412, -5.301391124725342, 2.032564878463745, 8.045364379882812, -2.438598155975342, -1.3050566911697388, -2.450226306915283, 0.0615234375, -0.2109375, -0.811767578125
160, 2481475079, -5.310756206512451, 2.026560068130493, 8.022112846374512, -2.6059770584106445, -1.3519279956817627, -2.47329044342041, 0.0625, -0.2109375, -0.810302734375
161, 2481491746, -5.316956996917725, 2.0290024280548096, 8.021251678466797, -2.6335878372192383, -1.4498839378356934, -2.4560277462005615, 0.060546875, -0.2099609375, -0.811279296875
162, 2481508413, -5.312533378601074, 2.020787000656128, 8.029138565063477, -2.581939697265625, -1.402269959449768, -2.5291390419006348, 0.0615234375, -0.21044921875, -0.808837890625
163, 2481525080, -5.315458297729492, 2.0364811420440674, 8.013212203979492, -2.5693254470825195, -1.3397364616394043, -2.6097168922424316, 0.06005859375, -0.21142578125, -0.809326171875
164, 2481541747, -5.303155899047852, 2.024115800857544, 8.020258903503418, -2.563998222351074, -1.2848740816116333, -2.5141942501068115, 0.06201171875, -0.21142578125, -0.810791015625
165, 2481558414, -5.3247575759887695, 2.021162509918213, 8.046777725219727, -2.614531993865967, -1.3044166564941406, -2.526872396469116, 0.06396484375, -0.20947265625, -0.80908203125
166, 2481575081, -5.317349433898926, 2.018731117248535, 8.019187927246094, -2.5956296920776367, -1.373494029045105, -2.5211098194122314, 0.06396484375, -0.21044921875, -0.810791015625
167, 2481591748, -5.3066887855529785, 2.0216543674468994, 8.02460765838623, -2.5512428283691406, -1.342707633972168, -2.5375401973724365, 0.06103515625, -0.20947265625, -0.809814453125
168, 2481608415, -5.304036617279053, 2.0200366973876953, 8.041322708129883, -2.592376470565796, -1.416433572769165, -2.5529587268829346, 0.06201171875, -0.2099609375, -0.808349609375
169, 2481625082, -5.307221412658691, 2.0260009765625, 8.029142379760742, -2.5001838207244873, -1.2782788276672363, -2.548105239868164, 0.0634765625, -0.2109375, -0.80859375
170, 2481641749, -5.296182155609131, 2.0301482677459717, 8.040350914001465, -2.5130796432495117, -1.1657875776290894, -2.539896011352539, 0.0615234375, -0.207275390625, -0.812744140625
171, 2481658416, -5.319208145141602, 2.0167932510375977, 8.040257453918457, -2.531341552734375, -1.1956905126571655, -2.5597846508026123, 0.0625, -0.20947265625, -0.810791015625
172, 2481675083, -5.32614803314209, 2.0273478031158447, 8.012333869934082, -2.5960140228271484, -1.2797642946243286, -2.4760823249816895, 0.06103515625, -0.21142578125, -0.809814453125
173, 2481691750, -5.319358825683594, 2.022057056427002, 8.021502494812012, -2.6445627212524414, -1.3722646236419678, -2.540421724319458, 0.0615234375, -0.21044921875, -0.809326171875
174, 2481708417, -5.309520244598389, 2.0393528938293457, 8.025910377502441, -2.584641933441162, -1.4298803806304932, -2.5054473876953125, 0.0625, -0.2109375, -0.812744140625
175, 2481725084, -5.306615829467773, 2.0250415802001953, 8.03979206085205, -2.642488479614258, -1.4167282581329346, -2.512516736984253, 0.06201171875, -0.20947265625, -0.811279296875
176, 2481741751, -5.345872402191162, 2.040132522583008, 8.056986808776855, -2.773983955383301, -1.4612175226211548, -2.5520880222320557, 0.0615234375, -0.2109375, -0.811767578125
177, 2481758418, -5.293116569519043, 2.0285141468048096, 8.008009910583496, -2.708402395248413, -1.542243242263794, -2.5737180709838867, 0.06201171875, -0.208984375, -0.813720703125
178, 2481775085, -5.31571626663208, 2.0249924659729004, 8.029759407043457, -2.636481761932373, -1.4817076921463013, -2.582054853439331, 0.0615234375, -0.21044921875, -0.810791015625
179, 2481791752, -5.310018062591553, 2.0097765922546387, 8.011228561401367, -2.7074804306030273, -1.4498711824417114, -2.5109286308288574, 0.0625, -0.21142578125, -0.809814453125
180, 2481808419, -5.301083564758301, 2.0282163619995117, 8.023634910583496, -2.672032117843628, -1.5312423706054688, -2.435486078262329, 0.06201171875, -0.208984375, -0.810302734375
181, 2481825086, -5.3013014793396, 2.018998384475708, 8.00678539276123, -2.659968852996826, -1.5399380922317505, -2.4052248001098633, 0.06201171875, -0.208984375, -0.810791015625
182, 2481841753, -5.2950639724731445, 2.017638921737671, 8.017163276672363, -2.6620049476623535, -1.584747552871704, -2.4510974884033203, 0.06201171875, -0.2119140625, -0.810791015625
183, 2481858420, -5.288592338562012, 2.017836570739746, 8.030879974365234, -2.554854393005371, -1.5062702894210815, -2.458012819290161, 0.06201171875, -0.21044921875, -0.812744140625
184, 2481875087, -5.308282852172852, 2.029881477355957, 8.013782501220703, -2.5651376247406006, -1.4076100587844849, -2.405839681625366, 0.06201171875, -0.2099609375, -0.812744140625
185, 2481891754, -5.320102691650391, 2.0169708728790283, 8.013863563537598, -2.6025452613830566, -1.4389218091964722, -2.383979082107544, 0.0634765625, -0.20849609375, -0.80810546875
186, 2481908421, -5.3056721687316895, 2.0332837104797363, 8.025491714477539, -2.57816219329834, -1.5062702894210815, -2.4068000316619873, 0.0625, -0.2109375, -0.810791015625
187, 2481925088, -5.308568477630615, 2.0201728343963623, 8.043497085571289, -2.610882043838501, -1.5479549169540405, -2.4249465465545654, 0.06201171875, -0.2099609375, -0.810791015625
188, 2481941755, -5.309754371643066, 2.0293636322021484, 8.044127464294434, -2.5958471298217773, -1.5330225229263306, -2.457794666290283, 0.060546875, -0.2109375, -0.810791015625
189, 2481958422, -5.330824375152588, 2.027752161026001, 8.008310317993164, -2.5791609287261963, -1.567740797996521, -2.5090205669403076, 0.0615234375, -0.2109375, -0.812255859375
190, 2481975089, -5.313109397888184, 2.022606611251831, 8.029423713684082, -2.5976147651672363, -1.7439178228378296, -2.4067487716674805, 0.0625, -0.2109375, -0.811279296875
191, 2481991756, -5.311352252960205, 2.023529529571533, 8.030126571655273, -2.6473159790039062, -1.738923192024231, -2.3309481143951416, 0.0634765625, -0.208984375, -0.810302734375
192, 2482008423, -5.306777000427246, 2.0095107555389404, 8.039250373840332, -2.569338321685791, -1.640199065208435, -2.3113930225372314, 0.0625, -0.2119140625, -0.809326171875
193, 2482025090, -5.308926105499268, 2.027172565460205, 8.026406288146973, -2.5402934551239014, -1.798639178276062, -2.271782398223877, 0.0625, -0.21044921875, -0.810302734375
194, 2482041757, -5.315118312835693, 2.007218837738037, 8.045933723449707, -2.4846625328063965, -1.6801291704177856, -2.1913716793060303, 0.0634765625, -0.20947265625, -0.812744140625
195, 2482058424, -5.351266384124756, 1.9981169700622559, 8.034479141235352, -2.372786045074463, -1.782823085784912, -1.906353235244751, 0.060546875, -0.21142578125, -0.810791015625
196, 2482075091, -5.349490642547607, 1.9913381338119507, 8.031010627746582, -2.3931357860565186, -2.003694534301758, -1.7143733501434326, 0.06298828125, -0.21044921875, -0.812744140625
197, 2482091758, -5.310939311981201, 2.0453786849975586, 8.052319526672363, -2.337824821472168, -2.1046340465545654, -1.4875729084014893, 0.0595703125, -0.2099609375, -0.809814453125
198, 2482108425, -5.310300827026367, 2.043868064880371, 8.032795906066895, -2.5188684463500977, -1.9978549480438232, -1.6145350933074951, 0.0595703125, -0.21142578125, -0.809326171875
199, 2482125092, -5.312596797943115, 2.0324418544769287, 8.03398609161377, -2.395594358444214, -1.862709403038025, -1.5624644756317139, 0.059326171875, -0.21044921875, -0.807373046875
200, 2482141759, -5.320138454437256, 1.9936960935592651, 8.015421867370605, -2.208928346633911, -1.8608009815216064, -1.3269810676574707, 0.060546875, -0.2099609375, -0.811279296875
201, 2482158426, -5.245760917663574, 2.0632822513580322, 8.017341613769531, -2.2980098724365234, -1.9465010166168213, -1.2811471223831177, 0.060546875, -0.21142578125, -0.812255859375
202, 2482175093, -5.246449947357178, 2.085148572921753, 8.050827980041504, -2.2376022338867188, -1.6331297159194946, -1.6929097175598145, 0.06005859375, -0.212890625, -0.810791015625
203, 2482191760, -5.1895432472229, 2.2287697792053223, 8.074536323547363, -2.217355728149414, -0.7649233341217041, -2.0543694496154785, 0.0595703125, -0.20947265625, -0.809814453125
204, 2482208427, -5.245288372039795, 2.1605007648468018, 8.057156562805176, -2.4505207538604736, 0.0747186467051506, -2.9017012119293213, 0.06103515625, -0.21142578125, -0.808837890625
205, 2482225094, -5.335521221160889, 1.9684209823608398, 7.999725818634033, -2.3301284313201904, 0.06821303069591522, -3.026653289794922, 0.06103515625, -0.21044921875, -0.810302734375
206, 2482241761, -5.37026309967041, 1.8813961744308472, 7.995060443878174, -2.205650568008423, -0.41927993297576904, -2.5827462673187256, 0.06103515625, -0.21142578125, -0.809326171875
207, 2482258428, -5.299176216125488, 1.8841509819030762, 7.985925197601318, -2.122997999191284, -1.0540649890899658, -2.1400306224823, 0.0625, -0.2109375, -0.812744140625
208, 2482275095, -5.32928991317749, 1.8977272510528564, 8.024489402770996, -1.3069905042648315, -1.0442554950714111, -1.4670058488845825, 0.06005859375, -0.2119140625, -0.811279296875
209, 2482291762, -5.350552558898926, 1.9471583366394043, 8.002302169799805, -0.5148024559020996, -0.8337830305099487, -0.7958634495735168, 0.06298828125, -0.21337890625, -0.810791015625
210, 2482308429, -5.34388542175293, 2.053518295288086, 8.0162935256958, -0.14057530462741852, -0.9178822636604309, -0.19911311566829681, 0.060546875, -0.21240234375, -0.807861328125
211, 2482325096, -5.347471237182617, 2.069934606552124, 7.996190071105957, -0.17122089862823486, -1.0688691139221191, -0.20709146559238434, 0.06201171875, -0.21337890625, -0.80859375
212, 2482341763, -5.319711208343506, 1.9671739339828491, 8.01246166229248, 0.7563236951828003, -0.8809871673583984, 0.3080631196498871, 0.060546875, -0.21337890625, -0.809326171875
213, 2482358430, -5.339141368865967, 1.9855375289916992, 8.061098098754883, 1.6322011947631836, -0.20394110679626465, 0.9686529636383057, 0.06298828125, -0.2158203125, -0.810546875
214, 2482375097, -5.271390438079834, 2.1074061393737793, 8.04358959197998, 2.088261127471924, -0.0689622014760971, 1.1803420782089233, 0.06201171875, -0.217529296875, -0.81005859375
215, 2482391764, -5.288754940032959, 2.178494930267334, 7.945536136627197, 1.8015906810760498, 0.0037586630787700415, 0.876716136932373, 0.060546875, -0.21728515625, -0.8095703125
216, 2482408431, -5.3324737548828125, 2.105707883834839, 7.966174125671387, 2.0208230018615723, 0.023595700040459633, 1.0192766189575195, 0.059326171875, -0.21630859375, -0.80712890625
217, 2482425098, -5.312552452087402, 2.1479339599609375, 7.944988250732422, 2.182246685028076, -0.3263698220252991, 1.316550374031067, 0.060546875, -0.218505859375, -0.80908203125
218, 2482441765, -5.30682897567749, 2.1468241214752197, 7.9859137535095215, 2.386021852493286, -0.5768876671791077, 1.4040433168411255, 0.06201171875, -0.219970703125, -0.80810546875
219, 2482458432, -5.258150100708008, 2.2420172691345215, 7.998306751251221, 2.1570823192596436, -0.5011637210845947, 1.1477371454238892, 0.06396484375, -0.220458984375, -0.8076171875
220, 2482475099, -5.2810163497924805, 2.2901651859283447, 7.947463512420654, 1.8405735492706299, -0.7296674847602844, 0.7305062413215637, 0.0615234375, -0.222900390625, -0.80810546875
221, 2482491766, -5.2313103675842285, 2.321960687637329, 7.935111999511719, 1.2134848833084106, -1.333909273147583, -0.08357423543930054, 0.0595703125, -0.222900390625, -0.8076171875
222, 2482508433, -5.29451322555542, 2.3144888877868652, 7.9357099533081055, 0.029934845864772797, -2.0946578979492188, -0.7933661937713623, 0.0615234375, -0.224365234375, -0.806396484375
223, 2482525100, -5.288363933563232, 2.243738889694214, 7.879574298858643, -0.9512812495231628, -3.145136833190918, -1.3129196166992188, 0.06103515625, -0.224853515625, -0.805419921875
224, 2482541767, -5.335536003112793, 2.266615152359009, 7.852840900421143, -2.033405303955078, -4.623362064361572, -1.1515086889266968, 0.05908203125, -0.224853515625, -0.80859375
225, 2482558434, -5.320250034332275, 2.234598398208618, 7.844048500061035, -3.2922568321228027, -6.602532863616943, -1.5076534748077393, 0.05810546875, -0.225830078125, -0.8095703125
226, 2482575101, -5.2792439460754395, 2.211446762084961, 7.955522060394287, -5.024265766143799, -8.709473609924316, -2.036235809326172, 0.054443359375, -0.224853515625, -0.808837890625
227, 2482591768, -5.304557800292969, 2.304672956466675, 8.013779640197754, -7.417250156402588, -9.830902099609375, -2.2482197284698486, 0.055908203125, -0.223876953125, -0.809326171875
228, 2482608435, -5.141140460968018, 2.4632675647735596, 8.108644485473633, -7.174427509307861, -8.7936372756958, -2.5501294136047363, 0.052978515625, -0.224365234375, -0.807861328125
229, 2482625102, -5.082523345947266, 2.3213863372802734, 8.188777923583984, -7.084590911865234, -6.759809494018555, -3.642601490020752, 0.050537109375, -0.22021484375, -0.806884765625
230, 2482641769, -5.15421724319458, 2.1970622539520264, 8.172660827636719, -6.169421195983887, -4.939652919769287, -3.734511375427246, 0.0498046875, -0.221435546875, -0.808837890625
231, 2482658436, -5.197115898132324, 2.2625279426574707, 8.13278579711914, -6.463802337646484, -3.9576499462127686, -4.3314032554626465, 0.049560546875, -0.2197265625, -0.81005859375
232, 2482675103, -5.234475135803223, 2.131399393081665, 8.119318962097168, -7.442041873931885, -3.9299240112304688, -4.949860572814941, 0.049560546875, -0.2177734375, -0.814697265625
233, 2482691770, -5.175555229187012, 1.9925618171691895, 8.198339462280273, -6.607054233551025, -3.2243454456329346, -4.471044063568115, 0.049560546875, -0.21826171875, -0.81103515625
234, 2482708437, -5.154898166656494, 2.0280706882476807, 8.197928428649902, -5.363440036773682, -1.7548543214797974, -3.675525426864624, 0.04833984375, -0.21728515625, -0.80908203125
235, 2482725104, -5.230400085449219, 2.250828504562378, 8.034032821655273, -5.801341533660889, -1.3894251585006714, -3.877084732055664, 0.04833984375, -0.2177734375, -0.80908203125
236, 2482741771, -5.260304927825928, 2.2665324211120605, 7.960079193115234, -7.022862434387207, -2.709299087524414, -4.708883285522461, 0.050048828125, -0.21630859375, -0.81201171875
237, 2482758438, -5.193199634552002, 2.135636806488037, 8.016325950622559, -7.675858974456787, -4.071907997131348, -5.322691917419434, 0.048828125, -0.21533203125, -0.810546875
238, 2482775105, -5.067261219024658, 2.084829330444336, 8.068900108337402, -7.85507345199585, -4.553555965423584, -5.68955659866333, 0.050048828125, -0.2119140625, -0.813232421875
239, 2482791772, -5.044155120849609, 2.048969030380249, 8.087279319763184, -7.917260646820068, -4.419870376586914, -6.200146198272705, 0.048828125, -0.2119140625, -0.813232421875
240, 2482808439, -5.054943561553955, 2.1075258255004883, 8.033904075622559, -7.725457191467285, -4.124157905578613, -6.331038475036621, 0.0478515625, -0.209716796875, -0.811279296875
241, 2482825106, -5.11642599105835, 2.1597414016723633, 8.00054931640625, -8.278284072875977, -4.66052770614624, -6.724578857421875, 0.04736328125, -0.207763671875, -0.812744140625
242, 2482841773, -5.118227481842041, 2.167830467224121, 8.077696800231934, -9.07284164428711, -5.296477794647217, -7.2689385414123535, 0.04736328125, -0.206298828125, -0.813232421875
243, 2482858440, -5.061867713928223, 2.012500524520874, 8.07663631439209, -8.390237808227539, -5.3579487800598145, -7.195404529571533, 0.0458984375, -0.206298828125, -0.81640625
244, 2482875107, -4.965941429138184, 1.9483299255371094, 8.076495170593262, -7.132858753204346, -4.725571632385254, -7.480193614959717, 0.0458984375, -0.202392578125, -0.8173828125
245, 2482891774, -5.041750431060791, 1.779407262802124, 8.199616432189941, -4.559458255767822, -3.2869932651519775, -6.696902751922607, 0.046875, -0.203369140625, -0.81640625
246, 2482908441, -5.0810770988464355, 1.8571449518203735, 8.17746353149414, -2.6406185626983643, -1.4466055631637573, -5.771567344665527, 0.04541015625, -0.203369140625, -0.814453125
247, 2482925108, -4.951056480407715, 2.0451111793518066, 8.164103507995605, -1.5870143175125122, 0.021559491753578186, -5.765495777130127, 0.0458984375, -0.204345703125, -0.8134765625
248, 2482941775, -4.948610782623291, 1.844504475593567, 8.22164535522461, 0.4395139515399933, 2.58689546585083, -5.6375603675842285, 0.04638671875, -0.202880859375, -0.8154296875
249, 2482958442, -4.8681254386901855, 1.8177132606506348, 8.251134872436523, 3.049173593521118, 6.54776668548584, -5.22435188293457, 0.049072265625, -0.205810546875, -0.81640625
250, 2482975109, -4.729813098907471, 1.9844512939453125, 8.22729206085205, 4.728830814361572, 11.899226188659668, -6.069189071655273, 0.052490234375, -0.206787109375, -0.815185546875
251, 2482991776, -4.825910568237305, 1.6638880968093872, 8.553130149841309, 8.759424209594727, 20.32081413269043, -5.898128509521484, 0.057373046875, -0.207275390625, -0.8134765625
252, 2483008443, -5.232956886291504, 2.002544641494751, 8.372207641601562, 13.797636985778809, 30.185733795166016, -7.881789207458496, 0.0634765625, -0.21044921875, -0.810791015625
253, 2483025110, -5.274727821350098, 2.3403618335723877, 7.979621887207031, 17.48517417907715, 39.39086151123047, -9.968274116516113, 0.073974609375, -0.2138671875, -0.807373046875
254, 2483041777, -5.034992218017578, 1.9358830451965332, 8.810280799865723, 17.756542205810547, 51.061302185058594, -8.028693199157715, 0.087646484375, -0.218505859375, -0.8017578125
255, 2483058444, -4.724836349487305, 2.4324889183044434, 8.784440040588379, 23.17337989807129, 65.98291015625, -12.74748706817627, 0.1005859375, -0.224609375, -0.8017578125
256, 2483075111, -4.995108604431152, 2.1978721618652344, 8.900418281555176, 30.482297897338867, 88.01641845703125, -17.823583602905273, 0.11962890625, -0.230712890625, -0.797119140625
257, 2483091778, -5.391127109527588, 1.970658302307129, 8.401151657104492, 36.591773986816406, 113.5984115600586, -20.930755615234375, 0.147216796875, -0.238037109375, -0.7880859375
258, 2483108445, -5.643755912780762, 2.424147367477417, 8.342811584472656, 45.334228515625, 141.62579345703125, -24.362022399902344, 0.177978515625, -0.24560546875, -0.774169921875
259, 2483125112, -5.54240083694458, 2.859004497528076, 8.553582191467285, 43.17829132080078, 169.3388671875, -31.308101654052734, 0.21630859375, -0.25537109375, -0.75830078125
260, 2483141779, -5.762186527252197, 2.734679698944092, 7.6412811279296875, 40.690093994140625, 205.40606689453125, -45.02165222167969, 0.261474609375, -0.259521484375, -0.738525390625
261, 2483158446, -6.358636379241943, 3.0789334774017334, 7.81157922744751, 31.2496280670166, 241.42430114746094, -64.00424194335938, 0.31640625, -0.26025390625, -0.713134765625
262, 2483175113, -7.221213340759277, 3.6599478721618652, 8.053850173950195, 19.527074813842773, 280.83099365234375, -88.32012176513672, 0.376953125, -0.25439453125, -0.679931640625
263, 2483191780, -8.536208152770996, 3.94545316696167, 8.588874816894531, 8.804035186767578, 310.20208740234375, -108.13009643554688, 0.44287109375, -0.2421875, -0.63623046875
264, 2483208447, -12.03141975402832, 6.543877124786377, 10.540621757507324, 0.760334312915802, 342.4932556152344, -131.28927612304688, 0.510498046875, -0.22314453125, -0.578369140625
265, 2483225114, -15.361104011535645, 5.81365966796875, 11.847851753234863, -6.423763751983643, 331.50433349609375, -138.29693603515625, 0.57763671875, -0.19970703125, -0.52001953125
266, 2483241781, -16.235332489013672, 5.673904895782471, 13.370235443115234, 1.3257720470428467, 325.69439697265625, -142.1887969970703, 0.6337890625, -0.173095703125, -0.452392578125
267, 2483258448, -16.972576141357422, 7.689195156097412, 14.447261810302734, -3.3663110733032227, 288.2515869140625, -142.0310516357422, 0.6796875, -0.143310546875, -0.384765625
268, 2483275115, -10.598292350769043, 8.299606323242188, 14.29487133026123, -25.616539001464844, 236.7882080078125, -153.00189208984375, 0.714111328125, -0.111083984375, -0.323974609375
269, 2483291782, 0.7024751901626587, 4.4014716148376465, 9.704394340515137, -49.02967834472656, 222.55934143066406, -170.3083038330078, 0.737548828125, -0.06982421875, -0.266845703125
270, 2483308449, -18.766809463500977, 7.190248489379883, 26.30716896057129, 25.72457504272461, 105.43878936767578, -106.27186584472656, 0.758544921875, -0.0400390625, -0.2216796875
271, 2483325116, -8.4531831741333, 9.587846755981445, 21.358755111694336, 66.11045837402344, -107.14745330810547, -28.169395446777344, 0.760498046875, -0.034912109375, -0.226806640625
272, 2483341783, 1.6720709800720215, 8.417622566223145, 12.579071998596191, 31.27895736694336, -182.3903350830078, -0.21026720106601715, 0.755859375, -0.03662109375, -0.259765625
273, 2483358450, 3.6823172569274902, 5.77359676361084, 7.978020191192627, -6.166962146759033, -184.4650421142578, 11.134048461914062, 0.750732421875, -0.04150390625, -0.297607421875
274, 2483375117, 2.5857229232788086, 3.671674966812134, 6.571684837341309, -15.217989921569824, -173.0474853515625, 36.091766357421875, 0.74267578125, -0.04443359375, -0.334228515625
275, 2483391784, -0.29730695486068726, 3.6180973052978516, 7.24619197845459, -9.243666648864746, -170.59915161132812, 71.92369842529297, 0.73193359375, -0.059814453125, -0.374267578125
276, 2483408451, -3.9026405811309814, 4.985176086425781, 8.66754150390625, -20.961448669433594, -187.6107940673828, 102.33485412597656, 0.718017578125, -0.08154296875, -0.41943359375
277, 2483425118, -6.381239891052246, 5.0446600914001465, 9.346610069274902, -47.573551177978516, -223.7391815185547, 127.99730682373047, 0.68896484375, -0.105712890625, -0.4765625
278, 2483441785, -6.673997402191162, 3.8002519607543945, 8.375901222229004, -65.15418243408203, -257.4076843261719, 151.48941040039062, 0.642578125, -0.12890625, -0.539306640625
279, 2483458452, -6.56843376159668, 2.6956655979156494, 7.136643886566162, -69.59675598144531, -273.3952941894531, 168.11851501464844, 0.583251953125, -0.14404296875, -0.596923828125
280, 2483475119, -6.860019207000732, 1.8526920080184937, 6.6266398429870605, -67.52091217041016, -272.6223449707031, 172.1443328857422, 0.52099609375, -0.154296875, -0.647705078125
281, 2483491786, -7.622433185577393, 0.7368273735046387, 6.458317756652832, -61.00238037109375, -261.6883850097656, 159.93975830078125, 0.459716796875, -0.163330078125, -0.685791015625
282, 2483508453, -8.103562355041504, -0.9122704267501831, 6.335911273956299, -39.52703857421875, -238.23831176757812, 133.3520050048828, 0.402099609375, -0.1708984375, -0.706787109375
283, 2483525120, -11.57692813873291, -1.054673671722412, 8.852421760559082, -5.386578559875488, -210.72628784179688, 100.28876495361328, 0.35791015625, -0.1748046875, -0.711181640625
284, 2483541787, -15.9448881149292, -0.7891172766685486, 11.057676315307617, 31.19159507751465, -204.60784912109375, 73.16866302490234, 0.33447265625, -0.18359375, -0.713134765625
285, 2483558454, -21.1252384185791, -1.3632832765579224, 11.556739807128906, 71.35955047607422, -214.791748046875, 49.91664505004883, 0.324951171875, -0.20166015625, -0.72802734375
286, 2483575121, -26.48601531982422, -0.24133552610874176, 9.571796417236328, 113.32872772216797, -242.3148956298828, 31.60423469543457, 0.3125, -0.237548828125, -0.772216796875
287, 2483591788, -29.459394454956055, 3.040382146835327, 4.128506183624268, 118.85417175292969, -274.5716552734375, 1.5532151460647583, 0.2646484375, -0.288330078125, -0.828125
288, 2483608455, -29.026508331298828, 3.073244571685791, -4.7537736892700195, 109.3907470703125, -269.7803955078125, -29.763423919677734, 0.188720703125, -0.332275390625, -0.874267578125
289, 2483625122, -26.56269645690918, -1.0269173383712769, -11.394674301147461, 129.8430633544922, -201.19357299804688, -18.574636459350586, 0.111083984375, -0.37939453125, -0.89013671875
290, 2483641789, -25.00938606262207, -4.043057918548584, -11.911896705627441, 145.62828063964844, -119.96778106689453, 44.59008026123047, 0.0478515625, -0.4326171875, -0.882080078125
291, 2483658456, -23.382822036743164, -3.1561713218688965, -9.632810592651367, 51.197975158691406, -49.849815368652344, 64.51622772216797, 0.00830078125, -0.4609375, -0.872802734375
292, 2483675123, -24.084447860717773, -5.0757737159729, -6.377884864807129, -81.42650604248047, -14.70290470123291, 16.221294403076172, -0.012451171875, -0.456298828125, -0.878662109375
293, 2483691790, -17.74855613708496, -8.24609088897705, -6.699418544769287, -92.55724334716797, 34.53472137451172, -64.44330596923828, -0.0087890625, -0.432373046875, -0.896484375
294, 2483708457, 2.2541584968566895, 9.465849876403809, 8.291656494140625, -82.65941619873047, 83.6048355102539, -100.31995391845703, 0.01611328125, -0.41748046875, -0.90966796875
295, 2483725124, -0.14672014117240906, 11.985316276550293, 7.596458911895752, -82.24827575683594, 91.38735961914062, -86.27716827392578, 0.041748046875, -0.396728515625, -0.923828125
296, 2483741791, -15.02364730834961, -5.588125228881836, 13.02719783782959, -67.31905364990234, 126.22607421875, -20.093730926513672, 0.072509765625, -0.38232421875, -0.9345703125
297, 2483758458, -15.783573150634766, -10.59486198425293, 16.353988647460938, -19.22178840637207, 69.21154022216797, -25.432905197143555, 0.093505859375, -0.377685546875, -0.939208984375
298, 2483775125, -3.54350209236145, 3.02238392829895, 7.815915107727051, 17.667816162109375, 53.749610900878906, -33.848575592041016, 0.11083984375, -0.381591796875, -0.939453125
299, 2483791792, -11.95962905883789, 8.115605354309082, 10.227158546447754, -22.121471405029297, 55.42028045654297, -20.6046142578125, 0.12744140625, -0.3818359375, -0.942138671875
300, 2483808459, -6.476212024688721, 0.4860037565231323, 8.122464179992676, -14.612064361572266, 18.28615951538086, -18.177888870239258, 0.1337890625, -0.37646484375, -0.94189453125
301, 2483825126, -6.158684253692627, 3.579498529434204, 8.102538108825684, -18.386903762817383, 12.101895332336426, -15.146491050720215, 0.138916015625, -0.373291015625, -0.943359375
302, 2483841793, -6.268569469451904, 2.1010560989379883, 8.496660232543945, -14.487970352172852, 6.161802768707275, -11.14552116394043, 0.142822265625, -0.369384765625, -0.947265625
303, 2483858460, -5.680554389953613, 2.7986292839050293, 8.125121116638184, -13.764097213745117, 4.606032371520996, -8.832470893859863, 0.14501953125, -0.366455078125, -0.94873046875
304, 2483875127, -5.512927055358887, 2.287571430206299, 8.229286193847656, -17.75511932373047, 3.360858201980591, -10.173020362854004, 0.14697265625, -0.362548828125, -0.950439453125
305, 2483891794, -5.23112154006958, 2.1140527725219727, 8.199739456176758, -15.375102996826172, 3.6822712421417236, -8.992770195007324, 0.14794921875, -0.35693359375, -0.952392578125
306, 2483908461, -5.0568060874938965, 2.3763809204101562, 7.939981460571289, -13.900856971740723, 4.299806594848633, -7.912769317626953, 0.14892578125, -0.3544921875, -0.950927734375
307, 2483925128, -5.219336986541748, 2.734833002090454, 7.888384819030762, -18.988706588745117, 2.303321361541748, -10.175339698791504, 0.15087890625, -0.348876953125, -0.953857421875
308, 2483941795, -5.558698654174805, 2.7041447162628174, 7.503419876098633, -19.6357421875, -1.5050691366195679, -11.20384693145752, 0.154541015625, -0.344482421875, -0.95654296875
309, 2483958462, -5.090644836425781, 2.3742592334747314, 7.8358259201049805, -13.563780784606934, -1.136820912361145, -9.00747013092041, 0.152587890625, -0.33837890625, -0.958251953125
310, 2483975129, -5.091562271118164, 2.176069736480713, 8.10642147064209, -8.82657527923584, 0.9375211596488953, -6.673161029815674, 0.155517578125, -0.33837890625, -0.95849609375
311, 2483991796, -5.57882833480835, 1.9616094827651978, 8.023966789245605, -3.807213306427002, 3.1697323322296143, -4.289628028869629, 0.155517578125, -0.337890625, -0.958984375
312, 2484008463, -5.585153579711914, 2.139896869659424, 7.9437384605407715, 0.873630166053772, 4.046454906463623, -1.8064000606536865, 0.155029296875, -0.3388671875, -0.95751953125
313, 2484025130, -5.4163007736206055, 2.3955159187316895, 7.873586177825928, 1.8770458698272705, 2.9896743297576904, -1.6055322885513306, 0.157958984375, -0.339111328125, -0.96044921875
314, 2484041797, -5.362846374511719, 2.555859327316284, 7.806721210479736, 1.6848868131637573, 1.2963165044784546, -2.834916353225708, 0.158447265625, -0.339111328125, -0.95751953125
315, 2484058464, -5.413149833679199, 2.423935890197754, 7.875925064086914, 0.1946757435798645, -0.3060334026813507, -4.632531642913818, 0.157958984375, -0.342529296875, -0.958984375
316, 2484075131, -5.5213165283203125, 2.284450054168701, 7.880589962005615, -1.1527894735336304, -1.3764779567718506, -5.748144149780273, 0.1591796875, -0.344482421875, -0.957763671875
317, 2484091798, -5.296247959136963, 2.436450719833374, 7.819681167602539, -1.4938609600067139, -2.260525941848755, -6.283577919006348, 0.15966796875, -0.343994140625, -0.957763671875
318, 2484108465, -5.173715114593506, 2.479405164718628, 7.820560932159424, -2.048900842666626, -2.1723287105560303, -7.17650032043457, 0.157470703125, -0.342529296875, -0.958984375
319, 2484125132, -5.086111068725586, 2.362119674682617, 8.084769248962402, -0.5042884349822998, 1.1592373847961426, -8.662625312805176, 0.16064453125, -0.343017578125, -0.957275390625
320, 2484141799, -5.362061977386475, 2.4173946380615234, 8.086467742919922, 1.9228167533874512, 8.04025936126709, -9.908726692199707, 0.16015625, -0.343505859375, -0.958251953125
321, 2484158466, -5.065271377563477, 2.360320806503296, 8.219588279724121, 3.5676684379577637, 15.749520301818848, -11.413944244384766, 0.166015625, -0.342041015625, -0.957275390625
322, 2484175133, -5.350296497344971, 2.4944050312042236, 8.007037162780762, 6.782283306121826, 25.810197830200195, -15.09499454498291, 0.174072265625, -0.34716796875, -0.953369140625
323, 2484191800, -4.796952247619629, 2.794053316116333, 8.753318786621094, 12.745594024658203, 37.804229736328125, -22.071456909179688, 0.18212890625, -0.3515625, -0.947509765625
324, 2484208467, -4.814535617828369, 1.9561853408813477, 8.935809135437012, 8.94540023803711, 59.81074523925781, -23.515457153320312, 0.197265625, -0.351806640625, -0.9443359375
325, 2484225134, -4.67275857925415, 2.045478105545044, 9.129129409790039, 19.49559783935547, 91.0137939453125, -25.618791580200195, 0.220703125, -0.354248046875, -0.9345703125
326, 2484241801, -4.97149133682251, 2.7858688831329346, 9.096771240234375, 33.478355407714844, 130.02813720703125, -31.405885696411133, 0.253662109375, -0.359130859375, -0.92138671875
327, 2484258468, -5.007129669189453, 3.7959113121032715, 9.708272933959961, 36.16368865966797, 175.0707244873047, -49.05209732055664, 0.29736328125, -0.3681640625, -0.900634765625
328, 2484275135, -4.828948974609375, 3.5288310050964355, 9.162711143493652, 33.07032775878906, 233.5606231689453, -74.4892349243164, 0.355712890625, -0.364990234375, -0.873046875
329, 2484291802, -5.787040710449219, 3.822748899459839, 9.804941177368164, 23.144136428833008, 306.770751953125, -110.41730499267578, 0.42919921875, -0.361083984375, -0.830322265625
330, 2484308469, -7.596399307250977, 4.604275226593018, 11.263748168945312, 8.554527282714844, 380.0335998535156, -151.8871307373047, 0.52001953125, -0.33984375, -0.769287109375
331, 2484325136, -9.582170486450195, 6.3629608154296875, 12.415547370910645, -3.999931812286377, 439.8588562011719, -189.98216247558594, 0.6181640625, -0.303466796875, -0.68701171875
332, 2484341803, -19.49811363220215, 7.701254367828369, 15.883681297302246, 6.735805988311768, 442.75933837890625, -192.65103149414062, 0.708251953125, -0.2568359375, -0.585693359375
333, 2484358470, -20.99734878540039, 8.305957794189453, 17.531503677368164, -1.2615704536437988, 386.4702453613281, -181.65936279296875, 0.77587890625, -0.2099609375, -0.48388671875
334, 2484375137, -14.168201446533203, 9.656936645507812, 17.444177627563477, -11.697606086730957, 309.33563232421875, -172.50680541992188, 0.819580078125, -0.157958984375, -0.389892578125
335, 2484391804, 2.9686267375946045, 9.281571388244629, 14.251114845275879, -66.3592758178711, 249.99293518066406, -205.12005615234375, 0.84716796875, -0.101318359375, -0.3134765625
336, 2484408471, -15.66163158416748, 11.616630554199219, 23.118227005004883, -52.416343688964844, 191.5653533935547, -134.1427764892578, 0.865478515625, -0.048828125, -0.25048828125
337, 2484425138, -10.90215015411377, 12.042139053344727, 25.46808433532715, -3.66988205909729, -90.86580657958984, 2.4381632804870605, 0.86328125, -0.041015625, -0.25537109375
338, 2484441805, 3.873321056365967, 8.920660018920898, 13.132355690002441, -14.375738143920898, -192.7967529296875, 57.01405715942383, 0.85107421875, -0.056640625, -0.30908203125
339, 2484458472, 5.837663173675537, 4.948702335357666, 7.912299633026123, -34.879310607910156, -186.92628479003906, 61.483192443847656, 0.83154296875, -0.075927734375, -0.365966796875
340, 2484475139, 2.7131173610687256, 2.914004325866699, 7.3359551429748535, -31.302473068237305, -174.72552490234375, 74.62007904052734, 0.801025390625, -0.0966796875, -0.421142578125
341, 2484491806, -2.0783748626708984, 3.54934024810791, 8.873706817626953, -22.817981719970703, -193.9805450439453, 97.11975860595703, 0.7548828125, -0.124755859375, -0.470703125
342, 2484508473, -4.997344493865967, 4.29299259185791, 9.518336296081543, -30.199920654296875, -238.99520874023438, 117.96873474121094, 0.693603515625, -0.1513671875, -0.51953125
343, 2484525140, -5.739869117736816, 3.9721932411193848, 8.75100040435791, -44.38957595825195, -281.25604248046875, 136.55807495117188, 0.6259765625, -0.1748046875, -0.5654296875
344, 2484541807, -6.286281585693359, 3.436546564102173, 7.738556385040283, -54.24969482421875, -301.9496765136719, 152.39886474609375, 0.552978515625, -0.19189453125, -0.60791015625
345, 2484558474, -7.09525203704834, 2.8975021839141846, 6.993303298950195, -59.881019592285156, -308.32684326171875, 162.07659912109375, 0.475341796875, -0.20263671875, -0.641845703125
346, 2484575141, -7.947308540344238, 2.0654659271240234, 6.859117031097412, -59.034767150878906, -303.679931640625, 159.53465270996094, 0.404296875, -0.21337890625, -0.667724609375
347, 2484591808, -9.158442497253418, 0.4626578092575073, 7.173864841461182, -44.20756149291992, -287.59503173828125, 142.0465087890625, 0.34228515625, -0.22216796875, -0.6865234375
348, 2484608475, -11.361573219299316, -0.09598428755998611, 8.880224227905273, -13.542975425720215, -266.918701171875, 111.14988708496094, 0.28857421875, -0.228759765625, -0.6943359375
349, 2484625142, -16.603723526000977, 0.8813636302947998, 12.231612205505371, 25.74030303955078, -262.4937438964844, 79.18360900878906, 0.24951171875, -0.24560546875, -0.707275390625
350, 2484641809, -19.87931251525879, 0.40778976678848267, 11.206928253173828, 69.18223571777344, -275.2687683105469, 60.49813461303711, 0.2060546875, -0.26953125, -0.72412109375
351, 2484658476, -21.851892471313477, 0.7353326082229614, 6.605389595031738, 101.88983917236328, -252.12705993652344, 47.825660705566406, 0.149169921875, -0.303955078125, -0.744873046875
352, 2484675143, -26.413204193115234, 2.9954633712768555, 2.4392900466918945, 108.3890151977539, -208.97593688964844, 33.9364013671875, 0.091552734375, -0.34619140625, -0.75634765625
353, 2484691810, -32.73213195800781, 4.119771480560303, -1.6259124279022217, 101.1017837524414, -184.0538787841797, 45.254764556884766, 0.0302734375, -0.37744140625, -0.74609375
354, 2484708477, -32.06227111816406, 0.16505038738250732, -7.114223957061768, 84.88665008544922, -167.979736328125, 84.0649642944336, -0.026611328125, -0.402099609375, -0.736328125
355, 2484725144, -28.3022518157959, -6.959189414978027, -12.548040390014648, 70.18338012695312, -124.57160186767578, 120.66519927978516, -0.074462890625, -0.418701171875, -0.719970703125
356, 2484741811, -26.053470611572266, -10.042305946350098, -14.568150520324707, 29.305253982543945, -24.681461334228516, 99.25692749023438, -0.10888671875, -0.4248046875, -0.706298828125
357, 2484758478, -22.330995559692383, -14.373473167419434, -18.795854568481445, -45.48820495605469, 97.51985168457031, -44.816619873046875, -0.09521484375, -0.4169921875, -0.7080078125
358, 2484775145, -11.405104637145996, -1.4262521266937256, 6.421767234802246, -65.86930847167969, 136.88999938964844, -170.6214141845703, -0.056640625, -0.4052734375, -0.71240234375
359, 2484791812, -10.359363555908203, 14.847282409667969, 16.18125343322754, -95.21934509277344, 63.002723693847656, -173.3466033935547, -0.023681640625, -0.385498046875, -0.723876953125
360, 2484808479, -2.966869354248047, 7.996870040893555, 2.881727695465088, -80.46749877929688, 103.51245880126953, -97.0154037475586, 0.00390625, -0.3671875, -0.729248046875
361, 2484825146, -14.20322036743164, -1.877376675605774, 13.454928398132324, -72.61234283447266, 133.2823486328125, -21.8712158203125, 0.034423828125, -0.351806640625, -0.729736328125
362, 2484841813, -19.152666091918945, -4.584144592285156, 16.524850845336914, -68.85382843017578, 22.372249603271484, -54.954105377197266, 0.049072265625, -0.331298828125, -0.737060546875
363, 2484858480, -5.051328182220459, 3.07568359375, 8.538105010986328, -34.24187469482422, -0.36112838983535767, -23.049400329589844, 0.051025390625, -0.326416015625, -0.738525390625
364, 2484875147, -5.7957658767700195, 1.0464277267456055, 8.303329467773438, -26.708106994628906, -7.9893107414245605, -17.729948043823242, 0.051513671875, -0.3212890625, -0.74267578125
365, 2484891814, -6.182278156280518, 1.9368529319763184, 8.37722396850586, -17.638063430786133, -8.242104530334473, -11.317887306213379, 0.051025390625, -0.3173828125, -0.7431640625
366, 2484908481, -5.932845115661621, 2.247880458831787, 8.206280708312988, -16.300859451293945, -9.0430908203125, -11.420811653137207, 0.048583984375, -0.312255859375, -0.742919921875
367, 2484925148, -5.153669834136963, 2.2747950553894043, 8.171147346496582, -13.45934772491455, -7.288166046142578, -9.52027702331543, 0.047119140625, -0.309326171875, -0.744140625
368, 2484941815, -5.321681499481201, 2.4539363384246826, 8.034295082092285, -10.304021835327148, -6.068203449249268, -8.843674659729004, 0.047607421875, -0.307373046875, -0.74853515625
369, 2484958482, -5.101162910461426, 1.9007571935653687, 8.226594924926758, -7.687865734100342, -4.753686428070068, -7.462179660797119, 0.048095703125, -0.30615234375, -0.748046875
370, 2484975149, -5.234480857849121, 1.8670567274093628, 8.283401489257812, -5.82030725479126, -1.6611117124557495, -6.455066680908203, 0.044921875, -0.30517578125, -0.7470703125
371, 2484991816, -5.359670162200928, 1.8758338689804077, 8.187955856323242, -5.351621150970459, 0.07803550362586975, -5.476880073547363, 0.048583984375, -0.3037109375, -0.74560546875
372, 2485008483, -5.227471828460693, 2.0381720066070557, 8.100251197814941, -6.074104309082031, 0.21248939633369446, -4.618252754211426, 0.048583984375, -0.302734375, -0.74853515625
373, 2485025150, -5.067749977111816, 2.0405449867248535, 8.077716827392578, -6.2985734939575195, -0.3367046117782593, -4.942573070526123, 0.049560546875, -0.302734375, -0.74755859375
374, 2485041817, -5.001851558685303, 1.9796569347381592, 8.13604736328125, -6.190551280975342, -0.45202577114105225, -5.189248561859131, 0.048095703125, -0.302734375, -0.749755859375
375, 2485058484, -5.197322845458984, 1.9140907526016235, 8.137383460998535, -6.7516632080078125, -0.42205899953842163, -4.677187442779541, 0.050048828125, -0.30078125, -0.7490234375
376, 2485075151, -5.184357166290283, 1.8855172395706177, 8.101141929626465, -7.055699825286865, -0.6420978307723999, -4.1941328048706055, 0.048095703125, -0.30078125, -0.748291015625
377, 2485091818, -5.0777740478515625, 1.9838359355926514, 8.037530899047852, -7.159942626953125, -1.146014928817749, -4.854940414428711, 0.049560546875, -0.30078125, -0.7470703125
378, 2485108485, -5.037399768829346, 1.9354885816574097, 8.064230918884277, -6.580877304077148, -2.319934844970703, -6.048722267150879, 0.050537109375, -0.298828125, -0.7490234375
379, 2485125152, -5.0738935470581055, 1.8179243803024292, 8.110783576965332, -4.103001594543457, -2.7841522693634033, -6.681419849395752, 0.048583984375, -0.29833984375, -0.749755859375
380, 2485141819, -5.069857120513916, 1.8096983432769775, 8.032782554626465, -2.5200979709625244, -3.0827577114105225, -6.854432582855225, 0.050048828125, -0.29736328125, -0.749267578125
381, 2485158486, -4.966323375701904, 1.8666026592254639, 8.246664047241211, -0.6519073843955994, -1.44640052318573, -6.657535552978516, 0.050048828125, -0.2978515625, -0.74853515625
382, 2485175153, -4.987212181091309, 2.2220046520233154, 8.116127014160156, 0.02745041623711586, 1.7250475883483887, -8.304971694946289, 0.049072265625, -0.296630859375, -0.747802734375
383, 2485191820, -5.008987903594971, 2.2897021770477295, 8.21002197265625, 0.5066258311271667, 4.032151222229004, -11.08849811553955, 0.052490234375, -0.29736328125, -0.74658203125
384, 2485208487, -4.9047932624816895, 2.4188339710235596, 8.399170875549316, 1.8739875555038452, 9.306366920471191, -15.790313720703125, 0.0546875, -0.2998046875, -0.7470703125
385, 2485225154, -4.5912251472473145, 2.796372890472412, 8.727012634277344, 2.750730037689209, 20.988813400268555, -23.083829879760742, 0.06103515625, -0.298828125, -0.74365234375
386, 2485241821, -4.431401252746582, 2.558511734008789, 8.887798309326172, 0.2898615896701813, 40.26142501831055, -31.738475799560547, 0.07275390625, -0.300537109375, -0.747314453125
387, 2485258488, -4.250374794006348, 2.0594968795776367, 9.765581130981445, 5.698946475982666, 69.26252746582031, -38.48918914794922, 0.086669921875, -0.300048828125, -0.740478515625
388, 2485275155, -4.6039509773254395, 2.170785665512085, 9.762142181396484, 14.410792350769043, 105.2142562866211, -49.3587760925293, 0.11083984375, -0.301025390625, -0.737548828125
389, 2485291822, -4.866826057434082, 1.8501445055007935, 10.156702995300293, 20.466360092163086, 149.9237060546875, -62.649173736572266, 0.145263671875, -0.3037109375, -0.725830078125
390, 2485308489, -4.709557056427002, 3.5230352878570557, 11.499432563781738, 21.502321243286133, 210.9493865966797, -84.5316162109375, 0.1884765625, -0.305419921875, -0.71337890625
391, 2485325156, -5.031503677368164, 4.1824774742126465, 10.881094932556152, 12.405134201049805, 287.8659973144531, -121.74526977539062, 0.254638671875, -0.298828125, -0.689208984375
392, 2485341823, -5.273943901062012, 3.4453680515289307, 10.897851943969727, -8.92519760131836, 364.4379577636719, -164.94720458984375, 0.33349609375, -0.2841796875, -0.6552734375
393, 2485358490, -7.268013000488281, 4.488425254821777, 12.006912231445312, -16.306629180908203, 429.0578308105469, -201.59756469726562, 0.425048828125, -0.2548828125, -0.602294921875
394, 2485375157, -13.275786399841309, 4.737585067749023, 14.634758949279785, 9.623017311096191, 474.3511657714844, -217.13597106933594, 0.51611328125, -0.220458984375, -0.53076171875
395, 2485391824, -20.83342742919922, 8.572789192199707, 16.945587158203125, -1.1413127183914185, 454.061767578125, -204.1404571533203, 0.595458984375, -0.181640625, -0.4443359375
396, 2485408491, -17.620620727539062, 7.935241222381592, 17.73729133605957, -12.298796653747559, 362.1018981933594, -178.4782257080078, 0.65380859375, -0.138916015625, -0.36328125
397, 2485425158, -3.6746582984924316, 8.459346771240234, 17.33193016052246, -32.55531311035156, 293.87774658203125, -185.39183044433594, 0.68896484375, -0.0947265625, -0.290283203125
398, 2485441825, -5.75718879699707, 17.901294708251953, 18.833141326904297, -80.90605163574219, 257.04949951171875, -113.43447875976562, 0.713134765625, -0.047119140625, -0.221923828125
399, 2485458492, -15.539261817932129, 15.67835521697998, 28.106651306152344, -60.737613677978516, -9.653128623962402, 66.36126708984375, 0.71240234375, -0.03955078125, -0.191650390625
400, 2485475159, 0.466669499874115, 8.726456642150879, 16.127058029174805, -78.79521942138672, -157.70619201660156, 150.3623046875, 0.706787109375, -0.04736328125, -0.19287109375
401, 2485491826, 4.445818901062012, 1.965506672859192, 9.653949737548828, -87.6192626953125, -176.26181030273438, 154.48251342773438, 0.7109375, -0.052490234375, -0.197265625
402, 2485508493, 2.8546202182769775, -2.5015838146209717, 7.5499138832092285, -59.59611892700195, -171.65687561035156, 138.57241821289062, 0.73583984375, -0.05224609375, -0.20703125
403, 2485525160, -0.5327287316322327, -2.747609853744507, 8.330655097961426, -17.239561080932617, -182.07716369628906, 118.12628173828125, 0.7783203125, -0.056884765625, -0.238037109375
404, 2485541827, -4.053455829620361, -0.4294297695159912, 9.48759651184082, -6.347255706787109, -210.63600158691406, 95.3692626953125, 0.825439453125, -0.06103515625, -0.313232421875
405, 2485558494, -7.0203962326049805, 0.677463710308075, 10.265043258666992, -14.478889465332031, -256.3782958984375, 83.22885131835938, 0.84130859375, -0.074951171875, -0.435791015625
406, 2485575161, -8.40830135345459, 0.9528375864028931, 9.830900192260742, -15.185281753540039, -303.8909606933594, 90.22208404541016, 0.792724609375, -0.09521484375, -0.575439453125
407, 2485591828, -7.986512184143066, 1.2690967321395874, 8.228901863098145, -9.401899337768555, -333.0257568359375, 104.04692077636719, 0.69287109375, -0.11376953125, -0.6904296875
408, 2485608495, -7.00388240814209, 1.4736976623535156, 6.388994216918945, -6.076711177825928, -333.56256103515625, 110.81807708740234, 0.578125, -0.125, -0.767822265625
409, 2485625162, -6.669671535491943, 1.0155749320983887, 5.332533836364746, -3.189663887023926, -303.05731201171875, 102.98706817626953, 0.4794921875, -0.130126953125, -0.817626953125
410, 2485641829, -8.706958770751953, 0.4976605474948883, 6.7864484786987305, 9.82140827178955, -250.73007202148438, 82.47638702392578, 0.39501953125, -0.13818359375, -0.85498046875
411, 2485658496, -16.19685173034668, 1.8276842832565308, 11.848957061767578, 35.047935485839844, -229.8319549560547, 61.54045486450195, 0.31884765625, -0.150390625, -0.881591796875
412, 2485675163, -20.859922409057617, 1.7497342824935913, 12.82446002960205, 72.58631134033203, -256.5238037109375, 55.09238052368164, 0.2265625, -0.166015625, -0.892333984375
413, 2485691830, -23.671661376953125, 1.2844972610473633, 9.348525047302246, 117.61834716796875, -262.9546813964844, 62.94948959350586, 0.1396484375, -0.19580078125, -0.88525390625
414, 2485708497, -28.83718490600586, 3.8081281185150146, 5.157987117767334, 135.2769012451172, -249.8770294189453, 71.22144317626953, 0.063720703125, -0.239990234375, -0.870849609375
415, 2485725164, -34.75880432128906, 5.204196453094482, 0.11963927745819092, 100.80879211425781, -250.16314697265625, 80.60946655273438, -0.007080078125, -0.278564453125, -0.859375
416, 2485741831, -32.92890167236328, 0.48636481165885925, -7.506113052368164, 54.04240417480469, -249.69029235839844, 101.31998443603516, -0.080078125, -0.305419921875, -0.845703125
417, 2485758498, -28.286882400512695, -10.73645305633545, -14.306605339050293, 51.45443344116211, -192.17593383789062, 116.67129516601562, -0.1416015625, -0.318603515625, -0.83203125
418, 2485775165, -26.841995239257812, -13.119694709777832, -19.72899055480957, 22.375225067138672, -43.36555480957031, 57.55858612060547, -0.1748046875, -0.328125, -0.82177734375
419, 2485791832, -27.269540786743164, -15.19561767578125, -18.075729370117188, -51.74784469604492, 84.35456848144531, -76.63201904296875, -0.16015625, -0.31787109375, -0.82470703125
420, 2485808499, -9.8214750289917, 1.6960011720657349, 16.695514678955078, -60.39614486694336, 108.07412719726562, -127.67454528808594, -0.123046875, -0.3046875, -0.831787109375
421, 2485825166, -2.001542329788208, 12.621672630310059, 10.065826416015625, -45.71352005004883, 40.263206481933594, -81.84085845947266, -0.10693359375, -0.292236328125, -0.83740234375
422, 2485841833, -4.4650373458862305, 2.2783048152923584, 6.096776008605957, -45.752559661865234, 123.20947265625, -33.595359802246094, -0.081787109375, -0.27587890625, -0.843505859375
423, 2485858500, -11.413529396057129, -3.5871036052703857, 13.222548484802246, -32.97465515136719, 109.27111053466797, -22.416215896606445, -0.051513671875, -0.26708984375, -0.848388671875
424, 2485875167, -7.362441539764404, -2.442993402481079, 9.804191589355469, -14.041386604309082, 80.60013580322266, -56.88850784301758, -0.031494140625, -0.2626953125, -0.849365234375
425, 2485891834, -5.4084038734436035, 5.6545729637146, 7.347654819488525, -12.831210136413574, 84.50957489013672, -39.522666931152344, -0.00830078125, -0.2568359375, -0.8486328125
426, 2485908501, -13.773178100585938, 6.4721832275390625, 12.873822212219238, -57.776954650878906, 73.38358306884766, -47.363834381103516, 0.013671875, -0.245361328125, -0.84814453125
427, 2485925168, -9.068412780761719, 0.29509174823760986, 9.062433242797852, -44.751644134521484, 9.399904251098633, -31.267154693603516, 0.022216796875, -0.23046875, -0.853759765625
428, 2485941835, -5.675083637237549, 3.051449775695801, 8.616388320922852, -30.977588653564453, 0.7681095004081726, -21.129751205444336, 0.023193359375, -0.220458984375, -0.856689453125
429, 2485958502, -5.9107666015625, 1.6072865724563599, 8.5867919921875, -19.518722534179688, 0.6263918280601501, -13.382431030273438, 0.024658203125, -0.21533203125, -0.85693359375
430, 2485975169, -5.289496421813965, 2.3794257640838623, 8.278135299682617, -12.572951316833496, 1.6645258665084839, -10.129804611206055, 0.02685546875, -0.21142578125, -0.856689453125
431, 2485991836, -5.17982816696167, 1.86660897731781, 8.182193756103516, -9.191980361938477, 1.7413253784179688, -8.523948669433594, 0.02685546875, -0.21142578125, -0.85693359375
432, 2486008503, -5.1570234298706055, 2.1060290336608887, 7.968862533569336, -8.131318092346191, 2.18113374710083, -7.534324645996094, 0.02685546875, -0.208984375, -0.857421875
433, 2486025170, -5.026312351226807, 2.115192174911499, 7.849915981292725, -5.336048126220703, 4.575780391693115, -5.956785202026367, 0.0302734375, -0.2060546875, -0.857177734375
434, 2486041837, -4.897480487823486, 2.118253707885742, 7.886369705200195, -2.070608139038086, 6.664791584014893, -5.04544734954834, 0.0322265625, -0.20654296875, -0.856201171875
435, 2486058504, -4.981815814971924, 2.4669079780578613, 8.03265380859375, -2.3403868675231934, 8.982062339782715, -5.11051607131958, 0.03076171875, -0.2060546875, -0.857177734375
436, 2486075171, -5.156637191772461, 2.714799165725708, 7.998673439025879, -2.131438732147217, 9.765838623046875, -5.850519180297852, 0.037353515625, -0.20556640625, -0.8564453125
437, 2486091838, -5.6014933586120605, 2.282656669616699, 8.032074928283691, -1.0343436002731323, 7.717026233673096, -7.128438949584961, 0.041259765625, -0.20556640625, -0.853515625
438, 2486108505, -5.633759021759033, 2.600182294845581, 7.961802959442139, -1.1754697561264038, 2.5813448429107666, -9.615433692932129, 0.042236328125, -0.2080078125, -0.8544921875
439, 2486125172, -5.4764909744262695, 2.653988838195801, 8.010211944580078, -6.781365394592285, -1.9979844093322754, -13.955565452575684, 0.039306640625, -0.20654296875, -0.8525390625
440, 2486141839, -5.580839157104492, 2.2019405364990234, 7.963501453399658, -7.788125991821289, -3.3259663581848145, -14.642783164978027, 0.04296875, -0.20361328125, -0.85791015625
441, 2486158506, -5.365912437438965, 2.196607828140259, 8.078839302062988, -7.328018665313721, -3.9808318614959717, -14.2553129196167, 0.040283203125, -0.199462890625, -0.85595703125
442, 2486175173, -5.273585319519043, 2.2554068565368652, 8.155200004577637, -9.346098899841309, -1.7408205270767212, -15.555802345275879, 0.043212890625, -0.200439453125, -0.85546875
443, 2486191840, -5.4373779296875, 2.4537465572357178, 7.904932022094727, -7.447606563568115, 0.43720299005508423, -18.49773597717285, 0.04443359375, -0.197509765625, -0.85546875
444, 2486208507, -5.099339485168457, 2.424421787261963, 8.120079040527344, -5.8608622550964355, 4.5739946365356445, -21.807842254638672, 0.04541015625, -0.197998046875, -0.8544921875
445, 2486225174, -4.7823076248168945, 2.489006280899048, 8.500822067260742, -4.009246349334717, 16.10704231262207, -26.617446899414062, 0.05029296875, -0.196533203125, -0.856689453125
446, 2486241841, -4.78256893157959, 2.110534906387329, 8.822829246520996, 0.09098343551158905, 34.85853958129883, -32.432701110839844, 0.059814453125, -0.194580078125, -0.85546875
447, 2486258508, -4.325045585632324, 1.4834680557250977, 9.417390823364258, 5.989959716796875, 67.38735961914062, -30.928129196166992, 0.077880859375, -0.194091796875, -0.85546875
448, 2486275175, -4.76540470123291, 1.8887637853622437, 9.510720252990723, 13.02420425415039, 104.6957778930664, -33.610782623291016, 0.1015625, -0.19775390625, -0.84912109375
449, 2486291842, -4.896053314208984, 2.628086805343628, 9.57740592956543, 17.77176856994629, 143.90313720703125, -44.70566177368164, 0.13818359375, -0.20068359375, -0.84228515625
450, 2486308509, -5.051671504974365, 3.0215253829956055, 10.076242446899414, 22.982145309448242, 192.32174682617188, -66.70189666748047, 0.181884765625, -0.204345703125, -0.830322265625
451, 2486325176, -4.776437282562256, 2.9581148624420166, 10.245161056518555, 24.302732467651367, 261.5246276855469, -98.4754638671875, 0.244384765625, -0.203125, -0.810302734375
452, 2486341843, -5.59944486618042, 3.5698704719543457, 10.763495445251465, 13.280659675598145, 345.00311279296875, -136.22328186035156, 0.328125, -0.197998046875, -0.7783203125
453, 2486358510, -7.557334899902344, 4.987588405609131, 13.068660736083984, -8.402033805847168, 422.4570007324219, -175.85116577148438, 0.424072265625, -0.17626953125, -0.727294921875
454, 2486375177, -10.068208694458008, 5.941683769226074, 13.470477104187012, -16.15008544921875, 470.19683837890625, -209.38092041015625, 0.526611328125, -0.143310546875, -0.65673828125
455, 2486391844, -19.800743103027344, 6.924647808074951, 16.26797103881836, -0.3844369351863861, 474.57958984375, -204.27584838867188, 0.6240234375, -0.10693359375, -0.568359375
456, 2486408511, -19.199588775634766, 9.544819831848145, 17.742765426635742, -12.539719581604004, 418.533447265625, -187.77133178710938, 0.699462890625, -0.06982421875, -0.4755859375
457, 2486425178, -7.841477394104004, 6.225489616394043, 16.672592163085938, -21.080556869506836, 357.9035949707031, -180.54286193847656, 0.7490234375, -0.035888671875, -0.384765625
458, 2486441845, 6.959497451782227, 11.50340461730957, 14.729969024658203, -51.61286163330078, 306.8096008300781, -189.6147918701172, 0.78173828125, 0.009521484375, -0.304931640625
459, 2486458512, -28.333343505859375, 23.961627960205078, 36.74374771118164, -66.0296630859375, 110.87327575683594, -26.529090881347656, 0.792724609375, 0.02880859375, -0.25341796875
460, 2486475179, -6.93608283996582, 15.4942626953125, 25.486194610595703, -90.50897216796875, -214.57614135742188, 122.29642486572266, 0.7744140625, 0.00732421875, -0.2744140625
461, 2486491846, 4.1493988037109375, 5.434235572814941, 12.25652027130127, -105.85366821289062, -289.5188293457031, 159.3695526123047, 0.73779296875, -0.02294921875, -0.319091796875
462, 2486508513, 4.504481792449951, 0.5794152617454529, 7.218750476837158, -81.97682189941406, -267.9414978027344, 153.28770446777344, 0.7060546875, -0.053466796875, -0.3564453125
463, 2486525180, -0.7871206998825073, -0.9383847117424011, 8.048632621765137, -41.83040237426758, -249.20803833007812, 152.63320922851562, 0.676025390625, -0.0810546875, -0.3857421875
464, 2486541847, -6.858412265777588, 1.1232256889343262, 10.354700088500977, -25.43003273010254, -274.8014221191406, 143.9616241455078, 0.649658203125, -0.112060546875, -0.413330078125
465, 2486558514, -8.738075256347656, 1.78438401222229, 10.409843444824219, -36.682071685791016, -327.8604736328125, 133.2519073486328, 0.618896484375, -0.138671875, -0.452880859375
466, 2486575181, -7.837862014770508, 1.128547191619873, 8.523978233337402, -43.10017776489258, -359.30718994140625, 128.62527465820312, 0.590576171875, -0.1630859375, -0.50439453125
467, 2486591848, -7.162713050842285, 0.5586123466491699, 6.224335670471191, -36.113765716552734, -352.3052062988281, 122.49750518798828, 0.55517578125, -0.19287109375, -0.575927734375
468, 2486608515, -6.912943363189697, 0.6429234147071838, 5.533807277679443, -19.23676109313965, -313.4005126953125, 107.1261215209961, 0.502197265625, -0.221435546875, -0.6484375
469, 2486625182, -8.657220840454102, 1.3157838582992554, 7.077592372894287, -4.41098165512085, -265.41259765625, 83.90408325195312, 0.43212890625, -0.24609375, -0.709716796875
470, 2486641849, -13.697548866271973, 2.5465049743652344, 10.852519989013672, 17.036142349243164, -241.18234252929688, 67.23594665527344, 0.357666015625, -0.266845703125, -0.740966796875
471, 2486658516, -18.828088760375977, 3.0792911052703857, 12.779733657836914, 43.92408752441406, -250.54623413085938, 63.08092498779297, 0.28466796875, -0.28125, -0.739013671875
472, 2486675183, -23.532835006713867, 2.7927489280700684, 11.176898002624512, 67.62801361083984, -268.86614990234375, 67.3527603149414, 0.228759765625, -0.298828125, -0.723876953125
473, 2486691850, -28.280912399291992, 2.9880454540252686, 7.78657865524292, 81.42047882080078, -281.452880859375, 76.17265319824219, 0.18701171875, -0.320068359375, -0.720703125
474, 2486708517, -32.87091827392578, 4.48884391784668, 2.807018995285034, 68.05638122558594, -295.11419677734375, 82.93257904052734, 0.1455078125, -0.343017578125, -0.729736328125
475, 2486725184, -31.581087112426758, 3.3574881553649902, -4.443525791168213, 34.19242858886719, -293.4630126953125, 83.11235809326172, 0.0869140625, -0.361328125, -0.7451171875
476, 2486741851, -28.790790557861328, -5.283360958099365, -12.553972244262695, 41.435115814208984, -235.8746795654297, 89.26543426513672, 0.02783203125, -0.376953125, -0.765380859375
477, 2486758518, -28.67893409729004, -12.471638679504395, -18.263235092163086, 96.43975830078125, -134.754638671875, 85.23341369628906, -0.021240234375, -0.404296875, -0.766357421875
478, 2486775185, -28.436277389526367, -9.22773551940918, -20.152429580688477, 28.10033416748047, 36.975982666015625, -0.8134270906448364, -0.0302734375, -0.421875, -0.76953125
479, 2486791852, -23.70335578918457, -11.609951972961426, -7.673805236816406, -61.5405158996582, 135.3318328857422, -139.89096069335938, 0.01318359375, -0.41259765625, -0.781982421875
480, 2486808519, -10.619275093078613, 8.17502498626709, 24.252824783325195, -80.46744537353516, 64.06695556640625, -159.2362518310547, 0.057373046875, -0.39453125, -0.79345703125
481, 2486825186, 5.671696662902832, 12.192062377929688, -0.0037726014852523804, -43.41450119018555, 87.73043823242188, -90.3943099975586, 0.085693359375, -0.381591796875, -0.802001953125
482, 2486841853, -11.542454719543457, 4.466999530792236, 12.799871444702148, -34.37913131713867, 177.4254608154297, 15.489327430725098, 0.130859375, -0.37744140625, -0.806640625
483, 2486858520, -13.514204025268555, -10.068199157714844, 14.008354187011719, -34.725196838378906, 108.81531524658203, -28.760522842407227, 0.167236328125, -0.36962890625, -0.80859375
484, 2486875187, -7.9903717041015625, 0.4080168902873993, 10.349355697631836, -6.79814338684082, 70.71066284179688, -52.679779052734375, 0.1962890625, -0.366455078125, -0.808837890625
485, 2486891854, -5.591207981109619, 8.343958854675293, 7.529813289642334, -19.222814559936523, 80.14952850341797, -26.60712432861328, 0.221435546875, -0.363525390625, -0.80712890625
486, 2486908521, -8.028580665588379, 0.22102618217468262, 9.900158882141113, -32.415706634521484, 72.63056945800781, -27.380531311035156, 0.243408203125, -0.356201171875, -0.808349609375
487, 2486925188, -8.671910285949707, 2.5465621948242188, 11.767463684082031, -29.149436950683594, 52.49327087402344, -39.94527053833008, 0.26513671875, -0.348388671875, -0.807373046875
488, 2486941855, -8.896565437316895, 3.212209701538086, 7.697109699249268, -32.84062957763672, 13.499618530273438, -20.966615676879883, 0.275634765625, -0.33935546875, -0.812744140625
489, 2486958522, -5.193976402282715, 2.006227970123291, 8.925126075744629, -16.469114303588867, 11.30147933959961, -14.365527153015137, 0.28125, -0.33349609375, -0.814208984375
490, 2486975189, -6.154715061187744, 1.9023449420928955, 8.418111801147461, -10.508771896362305, 9.805517196655273, -10.120701789855957, 0.28271484375, -0.330322265625, -0.813232421875
491, 2486991856, -5.346591472625732, 2.3667736053466797, 8.205557823181152, -8.536105155944824, 7.997718811035156, -9.800565719604492, 0.28515625, -0.330810546875, -0.8125
492, 2487008523, -5.460974216461182, 1.8880703449249268, 8.114747047424316, -4.707322120666504, 7.531501293182373, -8.67629337310791, 0.292236328125, -0.327880859375, -0.81201171875
493, 2487025190, -5.350443363189697, 2.002596616744995, 8.0927734375, -1.3754280805587769, 7.903729438781738, -6.365821361541748, 0.294677734375, -0.327880859375, -0.812255859375
494, 2487041857, -5.352741718292236, 2.6542112827301025, 7.989336013793945, -4.035283088684082, 8.428727149963379, -7.514039516448975, 0.298095703125, -0.326416015625, -0.811279296875
495, 2487058524, -5.488837718963623, 3.092947483062744, 7.9034223556518555, -8.593093872070312, 5.2073798179626465, -10.891411781311035, 0.30078125, -0.326904296875, -0.811279296875
496, 2487075191, -5.584549427032471, 2.5742712020874023, 7.778248310089111, -10.855875015258789, 0.8755902051925659, -12.24864387512207, 0.30419921875, -0.322021484375, -0.812255859375
497, 2487091858, -5.138916492462158, 2.1052138805389404, 7.900126934051514, -8.260087013244629, -0.6997393369674683, -11.016630172729492, 0.3037109375, -0.322021484375, -0.814697265625
498, 2487108525, -5.206686973571777, 1.8700681924819946, 7.986260890960693, -3.5489606857299805, 1.7219998836517334, -9.969696044921875, 0.30517578125, -0.321044921875, -0.813720703125
499, 2487125192, -5.548703670501709, 1.674367070198059, 7.980648517608643, 0.43361660838127136, 3.771592140197754, -6.07708740234375, 0.307861328125, -0.319580078125, -0.814697265625
500, 2487141859, -5.309384822845459, 1.9468766450881958, 8.02970027923584, 3.6135363578796387, 5.919332981109619, -4.421444416046143, 0.310791015625, -0.320068359375, -0.81298828125
501, 2487158526, -5.0994133949279785, 1.8832136392593384, 8.07537841796875, 7.528876781463623, 8.196138381958008, -5.232011795043945, 0.311767578125, -0.321044921875, -0.81298828125
502, 2487175193, -5.222116947174072, 2.2042105197906494, 7.92708683013916, 12.82963752746582, 12.285726547241211, -5.806481838226318, 0.315673828125, -0.32666015625, -0.811279296875
503, 2487191860, -5.444178581237793, 2.755610942840576, 8.03525447845459, 13.9856538772583, 16.522930145263672, -8.320466995239258, 0.31982421875, -0.32861328125, -0.8095703125
504, 2487208527, -5.259263515472412, 2.6249539852142334, 8.177855491638184, 15.828285217285156, 23.726655960083008, -12.45668888092041, 0.328857421875, -0.332763671875, -0.80615234375
505, 2487225194, -4.906832218170166, 2.6576528549194336, 8.960980415344238, 21.28349494934082, 37.468414306640625, -18.678783416748047, 0.3359375, -0.335205078125, -0.80029296875
506, 2487241861, -4.5955328941345215, 1.89544677734375, 9.0798921585083, 19.6223201751709, 61.16911315917969, -19.00277328491211, 0.353759765625, -0.34033203125, -0.793701171875
507, 2487258528, -4.724207401275635, 1.96547269821167, 9.166677474975586, 28.90452003479004, 97.19644165039062, -20.426671981811523, 0.3740234375, -0.347900390625, -0.783935546875
508, 2487275195, -4.809909343719482, 2.6588737964630127, 9.223532676696777, 39.178131103515625, 140.28062438964844, -25.12784194946289, 0.40283203125, -0.3525390625, -0.76513671875
509, 2487291862, -4.826406955718994, 3.2693681716918945, 9.545629501342773, 38.72099685668945, 190.1690216064453, -40.810123443603516, 0.4443359375, -0.355712890625, -0.7412109375
510, 2487308529, -4.347463607788086, 3.6648645401000977, 9.870391845703125, 35.90566635131836, 260.6051025390625, -66.60673522949219, 0.501708984375, -0.35693359375, -0.703857421875
511, 2487325196, -4.822511672973633, 4.766327857971191, 10.70325756072998, 21.947744369506836, 356.4999694824219, -107.8388442993164, 0.57421875, -0.34814453125, -0.65234375
512, 2487341863, -7.441072940826416, 5.478938102722168, 12.013980865478516, 3.8200254440307617, 451.3094787597656, -165.59458923339844, 0.662841796875, -0.322998046875, -0.578125
513, 2487358530, -12.004886627197266, 7.887460231781006, 14.978531837463379, 3.0014140605926514, 518.2460327148438, -211.16802978515625, 0.756103515625, -0.280517578125, -0.478271484375
514, 2487375197, -24.759706497192383, 9.405999183654785, 19.234691619873047, 3.8629186153411865, 488.013916015625, -201.4108123779297, 0.82958984375, -0.237060546875, -0.373046875
515, 2487391864, -24.50584602355957, 10.885361671447754, 20.61705780029297, 10.458260536193848, 382.827392578125, -171.61099243164062, 0.8671875, -0.1982421875, -0.2841796875
516, 2487408531, -10.617815017700195, 10.44188117980957, 20.76368522644043, -12.871941566467285, 279.6163330078125, -179.64425659179688, 0.8759765625, -0.16064453125, -0.2216796875
517, 2487425198, -2.0697274208068848, 16.918128967285156, 25.932798385620117, -98.37517547607422, 187.06199645996094, -150.1251678466797, 0.87255859375, -0.118408203125, -0.190185546875
518, 2487441865, -9.101306915283203, 12.331989288330078, 31.613061904907227, -64.31460571289062, -94.19332122802734, -8.48796558380127, 0.842041015625, -0.115234375, -0.2119140625
519, 2487458532, 8.009533882141113, 7.271613597869873, 15.93900203704834, -50.93961715698242, -184.43878173828125, 44.390567779541016, 0.790283203125, -0.123779296875, -0.253662109375
520, 2487475199, 7.038525104522705, 4.164506912231445, 10.419325828552246, -45.80506896972656, -177.4394989013672, 54.514286041259766, 0.744384765625, -0.131103515625, -0.2783203125
521, 2487491866, 2.6577446460723877, 3.309385061264038, 9.428250312805176, -37.086029052734375, -184.42282104492188, 72.14715576171875, 0.71142578125, -0.136474609375, -0.291748046875
522, 2487508533, -1.3595311641693115, 4.070356369018555, 9.185327529907227, -43.939903259277344, -214.5706787109375, 93.36241149902344, 0.69287109375, -0.14404296875, -0.30712890625
523, 2487525200, -4.092268466949463, 4.320237159729004, 8.566468238830566, -63.30609893798828, -247.97592163085938, 110.40543365478516, 0.6796875, -0.155029296875, -0.340576171875
524, 2487541867, -6.3515543937683105, 4.06404447555542, 7.984560489654541, -78.14595031738281, -277.4395446777344, 128.3653106689453, 0.6787109375, -0.173583984375, -0.390869140625
525, 2487558534, -7.768145561218262, 4.351075649261475, 7.266207695007324, -85.95296478271484, -297.98809814453125, 146.4045867919922, 0.666015625, -0.201904296875, -0.45947265625
526, 2487575201, -8.533197402954102, 4.820595741271973, 6.750220775604248, -95.52574157714844, -306.4089660644531, 157.4522705078125, 0.64111328125, -0.238037109375, -0.548828125
527, 2487591868, -9.680525779724121, 4.4349775314331055, 6.725898742675781, -101.07706451416016, -303.0041198730469, 154.58836364746094, 0.588623046875, -0.280517578125, -0.656982421875
528, 2487608535, -12.044129371643066, 3.7699365615844727, 7.040655612945557, -89.5821533203125, -292.4454040527344, 139.2552032470703, 0.487060546875, -0.310546875, -0.755126953125
529, 2487625202, -17.12370491027832, 3.1545820236206055, 9.235539436340332, -54.11598205566406, -284.8962097167969, 121.31893157958984, 0.353515625, -0.328857421875, -0.80859375
530, 2487641869, -24.089054107666016, 2.95617413520813, 11.4356050491333, -4.626389503479004, -305.83587646484375, 109.5904769897461, 0.2294921875, -0.335693359375, -0.815673828125
531, 2487658536, -29.88094711303711, 3.3061556816101074, 9.98806095123291, 35.83391189575195, -346.7917175292969, 95.96480560302734, 0.11865234375, -0.3408203125, -0.802978515625
532, 2487675203, -31.37862777709961, 4.63609504699707, 3.670353412628174, 45.2298469543457, -366.97564697265625, 71.90636444091797, 0.018798828125, -0.347412109375, -0.77978515625
533, 2487691870, -30.599258422851562, 4.45261812210083, -4.092520713806152, 34.36121368408203, -339.9515380859375, 38.226539611816406, -0.057373046875, -0.351806640625, -0.750732421875
534, 2487708537, -29.072486877441406, -0.4341908097267151, -10.282408714294434, 66.52704620361328, -272.6659240722656, 9.786138534545898, -0.1103515625, -0.357177734375, -0.724853515625
535, 2487725204, -31.194597244262695, -8.803666114807129, -14.187997817993164, 171.18006896972656, -182.54434204101562, 22.270437240600586, -0.134765625, -0.385009765625, -0.694580078125
536, 2487741871, -30.551881790161133, -8.832683563232422, -15.671710014343262, 204.47726440429688, -102.4014892578125, 26.553913116455078, -0.152587890625, -0.42431640625, -0.66357421875
537, 2487758538, -25.585519790649414, -4.834659099578857, -20.56081199645996, 14.620875358581543, 63.39083480834961, -72.29180908203125, -0.139892578125, -0.435791015625, -0.65283203125
538, 2487775205, -14.306375503540039, 1.457060694694519, 16.522241592407227, -22.58487892150879, 112.67912292480469, -122.85216522216797, -0.09619140625, -0.42919921875, -0.650146484375
539, 2487791872, 3.0025691986083984, 15.379718780517578, 7.598719596862793, -13.377856254577637, 31.05739974975586, -56.32437515258789, -0.079833984375, -0.42578125, -0.650146484375
540, 2487808539, -1.1002577543258667, 4.512012958526611, 5.143514633178711, -12.89786434173584, 165.6405792236328, -5.417049884796143, -0.050537109375, -0.41845703125, -0.64697265625
541, 2487825206, -16.638994216918945, -4.013945579528809, 15.852742195129395, -34.30952072143555, 137.08546447753906, -12.414446830749512, -0.0185546875, -0.406982421875, -0.64404296875
542, 2487841873, -7.301702499389648, -3.18800950050354, 11.545137405395508, -24.76174545288086, 84.30294036865234, -70.24898529052734, 0.010986328125, -0.395751953125, -0.643798828125
543, 2487858540, -5.451388835906982, 7.833540439605713, 7.7350382804870605, -23.39994239807129, 88.16755676269531, -53.65845489501953, 0.037109375, -0.389404296875, -0.6396484375
544, 2487875207, -10.482876777648926, 2.454158306121826, 11.250336647033691, -25.818580627441406, 77.41837310791016, -32.20213317871094, 0.05419921875, -0.38134765625, -0.635498046875
545, 2487891874, -6.372657775878906, -0.6900694966316223, 9.635394096374512, -8.72375202178955, 46.549156188964844, -39.934696197509766, 0.0712890625, -0.37548828125, -0.632568359375
546, 2487908541, -5.105411052703857, 4.500288009643555, 8.068547248840332, 8.21622371673584, 52.246795654296875, -24.929059982299805, 0.083740234375, -0.375, -0.629150390625
547, 2487925208, -10.249157905578613, 6.460005283355713, 10.28902530670166, -4.781615734100342, 40.04693603515625, -16.81207275390625, 0.095703125, -0.3720703125, -0.623779296875
548, 2487941875, -4.683026313781738, 2.555269479751587, 8.050108909606934, -2.9861032962799072, 26.315603256225586, -9.573324203491211, 0.101806640625, -0.37255859375, -0.624755859375
549, 2487958542, -5.206480026245117, 3.679555654525757, 7.41554069519043, -5.823425769805908, 27.787973403930664, -12.273238182067871, 0.10791015625, -0.369140625, -0.619873046875
550, 2487975209, -5.054445266723633, 2.8962888717651367, 7.701653957366943, -10.956462860107422, 31.86006736755371, -15.373072624206543, 0.11474609375, -0.365234375, -0.6181640625
551, 2487991876, -5.290816783905029, 3.1718316078186035, 7.593504428863525, -16.335535049438477, 33.150089263916016, -19.49880027770996, 0.124267578125, -0.36328125, -0.617431640625
552, 2488008543, -5.933072090148926, 2.3267412185668945, 8.26014232635498, -19.729808807373047, 28.215801239013672, -21.90938377380371, 0.13134765625, -0.358154296875, -0.615966796875
553, 2488025210, -6.269655704498291, 2.5627238750457764, 8.204724311828613, -16.466815948486328, 15.602635383605957, -19.75887680053711, 0.136962890625, -0.352783203125, -0.61669921875
554, 2488041877, -5.859532356262207, 3.181438446044922, 7.535472869873047, -9.237730979919434, 8.948402404785156, -14.964750289916992, 0.142333984375, -0.350830078125, -0.613525390625
555, 2488058544, -5.228437900543213, 3.023435115814209, 7.702127456665039, -9.462136268615723, 6.981076240539551, -14.35698413848877, 0.1455078125, -0.349853515625, -0.616455078125
556, 2488075211, -5.405562400817871, 2.700106620788574, 7.723268508911133, -9.481295585632324, 6.051232814788818, -15.645537376403809, 0.1494140625, -0.346923828125, -0.616455078125
557, 2488091878, -5.4828009605407715, 2.8260436058044434, 7.630540370941162, -8.28603744506836, 5.571145534515381, -14.959894180297852, 0.150390625, -0.346923828125, -0.614990234375
558, 2488108545, -5.547810077667236, 3.060236930847168, 7.6446919441223145, -10.398296356201172, 3.6964364051818848, -16.717100143432617, 0.1533203125, -0.34326171875, -0.6142578125
559, 2488125212, -5.806619167327881, 2.8434700965881348, 7.587469100952148, -15.764691352844238, -2.2295265197753906, -19.592620849609375, 0.1552734375, -0.33984375, -0.614990234375
560, 2488141879, -5.871415615081787, 2.7772159576416016, 7.578354358673096, -16.09882354736328, -7.687758922576904, -18.515796661376953, 0.156494140625, -0.335205078125, -0.616455078125
561, 2488158546, -5.409182071685791, 2.487403154373169, 7.901209831237793, -15.507962226867676, -7.770296573638916, -18.259733200073242, 0.157958984375, -0.330322265625, -0.619873046875
562, 2488175213, -5.387002944946289, 2.0549979209899902, 8.164545059204102, -11.266836166381836, -1.0472149848937988, -17.14909553527832, 0.161376953125, -0.330322265625, -0.618896484375
563, 2488191880, -5.28690242767334, 2.4455971717834473, 8.07370662689209, -6.146570682525635, 8.755426406860352, -17.110204696655273, 0.163330078125, -0.325439453125, -0.620849609375
564, 2488208547, -5.233756065368652, 2.7631397247314453, 8.04397964477539, 0.44812774658203125, 22.769136428833008, -21.658456802368164, 0.16748046875, -0.325439453125, -0.619873046875
565, 2488225214, -4.326169967651367, 3.4715347290039062, 9.03708267211914, 8.397212028503418, 42.30801773071289, -30.062599182128906, 0.179931640625, -0.325439453125, -0.617919921875
566, 2488241881, -4.649394989013672, 2.0399630069732666, 9.343618392944336, 7.460616588592529, 76.81172180175781, -30.69609260559082, 0.196044921875, -0.323974609375, -0.6123046875
567, 2488258548, -4.701745510101318, 1.9027595520019531, 9.356317520141602, 19.20651626586914, 124.0663070678711, -34.29777145385742, 0.219482421875, -0.32470703125, -0.60205078125
568, 2488275215, -5.056317329406738, 2.3936996459960938, 9.734335899353027, 33.85982131958008, 180.603759765625, -43.72515869140625, 0.252685546875, -0.326171875, -0.585693359375
569, 2488291882, -4.298919677734375, 3.963099718093872, 10.147286415100098, 37.44609451293945, 247.70132446289062, -66.33696746826172, 0.30322265625, -0.32958984375, -0.561279296875
570, 2488308549, -5.411853313446045, 4.109308242797852, 9.563207626342773, 27.11611557006836, 333.44940185546875, -106.31842803955078, 0.360595703125, -0.3271484375, -0.523681640625
571, 2488325216, -6.201437950134277, 4.368987560272217, 10.05303955078125, 12.137690544128418, 420.3986511230469, -163.19204711914062, 0.43994140625, -0.306396484375, -0.474609375
572, 2488341883, -9.700531959533691, 5.517666816711426, 11.822749137878418, 10.270071029663086, 475.78021240234375, -203.36297607421875, 0.5234375, -0.28076171875, -0.403564453125
573, 2488358550, -20.380645751953125, 6.921306133270264, 15.347633361816406, 29.10724449157715, 499.1754150390625, -189.4811553955078, 0.60546875, -0.250244140625, -0.316650390625
574, 2488375217, -24.92363739013672, 7.986077785491943, 17.189369201660156, 23.666250228881836, 420.3037414550781, -161.6699981689453, 0.668701171875, -0.2216796875, -0.232177734375
575, 2488391884, -15.01097583770752, 8.13240909576416, 17.173065185546875, 12.57864761352539, 327.587158203125, -147.18405151367188, 0.72021484375, -0.197021484375, -0.163818359375
576, 2488408551, 0.7794824242591858, 7.453477382659912, 17.209394454956055, -1.5555146932601929, 288.7432861328125, -164.93247985839844, 0.7646484375, -0.166748046875, -0.09912109375
577, 2488425218, -9.909317970275879, 15.878144264221191, 22.76923179626465, -38.53110885620117, 222.47657775878906, -104.88313293457031, 0.796630859375, -0.137451171875, -0.043701171875
578, 2488441885, -15.386406898498535, 14.984086990356445, 28.705904006958008, -51.977561950683594, -78.48811340332031, 27.89708137512207, 0.82080078125, -0.140625, -0.055908203125
579, 2488458552, -0.26342517137527466, 7.794320106506348, 15.618043899536133, -74.12760162353516, -233.77566528320312, 90.34111022949219, 0.831787109375, -0.161865234375, -0.118408203125
580, 2488475219, 3.7522406578063965, 2.9277098178863525, 7.924900531768799, -77.14417266845703, -256.05133056640625, 97.79305267333984, 0.833251953125, -0.18994140625, -0.198974609375
581, 2488491886, 2.4215385913848877, -0.00312848761677742, 5.2366108894348145, -56.60865783691406, -237.24618530273438, 94.70494079589844, 0.820556640625, -0.21435546875, -0.28125
582, 2488508553, -2.788609027862549, 0.6282550096511841, 6.685972213745117, -28.62801742553711, -232.1051025390625, 93.50040435791016, 0.79833984375, -0.239013671875, -0.365966796875
583, 2488525220, -7.117953777313232, 2.816300868988037, 8.302788734436035, -27.08908462524414, -265.40380859375, 95.48307037353516, 0.748779296875, -0.26220703125, -0.4560546875
584, 2488541887, -7.642672061920166, 3.2375965118408203, 8.000600814819336, -43.57405090332031, -312.19976806640625, 100.65249633789062, 0.668701171875, -0.27783203125, -0.539306640625
585, 2488558554, -6.0319013595581055, 2.1266636848449707, 5.688990592956543, -51.66204833984375, -331.1809997558594, 105.82352447509766, 0.5693359375, -0.2783203125, -0.6025390625
586, 2488575221, -4.782569408416748, 1.0079883337020874, 3.7678639888763428, -41.81915283203125, -310.2779235839844, 103.79833984375, 0.47705078125, -0.266845703125, -0.63330078125
587, 2488591888, -6.666358947753906, 0.975253164768219, 4.302937984466553, -28.14461898803711, -265.92041015625, 86.67630767822266, 0.412841796875, -0.2529296875, -0.6435546875
588, 2488608555, -10.520387649536133, 1.8327229022979736, 7.600342273712158, -12.931384086608887, -242.10116577148438, 65.44900512695312, 0.379150390625, -0.23828125, -0.646240234375
589, 2488625222, -15.075916290283203, 2.6848208904266357, 11.29755687713623, 13.13066291809082, -257.6891784667969, 52.15092086791992, 0.36669921875, -0.23828125, -0.662353515625
590, 2488641889, -17.242246627807617, 3.09419584274292, 11.212080955505371, 49.97488784790039, -291.7082824707031, 45.88020324707031, 0.34619140625, -0.263427734375, -0.70166015625
591, 2488658556, -18.03546905517578, 2.91841197013855, 8.15561294555664, 88.0440673828125, -292.399169921875, 43.2222785949707, 0.298095703125, -0.31005859375, -0.760009765625
592, 2488675223, -20.239166259765625, 3.763826847076416, 5.391878128051758, 113.9015884399414, -259.31927490234375, 43.77922821044922, 0.21728515625, -0.363037109375, -0.802734375
593, 2488691890, -25.577972412109375, 6.054668426513672, 3.5571651458740234, 107.37078857421875, -225.43646240234375, 51.50227737426758, 0.1259765625, -0.4091796875, -0.80517578125
594, 2488708557, -28.361238479614258, 5.861882209777832, 0.653154194355011, 69.7850570678711, -211.4907684326172, 66.95257568359375, 0.04736328125, -0.4345703125, -0.79052734375
595, 2488725224, -27.156461715698242, -0.3018062114715576, -3.35970401763916, 58.6931266784668, -192.60545349121094, 92.89401245117188, -0.01611328125, -0.447998046875, -0.770263671875
596, 2488741891, -24.240488052368164, -8.911052703857422, -9.678653717041016, 81.52794647216797, -146.83995056152344, 106.33915710449219, -0.064453125, -0.461669921875, -0.751708984375
597, 2488758558, -23.698745727539062, -12.56654167175293, -13.155896186828613, 100.11434173583984, -62.316864013671875, 63.6933708190918, -0.09228515625, -0.4853515625, -0.7294921875
598, 2488775225, -22.922122955322266, -7.055275917053223, -8.936456680297852, 42.107749938964844, 5.380457878112793, -22.050521850585938, -0.0908203125, -0.495849609375, -0.71923828125
599, 2488791892, -20.010770797729492, -1.453217625617981, -2.451665163040161, -21.88857078552246, 38.945518493652344, -79.99951934814453, -0.0732421875, -0.492919921875, -0.71875
600, 2488808559, -11.432308197021484, 2.2477691173553467, 3.268665313720703, -118.60716247558594, 87.51671600341797, -104.89244842529297, -0.04443359375, -0.468505859375, -0.730224609375
601, 2488825226, -3.8798139095306396, 11.707117080688477, 13.940372467041016, -93.35072326660156, 60.71757507324219, -37.470970153808594, -0.0224609375, -0.443359375, -0.7412109375
602, 2488841893, -0.6255164742469788, -0.8569490909576416, 7.16329288482666, -59.28313446044922, 73.47364044189453, -24.275848388671875, -0.00732421875, -0.429931640625, -0.746826171875
603, 2488858560, -11.410889625549316, -7.683741569519043, 12.911993026733398, -46.92998123168945, 96.31171417236328, -32.724220275878906, 0.018798828125, -0.41455078125, -0.7529296875
604, 2488875227, -10.192543029785156, -2.4383907318115234, 12.122693061828613, -38.226985931396484, 62.59877395629883, -62.466636657714844, 0.03955078125, -0.402587890625, -0.75390625
605, 2488891894, -3.1667070388793945, 5.697793006896973, 6.066781997680664, -42.509788513183594, 67.35601043701172, -66.24579620361328, 0.0615234375, -0.39013671875, -0.755615234375
606, 2488908561, -13.565528869628906, 5.754133224487305, 12.88866901397705, -73.88082885742188, 76.68412017822266, -58.147613525390625, 0.087646484375, -0.374755859375, -0.758544921875
607, 2488925228, -8.674604415893555, -1.998170018196106, 9.251776695251465, -58.16535949707031, 2.121483325958252, -45.726749420166016, 0.09375, -0.35498046875, -0.76611328125
608, 2488941895, -5.74832010269165, 3.9194841384887695, 9.361082077026367, -37.01865768432617, 7.483122825622559, -29.251768112182617, 0.09814453125, -0.34228515625, -0.767822265625
609, 2488958562, -6.312616348266602, 1.2540920972824097, 8.720719337463379, -21.597145080566406, 2.246361255645752, -17.213237762451172, 0.102783203125, -0.3369140625, -0.769775390625
610, 2488975229, -5.2993550300598145, 2.4763729572296143, 8.557984352111816, -12.058405876159668, 3.1426749229431152, -10.278564453125, 0.104248046875, -0.3330078125, -0.772705078125
611, 2488991896, -5.5781755447387695, 1.6788893938064575, 8.63222599029541, -4.89426851272583, 4.910449028015137, -6.366243362426758, 0.107177734375, -0.3330078125, -0.77001953125
612, 2489008563, -5.3198933601379395, 2.1884570121765137, 8.315296173095703, -1.1463603973388672, 6.491968154907227, -5.262206554412842, 0.10986328125, -0.33251953125, -0.7705078125
613, 2489025230, -5.332001209259033, 2.1300885677337646, 8.10203742980957, 0.23865273594856262, 6.992286682128906, -4.8819732666015625, 0.110107421875, -0.3330078125, -0.76806640625
614, 2489041897, -5.258368492126465, 2.5209741592407227, 7.96607780456543, -1.4223886728286743, 6.033091068267822, -5.627098083496094, 0.11328125, -0.33251953125, -0.77001953125
615, 2489058564, -5.120588779449463, 2.432799816131592, 7.946373462677002, -4.355632781982422, 3.7884843349456787, -7.27690315246582, 0.11474609375, -0.33349609375, -0.767822265625
616, 2489075231, -5.171424865722656, 2.1166799068450928, 8.056539535522461, -6.069123268127441, 2.4462122917175293, -8.36225414276123, 0.1171875, -0.33154296875, -0.768310546875
617, 2489091898, -5.2597150802612305, 2.041844129562378, 8.100438117980957, -6.126008033752441, 1.6213674545288086, -6.629643440246582, 0.119873046875, -0.330078125, -0.768310546875
618, 2489108565, -5.316811561584473, 2.1266891956329346, 8.080123901367188, -5.972446918487549, 1.2501496076583862, -6.7855095863342285, 0.119873046875, -0.330078125, -0.766845703125
619, 2489125232, -5.347595691680908, 2.2132279872894287, 7.97510290145874, -6.575857639312744, -0.6391395330429077, -6.6333327293396, 0.121337890625, -0.32861328125, -0.769287109375
620, 2489141899, -5.157237529754639, 2.1392931938171387, 7.973390579223633, -6.7705278396606445, -2.4078123569488525, -7.03536319732666, 0.11865234375, -0.327392578125, -0.769775390625
621, 2489158566, -5.1661906242370605, 2.2751142978668213, 7.930627346038818, -6.283860206604004, -2.7882635593414307, -8.908086776733398, 0.11767578125, -0.325927734375, -0.769775390625
622, 2489175233, -5.205680847167969, 2.051126003265381, 8.02973461151123, -6.633488655090332, -3.6065776348114014, -11.321077346801758, 0.118896484375, -0.325439453125, -0.770751953125
623, 2489191900, -4.939075469970703, 1.8429697751998901, 8.02595329284668, -5.509961128234863, -2.675389051437378, -12.715252876281738, 0.123779296875, -0.323974609375, -0.769287109375
624, 2489208567, -4.9832634925842285, 1.6777396202087402, 8.157318115234375, -1.2041302919387817, 1.4429240226745605, -12.130256652832031, 0.122802734375, -0.323486328125, -0.766845703125
625, 2489225234, -4.917243003845215, 2.221100330352783, 8.262741088867188, 2.448556661605835, 8.132019996643066, -13.669366836547852, 0.127197265625, -0.323974609375, -0.767578125
626, 2489241901, -4.811856746673584, 2.10365629196167, 8.594324111938477, 2.69157338142395, 18.931745529174805, -13.973162651062012, 0.130859375, -0.322509765625, -0.7685546875
627, 2489258568, -4.5366315841674805, 2.916675567626953, 8.763410568237305, 3.9923715591430664, 37.11220169067383, -18.737890243530273, 0.139404296875, -0.32421875, -0.7666015625
628, 2489275235, -4.2144927978515625, 1.703661561012268, 9.646533012390137, 8.185456275939941, 63.21788787841797, -21.685016632080078, 0.15478515625, -0.3232421875, -0.76416015625
629, 2489291902, -4.366403102874756, 1.711487054824829, 9.655952453613281, 22.8343563079834, 100.1371841430664, -24.418262481689453, 0.177490234375, -0.328857421875, -0.75439453125
630, 2489308569, -4.734256267547607, 1.988255262374878, 9.815773010253906, 35.35118865966797, 146.0679473876953, -32.51865768432617, 0.2080078125, -0.33251953125, -0.74072265625
631, 2489325236, -4.4024763107299805, 3.3215293884277344, 10.6058988571167, 36.41328430175781, 196.7035369873047, -47.654083251953125, 0.254150390625, -0.338134765625, -0.722412109375
632, 2489341903, -4.961304664611816, 3.8255724906921387, 10.346506118774414, 33.93073272705078, 263.9769592285156, -80.30841064453125, 0.3125, -0.3388671875, -0.697021484375
633, 2489358570, -5.242921829223633, 4.02819299697876, 10.639145851135254, 29.95026969909668, 349.1322937011719, -127.48702239990234, 0.38720703125, -0.332763671875, -0.658935546875
634, 2489375237, -7.155609130859375, 4.825420379638672, 12.50165843963623, 19.79775619506836, 434.9821472167969, -171.44190979003906, 0.48095703125, -0.31591796875, -0.59765625
635, 2489391904, -11.266132354736328, 7.768623352050781, 15.210939407348633, 17.829185485839844, 498.7742919921875, -212.60470581054688, 0.58251953125, -0.282958984375, -0.512939453125
636, 2489408571, -20.67780113220215, 8.405529975891113, 17.606067657470703, 5.934197902679443, 467.68670654296875, -212.13821411132812, 0.6708984375, -0.242431640625, -0.416259765625
637, 2489425238, -20.95216178894043, 9.744174003601074, 18.46693992614746, 4.348421096801758, 372.32183837890625, -186.17312622070312, 0.736083984375, -0.205078125, -0.326904296875
638, 2489441905, -7.59622859954834, 7.596911907196045, 17.23135757446289, -0.08419691771268845, 280.2486267089844, -186.11166381835938, 0.785888671875, -0.166748046875, -0.253662109375
639, 2489458572, -2.524510383605957, 12.287278175354004, 24.154220581054688, -9.868483543395996, 208.24107360839844, -151.069091796875, 0.8203125, -0.123046875, -0.190673828125
640, 2489475239, -13.04356575012207, 14.481184005737305, 30.217735290527344, 30.361021041870117, -74.82662200927734, -8.790098190307617, 0.83642578125, -0.114501953125, -0.186767578125
641, 2489491906, 4.056857109069824, 11.301223754882812, 14.764049530029297, 1.265846848487854, -195.9199676513672, 62.805599212646484, 0.84423828125, -0.12841796875, -0.229736328125
642, 2489508573, 6.390442371368408, 6.31723690032959, 8.202638626098633, -40.61321258544922, -186.75289916992188, 79.4405288696289, 0.85107421875, -0.14697265625, -0.283935546875
643, 2489525240, 4.05991792678833, 3.074345111846924, 6.250164031982422, -50.147125244140625, -165.1985321044922, 95.53125, 0.856201171875, -0.173828125, -0.346923828125
644, 2489541907, 0.18144187331199646, 2.063905954360962, 7.151276588439941, -41.6612663269043, -163.73825073242188, 120.16659545898438, 0.84912109375, -0.214599609375, -0.418212890625
645, 2489558574, -3.295898199081421, 2.730837821960449, 8.40719985961914, -46.648101806640625, -185.01707458496094, 134.58004760742188, 0.8154296875, -0.260009765625, -0.49658203125
646, 2489575241, -6.687434673309326, 2.7707924842834473, 9.533689498901367, -64.4813461303711, -225.85385131835938, 139.3992156982422, 0.757080078125, -0.3056640625, -0.576416015625
647, 2489591908, -8.002248764038086, 1.7943475246429443, 9.267727851867676, -71.4310302734375, -274.201416015625, 144.0930938720703, 0.675048828125, -0.34130859375, -0.65185546875
648, 2489608575, -6.934836387634277, 0.9619335532188416, 7.368518829345703, -63.31616973876953, -302.00848388671875, 143.6572265625, 0.5791015625, -0.36865234375, -0.72509765625
649, 2489625242, -6.306395530700684, 0.49571484327316284, 5.272368431091309, -48.53731918334961, -293.69488525390625, 126.86114501953125, 0.4765625, -0.3857421875, -0.790283203125
650, 2489641909, -8.617765426635742, 0.2773492634296417, 5.735472202301025, -22.77491569519043, -258.4039001464844, 97.11190032958984, 0.363037109375, -0.38134765625, -0.84130859375
651, 2489658576, -15.44036865234375, 3.172638416290283, 10.437823295593262, 5.693960189819336, -246.0814208984375, 74.11721801757812, 0.236328125, -0.3544921875, -0.853759765625
652, 2489675243, -21.072946548461914, 5.020966053009033, 13.179940223693848, 41.53711700439453, -287.685546875, 66.09681701660156, 0.12109375, -0.301513671875, -0.80859375
653, 2489691910, -23.534534454345703, 5.256350517272949, 10.019014358520508, 92.82803344726562, -317.5672302246094, 79.5250244140625, 0.06640625, -0.240234375, -0.74755859375
654, 2489708577, -26.170791625976562, 6.891698360443115, 6.635159969329834, 121.35693359375, -309.23211669921875, 90.18082427978516, 0.0732421875, -0.218017578125, -0.722900390625
655, 2489725244, -29.105113983154297, 5.65841007232666, 4.667938232421875, 124.79292297363281, -306.5924377441406, 104.89655303955078, 0.078125, -0.2607421875, -0.746826171875
656, 2489741911, -27.681455612182617, 1.808170199394226, -0.11332094669342041, 114.14358520507812, -296.37017822265625, 106.284912109375, 0.029541015625, -0.346435546875, -0.7763671875
657, 2489758578, -26.057193756103516, -5.482924461364746, -4.767838954925537, 100.5006332397461, -250.28204345703125, 82.48846435546875, -0.049072265625, -0.42333984375, -0.789794921875
658, 2489775245, -27.702640533447266, -11.862396240234375, -9.574259757995605, 94.17371368408203, -185.77294921875, 38.53298568725586, -0.1171875, -0.483642578125, -0.787353515625
