sep=,
DeviceTag:,A,,,,,,,,,,,,,,,,,
FirmwareVersion:,2.2.1,,,,,,,,,,,,,,,,,
AppVersion:,2022.0.1,,,,,,,,,,,,,,,,,
SyncStatus:,Synced,,,,,,,,,,,,,,,,,
OutputRate:,60Hz,,,,,,,,,,,,,,,,,
FilterProfile:,General,,,,,,,,,,,,,,,,,
Measurement Mode:,Inertial Mode - Rate quantities (with mag),,,,,,,,,,,,,,,,,
StartTime:,2022-08-05 16:34:26.271 +0300,,,,,,,,,,,,,,,,,
© Xsens Technologies B. V. 2005-2022,,,,,,,,,,,,,,,,,,,

PacketCounter,SampleTimeFine,Acc_X,Acc_Y,Acc_Z,Gyr_X,Gyr_Y,Gyr_Z,Mag_X,Mag_Y,Mag_Z
1, 2713313049, -5.298017501831055, 2.0766186714172363, 7.985140800476074, -2.6657445430755615, -1.6155725717544556, -2.4872753620147705, 0.0615234375, -0.22802734375, -0.81494140625
2, 2713329716, -5.310019016265869, 2.0731217861175537, 8.03219985961914, -2.566610813140869, -1.4026412963867188, -2.523324966430664, 0.0625, -0.224609375, -0.819580078125
3, 2713346383, -5.313021659851074, 2.06706166267395, 8.00190544128418, -2.507035255432129, -1.2443162202835083, -2.37658953666687, 0.060546875, -0.22607421875, -0.818115234375
4, 2713363050, -5.338927268981934, 2.0842716693878174, 7.985977649688721, -2.4453210830688477, -1.3487391471862793, -2.3186020851135254, 0.0595703125, -0.224365234375, -0.8212890625
5, 2713379717, -5.3362135887146, 2.0907087326049805, 7.982064247131348, -2.539780855178833, -1.4885332584381104, -2.3594162464141846, 0.06103515625, -0.22509765625, -0.819091796875
6, 2713396384, -5.314302444458008, 2.101320266723633, 8.008915901184082, -2.5013363361358643, -1.5435750484466553, -2.3730807304382324, 0.05908203125, -0.224365234375, -0.8193359375
7, 2713413051, -5.300638198852539, 2.0872116088867188, 8.003623008728027, -2.5415477752685547, -1.4537510871887207, -2.3474037647247314, 0.05859375, -0.22607421875, -0.818603515625
8, 2713429718, -5.313331127166748, 2.103208303451538, 7.996260643005371, -2.5818371772766113, -1.4292784929275513, -2.495394229888916, 0.062744140625, -0.22607421875, -0.818115234375
9, 2713446385, -5.3264923095703125, 2.0821897983551025, 8.007454872131348, -2.5226845741271973, -1.3639787435531616, -2.462290048599243, 0.0595703125, -0.22607421875, -0.822265625
10, 2713463052, -5.334991455078125, 2.074007749557495, 7.986809730529785, -2.5788915157318115, -1.5191789865493774, -2.345790386199951, 0.0615234375, -0.22607421875, -0.820556640625
11, 2713479719, -5.307179927825928, 2.092658519744873, 7.991429328918457, -2.669816732406616, -1.750346302986145, -2.3204212188720703, 0.0625, -0.2265625, -0.819091796875
12, 2713496386, -5.30357551574707, 2.102036714553833, 8.002510070800781, -2.6472394466400146, -1.7756775617599487, -2.370622158050537, 0.060546875, -0.22509765625, -0.817626953125
13, 2713513053, -5.316373348236084, 2.082691192626953, 8.003966331481934, -2.728483200073242, -1.7207895517349243, -2.431772232055664, 0.05859375, -0.22607421875, -0.816650390625
14, 2713529720, -5.328095436096191, 2.088179111480713, 8.006881713867188, -2.7187373638153076, -1.7405753135681152, -2.4715747833251953, 0.06005859375, -0.2265625, -0.819091796875
15, 2713546387, -5.327197074890137, 2.0704033374786377, 8.010663986206055, -2.7016663551330566, -1.7577614784240723, -2.4428372383117676, 0.05712890625, -0.228515625, -0.8251953125
16, 2713563054, -5.31558084487915, 2.0873734951019287, 7.979816913604736, -2.7140750885009766, -1.9900426864624023, -2.3331375122070312, 0.0595703125, -0.2275390625, -0.82177734375
17, 2713579721, -5.322558403015137, 2.0809831619262695, 8.003148078918457, -2.778721332550049, -2.1167995929718018, -2.2580924034118652, 0.0595703125, -0.22607421875, -0.820068359375
18, 2713596388, -5.298920154571533, 2.0829367637634277, 8.014080047607422, -2.806626558303833, -2.1040191650390625, -2.306410551071167, 0.05810546875, -0.22705078125, -0.819091796875
19, 2713613055, -5.289132595062256, 2.0887396335601807, 8.014836311340332, -2.833097457885742, -2.0152456760406494, -2.3332018852233887, 0.06103515625, -0.224853515625, -0.815673828125
20, 2713629722, -5.2925705909729, 2.08585524559021, 8.016021728515625, -2.814220905303955, -1.9200302362442017, -2.3310885429382324, 0.06103515625, -0.224609375, -0.819580078125
21, 2713646389, -5.292826175689697, 2.0859580039978027, 8.042262077331543, -2.6851847171783447, -1.788906455039978, -2.349773406982422, 0.06005859375, -0.2265625, -0.820068359375
22, 2713663056, -5.287269115447998, 2.089211940765381, 8.020940780639648, -2.665616512298584, -1.6005122661590576, -2.3281946182250977, 0.0595703125, -0.22705078125, -0.8203125
23, 2713679723, -5.3054327964782715, 2.0775046348571777, 8.033222198486328, -2.578840732574463, -1.5150554180145264, -2.3637964725494385, 0.0595703125, -0.2275390625, -0.819580078125
24, 2713696390, -5.308011531829834, 2.0798585414886475, 8.011486053466797, -2.4558608531951904, -1.5847601890563965, -2.3039393424987793, 0.05810546875, -0.2265625, -0.81982421875
25, 2713713057, -5.30296516418457, 2.0777804851531982, 7.984086513519287, -2.4815123081207275, -1.5055017471313477, -2.2482829093933105, 0.05908203125, -0.2265625, -0.817138671875
26, 2713729724, -5.301833629608154, 2.0865283012390137, 8.018167495727539, -2.3913426399230957, -1.5778577327728271, -2.258310317993164, 0.05712890625, -0.22509765625, -0.8203125
27, 2713746391, -5.286190509796143, 2.0816705226898193, 7.980660915374756, -2.3822884559631348, -1.5598007440567017, -2.156179666519165, 0.06103515625, -0.228515625, -0.819091796875
28, 2713763058, -5.2771782875061035, 2.0931921005249023, 8.026776313781738, -2.3315112590789795, -1.499930739402771, -2.208582878112793, 0.0595703125, -0.22509765625, -0.822265625
29, 2713779725, -5.295688152313232, 2.10090970993042, 7.998916149139404, -2.361567735671997, -1.5009170770645142, -2.211759090423584, 0.05908203125, -0.22705078125, -0.8203125
30, 2713796392, -5.284689426422119, 2.0874030590057373, 7.995182991027832, -2.3599796295166016, -1.4872653484344482, -2.3390026092529297, 0.05859375, -0.224853515625, -0.81884765625
31, 2713813059, -5.298074245452881, 2.0913548469543457, 7.987514495849609, -2.444706678390503, -1.4920934438705444, -2.3740668296813965, 0.05712890625, -0.22705078125, -0.81982421875
32, 2713829726, -5.287173271179199, 2.0903990268707275, 8.0215482711792, -2.4383544921875, -1.5613118410110474, -2.399704933166504, 0.05859375, -0.223876953125, -0.81982421875
33, 2713846393, -5.296229839324951, 2.091928482055664, 8.017858505249023, -2.5557632446289062, -1.4269860982894897, -2.3303587436676025, 0.05908203125, -0.2265625, -0.82177734375
34, 2713863060, -5.280436038970947, 2.1093273162841797, 8.012626647949219, -2.4974172115325928, -1.5452780723571777, -2.3649868965148926, 0.05615234375, -0.228515625, -0.82177734375
35, 2713879727, -5.307293891906738, 2.092280864715576, 8.029094696044922, -2.5705931186676025, -1.5961709022521973, -2.507931709289551, 0.056640625, -0.22509765625, -0.82177734375
36, 2713896394, -5.297566890716553, 2.0945801734924316, 8.005748748779297, -2.5810046195983887, -1.5549342632293701, -2.3968238830566406, 0.05810546875, -0.22705078125, -0.8193359375
37, 2713913061, -5.287300109863281, 2.0894412994384766, 8.024537086486816, -2.5760488510131836, -1.4770333766937256, -2.3139538764953613, 0.0595703125, -0.225341796875, -0.816650390625
38, 2713929728, -5.285219669342041, 2.086966037750244, 7.9974365234375, -2.5806846618652344, -1.4163825511932373, -2.4219114780426025, 0.05810546875, -0.225341796875, -0.818359375
39, 2713946395, -5.2986321449279785, 2.0915982723236084, 8.016702651977539, -2.536630868911743, -1.4296754598617554, -2.4841504096984863, 0.0595703125, -0.224853515625, -0.818603515625
40, 2713963062, -5.319131851196289, 2.077244520187378, 8.014585494995117, -2.544084310531616, -1.4174455404281616, -2.476658821105957, 0.05859375, -0.2265625, -0.8193359375
41, 2713979729, -5.297606468200684, 2.0749056339263916, 8.01414966583252, -2.5736284255981445, -1.502556562423706, -2.4268038272857666, 0.05810546875, -0.22705078125, -0.82080078125
42, 2713996396, -5.2883124351501465, 2.100261688232422, 8.018721580505371, -2.537431001663208, -1.4560116529464722, -2.3540313243865967, 0.05712890625, -0.22705078125, -0.818359375
43, 2714013063, -5.2780303955078125, 2.098940849304199, 8.024808883666992, -2.5650992393493652, -1.5165410041809082, -2.379061698913574, 0.06005859375, -0.228515625, -0.818115234375
44, 2714029730, -5.279682636260986, 2.097236156463623, 8.003445625305176, -2.6389153003692627, -1.507755994796753, -2.4108214378356934, 0.05810546875, -0.22705078125, -0.8203125
45, 2714046397, -5.308824062347412, 2.0965664386749268, 8.010978698730469, -2.662158489227295, -1.4971904754638672, -2.4777982234954834, 0.05908203125, -0.22607421875, -0.819580078125
46, 2714063064, -5.2922587394714355, 2.096336841583252, 8.005836486816406, -2.7020633220672607, -1.4151531457901, -2.444002389907837, 0.05712890625, -0.2265625, -0.82177734375
47, 2714079731, -5.307668685913086, 2.0915403366088867, 8.000761985778809, -2.6566007137298584, -1.5061933994293213, -2.4767868518829346, 0.05908203125, -0.22705078125, -0.819091796875
48, 2714096398, -5.303242206573486, 2.106215715408325, 8.011541366577148, -2.725895881652832, -1.5444844961166382, -2.5183818340301514, 0.0576171875, -0.228515625, -0.819091796875
49, 2714113065, -5.295387268066406, 2.0896434783935547, 8.022773742675781, -2.7033441066741943, -1.500251293182373, -2.5377066135406494, 0.0595703125, -0.2255859375, -0.817626953125
50, 2714129732, -5.309106826782227, 2.0837271213531494, 8.007918357849121, -2.6677422523498535, -1.4023594856262207, -2.408144950866699, 0.05859375, -0.225341796875, -0.818115234375
51, 2714146399, -5.302085876464844, 2.0957047939300537, 8.011835098266602, -2.620525598526001, -1.483206033706665, -2.3917014598846436, 0.05859375, -0.22509765625, -0.8203125
52, 2714163066, -5.295703411102295, 2.087415933609009, 8.013239860534668, -2.575165271759033, -1.5019032955169678, -2.3760392665863037, 0.05810546875, -0.2265625, -0.82080078125
53, 2714179733, -5.302720069885254, 2.0917017459869385, 8.008440971374512, -2.565688133239746, -1.6341030597686768, -2.2536613941192627, 0.0595703125, -0.22607421875, -0.819580078125
54, 2714196400, -5.290537357330322, 2.094996690750122, 8.005041122436523, -2.6653990745544434, -1.6030734777450562, -2.3113160133361816, 0.05712890625, -0.22607421875, -0.81787109375
55, 2714213067, -5.289132595062256, 2.094141960144043, 8.00713062286377, -2.5707342624664307, -1.6004353761672974, -2.412498712539673, 0.05810546875, -0.223876953125, -0.818359375
56, 2714229734, -5.294307231903076, 2.086390256881714, 8.03222942352295, -2.6046578884124756, -1.4795559644699097, -2.4539270401000977, 0.05908203125, -0.2265625, -0.818603515625
57, 2714246401, -5.30141544342041, 2.0883374214172363, 8.014317512512207, -2.594054698944092, -1.609310269355774, -2.389831781387329, 0.05712890625, -0.2265625, -0.81884765625
58, 2714263068, -5.288103103637695, 2.091789484024048, 8.013304710388184, -2.6457793712615967, -1.5486849546432495, -2.4724457263946533, 0.0576171875, -0.2265625, -0.8212890625
59, 2714279735, -5.282013893127441, 2.0959668159484863, 8.028087615966797, -2.64285945892334, -1.3904751539230347, -2.4549388885498047, 0.05810546875, -0.22509765625, -0.822265625
60, 2714296402, -5.2819342613220215, 2.0786328315734863, 8.029084205627441, -2.521801233291626, -1.510867714881897, -2.4231536388397217, 0.0595703125, -0.22802734375, -0.818603515625
61, 2714313069, -5.286952018737793, 2.0906524658203125, 8.021308898925781, -2.5539190769195557, -1.4989192485809326, -2.442631959915161, 0.0576171875, -0.2255859375, -0.81884765625
62, 2714329736, -5.294394493103027, 2.0874271392822266, 8.006375312805176, -2.5416765213012695, -1.4064704179763794, -2.4731626510620117, 0.0576171875, -0.2255859375, -0.81982421875
63, 2714346403, -5.287599563598633, 2.095580577850342, 8.027856826782227, -2.5134129524230957, -1.318759560585022, -2.4329631328582764, 0.05810546875, -0.2255859375, -0.8193359375
64, 2714363070, -5.277507305145264, 2.0865492820739746, 8.027288436889648, -2.504922389984131, -1.2642812728881836, -2.4242804050445557, 0.05712890625, -0.2255859375, -0.82177734375
65, 2714379737, -5.283276081085205, 2.1066112518310547, 8.035634994506836, -2.4117939472198486, -1.143568515777588, -2.3361213207244873, 0.05810546875, -0.2255859375, -0.81982421875
66, 2714396404, -5.302791118621826, 2.0855987071990967, 8.016396522521973, -2.378664255142212, -1.098976969718933, -2.5478107929229736, 0.05810546875, -0.22705078125, -0.815673828125
67, 2714413071, -5.303094863891602, 2.075672149658203, 8.007994651794434, -2.4512765407562256, -1.2192286252975464, -2.4653375148773193, 0.0576171875, -0.2265625, -0.816650390625
68, 2714429738, -5.302453994750977, 2.081902503967285, 8.009295463562012, -2.46976900100708, -1.3307974338531494, -2.435037851333618, 0.05859375, -0.22607421875, -0.819091796875
69, 2714446405, -5.287074565887451, 2.1150012016296387, 8.013267517089844, -2.4988646507263184, -1.4789925813674927, -2.4495861530303955, 0.05810546875, -0.22509765625, -0.82080078125
70, 2714463072, -5.2712178230285645, 2.1111092567443848, 8.03011703491211, -2.5149238109588623, -1.4014629125595093, -2.4747374057769775, 0.05615234375, -0.22607421875, -0.81982421875
71, 2714479739, -5.279298782348633, 2.0932884216308594, 8.006806373596191, -2.4913477897644043, -1.2461092472076416, -2.6684210300445557, 0.0576171875, -0.224853515625, -0.8193359375
72, 2714496406, -5.269478797912598, 2.0889415740966797, 8.00632381439209, -2.5277047157287598, -1.2546510696411133, -2.647841215133667, 0.05908203125, -0.22705078125, -0.818115234375
73, 2714513073, -5.287818431854248, 2.0866200923919678, 8.019468307495117, -2.571784257888794, -1.1902095079421997, -2.547938823699951, 0.05859375, -0.2265625, -0.814697265625
74, 2714529740, -5.274045467376709, 2.1024792194366455, 8.010881423950195, -2.5177924633026123, -1.1500486135482788, -2.464146614074707, 0.0576171875, -0.2265625, -0.8203125
75, 2714546407, -5.300675392150879, 2.0963308811187744, 8.004793167114258, -2.507828950881958, -1.1198128461837769, -2.6226508617401123, 0.0595703125, -0.2255859375, -0.81982421875
76, 2714563074, -5.323113441467285, 2.083164930343628, 8.009639739990234, -2.5828745365142822, -1.2354543209075928, -2.57698392868042, 0.05810546875, -0.2255859375, -0.8203125
77, 2714579741, -5.314049243927002, 2.0738449096679688, 8.003388404846191, -2.538897752761841, -1.4995981454849243, -2.4382269382476807, 0.05908203125, -0.22705078125, -0.820068359375
78, 2714596408, -5.281531810760498, 2.109160900115967, 8.022847175598145, -2.5514349937438965, -1.4462084770202637, -2.4310169219970703, 0.0576171875, -0.22607421875, -0.818115234375
79, 2714613075, -5.281973361968994, 2.1059441566467285, 8.008221626281738, -2.50402569770813, -1.427293300628662, -2.4431827068328857, 0.0576171875, -0.22607421875, -0.81884765625
80, 2714629742, -5.29856014251709, 2.09281587600708, 8.00855541229248, -2.553419828414917, -1.3576140403747559, -2.543148994445801, 0.06005859375, -0.22509765625, -0.8203125
81, 2714646409, -5.2983784675598145, 2.0887789726257324, 8.007833480834961, -2.5308423042297363, -1.4280363321304321, -2.5135796070098877, 0.0595703125, -0.224365234375, -0.8203125
82, 2714663076, -5.306324481964111, 2.0807952880859375, 8.00465202331543, -2.6187453269958496, -1.4754838943481445, -2.485098123550415, 0.0576171875, -0.223876953125, -0.8212890625
83, 2714679743, -5.303415775299072, 2.087735414505005, 8.017094612121582, -2.7322354316711426, -1.4722566604614258, -2.469449043273926, 0.060546875, -0.2255859375, -0.820556640625
84, 2714696410, -5.282407283782959, 2.0980474948883057, 8.016426086425781, -2.604107618331909, -1.5340344905853271, -2.4681427478790283, 0.0576171875, -0.228515625, -0.81982421875
85, 2714713077, -5.272292137145996, 2.111903429031372, 8.021278381347656, -2.650312900543213, -1.5000591278076172, -2.592261552810669, 0.05908203125, -0.2265625, -0.818115234375
86, 2714729744, -5.288149356842041, 2.0776891708374023, 8.013721466064453, -2.5062925815582275, -1.1998140811920166, -2.4864425659179688, 0.0576171875, -0.22607421875, -0.818115234375
87, 2714746411, -5.301092624664307, 2.094350814819336, 8.001289367675781, -2.5711052417755127, -1.2719522714614868, -2.4644923210144043, 0.056640625, -0.224365234375, -0.81982421875
88, 2714763078, -5.3057026863098145, 2.0830671787261963, 8.032181739807129, -2.574127674102783, -1.4622162580490112, -2.423076868057251, 0.0576171875, -0.2265625, -0.822265625
89, 2714779745, -5.278878688812256, 2.0940322875976562, 8.029129028320312, -2.607386350631714, -1.3647217750549316, -2.4451041221618652, 0.05712890625, -0.2255859375, -0.82080078125
90, 2714796412, -5.285090923309326, 2.0991063117980957, 8.023388862609863, -2.553727388381958, -1.3377898931503296, -2.521711587905884, 0.05908203125, -0.224853515625, -0.817626953125
91, 2714813079, -5.290069580078125, 2.0866494178771973, 8.010727882385254, -2.4837145805358887, -1.2045012712478638, -2.471766471862793, 0.0595703125, -0.2265625, -0.819091796875
92, 2714829746, -5.3029351234436035, 2.080590009689331, 8.037243843078613, -2.556788206100464, -1.202887773513794, -2.5696072578430176, 0.0576171875, -0.224853515625, -0.81787109375
93, 2714846413, -5.31452751159668, 2.0952069759368896, 8.005403518676758, -2.5272181034088135, -1.3425920009613037, -2.435255289077759, 0.0576171875, -0.22607421875, -0.81884765625
94, 2714863080, -5.306214809417725, 2.120554208755493, 8.02275276184082, -2.684019088745117, -1.5108294486999512, -2.51469349861145, 0.0576171875, -0.224853515625, -0.82080078125
95, 2714879747, -5.29530143737793, 2.099475145339966, 8.0076265335083, -2.709106683731079, -1.633770227432251, -2.5114150047302246, 0.05810546875, -0.2265625, -0.82080078125
96, 2714896414, -5.299112796783447, 2.093273639678955, 8.008183479309082, -2.7371912002563477, -1.692218542098999, -2.437817335128784, 0.056640625, -0.22705078125, -0.8203125
97, 2714913081, -5.275294780731201, 2.1069095134735107, 8.02706241607666, -2.7019481658935547, -1.5286813974380493, -2.56073260307312, 0.05810546875, -0.2265625, -0.81982421875
98, 2714929748, -5.297394752502441, 2.0829789638519287, 8.013784408569336, -2.711578607559204, -1.5638220310211182, -2.5098273754119873, 0.05810546875, -0.225341796875, -0.81884765625
99, 2714946415, -5.285290718078613, 2.097945213317871, 8.007731437683105, -2.698784828186035, -1.4676846265792847, -2.5114922523498535, 0.0576171875, -0.224365234375, -0.82177734375
100, 2714963082, -5.3021721839904785, 2.0951244831085205, 8.020705223083496, -2.6788837909698486, -1.490838646888733, -2.439815044403076, 0.05908203125, -0.2255859375, -0.8203125
101, 2714979749, -5.2901387214660645, 2.097538948059082, 8.020469665527344, -2.7227585315704346, -1.5095102787017822, -2.461137533187866, 0.0576171875, -0.2265625, -0.82177734375
102, 2714996416, -5.299580097198486, 2.072028875350952, 8.018099784851074, -2.790670394897461, -1.5702122449874878, -2.4339749813079834, 0.0576171875, -0.22705078125, -0.817138671875
103, 2715013083, -5.309799671173096, 2.0816400051116943, 8.007116317749023, -2.759307861328125, -1.7442251443862915, -2.377255916595459, 0.05712890625, -0.224365234375, -0.81787109375
104, 2715029750, -5.289343357086182, 2.0635292530059814, 8.028823852539062, -2.6570234298706055, -1.7235172986984253, -2.3509387969970703, 0.05859375, -0.2265625, -0.8193359375
105, 2715046417, -5.29443359375, 2.0953569412231445, 8.018026351928711, -2.791937828063965, -1.8828151226043701, -2.3049252033233643, 0.05908203125, -0.2255859375, -0.8212890625
106, 2715063084, -5.283717632293701, 2.0948028564453125, 8.037919998168945, -2.8575963973999023, -1.8089739084243774, -2.497276544570923, 0.056640625, -0.22607421875, -0.82080078125
107, 2715079751, -5.289949417114258, 2.097701072692871, 8.021366119384766, -2.8887155055999756, -1.7058569192886353, -2.464594841003418, 0.0576171875, -0.225341796875, -0.8193359375
108, 2715096418, -5.270959854125977, 2.0985357761383057, 8.027801513671875, -2.77888822555542, -1.7192010879516602, -2.4621615409851074, 0.0576171875, -0.22705078125, -0.8193359375
109, 2715113085, -5.275787830352783, 2.089390516281128, 8.011700630187988, -2.8369009494781494, -1.7649710178375244, -2.4632246494293213, 0.05712890625, -0.225830078125, -0.816650390625
110, 2715129752, -5.284940242767334, 2.0670580863952637, 8.028602600097656, -2.8734629154205322, -1.644924283027649, -2.486391067504883, 0.05908203125, -0.225341796875, -0.818115234375
111, 2715146419, -5.274980545043945, 2.0827882289886475, 8.007986068725586, -2.8847198486328125, -1.6763638257980347, -2.4148294925689697, 0.05615234375, -0.2255859375, -0.81982421875
112, 2715163086, -5.2971625328063965, 2.098041296005249, 8.002028465270996, -2.8231852054595947, -1.701502799987793, -2.42760968208313, 0.0546875, -0.22607421875, -0.82177734375
113, 2715179753, -5.2694621086120605, 2.104836940765381, 8.017813682556152, -2.8302416801452637, -1.7846927642822266, -2.4243059158325195, 0.05908203125, -0.2265625, -0.81982421875
114, 2715196420, -5.283385276794434, 2.075495481491089, 8.016633987426758, -2.7587954998016357, -1.552987813949585, -2.5537145137786865, 0.053955078125, -0.226318359375, -0.81884765625
115, 2715213087, -5.289765357971191, 2.067899465560913, 8.035386085510254, -2.672813892364502, -1.4592198133468628, -2.4872496128082275, 0.0556640625, -0.225341796875, -0.81982421875
116, 2715229754, -5.276637554168701, 2.0840933322906494, 8.009998321533203, -2.696505308151245, -1.2954264879226685, -2.3821094036102295, 0.05615234375, -0.22607421875, -0.8203125
117, 2715246421, -5.276532173156738, 2.074324607849121, 8.031045913696289, -2.607731580734253, -1.461460828781128, -2.4282894134521484, 0.05615234375, -0.223876953125, -0.82177734375
118, 2715263088, -5.292608261108398, 2.0925633907318115, 8.025572776794434, -2.593055486679077, -1.5110727548599243, -2.474891424179077, 0.056640625, -0.22607421875, -0.8203125
119, 2715279755, -5.276847839355469, 2.0855495929718018, 8.025981903076172, -2.7151384353637695, -1.495948314666748, -2.414829730987549, 0.0576171875, -0.22802734375, -0.82080078125
120, 2715296422, -5.267818927764893, 2.083846092224121, 8.020479202270508, -2.658137559890747, -1.5682274103164673, -2.429211139678955, 0.0576171875, -0.224853515625, -0.8212890625
121, 2715313089, -5.278023719787598, 2.09503436088562, 8.024598121643066, -2.659546136856079, -1.4705532789230347, -2.433885335922241, 0.05810546875, -0.223388671875, -0.822265625
122, 2715329756, -5.2730488777160645, 2.0861294269561768, 8.037065505981445, -2.563934087753296, -1.5593271255493164, -2.4687061309814453, 0.05712890625, -0.22607421875, -0.82080078125
123, 2715346423, -5.26802396774292, 2.0781939029693604, 8.016809463500977, -2.6560370922088623, -1.5675230026245117, -2.4272515773773193, 0.05712890625, -0.223388671875, -0.824462890625
124, 2715363090, -5.266148567199707, 2.0876502990722656, 8.035991668701172, -2.6319103240966797, -1.4842560291290283, -2.425920009613037, 0.06005859375, -0.22412109375, -0.82275390625
125, 2715379757, -5.2709879875183105, 2.086092710494995, 8.045055389404297, -2.5022330284118652, -1.4066112041473389, -2.424395799636841, 0.05810546875, -0.224609375, -0.822265625
126, 2715396424, -5.271631717681885, 2.092223882675171, 8.022896766662598, -2.518343210220337, -1.4525091648101807, -2.401779890060425, 0.05615234375, -0.2255859375, -0.8212890625
127, 2715413091, -5.281927108764648, 2.0867903232574463, 8.03052043914795, -2.5928378105163574, -1.451676845550537, -2.521967649459839, 0.0576171875, -0.222900390625, -0.8193359375
128, 2715429758, -5.274653434753418, 2.0913262367248535, 8.017230987548828, -2.6893210411071777, -1.5155549049377441, -2.5204691886901855, 0.056640625, -0.22509765625, -0.82177734375
129, 2715446425, -5.287744522094727, 2.0716893672943115, 8.040002822875977, -2.6198339462280273, -1.4943346977233887, -2.507176399230957, 0.05810546875, -0.224365234375, -0.82080078125
130, 2715463092, -5.275558948516846, 2.089982032775879, 8.026561737060547, -2.678640604019165, -1.4295856952667236, -2.5460309982299805, 0.0595703125, -0.22509765625, -0.8203125
131, 2715479759, -5.267236232757568, 2.0904760360717773, 8.021437644958496, -2.6272616386413574, -1.5475324392318726, -2.4792330265045166, 0.056640625, -0.224365234375, -0.8203125
132, 2715496426, -5.273914813995361, 2.0856738090515137, 8.019386291503906, -2.6505818367004395, -1.4895963668823242, -2.5300486087799072, 0.056640625, -0.22705078125, -0.822265625
133, 2715513093, -5.276894569396973, 2.073810577392578, 8.031333923339844, -2.6564981937408447, -1.4661351442337036, -2.4951767921447754, 0.05615234375, -0.2255859375, -0.8193359375
134, 2715529760, -5.263670444488525, 2.0873966217041016, 8.021782875061035, -2.5638060569763184, -1.394406795501709, -2.476966142654419, 0.05712890625, -0.225341796875, -0.81787109375
135, 2715546427, -5.259546756744385, 2.0799238681793213, 8.028827667236328, -2.5857558250427246, -1.3315531015396118, -2.4518656730651855, 0.0556640625, -0.224365234375, -0.8212890625
136, 2715563094, -5.297431468963623, 2.089200735092163, 8.03010368347168, -2.5560836791992188, -1.3171972036361694, -2.5240933895111084, 0.0546875, -0.225341796875, -0.82080078125
137, 2715579761, -5.283930778503418, 2.089327096939087, 8.027762413024902, -2.5601561069488525, -1.3602265119552612, -2.4869167804718018, 0.05712890625, -0.22509765625, -0.8212890625
138, 2715596428, -5.273504257202148, 2.091198682785034, 8.020594596862793, -2.6711487770080566, -1.4150632619857788, -2.5147705078125, 0.05810546875, -0.224853515625, -0.82080078125
139, 2715613095, -5.263661861419678, 2.073495388031006, 8.051897048950195, -2.5959243774414062, -1.4217356443405151, -2.4960601329803467, 0.05615234375, -0.224365234375, -0.818359375
140, 2715629762, -5.273997783660889, 2.087801933288574, 8.011232376098633, -2.6987979412078857, -1.3193104267120361, -2.59256911277771, 0.05859375, -0.22607421875, -0.8193359375
141, 2715646429, -5.268765449523926, 2.0778024196624756, 8.025378227233887, -2.6088969707489014, -1.2188060283660889, -2.6123931407928467, 0.05517578125, -0.224853515625, -0.82177734375
142, 2715663096, -5.289246559143066, 2.0685970783233643, 8.022379875183105, -2.6180405616760254, -1.2788805961608887, -2.5131568908691406, 0.0556640625, -0.225341796875, -0.8203125
143, 2715679763, -5.280118942260742, 2.0806386470794678, 8.033945083618164, -2.6970434188842773, -1.3482398986816406, -2.534684181213379, 0.05517578125, -0.223876953125, -0.82080078125
144, 2715696430, -5.274024486541748, 2.087628126144409, 8.021781921386719, -2.673236131668091, -1.2335717678070068, -2.54373836517334, 0.05859375, -0.22509765625, -0.82080078125
145, 2715713097, -5.25679349899292, 2.0915238857269287, 8.027029037475586, -2.6156973838806152, -1.184139370918274, -2.6462149620056152, 0.056640625, -0.224853515625, -0.8203125
146, 2715729764, -5.282873153686523, 2.066960096359253, 8.015375137329102, -2.6445116996765137, -1.1856119632720947, -2.574256181716919, 0.05517578125, -0.225341796875, -0.8173828125
147, 2715746431, -5.287261486053467, 2.0696418285369873, 8.014034271240234, -2.595719575881958, -1.19741952419281, -2.637071132659912, 0.05712890625, -0.225341796875, -0.8193359375
148, 2715763098, -5.281656265258789, 2.0739924907684326, 8.036877632141113, -2.596065044403076, -1.2774848937988281, -2.5885608196258545, 0.05517578125, -0.224365234375, -0.81982421875
149, 2715779765, -5.271249771118164, 2.0764200687408447, 8.040124893188477, -2.6021223068237305, -1.2624499797821045, -2.616708755493164, 0.05859375, -0.22705078125, -0.82177734375
150, 2715796432, -5.275036334991455, 2.09519624710083, 8.032119750976562, -2.5806336402893066, -1.2665352821350098, -2.5782644748687744, 0.05859375, -0.224609375, -0.82080078125
151, 2715813099, -5.279751300811768, 2.0895187854766846, 8.025285720825195, -2.5277302265167236, -1.1955879926681519, -2.5928375720977783, 0.0556640625, -0.225341796875, -0.816162109375
152, 2715829766, -5.297886848449707, 2.068251132965088, 8.018206596374512, -2.5499491691589355, -1.1135890483856201, -2.4888501167297363, 0.05908203125, -0.224365234375, -0.81884765625
153, 2715846433, -5.2771453857421875, 2.0853888988494873, 8.041542053222656, -2.5185608863830566, -1.1888775825500488, -2.476837635040283, 0.05859375, -0.22607421875, -0.818115234375
154, 2715863100, -5.2680439949035645, 2.09403395652771, 8.033652305603027, -2.5820295810699463, -1.1416734457015991, -2.56073260307312, 0.05517578125, -0.223876953125, -0.82080078125
155, 2715879767, -5.286012172698975, 2.088862895965576, 8.014425277709961, -2.4911937713623047, -1.0843137502670288, -2.564049005508423, 0.0556640625, -0.2255859375, -0.8203125
156, 2715896434, -5.27604341506958, 2.0800113677978516, 8.03526496887207, -2.420093059539795, -1.1367684602737427, -2.531879425048828, 0.056640625, -0.224365234375, -0.8203125
157, 2715913101, -5.293921947479248, 2.0925705432891846, 8.010397911071777, -2.618361234664917, -1.188096523284912, -2.5226335525512695, 0.05712890625, -0.224365234375, -0.81884765625
158, 2715929768, -5.280327320098877, 2.084078788757324, 8.034734725952148, -2.5380523204803467, -1.2658438682556152, -2.5411901473999023, 0.05712890625, -0.224365234375, -0.818359375
159, 2715946435, -5.282794952392578, 2.073424816131592, 8.035908699035645, -2.493793249130249, -1.2515387535095215, -2.500746965408325, 0.05810546875, -0.224365234375, -0.82080078125
160, 2715963102, -5.289811611175537, 2.0861713886260986, 8.00644302368164, -2.5156025886535645, -1.2709277868270874, -2.5315208435058594, 0.05859375, -0.2255859375, -0.81982421875
161, 2715979769, -5.278340816497803, 2.08148455619812, 8.0166654586792, -2.4586398601531982, -1.259876012802124, -2.5586705207824707, 0.0576171875, -0.2265625, -0.822265625
162, 2715996436, -5.296773433685303, 2.09236478805542, 8.023669242858887, -2.4446680545806885, -1.1243847608566284, -2.4983654022216797, 0.05615234375, -0.225341796875, -0.8193359375
163, 2716013103, -5.3010663986206055, 2.075589895248413, 8.014800071716309, -2.3906893730163574, -1.2171282768249512, -2.5262575149536133, 0.05908203125, -0.222900390625, -0.8212890625
164, 2716029770, -5.2990217208862305, 2.071721315383911, 7.994151592254639, -2.4982500076293945, -1.3473305702209473, -2.5240933895111084, 0.05810546875, -0.225341796875, -0.818359375
165, 2716046437, -5.2886199951171875, 2.0867817401885986, 8.028162002563477, -2.489285469055176, -1.3415418863296509, -2.5295231342315674, 0.056640625, -0.224853515625, -0.8193359375
166, 2716063104, -5.273640155792236, 2.0885660648345947, 8.029430389404297, -2.555161952972412, -1.3791800737380981, -2.540229320526123, 0.0576171875, -0.22509765625, -0.8212890625
167, 2716079771, -5.290143013000488, 2.0812830924987793, 8.022315979003906, -2.5236196517944336, -1.3219612836837769, -2.576369047164917, 0.056640625, -0.22509765625, -0.8212890625
168, 2716096438, -5.285351753234863, 2.070101261138916, 8.01026725769043, -2.520967960357666, -1.2076387405395508, -2.491564989089966, 0.05615234375, -0.224853515625, -0.8203125
169, 2716113105, -5.29770565032959, 2.0834169387817383, 8.004942893981934, -2.493626832962036, -1.2726948261260986, -2.471855878829956, 0.05810546875, -0.224365234375, -0.8193359375
170, 2716129772, -5.2812113761901855, 2.0729315280914307, 8.004729270935059, -2.442426919937134, -1.1845489740371704, -2.411384344100952, 0.05810546875, -0.225341796875, -0.816650390625
171, 2716146439, -5.289101600646973, 2.076565980911255, 8.019170761108398, -2.3227388858795166, -1.1103744506835938, -2.435537099838257, 0.05859375, -0.2255859375, -0.8203125
172, 2716163106, -5.284608840942383, 2.066337823867798, 8.023475646972656, -2.2310965061187744, -1.0708413124084473, -2.4961624145507812, 0.0576171875, -0.224365234375, -0.8203125
173, 2716179773, -5.316505432128906, 2.0737342834472656, 8.037063598632812, -2.2748048305511475, -1.0426033735275269, -2.439955472946167, 0.05712890625, -0.2255859375, -0.82275390625
174, 2716196440, -5.303009510040283, 2.0883896350860596, 7.994167804718018, -2.338593006134033, -1.2085864543914795, -2.3007633686065674, 0.0595703125, -0.2265625, -0.819580078125
175, 2716213107, -5.305238723754883, 2.091846227645874, 8.016661643981934, -2.4135613441467285, -1.3701001405715942, -2.331780195236206, 0.05859375, -0.224853515625, -0.81884765625
176, 2716229774, -5.2819671630859375, 2.1104280948638916, 8.007763862609863, -2.398911237716675, -1.3823559284210205, -2.407388925552368, 0.0595703125, -0.22607421875, -0.816650390625
177, 2716246441, -5.287186145782471, 2.081082582473755, 8.00609016418457, -2.5171139240264893, -1.382189393043518, -2.44035267829895, 0.0576171875, -0.225341796875, -0.818359375
178, 2716263108, -5.292485237121582, 2.078223466873169, 8.014129638671875, -2.5298686027526855, -1.3124842643737793, -2.5023863315582275, 0.05712890625, -0.22607421875, -0.81982421875
179, 2716279775, -5.290952682495117, 2.0767982006073, 8.011335372924805, -2.4831130504608154, -1.315596342086792, -2.4530563354492188, 0.06005859375, -0.22509765625, -0.819580078125
180, 2716296442, -5.2948808670043945, 2.0844874382019043, 8.00060749053955, -2.579660177230835, -1.3094621896743774, -2.4964828491210938, 0.05859375, -0.22509765625, -0.82275390625
181, 2716313109, -5.28499698638916, 2.088366985321045, 8.014781951904297, -2.5925686359405518, -1.360982060432434, -2.424741506576538, 0.05712890625, -0.22509765625, -0.82080078125
182, 2716329776, -5.306177616119385, 2.0846822261810303, 8.024648666381836, -2.5149624347686768, -1.3768746852874756, -2.403585433959961, 0.056640625, -0.22607421875, -0.8203125
183, 2716346443, -5.283331394195557, 2.099705696105957, 8.015548706054688, -2.504640579223633, -1.4408423900604248, -2.370737075805664, 0.05908203125, -0.224853515625, -0.8193359375
184, 2716363110, -5.282577991485596, 2.0942699909210205, 8.007964134216309, -2.491436719894409, -1.49897038936615, -2.400806188583374, 0.05908203125, -0.224853515625, -0.81982421875
185, 2716379777, -5.300571441650391, 2.088236093521118, 7.98922872543335, -2.623957395553589, -1.533189296722412, -2.418774127960205, 0.05908203125, -0.22802734375, -0.82080078125
186, 2716396444, -5.280478477478027, 2.097036361694336, 8.017045021057129, -2.565176486968994, -1.4575293064117432, -2.4312856197357178, 0.05810546875, -0.22509765625, -0.8203125
187, 2716413111, -5.3035569190979, 2.09116268157959, 8.019940376281738, -2.5800445079803467, -1.4697849750518799, -2.398207187652588, 0.06005859375, -0.22607421875, -0.82080078125
188, 2716429778, -5.286313056945801, 2.09060001373291, 8.014963150024414, -2.4965720176696777, -1.4277926683425903, -2.4740843772888184, 0.05810546875, -0.224853515625, -0.8203125
189, 2716446445, -5.300839900970459, 2.078611135482788, 8.016274452209473, -2.4293904304504395, -1.4042035341262817, -2.3934428691864014, 0.0595703125, -0.22509765625, -0.81982421875
190, 2716463112, -5.278345584869385, 2.0961804389953613, 8.017919540405273, -2.449124813079834, -1.4282026290893555, -2.4507896900177, 0.05712890625, -0.2265625, -0.82275390625
191, 2716479779, -5.284392833709717, 2.0967612266540527, 8.004508018493652, -2.5921847820281982, -1.4820277690887451, -2.4421839714050293, 0.05859375, -0.223388671875, -0.82080078125
192, 2716496446, -5.284061431884766, 2.1054913997650146, 8.000467300415039, -2.5804286003112793, -1.3785654306411743, -2.6010982990264893, 0.05810546875, -0.2265625, -0.8193359375
193, 2716513113, -5.296311855316162, 2.079561233520508, 8.016937255859375, -2.661390542984009, -1.4542380571365356, -2.4694361686706543, 0.05615234375, -0.225830078125, -0.818359375
194, 2716529780, -5.291018962860107, 2.091068744659424, 8.036273002624512, -2.5622050762176514, -1.4525219202041626, -2.443976879119873, 0.05810546875, -0.22607421875, -0.8193359375
195, 2716546447, -5.3021039962768555, 2.0806374549865723, 8.015575408935547, -2.6272101402282715, -1.482668161392212, -2.3906383514404297, 0.05615234375, -0.22607421875, -0.8203125
196, 2716563114, -5.277180194854736, 2.0935404300689697, 8.032456398010254, -2.6466245651245117, -1.4274215698242188, -2.4095535278320312, 0.0576171875, -0.22705078125, -0.822265625
197, 2716579781, -5.281596660614014, 2.0932278633117676, 8.020849227905273, -2.666346311569214, -1.4769436120986938, -2.4802188873291016, 0.0576171875, -0.225341796875, -0.81884765625
198, 2716596448, -5.280261039733887, 2.077202320098877, 8.008444786071777, -2.660301685333252, -1.4673516750335693, -2.4416844844818115, 0.0576171875, -0.22509765625, -0.8212890625
199, 2716613115, -5.293521881103516, 2.0813488960266113, 8.001425743103027, -2.564842939376831, -1.4259231090545654, -2.4110260009765625, 0.05810546875, -0.22802734375, -0.818603515625
200, 2716629782, -5.284674644470215, 2.092888832092285, 8.014126777648926, -2.539166212081909, -1.472333312034607, -2.4536325931549072, 0.05712890625, -0.224853515625, -0.8193359375
201, 2716646449, -5.301116466522217, 2.086298942565918, 7.999350547790527, -2.5302019119262695, -1.433543086051941, -2.4824728965759277, 0.0576171875, -0.224853515625, -0.818359375
202, 2716663116, -5.2950615882873535, 2.0909652709960938, 8.013594627380371, -2.585422992706299, -1.4843841791152954, -2.441838264465332, 0.05859375, -0.22607421875, -0.8193359375
203, 2716679783, -5.288269996643066, 2.092196464538574, 8.016270637512207, -2.630680799484253, -1.3787319660186768, -2.534710168838501, 0.05810546875, -0.2255859375, -0.8203125
204, 2716696450, -5.280930519104004, 2.0927398204803467, 8.029318809509277, -2.5515503883361816, -1.4116442203521729, -2.516204833984375, 0.0576171875, -0.2255859375, -0.82080078125
205, 2716713117, -5.277554035186768, 2.09043550491333, 8.03349781036377, -2.646240234375, -1.377643346786499, -2.542790651321411, 0.0595703125, -0.2265625, -0.816650390625
206, 2716729784, -5.285887241363525, 2.081453323364258, 8.003164291381836, -2.5407159328460693, -1.2501816749572754, -2.474071741104126, 0.0576171875, -0.22607421875, -0.818115234375
207, 2716746451, -5.295770645141602, 2.078779697418213, 8.008304595947266, -2.611330509185791, -1.238835334777832, -2.4815638065338135, 0.05712890625, -0.225830078125, -0.81787109375
208, 2716763118, -5.285799503326416, 2.081026554107666, 8.030905723571777, -2.5324814319610596, -1.3355998992919922, -2.473482847213745, 0.05810546875, -0.2255859375, -0.8203125
209, 2716779785, -5.288687705993652, 2.086388349533081, 8.017667770385742, -2.605004072189331, -1.3394163846969604, -2.6040947437286377, 0.05712890625, -0.2255859375, -0.81982421875
210, 2716796452, -5.30950927734375, 2.0992469787597656, 8.01724910736084, -2.545070171356201, -1.4148967266082764, -2.5139505863189697, 0.0576171875, -0.2255859375, -0.8203125
211, 2716813119, -5.295753479003906, 2.086531162261963, 8.01309871673584, -2.6548588275909424, -1.3809216022491455, -2.5216856002807617, 0.05615234375, -0.225830078125, -0.81689453125
212, 2716829786, -5.302006244659424, 2.069641590118408, 8.007084846496582, -2.649364948272705, -1.4087753295898438, -2.481166362762451, 0.0576171875, -0.22607421875, -0.818359375
213, 2716846453, -5.277459144592285, 2.0842700004577637, 8.011381149291992, -2.6021735668182373, -1.5830186605453491, -2.392443895339966, 0.05712890625, -0.22607421875, -0.816650390625
214, 2716863120, -5.287803649902344, 2.085395574569702, 8.013703346252441, -2.5932350158691406, -1.4138981103897095, -2.474609613418579, 0.0576171875, -0.22705078125, -0.81982421875
215, 2716879787, -5.302496910095215, 2.0876545906066895, 8.008636474609375, -2.5296638011932373, -1.3973264694213867, -2.46372389793396, 0.056640625, -0.2255859375, -0.82080078125
216, 2716896454, -5.282076358795166, 2.0794079303741455, 8.017073631286621, -2.5041918754577637, -1.3768361806869507, -2.4183766841888428, 0.05859375, -0.22607421875, -0.8203125
217, 2716913121, -5.298957824707031, 2.0892701148986816, 8.019760131835938, -2.5834763050079346, -1.492260217666626, -2.531393051147461, 0.0595703125, -0.2255859375, -0.819091796875
218, 2716929788, -5.2984795570373535, 2.0728583335876465, 8.01999282836914, -2.5475804805755615, -1.3569482564926147, -2.496009111404419, 0.05615234375, -0.228515625, -0.818359375
219, 2716946455, -5.29562520980835, 2.087184429168701, 8.023420333862305, -2.5454158782958984, -1.3224990367889404, -2.4468069076538086, 0.05859375, -0.22607421875, -0.819091796875
220, 2716963122, -5.301332473754883, 2.0779154300689697, 8.02875804901123, -2.4979681968688965, -1.2922375202178955, -2.4181976318359375, 0.05859375, -0.22607421875, -0.8193359375
221, 2716979789, -5.2975358963012695, 2.0911192893981934, 8.016841888427734, -2.5683135986328125, -1.501057744026184, -2.2904155254364014, 0.05712890625, -0.223876953125, -0.8193359375
222, 2716996456, -5.293117046356201, 2.086956739425659, 7.997591018676758, -2.617374897003174, -1.4769437313079834, -2.3855159282684326, 0.05712890625, -0.22705078125, -0.81982421875
223, 2717013123, -5.293615341186523, 2.090806245803833, 8.032790184020996, -2.5444679260253906, -1.3483165502548218, -2.455988883972168, 0.05908203125, -0.22607421875, -0.81982421875
224, 2717029790, -5.294524669647217, 2.0877676010131836, 8.020917892456055, -2.4928202629089355, -1.3384045362472534, -2.446281909942627, 0.05908203125, -0.224853515625, -0.818603515625
225, 2717046457, -5.295119762420654, 2.074406147003174, 8.008427619934082, -2.499927520751953, -1.3401334285736084, -2.5021047592163086, 0.05859375, -0.22607421875, -0.818603515625
226, 2717063124, -5.297066688537598, 2.1060280799865723, 8.040826797485352, -2.5591700077056885, -1.3090907335281372, -2.487799882888794, 0.0576171875, -0.224853515625, -0.8193359375
227, 2717079791, -5.292730808258057, 2.088226795196533, 8.012320518493652, -2.5026423931121826, -1.316633701324463, -2.4205284118652344, 0.0595703125, -0.224365234375, -0.82080078125
228, 2717096458, -5.290607929229736, 2.094533920288086, 8.010480880737305, -2.5930302143096924, -1.3782964944839478, -2.489567518234253, 0.060546875, -0.22607421875, -0.82080078125
229, 2717113125, -5.291029453277588, 2.089613437652588, 8.033822059631348, -2.5251305103302, -1.276895523071289, -2.52174973487854, 0.05908203125, -0.225341796875, -0.818115234375
230, 2717129792, -5.290672302246094, 2.1055362224578857, 8.00998592376709, -2.660353422164917, -1.4362579584121704, -2.424229621887207, 0.05859375, -0.223388671875, -0.818359375
231, 2717146459, -5.303924560546875, 2.087357521057129, 8.02570915222168, -2.641309976577759, -1.372367024421692, -2.473764419555664, 0.05908203125, -0.2255859375, -0.817626953125
232, 2717163126, -5.291880130767822, 2.0887269973754883, 8.030646324157715, -2.6020455360412598, -1.3701387643814087, -2.5443272590637207, 0.06005859375, -0.2255859375, -0.82177734375
233, 2717179793, -5.285757064819336, 2.088925361633301, 8.022773742675781, -2.7004752159118652, -1.3683842420578003, -2.4573850631713867, 0.05712890625, -0.225341796875, -0.818359375
234, 2717196460, -5.2862043380737305, 2.072749137878418, 8.024147987365723, -2.641233444213867, -1.3153020143508911, -2.4777984619140625, 0.05908203125, -0.2275390625, -0.82177734375
235, 2717213127, -5.288626670837402, 2.0828754901885986, 8.013650894165039, -2.5662264823913574, -1.3039171695709229, -2.5059728622436523, 0.05712890625, -0.2255859375, -0.81884765625
236, 2717229794, -5.296813488006592, 2.0765581130981445, 8.02649211883545, -2.570183515548706, -1.2522947788238525, -2.53786039352417, 0.05810546875, -0.224853515625, -0.81982421875
237, 2717246461, -5.298314094543457, 2.0812289714813232, 8.00380802154541, -2.6334211826324463, -1.3250219821929932, -2.5810303688049316, 0.05810546875, -0.225341796875, -0.81884765625
238, 2717263128, -5.298703670501709, 2.090109348297119, 8.025529861450195, -2.64109206199646, -1.329055905342102, -2.517024278640747, 0.0595703125, -0.224853515625, -0.819091796875
239, 2717279795, -5.301796913146973, 2.0804615020751953, 8.003876686096191, -2.714472770690918, -1.3399797677993774, -2.524388074874878, 0.05810546875, -0.22705078125, -0.82080078125
240, 2717296462, -5.295970439910889, 2.0589206218719482, 8.008284568786621, -2.5474140644073486, -1.4601930379867554, -2.511812448501587, 0.06103515625, -0.2255859375, -0.820556640625
241, 2717313129, -5.284912109375, 2.094501256942749, 8.013978004455566, -2.5507431030273438, -1.3423616886138916, -2.4801676273345947, 0.05859375, -0.2255859375, -0.818603515625
242, 2717329796, -5.290729522705078, 2.08398175239563, 7.9932332038879395, -2.5013880729675293, -1.4026027917861938, -2.5169217586517334, 0.05712890625, -0.224853515625, -0.81982421875
243, 2717346463, -5.296705722808838, 2.0770103931427, 8.013434410095215, -2.5710411071777344, -1.3954567909240723, -2.42093825340271, 0.05859375, -0.2255859375, -0.81884765625
244, 2717363130, -5.304698467254639, 2.069242477416992, 8.006633758544922, -2.5856409072875977, -1.3776944875717163, -2.5253357887268066, 0.05859375, -0.223876953125, -0.8212890625
245, 2717379797, -5.301597595214844, 2.077301502227783, 7.990970611572266, -2.552882194519043, -1.382202386856079, -2.474238157272339, 0.056640625, -0.225341796875, -0.81982421875
246, 2717396464, -5.295042037963867, 2.08685040473938, 8.0175142288208, -2.5941567420959473, -1.4332996606826782, -2.4098093509674072, 0.05810546875, -0.22607421875, -0.8203125
247, 2717413131, -5.2944440841674805, 2.087156295776367, 8.0263032913208, -2.51829195022583, -1.42963707447052, -2.48020601272583, 0.05859375, -0.22607421875, -0.82080078125
248, 2717429798, -5.295177459716797, 2.0769972801208496, 7.986898422241211, -2.5417532920837402, -1.3775792121887207, -2.444027900695801, 0.06103515625, -0.22802734375, -0.820068359375
249, 2717446465, -5.287093639373779, 2.089245080947876, 8.024945259094238, -2.5754470825195312, -1.5078840255737305, -2.503718852996826, 0.05908203125, -0.224365234375, -0.81884765625
250, 2717463132, -5.293010711669922, 2.083253860473633, 8.018171310424805, -2.6031856536865234, -1.4583361148834229, -2.427879571914673, 0.05859375, -0.2265625, -0.8212890625
251, 2717479799, -5.289279937744141, 2.081207513809204, 8.012081146240234, -2.5216727256774902, -1.2889207601547241, -2.4473319053649902, 0.05859375, -0.22412109375, -0.82470703125
252, 2717496466, -5.287891864776611, 2.0884041786193848, 8.009926795959473, -2.47865629196167, -1.30072820186615, -2.427802562713623, 0.05712890625, -0.22509765625, -0.8212890625
253, 2717513133, -5.301425457000732, 2.086347818374634, 8.022553443908691, -2.5364129543304443, -1.3494946956634521, -2.435511589050293, 0.05859375, -0.224365234375, -0.818359375
254, 2717529800, -5.306441783905029, 2.083698034286499, 8.004090309143066, -2.542201280593872, -1.3853782415390015, -2.4086055755615234, 0.05859375, -0.2265625, -0.818603515625
255, 2717546467, -5.300015926361084, 2.076146364212036, 8.013266563415527, -2.5837454795837402, -1.5205750465393066, -2.3981685638427734, 0.05859375, -0.223876953125, -0.81884765625
256, 2717563134, -5.288599014282227, 2.078406810760498, 8.00710678100586, -2.5814015865325928, -1.5233538150787354, -2.262587547302246, 0.05908203125, -0.224609375, -0.8203125
257, 2717579801, -5.290837287902832, 2.093892812728882, 8.028773307800293, -2.5540215969085693, -1.516592025756836, -2.4135358333587646, 0.05810546875, -0.223388671875, -0.8212890625
258, 2717596468, -5.287657737731934, 2.095479726791382, 8.019911766052246, -2.5517935752868652, -1.502709984779358, -2.490976095199585, 0.05615234375, -0.2265625, -0.8193359375
259, 2717613135, -5.291077613830566, 2.0930027961730957, 8.016342163085938, -2.6257119178771973, -1.4252957105636597, -2.4639034271240234, 0.0576171875, -0.2255859375, -0.81982421875
260, 2717629802, -5.274922847747803, 2.078678607940674, 8.023855209350586, -2.634227991104126, -1.355987787246704, -2.533531904220581, 0.05810546875, -0.22607421875, -0.818115234375
261, 2717646469, -5.300161361694336, 2.0826878547668457, 8.01968765258789, -2.581709384918213, -1.381062626838684, -2.465158462524414, 0.05810546875, -0.2255859375, -0.818115234375
262, 2717663136, -5.282657146453857, 2.07915997505188, 8.033342361450195, -2.614711046218872, -1.4182778596878052, -2.439776659011841, 0.056640625, -0.224853515625, -0.81982421875
263, 2717679803, -5.2899394035339355, 2.090131998062134, 8.016311645507812, -2.638249158859253, -1.4195070266723633, -2.470383644104004, 0.05859375, -0.22607421875, -0.8203125
264, 2717696470, -5.304523944854736, 2.0888869762420654, 8.011653900146484, -2.5508840084075928, -1.3743773698806763, -2.462712526321411, 0.05810546875, -0.223876953125, -0.81982421875
265, 2717713137, -5.288301944732666, 2.084774971008301, 7.9924798011779785, -2.5619235038757324, -1.4227983951568604, -2.4835360050201416, 0.05517578125, -0.2265625, -0.81884765625
266, 2717729804, -5.295913219451904, 2.082246780395508, 8.013712882995605, -2.575024366378784, -1.40397310256958, -2.469397783279419, 0.05810546875, -0.2265625, -0.818603515625
267, 2717746471, -5.293932914733887, 2.0831806659698486, 8.012313842773438, -2.5380780696868896, -1.4783779382705688, -2.4390082359313965, 0.05859375, -0.225341796875, -0.817626953125
268, 2717763138, -5.293347358703613, 2.0791141986846924, 7.99957275390625, -2.5768938064575195, -1.4661222696304321, -2.386540174484253, 0.05908203125, -0.2265625, -0.81982421875
269, 2717779805, -5.2896809577941895, 2.0855515003204346, 8.036952018737793, -2.543379545211792, -1.3809857368469238, -2.4001917839050293, 0.0595703125, -0.2255859375, -0.8203125
270, 2717796472, -5.293039798736572, 2.0748038291931152, 8.04098129272461, -2.6334214210510254, -1.370189905166626, -2.5012853145599365, 0.0576171875, -0.22509765625, -0.82080078125
271, 2717813139, -5.305843830108643, 2.0693132877349854, 8.000386238098145, -2.5250542163848877, -1.4618194103240967, -2.4625844955444336, 0.0595703125, -0.2255859375, -0.818115234375
272, 2717829806, -5.294748306274414, 2.085278272628784, 8.033721923828125, -2.613391876220703, -1.4050358533859253, -2.3715569972991943, 0.05859375, -0.2265625, -0.817138671875
273, 2717846473, -5.294068813323975, 2.093283176422119, 8.026104927062988, -2.5265393257141113, -1.383943796157837, -2.417429208755493, 0.05810546875, -0.22607421875, -0.81982421875
274, 2717863140, -5.284808158874512, 2.0958144664764404, 8.019664764404297, -2.529587507247925, -1.4271142482757568, -2.5322766304016113, 0.05712890625, -0.2255859375, -0.82080078125
275, 2717879807, -5.304097652435303, 2.0835680961608887, 8.019174575805664, -2.527371883392334, -1.4284076690673828, -2.51322078704834, 0.05810546875, -0.22607421875, -0.82080078125
276, 2717896474, -5.31427001953125, 2.0891497135162354, 8.013087272644043, -2.4510457515716553, -1.578920602798462, -2.4037904739379883, 0.05908203125, -0.2265625, -0.822265625
277, 2717913141, -5.288847923278809, 2.089205503463745, 8.006876945495605, -2.5597336292266846, -1.5488642454147339, -2.440544843673706, 0.05908203125, -0.2265625, -0.819091796875
278, 2717929808, -5.274868011474609, 2.0878000259399414, 8.022160530090332, -2.545607805252075, -1.5216376781463623, -2.372478723526001, 0.05712890625, -0.2265625, -0.817138671875
279, 2717946475, -5.290048122406006, 2.0936965942382812, 8.012943267822266, -2.620384693145752, -1.5506315231323242, -2.40608286857605, 0.0576171875, -0.2265625, -0.817138671875
280, 2717963142, -5.289653778076172, 2.0870165824890137, 8.026503562927246, -2.4685518741607666, -1.3902957439422607, -2.4066460132598877, 0.05810546875, -0.22509765625, -0.8203125
281, 2717979809, -5.298255920410156, 2.0876569747924805, 8.0120267868042, -2.4922313690185547, -1.4232594966888428, -2.369687080383301, 0.05810546875, -0.224609375, -0.82177734375
282, 2717996476, -5.294195175170898, 2.090097665786743, 8.008254051208496, -2.4946131706237793, -1.4578877687454224, -2.3768973350524902, 0.06103515625, -0.22412109375, -0.82177734375
283, 2718013143, -5.293331623077393, 2.0961556434631348, 8.035993576049805, -2.5250282287597656, -1.4573370218276978, -2.3825573921203613, 0.05908203125, -0.224853515625, -0.81982421875
284, 2718029810, -5.305270195007324, 2.087005853652954, 8.015325546264648, -2.5716819763183594, -1.6040469408035278, -2.4121789932250977, 0.0576171875, -0.22607421875, -0.817626953125
285, 2718046477, -5.275819301605225, 2.083695888519287, 8.007802963256836, -2.5243234634399414, -1.6288267374038696, -2.3286681175231934, 0.056640625, -0.2275390625, -0.817138671875
286, 2718063144, -5.291914939880371, 2.104010820388794, 8.016026496887207, -2.5974740982055664, -1.603867530822754, -2.4170966148376465, 0.0595703125, -0.2255859375, -0.81982421875
287, 2718079811, -5.290154457092285, 2.0874180793762207, 8.02658462524414, -2.663900375366211, -1.4775327444076538, -2.459703207015991, 0.05859375, -0.2255859375, -0.8193359375
288, 2718096478, -5.294768333435059, 2.0807697772979736, 8.027409553527832, -2.609140157699585, -1.3803197145462036, -2.3963499069213867, 0.05712890625, -0.225341796875, -0.8193359375
289, 2718113145, -5.290895462036133, 2.0794928073883057, 8.036502838134766, -2.5355803966522217, -1.4621905088424683, -2.3549084663391113, 0.056640625, -0.223876953125, -0.8203125
290, 2718129812, -5.29764461517334, 2.091238021850586, 8.016128540039062, -2.518740177154541, -1.4529829025268555, -2.406057357788086, 0.0595703125, -0.2255859375, -0.818115234375
291, 2718146479, -5.292252063751221, 2.083094358444214, 8.012273788452148, -2.5051779747009277, -1.344525694847107, -2.3294365406036377, 0.05810546875, -0.2255859375, -0.817626953125
292, 2718163146, -5.273585319519043, 2.085981607437134, 8.029654502868652, -2.4527618885040283, -1.3280057907104492, -2.3040032386779785, 0.05615234375, -0.2265625, -0.81787109375
293, 2718179813, -5.283054351806641, 2.093755006790161, 8.023962020874023, -2.490156412124634, -1.4097615480422974, -2.3572134971618652, 0.056640625, -0.2265625, -0.8203125
294, 2718196480, -5.294297218322754, 2.089125156402588, 8.021764755249023, -2.55794095993042, -1.4211976528167725, -2.444284439086914, 0.0546875, -0.225341796875, -0.81884765625
295, 2718213147, -5.289875507354736, 2.081907272338867, 8.01807689666748, -2.4655680656433105, -1.546930193901062, -2.382890224456787, 0.0556640625, -0.2265625, -0.818359375
296, 2718229814, -5.295891284942627, 2.0822644233703613, 8.030467987060547, -2.499479055404663, -1.4850114583969116, -2.3544602394104004, 0.05615234375, -0.2255859375, -0.81982421875
297, 2718246481, -5.288841247558594, 2.1156606674194336, 8.012005805969238, -2.5145912170410156, -1.3944451808929443, -2.3945441246032715, 0.05908203125, -0.222900390625, -0.818115234375
298, 2718263148, -5.286753177642822, 2.0744261741638184, 8.029316902160645, -2.560142993927002, -1.3706636428833008, -2.446178913116455, 0.05859375, -0.2255859375, -0.818115234375
299, 2718279815, -5.2755327224731445, 2.096773862838745, 8.013017654418945, -2.5241057872772217, -1.3937917947769165, -2.3749759197235107, 0.05517578125, -0.225341796875, -0.81982421875
300, 2718296482, -5.286218643188477, 2.091385841369629, 8.028247833251953, -2.496406078338623, -1.4543660879135132, -2.3396308422088623, 0.05908203125, -0.22509765625, -0.818603515625
301, 2718313149, -5.2936625480651855, 2.097503185272217, 8.027987480163574, -2.508917808532715, -1.3850451707839966, -2.4118711948394775, 0.0576171875, -0.22705078125, -0.81884765625
302, 2718329816, -5.285659313201904, 2.1154518127441406, 8.024714469909668, -2.6216650009155273, -1.3841745853424072, -2.4779138565063477, 0.05712890625, -0.22607421875, -0.8212890625
303, 2718346483, -5.298544883728027, 2.086669921875, 8.016026496887207, -2.5350937843322754, -1.4789410829544067, -2.3855154514312744, 0.05908203125, -0.22705078125, -0.817626953125
304, 2718363150, -5.295905590057373, 2.0997345447540283, 8.018211364746094, -2.624213457107544, -1.4754068851470947, -2.4252028465270996, 0.0576171875, -0.22607421875, -0.822265625
305, 2718379817, -5.292935371398926, 2.1010427474975586, 8.018118858337402, -2.607283592224121, -1.4501785039901733, -2.3965935707092285, 0.05908203125, -0.224609375, -0.8203125
306, 2718396484, -5.281682014465332, 2.092346668243408, 8.011178970336914, -2.6305782794952393, -1.5169507265090942, -2.5362210273742676, 0.056640625, -0.2275390625, -0.81884765625
307, 2718413151, -5.2938032150268555, 2.087733268737793, 8.024131774902344, -2.52005934715271, -1.4304695129394531, -2.51594877243042, 0.056640625, -0.225341796875, -0.8203125
308, 2718429818, -5.297020435333252, 2.075364589691162, 8.012323379516602, -2.4706649780273438, -1.3585231304168701, -2.349222183227539, 0.05859375, -0.2255859375, -0.8212890625
309, 2718446485, -5.296504020690918, 2.0953638553619385, 8.025957107543945, -2.470025062561035, -1.4328513145446777, -2.3734264373779297, 0.05615234375, -0.224853515625, -0.81689453125
310, 2718463152, -5.286632061004639, 2.086209774017334, 7.987081050872803, -2.4690515995025635, -1.4790565967559814, -2.4014339447021484, 0.0576171875, -0.2255859375, -0.81982421875
311, 2718479819, -5.280930042266846, 2.0966813564300537, 8.043092727661133, -2.480001211166382, -1.526350498199463, -2.2758166790008545, 0.05908203125, -0.2255859375, -0.8193359375
312, 2718496486, -5.2777419090271, 2.0906426906585693, 8.039999008178711, -2.441953420639038, -1.4125276803970337, -2.402804136276245, 0.0595703125, -0.2255859375, -0.82080078125
313, 2718513153, -5.28774356842041, 2.0948004722595215, 8.005085945129395, -2.523362874984741, -1.4344775676727295, -2.4412612915039062, 0.05859375, -0.2275390625, -0.81982421875
314, 2718529820, -5.280709743499756, 2.0940487384796143, 8.026671409606934, -2.4599974155426025, -1.3931901454925537, -2.4110004901885986, 0.056640625, -0.22705078125, -0.817138671875
315, 2718546487, -5.285665512084961, 2.0912387371063232, 8.036480903625488, -2.4550156593322754, -1.2749617099761963, -2.373183250427246, 0.056640625, -0.225830078125, -0.815673828125
316, 2718563154, -5.287905693054199, 2.0784316062927246, 8.023746490478516, -2.3144915103912354, -1.2417805194854736, -2.353576421737671, 0.0556640625, -0.22802734375, -0.8193359375
317, 2718579821, -5.284200191497803, 2.092827796936035, 8.000399589538574, -2.350003480911255, -1.2120825052261353, -2.338387966156006, 0.0576171875, -0.22607421875, -0.81884765625
318, 2718596488, -5.2838897705078125, 2.0920896530151367, 8.029617309570312, -2.3969004154205322, -1.2471208572387695, -2.348210573196411, 0.05712890625, -0.2265625, -0.82177734375
319, 2718613155, -5.2950239181518555, 2.110262632369995, 8.024602890014648, -2.4099113941192627, -1.2968093156814575, -2.3191144466400146, 0.056640625, -0.22802734375, -0.81884765625
320, 2718629822, -5.2917327880859375, 2.109419345855713, 8.023083686828613, -2.42549729347229, -1.3916276693344116, -2.4078502655029297, 0.05810546875, -0.228515625, -0.817626953125
321, 2718646489, -5.271213054656982, 2.0905981063842773, 8.031972885131836, -2.50093936920166, -1.406700849533081, -2.3780882358551025, 0.056640625, -0.225830078125, -0.81787109375
322, 2718663156, -5.280544757843018, 2.1056618690490723, 8.018837928771973, -2.4123194217681885, -1.3649777173995972, -2.3602871894836426, 0.0556640625, -0.225341796875, -0.81884765625
323, 2718679823, -5.288210391998291, 2.10543155670166, 8.005147933959961, -2.4064669609069824, -1.2922760248184204, -2.4017415046691895, 0.0595703125, -0.2255859375, -0.819091796875
324, 2718696490, -5.2975850105285645, 2.095161199569702, 8.020424842834473, -2.379509687423706, -1.25454843044281, -2.3994874954223633, 0.0576171875, -0.22705078125, -0.82177734375
325, 2718713157, -5.273128032684326, 2.0928118228912354, 8.025236129760742, -2.3885250091552734, -1.3912049531936646, -2.3865275382995605, 0.056640625, -0.2275390625, -0.81884765625
326, 2718729824, -5.278034210205078, 2.1108269691467285, 8.009049415588379, -2.451481342315674, -1.3239461183547974, -2.4583966732025146, 0.0576171875, -0.2265625, -0.8193359375
327, 2718746491, -5.297449588775635, 2.1016883850097656, 8.008328437805176, -2.4887990951538086, -1.2766265869140625, -2.4043281078338623, 0.05615234375, -0.2265625, -0.816162109375
328, 2718763158, -5.282260894775391, 2.1164193153381348, 8.017855644226074, -2.4755828380584717, -1.3182728290557861, -2.4005119800567627, 0.05810546875, -0.22705078125, -0.8212890625
329, 2718779825, -5.285120487213135, 2.100283622741699, 7.999140739440918, -2.4642233848571777, -1.3231520652770996, -2.518829822540283, 0.05712890625, -0.22802734375, -0.81982421875
330, 2718796492, -5.290144443511963, 2.0837180614471436, 8.035752296447754, -2.521698236465454, -1.253408670425415, -2.387551784515381, 0.0576171875, -0.22900390625, -0.8232421875
331, 2718813159, -5.286022663116455, 2.10481333732605, 8.004219055175781, -2.5000429153442383, -1.272618293762207, -2.4558608531951904, 0.05810546875, -0.2265625, -0.8193359375
332, 2718829826, -5.283771514892578, 2.1029727458953857, 8.03637981414795, -2.5398449897766113, -1.282056450843811, -2.411717176437378, 0.0576171875, -0.22607421875, -0.817626953125
333, 2718846493, -5.287102699279785, 2.107112169265747, 8.00947093963623, -2.6417579650878906, -1.2325727939605713, -2.4168272018432617, 0.05908203125, -0.22607421875, -0.817138671875
334, 2718863160, -5.305053234100342, 2.0867481231689453, 8.02586555480957, -2.4968926906585693, -1.3865947723388672, -2.403111696243286, 0.05712890625, -0.2265625, -0.817138671875
335, 2718879827, -5.293423175811768, 2.111290693283081, 8.023033142089844, -2.5674939155578613, -1.4210567474365234, -2.488760471343994, 0.056640625, -0.22607421875, -0.82080078125
336, 2718896494, -5.2934064865112305, 2.113222360610962, 8.016271591186523, -2.556365728378296, -1.4565304517745972, -2.5171267986297607, 0.0556640625, -0.22607421875, -0.82080078125
337, 2718913161, -5.279186248779297, 2.0918753147125244, 8.004753112792969, -2.530752658843994, -1.4030123949050903, -2.442593574523926, 0.05712890625, -0.22705078125, -0.822265625
338, 2718929828, -5.282976150512695, 2.109800100326538, 8.038633346557617, -2.542009115219116, -1.3565126657485962, -2.419503688812256, 0.05908203125, -0.22705078125, -0.819091796875
339, 2718946495, -5.281620025634766, 2.0958564281463623, 8.024271011352539, -2.5332114696502686, -1.3302340507507324, -2.4851107597351074, 0.05810546875, -0.225341796875, -0.817626953125
340, 2718963162, -5.283773899078369, 2.108097791671753, 7.9939494132995605, -2.656139612197876, -1.3898221254348755, -2.52880597114563, 0.0576171875, -0.2275390625, -0.818115234375
341, 2718979829, -5.291316986083984, 2.098372220993042, 8.009184837341309, -2.700244665145874, -1.5009428262710571, -2.577777862548828, 0.056640625, -0.224365234375, -0.82080078125
342, 2718996496, -5.28499698638916, 2.102552890777588, 8.028302192687988, -2.704803705215454, -1.4219533205032349, -2.5257840156555176, 0.05859375, -0.2265625, -0.822265625
343, 2719013163, -5.295122146606445, 2.1117544174194336, 8.027180671691895, -2.641092538833618, -1.396391749382019, -2.5525619983673096, 0.05712890625, -0.22607421875, -0.8203125
344, 2719029830, -5.2785444259643555, 2.106975555419922, 8.012903213500977, -2.6263649463653564, -1.2393218278884888, -2.4992616176605225, 0.05615234375, -0.22802734375, -0.817626953125
345, 2719046497, -5.292136192321777, 2.1030917167663574, 8.007242202758789, -2.5592854022979736, -1.3499557971954346, -2.5329809188842773, 0.05859375, -0.2265625, -0.81982421875
346, 2719063164, -5.28452205657959, 2.1155049800872803, 8.013453483581543, -2.595322608947754, -1.429483413696289, -2.5945539474487305, 0.05908203125, -0.22705078125, -0.820068359375
347, 2719079831, -5.29524564743042, 2.1011197566986084, 8.013053894042969, -2.6572024822235107, -1.293851375579834, -2.5440073013305664, 0.05615234375, -0.22705078125, -0.81787109375
348, 2719096498, -5.290620803833008, 2.104975461959839, 8.008099555969238, -2.511901617050171, -1.3196815252304077, -2.4225645065307617, 0.05859375, -0.22607421875, -0.8203125
349, 2719113165, -5.288130283355713, 2.0920448303222656, 8.018999099731445, -2.483830213546753, -1.2875375747680664, -2.4868011474609375, 0.0556640625, -0.2275390625, -0.8193359375
350, 2719129832, -5.287269592285156, 2.098712921142578, 8.009108543395996, -2.512490749359131, -1.2916098833084106, -2.4250359535217285, 0.056640625, -0.2265625, -0.81884765625
351, 2719146499, -5.304023265838623, 2.114043951034546, 8.021821975708008, -2.522594928741455, -1.3615199327468872, -2.499338388442993, 0.05810546875, -0.2255859375, -0.81884765625
352, 2719163166, -5.321408748626709, 2.0838115215301514, 8.020711898803711, -2.561411142349243, -1.4836413860321045, -2.4307992458343506, 0.0595703125, -0.2265625, -0.818115234375
353, 2719179833, -5.2741851806640625, 2.1396641731262207, 8.02122974395752, -2.5897390842437744, -1.4908643960952759, -2.401254892349243, 0.0576171875, -0.2275390625, -0.81982421875
354, 2719196500, -5.27733850479126, 2.116018295288086, 8.020013809204102, -2.5590293407440186, -1.3911796808242798, -2.532379627227783, 0.05908203125, -0.2265625, -0.8212890625
355, 2719213167, -5.286685466766357, 2.108228921890259, 8.014189720153809, -2.526501417160034, -1.2564823627471924, -2.5855000019073486, 0.0576171875, -0.22705078125, -0.82080078125
356, 2719229834, -5.288418769836426, 2.113128900527954, 8.016336441040039, -2.5613725185394287, -1.2704540491104126, -2.472496747970581, 0.05859375, -0.2265625, -0.816650390625
357, 2719246501, -5.300893783569336, 2.104114055633545, 8.032668113708496, -2.5996124744415283, -1.2739630937576294, -2.5213913917541504, 0.05712890625, -0.225830078125, -0.817138671875
358, 2719263168, -5.289876461029053, 2.094803810119629, 7.998415946960449, -2.532007932662964, -1.402999997138977, -2.488978385925293, 0.056640625, -0.2275390625, -0.818359375
359, 2719279835, -5.282984733581543, 2.103304386138916, 8.018532752990723, -2.5356574058532715, -1.3920375108718872, -2.47049880027771, 0.05908203125, -0.2265625, -0.82080078125
360, 2719296502, -5.282193660736084, 2.1152210235595703, 8.033388137817383, -2.422180414199829, -1.2062045335769653, -2.5326478481292725, 0.05908203125, -0.2265625, -0.819580078125
361, 2719313169, -5.288810729980469, 2.1095714569091797, 8.00790786743164, -2.4376375675201416, -1.1681183576583862, -2.4875693321228027, 0.05859375, -0.2275390625, -0.8203125
362, 2719329836, -5.2929277420043945, 2.100640296936035, 8.026646614074707, -2.454887628555298, -1.2321373224258423, -2.4388794898986816, 0.0576171875, -0.2265625, -0.817626953125
363, 2719346503, -5.294751167297363, 2.0855321884155273, 8.005766868591309, -2.4944465160369873, -1.2545357942581177, -2.4668490886688232, 0.056640625, -0.2265625, -0.816650390625
364, 2719363170, -5.296355724334717, 2.0977718830108643, 8.026256561279297, -2.523632287979126, -1.3715729713439941, -2.470550060272217, 0.05810546875, -0.22802734375, -0.819580078125
365, 2719379837, -5.28618860244751, 2.1149532794952393, 8.011795997619629, -2.504589080810547, -1.3349722623825073, -2.403418779373169, 0.05712890625, -0.2275390625, -0.8203125
366, 2719396504, -5.291963577270508, 2.1098105907440186, 8.017695426940918, -2.5251951217651367, -1.3677313327789307, -2.502002716064453, 0.05810546875, -0.2265625, -0.8193359375
367, 2719413171, -5.306518077850342, 2.0960607528686523, 8.006043434143066, -2.5763304233551025, -1.4362577199935913, -2.4936656951904297, 0.0576171875, -0.22705078125, -0.82080078125
368, 2719429838, -5.288867950439453, 2.1096627712249756, 8.014984130859375, -2.5638060569763184, -1.519460916519165, -2.453850746154785, 0.05810546875, -0.2275390625, -0.818603515625
369, 2719446505, -5.283967971801758, 2.0905137062072754, 7.998593807220459, -2.656421422958374, -1.5377098321914673, -2.488696813583374, 0.05859375, -0.22900390625, -0.816650390625
370, 2719463172, -5.298389434814453, 2.104705572128296, 8.033003807067871, -2.73095440864563, -1.5800732374191284, -2.524644136428833, 0.05712890625, -0.2275390625, -0.815673828125
371, 2719479839, -5.301534175872803, 2.102944850921631, 8.023694038391113, -2.6046838760375977, -1.5926234722137451, -2.3725173473358154, 0.05810546875, -0.2255859375, -0.8212890625
372, 2719496506, -5.295760631561279, 2.096444606781006, 8.019804954528809, -2.6359951496124268, -1.661841869354248, -2.3241734504699707, 0.05615234375, -0.2255859375, -0.8203125
373, 2719513173, -5.288486003875732, 2.10732364654541, 8.03218936920166, -2.6244823932647705, -1.7845267057418823, -2.3208565711975098, 0.05859375, -0.22802734375, -0.8203125
374, 2719529840, -5.327004909515381, 2.0845937728881836, 8.012014389038086, -2.6396067142486572, -1.903356909751892, -2.2757527828216553, 0.0576171875, -0.2265625, -0.817138671875
375, 2719546507, -5.297544002532959, 2.105929374694824, 7.9969892501831055, -2.8549065589904785, -2.003591775894165, -2.147688865661621, 0.05859375, -0.2255859375, -0.816650390625
376, 2719563174, -5.296626567840576, 2.1293325424194336, 8.03037166595459, -2.782832622528076, -2.15201735496521, -2.1189639568328857, 0.05810546875, -0.22802734375, -0.8203125
377, 2719579841, -5.31358528137207, 2.102389097213745, 8.026837348937988, -2.9799861907958984, -2.2851009368896484, -2.17803955078125, 0.056640625, -0.22705078125, -0.81982421875
378, 2719596508, -5.320476055145264, 2.0858941078186035, 8.038938522338867, -2.9614298343658447, -2.4245877265930176, -2.087947368621826, 0.05517578125, -0.22705078125, -0.81982421875
379, 2719613175, -5.2635650634765625, 2.092299461364746, 8.048075675964355, -3.024296522140503, -2.5541369915008545, -2.036222457885742, 0.05517578125, -0.2275390625, -0.816650390625
380, 2719629842, -5.25324821472168, 2.130317449569702, 8.036823272705078, -3.2097837924957275, -2.5899181365966797, -2.090636730194092, 0.053955078125, -0.225341796875, -0.81982421875
381, 2719646509, -5.2958149909973145, 2.1026275157928467, 8.05482006072998, -3.1684961318969727, -2.484905958175659, -2.151992082595825, 0.0556640625, -0.225830078125, -0.8173828125
382, 2719663176, -5.316415786743164, 2.0997109413146973, 8.036393165588379, -3.2001662254333496, -2.5627171993255615, -1.9496519565582275, 0.052490234375, -0.226318359375, -0.8173828125
383, 2719679843, -5.334203720092773, 2.0885448455810547, 8.047111511230469, -3.3863320350646973, -2.7405333518981934, -1.7795960903167725, 0.05419921875, -0.225830078125, -0.8212890625
384, 2719696510, -5.307529449462891, 2.0873265266418457, 8.026494026184082, -3.620483636856079, -3.2102577686309814, -1.7499366998672485, 0.05517578125, -0.2265625, -0.8203125
385, 2719713177, -5.284435272216797, 2.079314708709717, 8.040465354919434, -3.645634889602661, -3.387420654296875, -1.5562022924423218, 0.05615234375, -0.2265625, -0.8203125
386, 2719729844, -5.240652084350586, 2.077810525894165, 8.035639762878418, -3.473888635635376, -3.2070813179016113, -1.433068871498108, 0.052001953125, -0.225341796875, -0.81884765625
387, 2719746511, -5.234752178192139, 2.100687026977539, 8.042102813720703, -3.176269769668579, -2.8956313133239746, -1.4845123291015625, 0.052978515625, -0.225341796875, -0.81982421875
388, 2719763178, -5.217093467712402, 2.06508207321167, 8.041507720947266, -2.7225279808044434, -2.4842658042907715, -1.412604570388794, 0.052978515625, -0.224365234375, -0.818359375
389, 2719779845, -5.183785915374756, 2.1136724948883057, 8.053902626037598, -2.4758260250091553, -2.138596296310425, -1.3629029989242554, 0.0546875, -0.22607421875, -0.82080078125
390, 2719796512, -5.196067810058594, 2.0952048301696777, 8.01880168914795, -2.383312702178955, -2.008714199066162, -1.4477193355560303, 0.05322265625, -0.224365234375, -0.821533203125
391, 2719813179, -5.225887775421143, 2.0559659004211426, 8.020071983337402, -2.1476120948791504, -1.8275175094604492, -1.2856295108795166, 0.052490234375, -0.225341796875, -0.821044921875
392, 2719829846, -5.232235908508301, 2.0307300090789795, 8.056699752807617, -1.4533542394638062, -1.6068512201309204, -0.9179847836494446, 0.051025390625, -0.226318359375, -0.819580078125
393, 2719846513, -5.205493927001953, 2.0945260524749756, 8.039889335632324, -1.192796230316162, -1.4226701259613037, -0.6506905555725098, 0.052978515625, -0.225341796875, -0.8193359375
394, 2719863180, -5.2193922996521, 2.0944716930389404, 8.042524337768555, -1.0564727783203125, -1.2386943101882935, -0.7502471804618835, 0.052001953125, -0.2265625, -0.81982421875
395, 2719879847, -5.228909015655518, 2.12815260887146, 8.038647651672363, -0.6734987497329712, -0.9738333225250244, -0.5682305693626404, 0.052978515625, -0.22705078125, -0.818359375
396, 2719896514, -5.183140754699707, 2.1563034057617188, 8.038837432861328, -0.6199169158935547, -0.7687523365020752, -0.9669690728187561, 0.0546875, -0.22802734375, -0.822265625
397, 2719913181, -5.2083306312561035, 2.1377298831939697, 8.022327423095703, -0.7008915543556213, -0.7659605741500854, -0.9729881286621094, 0.052490234375, -0.2275390625, -0.82080078125
398, 2719929848, -5.240816116333008, 2.0998141765594482, 8.028820991516113, -0.6135905981063843, -0.869384765625, -1.0630037784576416, 0.053466796875, -0.22900390625, -0.81884765625
399, 2719946515, -5.231023788452148, 2.119227647781372, 8.006233215332031, 0.03270101547241211, -0.8534024357795715, -0.6182777881622314, 0.052001953125, -0.22998046875, -0.81640625
400, 2719963182, -5.211113452911377, 2.14231276512146, 8.01087474822998, 0.024594593793153763, -0.7949797511100769, -0.4789062440395355, 0.051025390625, -0.228515625, -0.8173828125
401, 2719979849, -5.234834671020508, 2.1248552799224854, 7.984838962554932, 0.3969520032405853, -0.7558563351631165, -0.13135471940040588, 0.052001953125, -0.22998046875, -0.8203125
402, 2719996516, -5.242956638336182, 2.140646457672119, 7.987568378448486, 0.7178918719291687, -0.9073938727378845, 0.22419434785842896, 0.05517578125, -0.22998046875, -0.822265625
403, 2720013183, -5.205598831176758, 2.1807191371917725, 7.970738887786865, 0.11779920756816864, -1.6343591213226318, 0.18633878231048584, 0.052978515625, -0.23291015625, -0.818359375
404, 2720029850, -5.307951927185059, 2.2383389472961426, 7.877422332763672, -1.3005744218826294, -3.4348933696746826, -0.23787793517112732, 0.052490234375, -0.2314453125, -0.818359375
405, 2720046517, -5.219211578369141, 2.39105224609375, 7.9529314041137695, -3.13016676902771, -4.9807868003845215, -0.6832699775695801, 0.051513671875, -0.232421875, -0.81689453125
406, 2720063184, -5.223604679107666, 2.3167877197265625, 8.026288986206055, -4.19627046585083, -5.276729106903076, -1.1616898775100708, 0.050537109375, -0.2333984375, -0.8193359375
407, 2720079851, -5.222550868988037, 2.250464677810669, 8.104059219360352, -4.557140827178955, -5.739320755004883, -1.2307801246643066, 0.047607421875, -0.232421875, -0.821533203125
408, 2720096518, -5.191523551940918, 2.28841233253479, 8.089333534240723, -4.600310325622559, -5.353861331939697, -1.387068510055542, 0.048095703125, -0.23193359375, -0.820556640625
409, 2720113185, -5.132902145385742, 2.121103525161743, 8.115240097045898, -4.156314849853516, -5.446747303009033, -1.5491974353790283, 0.047119140625, -0.232421875, -0.821044921875
410, 2720129852, -4.975440979003906, 2.037449836730957, 8.18079948425293, -3.3096728324890137, -4.388429164886475, -1.8088715076446533, 0.044677734375, -0.2314453125, -0.820068359375
411, 2720146519, -5.071765422821045, 1.933742880821228, 8.237377166748047, -1.800944209098816, -2.511030435562134, -1.5737082958221436, 0.04443359375, -0.22998046875, -0.819580078125
412, 2720163186, -5.0786824226379395, 2.03914213180542, 8.169904708862305, -0.28268733620643616, -0.7267731428146362, -1.234096646308899, 0.0439453125, -0.23193359375, -0.821044921875
413, 2720179853, -5.1898579597473145, 2.140101671218872, 8.130897521972656, 0.7309415936470032, 0.4549903869628906, -1.4333508014678955, 0.048095703125, -0.23291015625, -0.821044921875
414, 2720196520, -5.198965072631836, 2.255796432495117, 8.115792274475098, 0.8833115696907043, 0.84552001953125, -1.5012370347976685, 0.046142578125, -0.232421875, -0.820556640625
415, 2720213187, -5.200411319732666, 2.4586374759674072, 8.011746406555176, 0.42768722772598267, 0.8272965550422668, -1.6788740158081055, 0.046142578125, -0.23388671875, -0.821533203125
416, 2720229854, -5.130462169647217, 2.479008436203003, 8.012130737304688, -0.9469783306121826, 0.2859209477901459, -2.5047554969787598, 0.046630859375, -0.23583984375, -0.81982421875
417, 2720246521, -4.980027675628662, 2.4422285556793213, 7.94471549987793, -2.722655773162842, -0.10091405361890793, -3.915618658065796, 0.044677734375, -0.234375, -0.819091796875
418, 2720263188, -5.077469348907471, 2.1722919940948486, 8.024977684020996, -3.4729666709899902, 0.24976862967014313, -4.994053363800049, 0.046630859375, -0.2333984375, -0.819580078125
419, 2720279855, -5.068233013153076, 2.1947665214538574, 7.989079475402832, -2.9479196071624756, 0.48055189847946167, -5.21145486831665, 0.048095703125, -0.2333984375, -0.8193359375
420, 2720296522, -4.898444175720215, 2.390080213546753, 8.205399513244629, -3.421729326248169, 0.9156990051269531, -5.709046363830566, 0.047607421875, -0.23388671875, -0.821044921875
421, 2720313189, -5.3248209953308105, 2.128507137298584, 7.818822383880615, -3.9844400882720947, 1.00795578956604, -6.050411224365234, 0.048583984375, -0.23291015625, -0.822998046875
422, 2720329856, -5.274929046630859, 2.244995355606079, 7.9758524894714355, -3.2349867820739746, 0.22132578492164612, -6.030177116394043, 0.051513671875, -0.23193359375, -0.822265625
423, 2720346523, -5.165102481842041, 2.2587265968322754, 7.99543571472168, -3.4413490295410156, -0.7498376369476318, -6.109245300292969, 0.050537109375, -0.23095703125, -0.81982421875
424, 2720363190, -5.163225173950195, 2.1752421855926514, 8.018479347229004, -3.0571582317352295, -0.8234485387802124, -6.199312210083008, 0.052490234375, -0.2314453125, -0.82080078125
425, 2720379857, -5.184316635131836, 2.1640942096710205, 8.016563415527344, -1.9150744676589966, -0.17817476391792297, -5.65971565246582, 0.052001953125, -0.2314453125, -0.822265625
426, 2720396524, -5.010683536529541, 2.2464637756347656, 8.083551406860352, -0.8577693700790405, 1.1918549537658691, -5.933310031890869, 0.05078125, -0.23095703125, -0.826904296875
427, 2720413191, -5.125854969024658, 2.0123231410980225, 8.198487281799316, 1.0824376344680786, 3.851619243621826, -6.400601387023926, 0.051513671875, -0.2333984375, -0.81884765625
428, 2720429858, -4.976410388946533, 2.1484789848327637, 8.16879940032959, 3.0510048866271973, 7.58027982711792, -5.769057750701904, 0.0556640625, -0.2333984375, -0.818603515625
429, 2720446525, -5.049065113067627, 2.0396971702575684, 8.243881225585938, 5.211157321929932, 13.256112098693848, -6.452432632446289, 0.05810546875, -0.235595703125, -0.816162109375
430, 2720463192, -5.214691638946533, 2.0661511421203613, 8.14549732208252, 7.298561096191406, 18.39197540283203, -6.447250843048096, 0.063720703125, -0.237548828125, -0.813232421875
431, 2720479859, -5.21243143081665, 2.381456136703491, 8.006815910339355, 9.7632474899292, 24.87342071533203, -7.069162368774414, 0.069580078125, -0.239013671875, -0.816650390625
432, 2720496526, -5.265956401824951, 2.400880813598633, 8.018096923828125, 11.190322875976562, 33.341976165771484, -9.140227317810059, 0.0771484375, -0.2431640625, -0.81591796875
433, 2720513193, -5.044196605682373, 2.7257838249206543, 8.493339538574219, 11.366975784301758, 40.709266662597656, -14.2610445022583, 0.086669921875, -0.2451171875, -0.8125
434, 2720529860, -4.982444763183594, 2.484612226486206, 8.636595726013184, 9.832162857055664, 51.75043487548828, -17.656536102294922, 0.099853515625, -0.246826171875, -0.80712890625
435, 2720546527, -5.1077728271484375, 2.270704984664917, 8.677546501159668, 16.561017990112305, 70.310791015625, -19.511817932128906, 0.116943359375, -0.25146484375, -0.80078125
436, 2720563194, -5.308962345123291, 2.1378490924835205, 8.368867874145508, 23.92064094543457, 92.32161712646484, -21.301837921142578, 0.137939453125, -0.25439453125, -0.795166015625
437, 2720579861, -5.652099132537842, 2.2174060344696045, 8.040560722351074, 33.13774871826172, 117.00410461425781, -24.757978439331055, 0.16552734375, -0.26025390625, -0.78662109375
438, 2720596528, -5.695968151092529, 2.657585382461548, 8.348814964294434, 35.261993408203125, 143.16221618652344, -28.967844009399414, 0.197021484375, -0.267333984375, -0.77685546875
439, 2720613195, -5.72605562210083, 2.671387195587158, 7.903471946716309, 32.01381301879883, 170.49220275878906, -38.04752731323242, 0.236572265625, -0.2724609375, -0.761474609375
440, 2720629862, -6.071805477142334, 2.8141679763793945, 7.588724136352539, 32.58546829223633, 205.35450744628906, -52.768917083740234, 0.2841796875, -0.273681640625, -0.73779296875
441, 2720646529, -6.510132789611816, 2.965210437774658, 7.657833099365234, 22.89067840576172, 241.60745239257812, -72.1942138671875, 0.337646484375, -0.27001953125, -0.71142578125
442, 2720663196, -7.683564186096191, 3.9310531616210938, 8.302396774291992, 8.220813751220703, 281.7390441894531, -97.00243377685547, 0.39794921875, -0.261474609375, -0.673828125
443, 2720679863, -8.89290714263916, 4.394566535949707, 8.270286560058594, 4.090029239654541, 309.6327209472656, -118.02218627929688, 0.46435546875, -0.24560546875, -0.6298828125
444, 2720696530, -12.394670486450195, 6.224062442779541, 10.353397369384766, -2.7098000049591064, 334.1974182128906, -145.75877380371094, 0.533203125, -0.223388671875, -0.57568359375
445, 2720713197, -14.98373031616211, 5.745396137237549, 11.182400703430176, 1.9502692222595215, 337.2795715332031, -147.3394317626953, 0.595703125, -0.19775390625, -0.512451171875
446, 2720729864, -16.859617233276367, 5.571152210235596, 12.379999160766602, 2.737119197845459, 327.5367126464844, -150.52093505859375, 0.649169921875, -0.16796875, -0.43994140625
447, 2720746531, -14.992303848266602, 6.0342020988464355, 12.55156135559082, 3.6236562728881836, 295.76824951171875, -141.7374267578125, 0.694091796875, -0.138671875, -0.369140625
448, 2720763198, -9.413970947265625, 6.700986385345459, 11.907865524291992, -17.563365936279297, 255.95797729492188, -148.26931762695312, 0.726806640625, -0.10595703125, -0.302490234375
449, 2720779865, 2.078814744949341, 6.126747131347656, 8.910619735717773, -68.43064880371094, 220.74459838867188, -171.1152801513672, 0.753662109375, -0.064697265625, -0.2431640625
450, 2720796532, -17.22866439819336, 8.245917320251465, 20.431562423706055, -47.54937744140625, 191.62423706054688, -126.16564178466797, 0.767578125, -0.026611328125, -0.18408203125
451, 2720813199, -15.586403846740723, 9.48869800567627, 23.850675582885742, -3.919377326965332, -61.607994079589844, -19.503076553344727, 0.775390625, -0.01513671875, -0.177490234375
452, 2720829866, -3.8620550632476807, 7.891695976257324, 14.544549942016602, -14.120328903198242, -198.7823944091797, 40.37191390991211, 0.767822265625, -0.0244140625, -0.205322265625
453, 2720846533, 0.8811020851135254, 4.997150897979736, 8.532121658325195, -36.61330795288086, -226.93968200683594, 55.21004867553711, 0.76025390625, -0.0341796875, -0.25
454, 2720863200, 1.815630555152893, 3.3135581016540527, 5.7470574378967285, -46.90565490722656, -212.8781280517578, 60.94179153442383, 0.752197265625, -0.04443359375, -0.295654296875
455, 2720879867, 0.027386680245399475, 2.582651376724243, 5.558213710784912, -44.28767776489258, -194.4977264404297, 72.61869812011719, 0.74267578125, -0.05517578125, -0.340576171875
456, 2720896534, -2.702077865600586, 2.864710569381714, 6.643006801605225, -41.16828536987305, -195.8021697998047, 85.1923828125, 0.732177734375, -0.072509765625, -0.391845703125
457, 2720913201, -5.602437496185303, 3.0929102897644043, 8.24122428894043, -39.71931457519531, -220.183837890625, 98.30667877197266, 0.708740234375, -0.0927734375, -0.447265625
458, 2720929868, -7.102147579193115, 3.0705509185791016, 8.731230735778809, -38.1675910949707, -257.8599853515625, 112.96359252929688, 0.667724609375, -0.11279296875, -0.510498046875
459, 2720946535, -7.508724689483643, 2.829064130783081, 8.370594024658203, -36.730224609375, -288.773681640625, 125.17205810546875, 0.61181640625, -0.12939453125, -0.572021484375
460, 2720963202, -7.7544732093811035, 2.4740352630615234, 7.749765872955322, -35.710628509521484, -305.343994140625, 129.7300262451172, 0.546875, -0.140869140625, -0.62939453125
461, 2720979869, -7.701147079467773, 1.5114123821258545, 7.309694766998291, -28.636943817138672, -304.8222351074219, 124.64413452148438, 0.481689453125, -0.14990234375, -0.67822265625
462, 2720996536, -7.985095977783203, 0.47000548243522644, 6.950405120849609, -9.797453880310059, -285.4866027832031, 110.08574676513672, 0.414794921875, -0.15966796875, -0.711181640625
463, 2721013203, -9.693893432617188, 0.6855243444442749, 7.980569839477539, 14.990432739257812, -250.1027374267578, 87.27694702148438, 0.357666015625, -0.166748046875, -0.72900390625
464, 2721029870, -14.371620178222656, 2.08354115486145, 10.578268051147461, 33.52360534667969, -227.206298828125, 68.93043518066406, 0.31640625, -0.176513671875, -0.72998046875
465, 2721046537, -19.41131019592285, 2.4288277626037598, 11.53429889678955, 50.29020309448242, -223.34844970703125, 63.009002685546875, 0.29443359375, -0.1875, -0.73046875
466, 2721063204, -24.917705535888672, 3.280770778656006, 9.772586822509766, 58.6541748046875, -231.4701690673828, 67.71710205078125, 0.2822265625, -0.210693359375, -0.75634765625
467, 2721079871, -27.48089599609375, 4.456035137176514, 5.255184173583984, 33.81638717651367, -239.76895141601562, 59.49614715576172, 0.254638671875, -0.23876953125, -0.809814453125
468, 2721096538, -27.360631942749023, 2.2502665519714355, -0.5409457683563232, 13.969255447387695, -229.98675537109375, 46.551998138427734, 0.197998046875, -0.263427734375, -0.867919921875
469, 2721113205, -27.494625091552734, -1.9307914972305298, -5.1606340408325195, 49.21689224243164, -199.1068115234375, 65.44630432128906, 0.12255859375, -0.297119140625, -0.903564453125
470, 2721129872, -26.82016944885254, -6.116518497467041, -8.948675155639648, 89.26622772216797, -162.4486083984375, 86.90491485595703, 0.04931640625, -0.33837890625, -0.912353515625
471, 2721146539, -23.732749938964844, -9.202787399291992, -10.762125015258789, 83.80531311035156, -112.66185760498047, 68.31958770751953, -0.00927734375, -0.3701171875, -0.905029296875
472, 2721163206, -18.626083374023438, -8.167608261108398, -13.42944049835205, 7.011473178863525, -6.485034942626953, -23.980010986328125, -0.032958984375, -0.384033203125, -0.905517578125
473, 2721179873, -19.20954704284668, -8.004460334777832, -11.692917823791504, -32.121726989746094, 95.60281372070312, -128.43128967285156, -0.009765625, -0.379638671875, -0.916015625
474, 2721196540, -7.832529067993164, 6.471073150634766, 12.419439315795898, -46.984642028808594, 116.40109252929688, -135.8177490234375, 0.037109375, -0.3720703125, -0.930908203125
475, 2721213207, -0.7194965481758118, 12.729187965393066, 7.816006660461426, -39.03282928466797, 98.51166534423828, -78.89656829833984, 0.06787109375, -0.365966796875, -0.942626953125
476, 2721229874, -7.31134033203125, 1.3613612651824951, 7.611818313598633, -65.75243377685547, 146.6830596923828, -65.07939910888672, 0.109130859375, -0.353759765625, -0.951171875
477, 2721246541, -17.33125114440918, -5.087669849395752, 15.135483741760254, -49.88499069213867, 102.93130493164062, -54.423004150390625, 0.140869140625, -0.34130859375, -0.9609375
478, 2721263208, -10.866510391235352, 2.52437686920166, 12.860511779785156, -24.099971771240234, 55.88304901123047, -52.41926193237305, 0.166748046875, -0.336669921875, -0.96630859375
479, 2721279875, -10.501740455627441, 4.606753349304199, 7.8542866706848145, -39.365901947021484, 10.847517967224121, -23.62877082824707, 0.175048828125, -0.32373046875, -0.96826171875
480, 2721296542, -6.501783847808838, 0.8649433255195618, 9.732135772705078, -14.403460502624512, 0.04968229681253433, -13.238978385925293, 0.17626953125, -0.320556640625, -0.975341796875
481, 2721313209, -6.246507167816162, 2.348489761352539, 8.503323554992676, -8.872447967529297, 0.8821465373039246, -5.972768783569336, 0.17578125, -0.316650390625, -0.976806640625
482, 2721329876, -6.010281562805176, 2.360440492630005, 8.117329597473145, -4.61913537979126, -0.5299908518791199, -4.6648030281066895, 0.17724609375, -0.318115234375, -0.974853515625
483, 2721346543, -5.649660110473633, 1.8779230117797852, 8.149672508239746, -3.132561445236206, -0.4987048804759979, -4.338817596435547, 0.1767578125, -0.316162109375, -0.976318359375
484, 2721363210, -5.3494343757629395, 2.08148193359375, 8.139791488647461, -1.6300048828125, 0.9650415778160095, -3.6425869464874268, 0.1787109375, -0.319580078125, -0.974365234375
485, 2721379877, -5.336775302886963, 1.983510136604309, 8.167574882507324, 2.0266497135162354, 3.6259450912475586, -2.703932762145996, 0.18017578125, -0.318115234375, -0.976806640625
486, 2721396544, -5.513318061828613, 2.175344467163086, 7.982412815093994, 4.723180294036865, 5.706952095031738, -3.090646505355835, 0.182373046875, -0.3203125, -0.9765625
487, 2721413211, -5.554423809051514, 2.2678494453430176, 7.985172748565674, 4.663964748382568, 4.972341060638428, -3.495429754257202, 0.182861328125, -0.3232421875, -0.979248046875
488, 2721429878, -5.388056755065918, 2.431697368621826, 7.93529748916626, 2.2779617309570312, 4.799109935760498, -4.656684398651123, 0.185791015625, -0.3251953125, -0.9755859375
489, 2721446545, -5.330830097198486, 2.3883438110351562, 7.950211048126221, 1.0071748495101929, 4.520470142364502, -5.319055080413818, 0.186767578125, -0.32568359375, -0.973876953125
490, 2721463212, -5.345574855804443, 2.352367877960205, 7.879863739013672, 0.40782463550567627, 4.208211421966553, -5.804094314575195, 0.188232421875, -0.328125, -0.973388671875
491, 2721479879, -5.414176940917969, 2.26729416847229, 7.8714141845703125, 0.24980707466602325, 3.479440450668335, -5.66640043258667, 0.19140625, -0.327392578125, -0.97314453125
492, 2721496546, -5.418621063232422, 2.3446550369262695, 7.854253768920898, -0.19835758209228516, 2.4680335521698, -5.775997638702393, 0.1923828125, -0.327880859375, -0.974853515625
493, 2721513213, -5.392488479614258, 2.407268762588501, 7.856927394866943, -0.8434776663780212, 1.2437210083007812, -6.890625, 0.193359375, -0.329345703125, -0.974609375
494, 2721529880, -5.4616169929504395, 2.2145884037017822, 7.9109954833984375, -0.5620195269584656, 0.5802621841430664, -7.211895942687988, 0.19482421875, -0.328857421875, -0.97412109375
495, 2721546547, -5.3896484375, 2.0573761463165283, 7.880921363830566, 0.41475287079811096, 1.172594428062439, -7.048089981079102, 0.1943359375, -0.329833984375, -0.9716796875
496, 2721563214, -5.345077037811279, 2.225139856338501, 7.885673999786377, 1.1355458498001099, 2.2045819759368896, -8.263338088989258, 0.19482421875, -0.329833984375, -0.970458984375
497, 2721579881, -5.375967979431152, 2.3229620456695557, 7.925126552581787, 0.9500200748443604, 4.08889627456665, -9.77056884765625, 0.19775390625, -0.331298828125, -0.971435546875
498, 2721596548, -5.398021221160889, 2.6245129108428955, 7.837054252624512, 1.1302059888839722, 5.923766613006592, -11.817618370056152, 0.199951171875, -0.333740234375, -0.972412109375
499, 2721613215, -5.247941970825195, 2.560993194580078, 7.899138450622559, 1.8693773746490479, 9.886930465698242, -15.711989402770996, 0.204345703125, -0.330810546875, -0.97119140625
500, 2721629882, -5.094322681427002, 2.602375030517578, 8.267998695373535, 5.961083889007568, 17.969938278198242, -21.216646194458008, 0.20751953125, -0.333984375, -0.96923828125
501, 2721646549, -4.719085216522217, 2.1365342140197754, 8.856927871704102, 2.792253255844116, 32.15414047241211, -21.425594329833984, 0.218505859375, -0.333984375, -0.96630859375
502, 2721663216, -4.472238063812256, 2.032471179962158, 9.108038902282715, 8.782533645629883, 59.062252044677734, -22.007997512817383, 0.232421875, -0.33447265625, -0.960205078125
503, 2721679883, -4.796860218048096, 1.5509908199310303, 9.295401573181152, 20.589223861694336, 93.79777526855469, -22.89042091369629, 0.256591796875, -0.338134765625, -0.951904296875
504, 2721696550, -5.157585620880127, 2.1056244373321533, 9.282450675964355, 29.69468879699707, 133.3098907470703, -25.677364349365234, 0.29150390625, -0.3427734375, -0.940185546875
505, 2721713217, -5.146159648895264, 3.0365421772003174, 9.02417278289795, 31.454586029052734, 174.4832763671875, -38.137786865234375, 0.333740234375, -0.349609375, -0.91845703125
506, 2721729884, -5.278261184692383, 3.6507668495178223, 8.709054946899414, 38.76830291748047, 227.2636260986328, -60.38848876953125, 0.3896484375, -0.354736328125, -0.888427734375
507, 2721746551, -5.7412214279174805, 4.533853054046631, 9.102001190185547, 29.74224281311035, 288.90423583984375, -98.15779113769531, 0.45947265625, -0.348876953125, -0.846435546875
508, 2721763218, -7.011471748352051, 5.207810878753662, 10.335959434509277, 20.85410499572754, 360.63311767578125, -149.02528381347656, 0.54541015625, -0.333251953125, -0.787841796875
509, 2721779885, -8.133865356445312, 5.183533191680908, 10.613670349121094, 13.60143756866455, 417.4189147949219, -191.88124084472656, 0.640869140625, -0.30126953125, -0.71142578125
510, 2721796552, -17.58443832397461, 6.8300957679748535, 14.253023147583008, 36.26422882080078, 444.6341857910156, -195.93638610839844, 0.733154296875, -0.262451171875, -0.61083984375
511, 2721813219, -22.04913902282715, 6.891236305236816, 16.855182647705078, 38.96116256713867, 395.38653564453125, -172.2653045654297, 0.79736328125, -0.22314453125, -0.505126953125
512, 2721829886, -17.443920135498047, 9.410811424255371, 17.974403381347656, 30.150541305541992, 317.43408203125, -163.5719757080078, 0.83349609375, -0.18017578125, -0.41015625
513, 2721846553, -5.231787204742432, 8.363329887390137, 17.39148712158203, 1.665640115737915, 263.32177734375, -191.5963592529297, 0.85498046875, -0.125732421875, -0.32958984375
514, 2721863220, -4.361289024353027, 13.59930419921875, 20.62659454345703, -44.1366081237793, 225.32867431640625, -189.47830200195312, 0.87255859375, -0.067138671875, -0.26220703125
515, 2721879887, -16.743732452392578, 14.66301155090332, 31.714645385742188, -0.020234357565641403, -48.21307373046875, -47.59913635253906, 0.870849609375, -0.04052734375, -0.246826171875
516, 2721896554, 1.3692164421081543, 11.911258697509766, 17.221946716308594, -2.2002649307250977, -213.49403381347656, 38.16898727416992, 0.854736328125, -0.048095703125, -0.29541015625
517, 2721913221, 6.249727249145508, 7.271766662597656, 9.399144172668457, -23.489595413208008, -223.11376953125, 63.61164855957031, 0.83447265625, -0.06640625, -0.354248046875
518, 2721929888, 5.422431945800781, 4.176471710205078, 6.445592403411865, -24.68329429626465, -193.87875366210938, 83.13983917236328, 0.806396484375, -0.09130859375, -0.4189453125
519, 2721946555, 1.7841179370880127, 3.205233573913574, 6.7464375495910645, -13.405516624450684, -175.03717041015625, 110.44619750976562, 0.761962890625, -0.124755859375, -0.470458984375
520, 2721963222, -2.453594207763672, 4.254973888397217, 8.069402694702148, -20.862937927246094, -180.55429077148438, 131.2655792236328, 0.713623046875, -0.159912109375, -0.513427734375
521, 2721979889, -6.225387096405029, 4.667483329772949, 9.402087211608887, -49.57525634765625, -211.15975952148438, 141.88156127929688, 0.65087890625, -0.182373046875, -0.55126953125
522, 2721996556, -8.972840309143066, 3.8963358402252197, 9.906061172485352, -72.13900756835938, -257.3529357910156, 152.8162384033203, 0.58349609375, -0.2021484375, -0.589599609375
523, 2722013223, -9.808669090270996, 2.9244699478149414, 9.385879516601562, -75.10436248779297, -297.6395263671875, 165.77960205078125, 0.506591796875, -0.2138671875, -0.62646484375
524, 2722029890, -9.820223808288574, 2.7081298828125, 8.25202751159668, -66.3312759399414, -317.3580627441406, 172.46975708007812, 0.433349609375, -0.2265625, -0.654052734375
525, 2722046557, -9.796934127807617, 3.0066874027252197, 6.453592300415039, -58.04435348510742, -310.21282958984375, 167.4698944091797, 0.36572265625, -0.228759765625, -0.677734375
526, 2722063224, -11.285419464111328, 2.067655324935913, 5.476804733276367, -48.841827392578125, -260.60028076171875, 150.0060577392578, 0.30712890625, -0.239501953125, -0.68701171875
527, 2722079891, -20.56688690185547, 1.1615263223648071, 9.101987838745117, -15.360596656799316, -220.7650604248047, 132.96067810058594, 0.27001953125, -0.251220703125, -0.699951171875
528, 2722096558, -30.015968322753906, 2.464824914932251, 11.707581520080566, 26.150836944580078, -255.63690185546875, 117.88627624511719, 0.230224609375, -0.272216796875, -0.716064453125
529, 2722113225, -34.21950149536133, 5.264927864074707, 7.275045394897461, 27.081880569458008, -314.8704528808594, 88.84578704833984, 0.168212890625, -0.295654296875, -0.74755859375
530, 2722129892, -34.28338623046875, 5.4267988204956055, -2.095917224884033, 9.959680557250977, -340.6912841796875, 57.941436767578125, 0.083984375, -0.3095703125, -0.771240234375
531, 2722146559, -29.9683837890625, 1.400612473487854, -11.567785263061523, 33.24761962890625, -310.0746765136719, 47.78175354003906, -0.00732421875, -0.32373046875, -0.77734375
532, 2722163226, -26.10519027709961, -4.9688873291015625, -15.553095817565918, 103.6139907836914, -215.55615234375, 54.73719787597656, -0.076904296875, -0.3447265625, -0.76513671875
533, 2722179893, -23.09334373474121, -6.865501403808594, -15.55061149597168, 120.94027709960938, -86.67985534667969, 36.47813034057617, -0.119140625, -0.374755859375, -0.744140625
534, 2722196560, -24.677457809448242, -8.289079666137695, -14.011604309082031, 1.7947218418121338, 38.926971435546875, -42.7436408996582, -0.11962890625, -0.3857421875, -0.741943359375
535, 2722213227, -20.247661590576172, -11.730955123901367, -9.167308807373047, -97.02735137939453, 110.34041595458984, -118.58557891845703, -0.093994140625, -0.367919921875, -0.751953125
536, 2722229894, -8.084512710571289, -0.39815443754196167, 21.531883239746094, -94.39392852783203, 106.8687973022461, -120.2699203491211, -0.060302734375, -0.3447265625, -0.762451171875
537, 2722246561, -1.060777187347412, 2.8774561882019043, 7.104598045349121, -51.21946334838867, 79.50226593017578, -107.89254760742188, -0.03564453125, -0.33447265625, -0.766845703125
538, 2722263228, -10.744990348815918, 2.52600359916687, 10.486637115478516, -29.577369689941406, 132.98309326171875, -55.63417434692383, -0.00732421875, -0.328125, -0.767578125
539, 2722279895, -11.663863182067871, -0.42371267080307007, 11.1901216506958, -21.77559471130371, 103.09609985351562, -32.375553131103516, 0.01708984375, -0.3212890625, -0.765625
540, 2722296562, -13.608206748962402, 4.569516658782959, 15.563905715942383, -19.676738739013672, 81.00823211669922, -37.1235466003418, 0.037841796875, -0.31982421875, -0.77099609375
541, 2722313229, -7.915120601654053, 2.0911526679992676, 6.450037002563477, -9.397173881530762, 17.73992919921875, -9.991466522216797, 0.04443359375, -0.31591796875, -0.768310546875
542, 2722329896, -6.692375183105469, 3.843109369277954, 8.72031307220459, -5.457005977630615, 8.038326263427734, -8.280884742736816, 0.048828125, -0.31494140625, -0.769775390625
543, 2722346563, -6.4401750564575195, 1.60086989402771, 8.460982322692871, -3.894770383834839, 3.378232002258301, -6.691190242767334, 0.04931640625, -0.31298828125, -0.769775390625
544, 2722363230, -5.608721733093262, 1.9116425514221191, 8.36898422241211, -0.7390159964561462, 1.2528517246246338, -4.897110462188721, 0.05126953125, -0.3125, -0.76708984375
545, 2722379897, -5.2604546546936035, 1.8615294694900513, 8.401700019836426, 3.560056686401367, 2.275874137878418, -4.13565731048584, 0.0517578125, -0.31396484375, -0.7685546875
546, 2722396564, -5.57957649230957, 1.7901345491409302, 8.3514404296875, 7.724967002868652, 6.797006130218506, -2.937624454498291, 0.052978515625, -0.3134765625, -0.7685546875
547, 2722413231, -5.432145118713379, 2.2273683547973633, 8.13201904296875, 10.131296157836914, 10.930002212524414, -1.277626395225525, 0.054443359375, -0.31640625, -0.767822265625
548, 2722429898, -5.520328998565674, 2.604367256164551, 7.945442199707031, 9.419852256774902, 11.516035079956055, -1.5431022644042969, 0.059326171875, -0.320556640625, -0.76513671875
549, 2722446565, -5.327423572540283, 2.87037992477417, 7.821038246154785, 5.918464660644531, 9.541024208068848, -2.9870057106018066, 0.059814453125, -0.322509765625, -0.763671875
550, 2722463232, -5.296300888061523, 2.6570684909820557, 7.877862453460693, 4.447409629821777, 8.120259284973145, -3.8521645069122314, 0.062255859375, -0.324951171875, -0.760986328125
551, 2722479899, -5.385207176208496, 2.442535638809204, 7.901811122894287, 3.0638623237609863, 6.726710319519043, -4.204338550567627, 0.06494140625, -0.326171875, -0.761474609375
552, 2722496566, -5.415904998779297, 2.6432065963745117, 7.840051174163818, 0.19636619091033936, 5.436328411102295, -5.945041656494141, 0.064453125, -0.3271484375, -0.763427734375
553, 2722513233, -5.5292510986328125, 2.4440011978149414, 7.816627502441406, -0.6729738116264343, 3.691910982131958, -6.558401584625244, 0.06884765625, -0.326171875, -0.76171875
554, 2722529900, -5.368081569671631, 2.546273708343506, 7.76652717590332, -1.2181272506713867, 1.90182626247406, -6.375770092010498, 0.06884765625, -0.328125, -0.759765625
555, 2722546567, -5.267322063446045, 2.7008655071258545, 7.779323101043701, -3.366572380065918, -0.3125774562358856, -8.233895301818848, 0.0673828125, -0.32958984375, -0.75927734375
556, 2722563234, -5.386076927185059, 2.5403459072113037, 7.743496894836426, -4.537137985229492, -0.9771120548248291, -10.239192962646484, 0.0712890625, -0.3251953125, -0.76025390625
557, 2722579901, -5.310319900512695, 2.412733793258667, 7.837949752807617, -3.8142316341400146, -0.5797949433326721, -10.256853103637695, 0.072021484375, -0.326171875, -0.759765625
558, 2722596568, -5.303321838378906, 2.3832011222839355, 7.9264235496521, -1.682959794998169, 1.4141608476638794, -10.915162086486816, 0.0712890625, -0.326171875, -0.76025390625
559, 2722613235, -5.325416088104248, 2.4060304164886475, 7.990560054779053, -0.6529449224472046, 4.672379970550537, -12.978602409362793, 0.073974609375, -0.32568359375, -0.76123046875
560, 2722629902, -5.319390296936035, 2.461488962173462, 7.90287971496582, 1.4304516315460205, 8.949092864990234, -15.876523971557617, 0.076904296875, -0.3251953125, -0.760498046875
561, 2722646569, -5.193568706512451, 2.6665165424346924, 8.063288688659668, 5.703031539916992, 14.036014556884766, -20.12360954284668, 0.080810546875, -0.3271484375, -0.7568359375
562, 2722663236, -4.8665947914123535, 2.079464912414551, 8.45878791809082, 1.387258529663086, 24.41335105895996, -17.29530906677246, 0.08837890625, -0.3291015625, -0.756591796875
563, 2722679903, -4.614869594573975, 2.2692768573760986, 8.854305267333984, 4.236137866973877, 44.61068344116211, -16.63811683654785, 0.098876953125, -0.3271484375, -0.753173828125
564, 2722696570, -4.787809371948242, 2.191692352294922, 8.840677261352539, 10.037842750549316, 70.50979614257812, -19.702295303344727, 0.113525390625, -0.328857421875, -0.750244140625
565, 2722713237, -4.997250080108643, 2.023897886276245, 8.978900909423828, 19.17632293701172, 100.79883575439453, -21.822200775146484, 0.135009765625, -0.33447265625, -0.743896484375
566, 2722729904, -5.150520324707031, 2.5773890018463135, 9.182783126831055, 26.30936622619629, 139.32879638671875, -29.212480545043945, 0.1630859375, -0.336181640625, -0.73291015625
567, 2722746571, -4.700565338134766, 4.012007713317871, 9.409417152404785, 33.01453399658203, 187.17855834960938, -49.32173156738281, 0.20361328125, -0.3427734375, -0.716552734375
568, 2722763238, -4.985787868499756, 4.691227912902832, 9.46312427520752, 36.80514907836914, 251.76181030273438, -82.01026153564453, 0.25439453125, -0.344482421875, -0.694091796875
569, 2722779905, -5.548145771026611, 4.056004047393799, 9.603239059448242, 24.42024803161621, 330.2334899902344, -126.39317321777344, 0.32373046875, -0.33984375, -0.6611328125
570, 2722796572, -7.4336442947387695, 4.9364848136901855, 11.765893936157227, 16.292587280273438, 413.8631896972656, -171.8396759033203, 0.41064453125, -0.322998046875, -0.61083984375
571, 2722813239, -9.49466323852539, 6.122981548309326, 12.946187973022461, 16.34897804260254, 481.5076904296875, -207.9744110107422, 0.505859375, -0.295654296875, -0.53955078125
572, 2722829906, -22.598661422729492, 7.533810615539551, 17.000219345092773, 30.848655700683594, 481.99688720703125, -192.3094024658203, 0.59130859375, -0.265625, -0.450439453125
573, 2722846573, -22.665037155151367, 8.110737800598145, 18.310611724853516, 20.523500442504883, 408.64788818359375, -169.4809112548828, 0.654052734375, -0.232421875, -0.35791015625
574, 2722863240, -11.839390754699707, 8.336669921875, 17.611608505249023, 7.9189453125, 327.25128173828125, -159.98802185058594, 0.693359375, -0.197509765625, -0.27734375
575, 2722879907, 7.302434921264648, 9.132019996643066, 11.352684020996094, -42.420833587646484, 303.8845520019531, -190.25103759765625, 0.722900390625, -0.151123046875, -0.202392578125
576, 2722896574, -19.80965805053711, 16.328920364379883, 24.60198974609375, -82.69747924804688, 263.2123107910156, -102.39954376220703, 0.737060546875, -0.110107421875, -0.129150390625
577, 2722913241, -15.749924659729004, 13.310970306396484, 26.84098243713379, -93.95696258544922, -39.17633056640625, 32.40580368041992, 0.7314453125, -0.099365234375, -0.1064453125
578, 2722929908, -2.384436845779419, 6.6941070556640625, 15.725090980529785, -105.55308532714844, -199.1020050048828, 99.57485961914062, 0.718505859375, -0.102783203125, -0.117919921875
579, 2722946575, 1.8565514087677002, 2.2946701049804688, 8.81476879119873, -104.84647369384766, -237.0403594970703, 105.52301788330078, 0.718994140625, -0.100341796875, -0.131591796875
580, 2722963242, 2.0928916931152344, -0.5073145031929016, 5.870635509490967, -84.4712905883789, -235.46495056152344, 99.34898376464844, 0.73681640625, -0.092529296875, -0.150146484375
581, 2722979909, -1.088125467300415, -1.050944447517395, 6.524425506591797, -47.225738525390625, -233.53067016601562, 93.07870483398438, 0.781005859375, -0.093017578125, -0.184326171875
582, 2722996576, -4.647159576416016, 0.6777870655059814, 7.652751445770264, -28.45319175720215, -260.6177062988281, 83.94758605957031, 0.82958984375, -0.094970703125, -0.26416015625
583, 2723013243, -5.901031017303467, 1.537487268447876, 7.848715782165527, -29.900075912475586, -303.4327392578125, 73.16460418701172, 0.845458984375, -0.103515625, -0.395751953125
584, 2723029910, -5.82344388961792, 1.575438141822815, 7.075610637664795, -28.69118309020996, -331.4069519042969, 69.11895751953125, 0.802978515625, -0.112060546875, -0.544677734375
585, 2723046577, -6.19478178024292, 1.8653970956802368, 6.340210914611816, -19.092866897583008, -337.10211181640625, 72.2754898071289, 0.709228515625, -0.12109375, -0.66552734375
586, 2723063244, -6.992514610290527, 2.2368781566619873, 6.260775089263916, -7.081413745880127, -329.6418151855469, 75.99834442138672, 0.6015625, -0.12255859375, -0.746826171875
587, 2723079911, -8.646278381347656, 2.210726261138916, 6.6778974533081055, 9.178704261779785, -312.9591064453125, 73.2789535522461, 0.50341796875, -0.126220703125, -0.802734375
588, 2723096578, -10.9675874710083, 2.956859588623047, 7.803277015686035, 30.637165069580078, -287.2364501953125, 67.44571685791016, 0.4130859375, -0.134765625, -0.842041015625
589, 2723113245, -16.882436752319336, 4.648761749267578, 10.754535675048828, 51.902503967285156, -269.17791748046875, 68.943359375, 0.325927734375, -0.15185546875, -0.878173828125
590, 2723129912, -22.510360717773438, 5.20093297958374, 11.299829483032227, 72.92559814453125, -270.1690673828125, 87.1032485961914, 0.22900390625, -0.171875, -0.88916015625
591, 2723146579, -28.157594680786133, 6.471729755401611, 9.30352783203125, 70.24833679199219, -273.6759338378906, 110.11602783203125, 0.14013671875, -0.193359375, -0.88427734375
592, 2723163246, -33.84587097167969, 6.721850395202637, 4.744229793548584, 35.53129196166992, -283.6339416503906, 129.99839782714844, 0.05712890625, -0.21923828125, -0.87939453125
593, 2723179913, -33.80784225463867, 4.651750087738037, -4.079597473144531, -9.151458740234375, -285.1432800292969, 139.72576904296875, -0.02978515625, -0.230712890625, -0.876953125
594, 2723196580, -30.197345733642578, -1.5779255628585815, -11.2724609375, -29.05120849609375, -238.5626983642578, 129.78651428222656, -0.106201171875, -0.231201171875, -0.870849609375
595, 2723213247, -26.581029891967773, -13.613655090332031, -15.535000801086426, 25.205585479736328, -153.91055297851562, 106.99608612060547, -0.16162109375, -0.232177734375, -0.85791015625
596, 2723229914, -24.688884735107422, -14.716381072998047, -20.1014461517334, 32.9395751953125, -2.656111001968384, 5.221815586090088, -0.17919921875, -0.244140625, -0.85302734375
597, 2723246581, -26.482322692871094, -12.724512100219727, -14.235026359558105, -18.53936767578125, 107.49297332763672, -122.97703552246094, -0.154541015625, -0.24462890625, -0.852294921875
598, 2723263248, -11.712416648864746, -1.6887874603271484, 16.424192428588867, -15.775131225585938, 115.38651275634766, -154.8817596435547, -0.114501953125, -0.239990234375, -0.855712890625
599, 2723279915, -1.4623639583587646, 13.337409019470215, 9.554788589477539, 5.9896135330200195, 49.51119613647461, -112.63924407958984, -0.095947265625, -0.24169921875, -0.853515625
600, 2723296582, -4.70211124420166, 9.291251182556152, 4.982973575592041, -19.4049072265625, 145.56053161621094, -62.11076354980469, -0.064697265625, -0.2333984375, -0.857177734375
601, 2723313249, -13.025814056396484, -0.08872970193624496, 11.948375701904297, -33.02070999145508, 142.3863983154297, -30.93425178527832, -0.028564453125, -0.224609375, -0.8603515625
602, 2723329916, -9.48934555053711, -2.088125467300415, 9.81114387512207, -13.702174186706543, 110.20209503173828, -49.33861541748047, 0.001708984375, -0.216796875, -0.8564453125
603, 2723346583, -16.586759567260742, 10.66649341583252, 12.950188636779785, -43.248985290527344, 79.26329803466797, -41.75318908691406, 0.02783203125, -0.205810546875, -0.859375
604, 2723363250, -6.760862350463867, -2.470877170562744, 9.864839553833008, -19.764163970947266, 21.611726760864258, -19.31018829345703, 0.0341796875, -0.198486328125, -0.85791015625
605, 2723379917, -6.35686731338501, 3.204134464263916, 8.198050498962402, -8.451804161071777, 13.84243106842041, -7.927882671356201, 0.042236328125, -0.193603515625, -0.857666015625
606, 2723396584, -6.248294830322266, 2.168839931488037, 8.343979835510254, -0.4551377594470978, 7.977531433105469, -3.682671546936035, 0.042724609375, -0.194091796875, -0.859130859375
607, 2723413251, -5.896264553070068, 2.228456735610962, 8.223977088928223, 3.6533892154693604, 5.921982765197754, -1.7061388492584229, 0.04443359375, -0.193603515625, -0.85693359375
608, 2723429918, -5.620891094207764, 2.387632131576538, 8.189140319824219, 6.1046671867370605, 6.4598517417907715, -1.267111897468567, 0.04638671875, -0.197021484375, -0.857421875
609, 2723446585, -5.4041666984558105, 2.5340285301208496, 8.05239200592041, 6.84785795211792, 7.810460567474365, -2.0951452255249023, 0.04736328125, -0.2021484375, -0.857421875
610, 2723463252, -5.570235729217529, 2.731828212738037, 7.817017078399658, 5.519877910614014, 7.77410364151001, -3.126863479614258, 0.05029296875, -0.199951171875, -0.853759765625
611, 2723479919, -5.514935493469238, 2.810797691345215, 7.65916109085083, 1.9351744651794434, 5.809211730957031, -4.8642497062683105, 0.053466796875, -0.2021484375, -0.8544921875
612, 2723496586, -5.358309745788574, 2.6701834201812744, 7.732129096984863, -0.20485042035579681, 5.193713188171387, -6.000467777252197, 0.053955078125, -0.2021484375, -0.855712890625
613, 2723513253, -5.311634540557861, 2.538459062576294, 7.65287971496582, -1.4466822147369385, 5.490934371948242, -6.218225955963135, 0.058837890625, -0.203125, -0.85546875
614, 2723529920, -5.508535861968994, 2.6013424396514893, 7.907322406768799, -1.7828234434127808, 4.547708034515381, -5.77812385559082, 0.058837890625, -0.20361328125, -0.85498046875
615, 2723546587, -5.615996360778809, 2.4030869007110596, 7.723501682281494, -0.8906049728393555, 4.322611331939697, -4.826636791229248, 0.060302734375, -0.2041015625, -0.852294921875
616, 2723563254, -5.62241792678833, 2.564288377761841, 7.726902008056641, 0.10620945692062378, 3.7392170429229736, -4.801894187927246, 0.06201171875, -0.205078125, -0.851318359375
617, 2723579921, -5.603416919708252, 2.592209815979004, 7.676593780517578, 0.27559906244277954, 2.234560966491699, -4.370807647705078, 0.06396484375, -0.205078125, -0.852294921875
618, 2723596588, -5.451503753662109, 2.7201197147369385, 7.644404888153076, 0.5863324403762817, 0.6892697811126709, -5.08262300491333, 0.06396484375, -0.205078125, -0.8505859375
619, 2723613255, -5.488561153411865, 2.5871388912200928, 7.720931053161621, 0.5088923573493958, 0.4362674951553345, -6.034992694854736, 0.064453125, -0.205078125, -0.853759765625
620, 2723629922, -5.500831604003906, 2.6145060062408447, 7.7287678718566895, 0.23766671121120453, 0.7784533500671387, -6.819293022155762, 0.0634765625, -0.20654296875, -0.853759765625
621, 2723646589, -5.413070201873779, 2.5910494327545166, 7.702775478363037, 0.13649648427963257, 1.9211127758026123, -7.948812961578369, 0.06689453125, -0.206787109375, -0.85400390625
622, 2723663256, -5.286903381347656, 2.6846773624420166, 7.798145294189453, 0.5994974374771118, 4.785792350769043, -9.36285400390625, 0.0673828125, -0.207275390625, -0.85009765625
623, 2723679923, -5.360872268676758, 2.6000490188598633, 7.846829414367676, 1.7894260883331299, 8.523112297058105, -12.439994812011719, 0.06787109375, -0.20703125, -0.849609375
624, 2723696590, -5.452698707580566, 2.478909969329834, 7.8574113845825195, 4.246251583099365, 12.998674392700195, -14.887747764587402, 0.074951171875, -0.208740234375, -0.849365234375
625, 2723713257, -5.159365177154541, 2.652226448059082, 8.223684310913086, 11.51155948638916, 22.102754592895508, -19.897371292114258, 0.0810546875, -0.210693359375, -0.84912109375
626, 2723729924, -4.9725823402404785, 2.407379388809204, 8.737666130065918, 7.570645809173584, 37.33487319946289, -20.95536231994629, 0.08740234375, -0.211669921875, -0.84423828125
627, 2723746591, -4.978991508483887, 2.3512561321258545, 8.782474517822266, 9.850263595581055, 62.151710510253906, -20.67648696899414, 0.10400390625, -0.21484375, -0.8427734375
628, 2723763258, -4.901978492736816, 2.315521717071533, 8.911759376525879, 14.994914054870605, 93.32585906982422, -23.781782150268555, 0.124755859375, -0.217529296875, -0.83740234375
629, 2723779925, -4.7693867683410645, 3.076319456100464, 8.916918754577637, 26.219005584716797, 135.1547088623047, -30.97435760498047, 0.15673828125, -0.2236328125, -0.828369140625
630, 2723796592, -4.77585506439209, 4.549125671386719, 9.357378959655762, 35.04515075683594, 187.54605102539062, -50.09604263305664, 0.201904296875, -0.228515625, -0.81982421875
631, 2723813259, -4.813446521759033, 4.6546406745910645, 8.880331039428711, 36.19664764404297, 250.0598907470703, -84.11524200439453, 0.260498046875, -0.229736328125, -0.794189453125
632, 2723829926, -5.890857696533203, 4.113122940063477, 9.515457153320312, 31.93248748779297, 329.587158203125, -125.60778045654297, 0.3359375, -0.22900390625, -0.762451171875
633, 2723846593, -7.903846263885498, 4.8616108894348145, 11.69532585144043, 20.913734436035156, 407.64276123046875, -170.7643280029297, 0.429931640625, -0.21484375, -0.7109375
634, 2723863260, -11.000176429748535, 6.778106212615967, 12.871820449829102, 14.214038848876953, 468.5819091796875, -202.27597045898438, 0.529541015625, -0.1865234375, -0.639404296875
635, 2723879927, -21.940549850463867, 7.379644393920898, 15.966277122497559, 25.488616943359375, 454.2170715332031, -190.51576232910156, 0.625244140625, -0.158935546875, -0.552001953125
636, 2723896594, -21.145999908447266, 7.666187286376953, 17.004371643066406, 20.412094116210938, 382.7431640625, -174.17550659179688, 0.694091796875, -0.130859375, -0.466796875
637, 2723913261, -11.422663688659668, 7.927204608917236, 16.63377571105957, 7.604031085968018, 315.1024475097656, -166.39227294921875, 0.743408203125, -0.10107421875, -0.387451171875
638, 2723929928, 6.685407638549805, 7.502056121826172, 10.891907691955566, -39.66535186767578, 289.6680603027344, -192.5155792236328, 0.776611328125, -0.060302734375, -0.313232421875
639, 2723946595, -18.983097076416016, 11.752199172973633, 19.988508224487305, -66.15632629394531, 285.4267578125, -160.1672821044922, 0.79931640625, -0.018310546875, -0.231689453125
640, 2723963262, -18.761064529418945, 12.14350700378418, 26.228849411010742, -65.11959838867188, -2.0162830352783203, -34.49223327636719, 0.796875, -0.00244140625, -0.205322265625
641, 2723979929, -5.366896152496338, 8.231623649597168, 16.131227493286133, -67.92720794677734, -186.72010803222656, 50.51386260986328, 0.781005859375, -0.011474609375, -0.224853515625
642, 2723996596, 0.755023717880249, 4.554718017578125, 8.387951850891113, -75.78921508789062, -239.99017333984375, 76.89532470703125, 0.76025390625, -0.025634765625, -0.259765625
643, 2724013263, 2.6754744052886963, 2.2675137519836426, 4.618193626403809, -72.21541595458984, -240.28875732421875, 81.60591888427734, 0.734130859375, -0.043701171875, -0.295166015625
644, 2724029930, 2.7879014015197754, 0.7743273377418518, 3.3654181957244873, -53.2667236328125, -218.84283447265625, 89.02806091308594, 0.71435546875, -0.059326171875, -0.3251953125
645, 2724046597, 0.11761713027954102, 1.016807198524475, 4.354012966156006, -31.89925765991211, -198.51559448242188, 94.12915802001953, 0.696533203125, -0.079833984375, -0.34716796875
646, 2724063264, -4.320318698883057, 2.533513069152832, 6.678219795227051, -26.80071258544922, -208.1166229248047, 95.01827239990234, 0.681884765625, -0.1015625, -0.3701171875
647, 2724079931, -7.668468475341797, 3.310521125793457, 8.39948558807373, -34.3901481628418, -252.17083740234375, 98.91323852539062, 0.670654296875, -0.123291015625, -0.403564453125
648, 2724096598, -8.152335166931152, 3.3140430450439453, 8.283891677856445, -39.80500793457031, -300.28778076171875, 109.58599090576172, 0.65380859375, -0.147216796875, -0.4638671875
649, 2724113265, -7.652719974517822, 3.215174436569214, 7.184088706970215, -39.850772857666016, -323.6396789550781, 119.8182373046875, 0.619140625, -0.178955078125, -0.53515625
650, 2724129932, -7.750857353210449, 2.906912088394165, 6.349695205688477, -37.350948333740234, -323.6824645996094, 125.41100311279297, 0.5576171875, -0.20751953125, -0.615478515625
651, 2724146599, -8.083098411560059, 2.0005698204040527, 5.9766669273376465, -26.080400466918945, -303.4083557128906, 121.586181640625, 0.47998046875, -0.234130859375, -0.67724609375
652, 2724163266, -10.160858154296875, 1.4890878200531006, 7.466950416564941, -1.3625935316085815, -261.33001708984375, 106.09290313720703, 0.3984375, -0.254150390625, -0.7060546875
653, 2724179933, -17.894567489624023, 2.931441307067871, 11.745128631591797, 29.98985481262207, -242.8380126953125, 88.64591979980469, 0.32958984375, -0.2724609375, -0.70751953125
654, 2724196600, -24.70696258544922, 4.446103096008301, 13.57583236694336, 52.28054428100586, -272.7536926269531, 76.21376037597656, 0.27978515625, -0.291015625, -0.696533203125
655, 2724213267, -28.08582878112793, 5.333537578582764, 10.62579345703125, 58.32761001586914, -309.1026611328125, 66.9302749633789, 0.238525390625, -0.314453125, -0.69970703125
656, 2724229934, -29.845340728759766, 6.603609085083008, 4.839111328125, 50.86549377441406, -323.9221496582031, 60.681888580322266, 0.195068359375, -0.332763671875, -0.719970703125
657, 2724246601, -29.73896026611328, 3.1474153995513916, -2.9678492546081543, 57.08442306518555, -308.6145324707031, 72.18104553222656, 0.13623046875, -0.35205078125, -0.74560546875
658, 2724263268, -27.63184928894043, -2.7140986919403076, -10.420984268188477, 89.36355590820312, -246.74203491210938, 94.03099060058594, 0.07421875, -0.3818359375, -0.764892578125
659, 2724279935, -29.620450973510742, -13.184389114379883, -21.083425521850586, 86.71172332763672, -104.57572174072266, 76.31179809570312, 0.025634765625, -0.40771484375, -0.771484375
