sep=,
DeviceTag:,A,,,,,,,,,,,,,,,,,
FirmwareVersion:,2.2.1,,,,,,,,,,,,,,,,,
AppVersion:,2022.0.1,,,,,,,,,,,,,,,,,
SyncStatus:,Synced,,,,,,,,,,,,,,,,,
OutputRate:,60Hz,,,,,,,,,,,,,,,,,
FilterProfile:,General,,,,,,,,,,,,,,,,,
Measurement Mode:,Inertial Mode - Rate quantities (with mag),,,,,,,,,,,,,,,,,
StartTime:,2022-08-05 16:37:02.895 +0300,,,,,,,,,,,,,,,,,
© Xsens Technologies B. V. 2005-2022,,,,,,,,,,,,,,,,,,,

PacketCounter,SampleTimeFine,Acc_X,Acc_Y,Acc_Z,Gyr_X,Gyr_Y,Gyr_Z,Mag_X,Mag_Y,Mag_Z
1, 2869949515, -5.328432559967041, 2.134230852127075, 8.000870704650879, -2.7207863330841064, -1.5513999462127686, -2.486673355102539, 0.064208984375, -0.19384765625, -0.80126953125
2, 2869966182, -5.326300621032715, 2.1246955394744873, 7.997680187225342, -2.692228078842163, -1.5595191717147827, -2.542112112045288, 0.063720703125, -0.19384765625, -0.7998046875
3, 2869982849, -5.30747127532959, 2.131739854812622, 7.998742580413818, -2.737204074859619, -1.5549345016479492, -2.5232739448547363, 0.063720703125, -0.1923828125, -0.802490234375
4, 2869999516, -5.318014621734619, 2.123718738555908, 8.000357627868652, -2.6672043800354004, -1.5349180698394775, -2.4785540103912354, 0.063232421875, -0.190673828125, -0.803955078125
5, 2870016183, -5.334472179412842, 2.123711109161377, 8.01498031616211, -2.66926646232605, -1.551873803138733, -2.474853038787842, 0.063232421875, -0.192138671875, -0.80078125
6, 2870032850, -5.316347122192383, 2.116007089614868, 7.9988861083984375, -2.639965295791626, -1.5751556158065796, -2.4576799869537354, 0.064208984375, -0.19287109375, -0.80029296875
7, 2870049517, -5.29547643661499, 2.1176648139953613, 8.006654739379883, -2.598306179046631, -1.6341673135757446, -2.467578887939453, 0.064453125, -0.193359375, -0.804443359375
8, 2870066184, -5.298318386077881, 2.1275713443756104, 8.019647598266602, -2.6413354873657227, -1.5156445503234863, -2.4769275188446045, 0.062744140625, -0.1923828125, -0.806396484375
9, 2870082851, -5.3169403076171875, 2.125910520553589, 8.000043869018555, -2.6851205825805664, -1.4832572937011719, -2.4304277896881104, 0.061279296875, -0.192138671875, -0.800048828125
10, 2870099518, -5.322959899902344, 2.129577159881592, 7.980463027954102, -2.72735595703125, -1.4870350360870361, -2.4463589191436768, 0.061767578125, -0.1923828125, -0.803466796875
11, 2870116185, -5.314993381500244, 2.125406503677368, 8.009833335876465, -2.8139266967773438, -1.601651906967163, -2.4662983417510986, 0.062744140625, -0.193359375, -0.803466796875
12, 2870132852, -5.306792259216309, 2.1147704124450684, 8.010616302490234, -2.7729079723358154, -1.535187005996704, -2.5269877910614014, 0.062744140625, -0.193359375, -0.802001953125
13, 2870149519, -5.293622016906738, 2.117694139480591, 8.018835067749023, -2.7221436500549316, -1.5189229249954224, -2.4639546871185303, 0.062744140625, -0.19287109375, -0.80126953125
14, 2870166186, -5.29911470413208, 2.117908000946045, 8.009149551391602, -2.547400951385498, -1.367730975151062, -2.4849443435668945, 0.0654296875, -0.19140625, -0.80126953125
15, 2870182853, -5.317648410797119, 2.127979278564453, 7.988947868347168, -2.575049877166748, -1.3265715837478638, -2.4682579040527344, 0.062744140625, -0.191650390625, -0.802001953125
16, 2870199520, -5.310216426849365, 2.1213619709014893, 7.991016387939453, -2.643051862716675, -1.440381646156311, -2.4689111709594727, 0.063720703125, -0.19189453125, -0.803466796875
17, 2870216187, -5.283746242523193, 2.1393327713012695, 7.985530376434326, -2.668100595474243, -1.520843744277954, -2.3813793659210205, 0.062744140625, -0.191162109375, -0.802490234375
18, 2870232854, -5.287796497344971, 2.1236414909362793, 8.013345718383789, -2.659546136856079, -1.3494564294815063, -2.4528517723083496, 0.062744140625, -0.19287109375, -0.80029296875
19, 2870249521, -5.311820030212402, 2.1240315437316895, 8.00688362121582, -2.5478363037109375, -1.30043363571167, -2.4128828048706055, 0.062744140625, -0.192138671875, -0.79833984375
20, 2870266188, -5.321727752685547, 2.1130447387695312, 7.99735689163208, -2.53623366355896, -1.1576684713363647, -2.449214458465576, 0.060791015625, -0.191162109375, -0.799072265625
21, 2870282855, -5.309645652770996, 2.105849027633667, 7.99184513092041, -2.5272819995880127, -1.2971936464309692, -2.32643985748291, 0.062744140625, -0.1923828125, -0.802001953125
22, 2870299522, -5.323774814605713, 2.126769781112671, 7.998154163360596, -2.577214241027832, -1.3991835117340088, -2.3133134841918945, 0.061767578125, -0.1923828125, -0.803955078125
23, 2870316189, -5.305067539215088, 2.1289539337158203, 7.987188339233398, -2.712641477584839, -1.5201140642166138, -2.461380958557129, 0.063720703125, -0.19189453125, -0.802490234375
24, 2870332856, -5.294253826141357, 2.129243850708008, 8.009622573852539, -2.714639186859131, -1.4321600198745728, -2.5437638759613037, 0.062744140625, -0.192626953125, -0.7998046875
25, 2870349523, -5.3093414306640625, 2.124955415725708, 8.0149564743042, -2.7159583568573, -1.2549711465835571, -2.5355682373046875, 0.061767578125, -0.1943359375, -0.80078125
26, 2870366190, -5.311710834503174, 2.130478620529175, 8.017074584960938, -2.665565252304077, -1.2473386526107788, -2.523517370223999, 0.062744140625, -0.19482421875, -0.80029296875
27, 2870382857, -5.304675102233887, 2.120271682739258, 8.009110450744629, -2.610600233078003, -1.2561876773834229, -2.5308678150177, 0.061767578125, -0.19287109375, -0.800537109375
28, 2870399524, -5.311803340911865, 2.126643657684326, 7.994600772857666, -2.5447113513946533, -1.0758872032165527, -2.432245969772339, 0.062744140625, -0.1923828125, -0.802978515625
29, 2870416191, -5.3153395652771, 2.1204895973205566, 7.992376327514648, -2.584360122680664, -1.154863953590393, -2.470588207244873, 0.063232421875, -0.191162109375, -0.802978515625
30, 2870432858, -5.322488784790039, 2.1263694763183594, 7.99041223526001, -2.688117027282715, -1.3751460313796997, -2.4853668212890625, 0.063720703125, -0.192138671875, -0.80029296875
31, 2870449525, -5.319284915924072, 2.1353683471679688, 8.012195587158203, -2.788672685623169, -1.3631081581115723, -2.5658679008483887, 0.062255859375, -0.1953125, -0.80078125
32, 2870466192, -5.31730842590332, 2.1284122467041016, 7.991842269897461, -3.0188283920288086, -1.5797274112701416, -2.6177587509155273, 0.064208984375, -0.193359375, -0.798828125
33, 2870482859, -5.308404922485352, 2.1386666297912598, 8.023414611816406, -2.993983745574951, -1.5405528545379639, -2.6225998401641846, 0.064453125, -0.190673828125, -0.802490234375
34, 2870499526, -5.286853790283203, 2.121807813644409, 7.993297100067139, -3.061345338821411, -1.4359248876571655, -2.7492034435272217, 0.062744140625, -0.191162109375, -0.802001953125
35, 2870516193, -5.306622505187988, 2.1169872283935547, 8.006549835205078, -3.081733226776123, -1.2833501100540161, -2.793577194213867, 0.062744140625, -0.1923828125, -0.802978515625
36, 2870532860, -5.310072422027588, 2.11320161819458, 8.003706932067871, -3.013731002807617, -1.270018458366394, -2.7325291633605957, 0.062255859375, -0.190673828125, -0.801025390625
37, 2870549527, -5.334557056427002, 2.099477767944336, 7.9916815757751465, -3.1121482849121094, -1.3991962671279907, -2.696556329727173, 0.063232421875, -0.19189453125, -0.801513671875
38, 2870566194, -5.316399574279785, 2.10935640335083, 8.004090309143066, -3.146033525466919, -1.4951540231704712, -2.6283624172210693, 0.063232421875, -0.189697265625, -0.800537109375
39, 2870582861, -5.300625801086426, 2.1145071983337402, 8.000442504882812, -3.083192825317383, -1.569290041923523, -2.552663803100586, 0.062744140625, -0.190673828125, -0.802978515625
40, 2870599528, -5.316324710845947, 2.109912633895874, 8.010298728942871, -3.1675612926483154, -1.4601032733917236, -2.7167394161224365, 0.061279296875, -0.190185546875, -0.803955078125
41, 2870616195, -5.322861194610596, 2.104541778564453, 7.997040271759033, -3.1321003437042236, -1.4053560495376587, -2.7437734603881836, 0.062744140625, -0.189697265625, -0.802978515625
42, 2870632862, -5.328742980957031, 2.095902681350708, 7.992858409881592, -3.1660501956939697, -1.5511947870254517, -2.744720935821533, 0.061279296875, -0.192138671875, -0.800048828125
43, 2870649529, -5.32110071182251, 2.0886123180389404, 8.013067245483398, -3.0044209957122803, -1.624562382698059, -2.6602888107299805, 0.062255859375, -0.189697265625, -0.800048828125
44, 2870666196, -5.2999701499938965, 2.10361909866333, 7.998014450073242, -3.1169371604919434, -1.6381498575210571, -2.5989460945129395, 0.061279296875, -0.189697265625, -0.799560546875
45, 2870682863, -5.289471626281738, 2.1015875339508057, 8.009648323059082, -2.8569297790527344, -1.367871642112732, -2.628746271133423, 0.062255859375, -0.190673828125, -0.802978515625
46, 2870699530, -5.307356357574463, 2.0997369289398193, 8.020750045776367, -2.7920024394989014, -1.0893338918685913, -2.694763660430908, 0.063232421875, -0.190673828125, -0.802978515625
47, 2870716197, -5.3286590576171875, 2.0711143016815186, 8.000113487243652, -2.696300745010376, -1.0572540760040283, -2.705329179763794, 0.063232421875, -0.191162109375, -0.804931640625
48, 2870732864, -5.332394599914551, 2.0859057903289795, 7.984843730926514, -2.713153839111328, -1.28294038772583, -2.6516318321228027, 0.062744140625, -0.189208984375, -0.803955078125
49, 2870749531, -5.330974102020264, 2.105429172515869, 7.991517543792725, -2.8475043773651123, -1.5505671501159668, -2.506727695465088, 0.0654296875, -0.189208984375, -0.7998046875
50, 2870766198, -5.314700126647949, 2.102494478225708, 8.001401901245117, -2.8107054233551025, -1.5526609420776367, -2.5439236164093018, 0.063232421875, -0.192626953125, -0.79931640625
51, 2870782865, -5.285982131958008, 2.103963851928711, 8.009093284606934, -2.9025590419769287, -1.4113749265670776, -2.6012258529663086, 0.063720703125, -0.190673828125, -0.802490234375
52, 2870799532, -5.305593967437744, 2.1010286808013916, 7.996309280395508, -2.7680418491363525, -1.4477965831756592, -2.5496678352355957, 0.06396484375, -0.189208984375, -0.805419921875
53, 2870816199, -5.325306415557861, 2.078437328338623, 8.011940956115723, -2.73838210105896, -1.3895148038864136, -2.5656118392944336, 0.062744140625, -0.190673828125, -0.801513671875
54, 2870832866, -5.290482521057129, 2.092711925506592, 8.004945755004883, -2.7138068675994873, -1.3370599746704102, -2.59785795211792, 0.060791015625, -0.192138671875, -0.802978515625
55, 2870849533, -5.330189228057861, 2.0973589420318604, 8.001564979553223, -2.7148184776306152, -1.4084680080413818, -2.5849621295928955, 0.063232421875, -0.188720703125, -0.801025390625
56, 2870866200, -5.330985069274902, 2.08443546295166, 8.03046989440918, -2.9252262115478516, -1.4325693845748901, -2.5154104232788086, 0.063232421875, -0.189697265625, -0.801025390625
57, 2870882867, -5.313844203948975, 2.0918524265289307, 8.012965202331543, -2.7962543964385986, -1.5851446390151978, -2.481614828109741, 0.063232421875, -0.189697265625, -0.805908203125
58, 2870899534, -5.313169002532959, 2.087507486343384, 8.027525901794434, -2.843560218811035, -1.606261968612671, -2.4706647396087646, 0.062744140625, -0.188232421875, -0.805419921875
59, 2870916201, -5.328664779663086, 2.087083101272583, 7.988337993621826, -2.883669376373291, -1.6377400159835815, -2.430145502090454, 0.062744140625, -0.190185546875, -0.803466796875
60, 2870932868, -5.311624050140381, 2.0915780067443848, 8.003545761108398, -2.978423833847046, -1.646896481513977, -2.483099937438965, 0.062744140625, -0.191650390625, -0.801513671875
61, 2870949535, -5.298165798187256, 2.11419939994812, 8.006705284118652, -2.9805498123168945, -1.5262736082077026, -2.55482816696167, 0.063232421875, -0.190673828125, -0.802001953125
62, 2870966202, -5.285699844360352, 2.0890212059020996, 8.019725799560547, -2.9500198364257812, -1.4478474855422974, -2.6114583015441895, 0.063720703125, -0.191650390625, -0.7998046875
63, 2870982869, -5.311015605926514, 2.074141025543213, 8.006272315979004, -2.94889235496521, -1.288638949394226, -2.609934091567993, 0.062744140625, -0.188720703125, -0.802490234375
64, 2870999536, -5.319075584411621, 2.086477518081665, 8.001749992370605, -2.823070764541626, -1.1806048154830933, -2.5102498531341553, 0.062744140625, -0.191162109375, -0.802001953125
65, 2871016203, -5.310216903686523, 2.078723192214966, 8.008586883544922, -2.797342538833618, -1.364158272743225, -2.5708749294281006, 0.060302734375, -0.191650390625, -0.804443359375
66, 2871032870, -5.323211193084717, 2.0851705074310303, 8.014861106872559, -2.7653138637542725, -1.3653364181518555, -2.53308367729187, 0.062255859375, -0.190185546875, -0.802001953125
67, 2871049537, -5.330552577972412, 2.083768367767334, 8.002374649047852, -2.7152538299560547, -1.279072880744934, -2.5286011695861816, 0.063720703125, -0.186767578125, -0.799560546875
68, 2871066204, -5.285717964172363, 2.0959343910217285, 8.022979736328125, -2.6158759593963623, -1.4058170318603516, -2.5736920833587646, 0.063720703125, -0.189697265625, -0.802978515625
69, 2871082871, -5.296550750732422, 2.0929207801818848, 8.019113540649414, -2.641655445098877, -1.1650322675704956, -2.5036799907684326, 0.063232421875, -0.190185546875, -0.802490234375
70, 2871099538, -5.308691501617432, 2.0810344219207764, 8.012510299682617, -2.5917110443115234, -1.1326448917388916, -2.5768682956695557, 0.06396484375, -0.188720703125, -0.803955078125
71, 2871116205, -5.318619728088379, 2.0910377502441406, 7.988803863525391, -2.556736707687378, -1.1042019128799438, -2.5458641052246094, 0.062744140625, -0.188232421875, -0.803466796875
72, 2871132872, -5.315387725830078, 2.0952811241149902, 7.984587669372559, -2.6128671169281006, -1.1310442686080933, -2.631103754043579, 0.064697265625, -0.187255859375, -0.801513671875
73, 2871149539, -5.305453777313232, 2.099151372909546, 7.991763591766357, -2.7737274169921875, -1.1860730648040771, -2.537527322769165, 0.064697265625, -0.187255859375, -0.800537109375
74, 2871166206, -5.308597564697266, 2.0821869373321533, 7.987766265869141, -2.8187413215637207, -1.2647550106048584, -2.712064504623413, 0.064697265625, -0.188720703125, -0.801513671875
75, 2871182873, -5.306840419769287, 2.098090648651123, 7.988569259643555, -2.926417112350464, -1.296501874923706, -2.69881010055542, 0.063232421875, -0.187255859375, -0.802490234375
76, 2871199540, -5.328583240509033, 2.082458257675171, 8.009481430053711, -3.067223310470581, -1.3694727420806885, -2.801107406616211, 0.061767578125, -0.186279296875, -0.803955078125
77, 2871216207, -5.328427791595459, 2.0746140480041504, 8.015393257141113, -3.096114158630371, -1.440932035446167, -2.748114585876465, 0.06396484375, -0.189208984375, -0.804931640625
78, 2871232874, -5.315618515014648, 2.0773866176605225, 7.998987674713135, -3.067786693572998, -1.4440441131591797, -2.6561012268066406, 0.062255859375, -0.188720703125, -0.803466796875
79, 2871249541, -5.3055596351623535, 2.095371961593628, 8.000446319580078, -3.042609453201294, -1.4993034601211548, -2.731748104095459, 0.062255859375, -0.189697265625, -0.800537109375
80, 2871266208, -5.314284801483154, 2.06624436378479, 8.013278007507324, -3.0224266052246094, -1.4472455978393555, -2.773317575454712, 0.062744140625, -0.189697265625, -0.800537109375
81, 2871282875, -5.319729804992676, 2.051762342453003, 8.021591186523438, -3.0094408988952637, -1.4723460674285889, -2.6858887672424316, 0.061279296875, -0.188232421875, -0.802978515625
82, 2871299542, -5.339770793914795, 2.055915117263794, 8.026352882385254, -3.0666215419769287, -1.3922808170318604, -2.70969557762146, 0.063232421875, -0.188232421875, -0.803466796875
83, 2871316209, -5.323761940002441, 2.0661818981170654, 7.985624313354492, -2.9099738597869873, -1.3874527215957642, -2.5914673805236816, 0.06591796875, -0.187744140625, -0.804443359375
84, 2871332876, -5.317017078399658, 2.0546958446502686, 7.990464210510254, -2.9051010608673096, -1.3492834568023682, -2.6051251888275146, 0.063232421875, -0.188232421875, -0.803466796875
85, 2871349543, -5.313107490539551, 2.067570447921753, 7.995517730712891, -2.796215057373047, -1.2839646339416504, -2.692624568939209, 0.064453125, -0.188232421875, -0.804443359375
86, 2871366210, -5.321302890777588, 2.068906545639038, 8.015098571777344, -2.7973806858062744, -1.2692372798919678, -2.7071471214294434, 0.064208984375, -0.188232421875, -0.801513671875
87, 2871382877, -5.312629222869873, 2.0554511547088623, 7.992607116699219, -2.7193520069122314, -1.3334996700286865, -2.6012775897979736, 0.06494140625, -0.187744140625, -0.802490234375
88, 2871399544, -5.305434226989746, 2.0802464485168457, 8.012410163879395, -2.721592903137207, -1.2229169607162476, -2.6272358894348145, 0.063720703125, -0.187744140625, -0.803955078125
89, 2871416211, -5.322432518005371, 2.0651183128356934, 8.010297775268555, -2.764993190765381, -1.2730920314788818, -2.721963882446289, 0.064453125, -0.190673828125, -0.804931640625
90, 2871432878, -5.317072868347168, 2.0618903636932373, 8.03004264831543, -2.7958693504333496, -1.2814034223556519, -2.725255012512207, 0.063720703125, -0.187744140625, -0.801025390625
91, 2871449545, -5.321111679077148, 2.064072608947754, 8.015832901000977, -2.857787847518921, -1.2908159494400024, -2.768540620803833, 0.064453125, -0.187255859375, -0.804443359375
92, 2871466212, -5.308408737182617, 2.0590875148773193, 8.020458221435547, -2.841447353363037, -1.1983413696289062, -2.7639174461364746, 0.06591796875, -0.188232421875, -0.80078125
93, 2871482879, -5.309444427490234, 2.0705184936523438, 8.012048721313477, -2.798353672027588, -1.2292046546936035, -2.7034075260162354, 0.064208984375, -0.187744140625, -0.802001953125
94, 2871499546, -5.322896957397461, 2.044649362564087, 8.013819694519043, -2.7873787879943848, -1.231074333190918, -2.7382278442382812, 0.06494140625, -0.186767578125, -0.802978515625
95, 2871516213, -5.327665328979492, 2.050832509994507, 8.002630233764648, -2.7586803436279297, -1.1947685480117798, -2.707301378250122, 0.063720703125, -0.187255859375, -0.801513671875
96, 2871532880, -5.321959018707275, 2.054239273071289, 8.005321502685547, -2.8829009532928467, -1.2692372798919678, -2.701038360595703, 0.064697265625, -0.186279296875, -0.802978515625
97, 2871549547, -5.334062099456787, 2.0484044551849365, 8.028070449829102, -2.8462753295898438, -1.3086167573928833, -2.701089382171631, 0.064208984375, -0.185791015625, -0.802001953125
98, 2871566214, -5.315223693847656, 2.048596143722534, 8.019110679626465, -2.818690299987793, -1.3377128839492798, -2.6571381092071533, 0.063720703125, -0.186279296875, -0.800537109375
99, 2871582881, -5.3275299072265625, 2.061666250228882, 8.009589195251465, -2.66977858543396, -1.1902096271514893, -2.6663081645965576, 0.064208984375, -0.187744140625, -0.803466796875
100, 2871599548, -5.312882900238037, 2.0611696243286133, 8.00973892211914, -2.6522467136383057, -1.14815354347229, -2.6649250984191895, 0.062744140625, -0.187255859375, -0.803466796875
101, 2871616215, -5.32588529586792, 2.057187080383301, 8.004399299621582, -2.72735595703125, -1.1557221412658691, -2.7290592193603516, 0.06494140625, -0.189208984375, -0.805908203125
102, 2871632882, -5.320929527282715, 2.0357096195220947, 8.006668090820312, -2.770564556121826, -1.1901326179504395, -2.696249485015869, 0.063232421875, -0.188232421875, -0.803466796875
103, 2871649549, -5.3158698081970215, 2.0605545043945312, 7.993058204650879, -2.7192494869232178, -1.2302933931350708, -2.7179176807403564, 0.0654296875, -0.188720703125, -0.80078125
104, 2871666216, -5.329179763793945, 2.0412468910217285, 8.015164375305176, -2.7732789516448975, -1.2165391445159912, -2.756809949874878, 0.063232421875, -0.185302734375, -0.802490234375
105, 2871682883, -5.333901882171631, 2.051952362060547, 7.9906792640686035, -2.8882927894592285, -1.3524017333984375, -2.6905882358551025, 0.0654296875, -0.186279296875, -0.801513671875
106, 2871699550, -5.336476802825928, 2.0481488704681396, 8.011604309082031, -2.85374116897583, -1.3043779134750366, -2.664412498474121, 0.06689453125, -0.187744140625, -0.804931640625
107, 2871716217, -5.310444355010986, 2.046975612640381, 8.001909255981445, -2.838911294937134, -1.3765032291412354, -2.7184932231903076, 0.064453125, -0.185791015625, -0.804931640625
108, 2871732884, -5.322881698608398, 2.049745798110962, 8.023492813110352, -2.7291102409362793, -1.1671197414398193, -2.705751419067383, 0.0654296875, -0.186767578125, -0.802490234375
109, 2871749551, -5.342468738555908, 2.0428645610809326, 8.003353118896484, -2.6373655796051025, -1.1390352249145508, -2.656088352203369, 0.06494140625, -0.187744140625, -0.802001953125
110, 2871766218, -5.329166889190674, 2.0388247966766357, 8.004831314086914, -2.7009875774383545, -1.150189757347107, -2.717175245285034, 0.06494140625, -0.186767578125, -0.801513671875
111, 2871782885, -5.333838939666748, 2.0352530479431152, 8.015655517578125, -2.6978628635406494, -1.2116857767105103, -2.7117066383361816, 0.0654296875, -0.186767578125, -0.802001953125
112, 2871799552, -5.3206610679626465, 2.038972854614258, 7.995431900024414, -2.6472392082214355, -1.1489475965499878, -2.6228432655334473, 0.0654296875, -0.186279296875, -0.804443359375
113, 2871816219, -5.312682151794434, 2.049931764602661, 8.006125450134277, -2.637545108795166, -1.0977860689163208, -2.614429473876953, 0.064453125, -0.187744140625, -0.804931640625
114, 2871832886, -5.347789287567139, 2.032477617263794, 7.985684394836426, -2.6162736415863037, -1.1122188568115234, -2.6033520698547363, 0.063720703125, -0.186767578125, -0.802001953125
115, 2871849553, -5.332801342010498, 2.0334668159484863, 8.007621765136719, -2.546274185180664, -1.1498054265975952, -2.663759469985962, 0.065185546875, -0.187255859375, -0.80078125
116, 2871866220, -5.357518196105957, 2.034275531768799, 8.01579761505127, -2.5830540657043457, -1.2877811193466187, -2.5909297466278076, 0.064697265625, -0.186279296875, -0.802001953125
117, 2871882887, -5.34930944442749, 2.0277469158172607, 8.001215934753418, -2.474968194961548, -1.20734441280365, -2.607424259185791, 0.0654296875, -0.185302734375, -0.801025390625
118, 2871899554, -5.329397678375244, 2.0423624515533447, 8.001312255859375, -2.528587818145752, -1.3167232275009155, -2.50166916847229, 0.063720703125, -0.186767578125, -0.803955078125
119, 2871916221, -5.342342853546143, 2.039959192276001, 8.030196189880371, -2.566072463989258, -1.1865339279174805, -2.50520396232605, 0.0654296875, -0.186279296875, -0.805419921875
120, 2871932888, -5.3364949226379395, 2.0391740798950195, 7.9953155517578125, -2.4731369018554688, -1.1015510559082031, -2.478515625, 0.063720703125, -0.188720703125, -0.803466796875
121, 2871949555, -5.326949119567871, 2.053584575653076, 7.992142677307129, -2.5377323627471924, -1.3302470445632935, -2.50667667388916, 0.06494140625, -0.188232421875, -0.80126953125
122, 2871966222, -5.327218532562256, 2.0575647354125977, 8.004804611206055, -2.637429714202881, -1.330093264579773, -2.4816150665283203, 0.06787109375, -0.186767578125, -0.798828125
123, 2871982889, -5.338252067565918, 2.046733856201172, 7.986287593841553, -2.5711441040039062, -1.3406713008880615, -2.6280810832977295, 0.064697265625, -0.188232421875, -0.802001953125
124, 2871999556, -5.331409931182861, 2.0145938396453857, 7.996950149536133, -2.6435256004333496, -1.2346476316452026, -2.533365488052368, 0.065185546875, -0.186279296875, -0.801513671875
125, 2872016223, -5.332987308502197, 2.0373647212982178, 7.993927955627441, -2.56667423248291, -1.3033150434494019, -2.5072271823883057, 0.064208984375, -0.186767578125, -0.803955078125
126, 2872032890, -5.328598976135254, 2.04296612739563, 8.01436996459961, -2.558798313140869, -1.1294047832489014, -2.5484251976013184, 0.06494140625, -0.188720703125, -0.802978515625
127, 2872049557, -5.339296340942383, 2.0378708839416504, 8.014784812927246, -2.4795782566070557, -1.155619502067566, -2.497199773788452, 0.065185546875, -0.186279296875, -0.801513671875
128, 2872066224, -5.338403224945068, 2.031618356704712, 8.014545440673828, -2.5518698692321777, -1.2324575185775757, -2.5490400791168213, 0.064208984375, -0.187744140625, -0.800537109375
129, 2872082891, -5.33453893661499, 2.033822536468506, 8.00419807434082, -2.427802324295044, -1.302982211112976, -2.392584800720215, 0.0654296875, -0.185791015625, -0.802978515625
130, 2872099558, -5.345057964324951, 2.0388553142547607, 7.984313011169434, -2.3649487495422363, -1.3590739965438843, -2.3557026386260986, 0.06640625, -0.187255859375, -0.802978515625
131, 2872116225, -5.33542537689209, 2.052316904067993, 7.99143648147583, -2.3918676376342773, -1.2364275455474854, -2.3605432510375977, 0.063720703125, -0.188232421875, -0.803955078125
132, 2872132892, -5.33632230758667, 2.0479369163513184, 8.002092361450195, -2.4555022716522217, -1.383341908454895, -2.4200289249420166, 0.064697265625, -0.186767578125, -0.802001953125
133, 2872149559, -5.340626239776611, 2.03578782081604, 8.002989768981934, -2.5152697563171387, -1.4394338130950928, -2.3663318157196045, 0.06591796875, -0.187744140625, -0.8017578125
134, 2872166226, -5.325599670410156, 2.052945852279663, 8.007533073425293, -2.4107441902160645, -1.4084296226501465, -2.407299518585205, 0.064697265625, -0.187255859375, -0.7998046875
135, 2872182893, -5.31892728805542, 2.0604403018951416, 7.994994163513184, -2.4690513610839844, -1.371329426765442, -2.4833688735961914, 0.06494140625, -0.187744140625, -0.802490234375
136, 2872199560, -5.348165512084961, 2.075981378555298, 8.005122184753418, -2.515334129333496, -1.2822871208190918, -2.6073858737945557, 0.06396484375, -0.187744140625, -0.803955078125
137, 2872216227, -5.351469039916992, 2.040138006210327, 7.9820075035095215, -2.5360031127929688, -1.2918918132781982, -2.4789252281188965, 0.0654296875, -0.186767578125, -0.804931640625
138, 2872232894, -5.349707126617432, 2.0467543601989746, 7.991506576538086, -2.5996127128601074, -1.5942500829696655, -2.5106852054595947, 0.068359375, -0.187744140625, -0.805419921875
139, 2872249561, -5.350377559661865, 2.0457632541656494, 8.025128364562988, -2.660417079925537, -1.63104248046875, -2.3794074058532715, 0.06591796875, -0.185791015625, -0.801025390625
140, 2872266228, -5.330852031707764, 2.0438194274902344, 7.991177082061768, -2.6381466388702393, -1.5889610052108765, -2.304797410964966, 0.06591796875, -0.188232421875, -0.8017578125
141, 2872282895, -5.327013969421387, 2.0585196018218994, 7.982854843139648, -2.5288825035095215, -1.5165150165557861, -2.323814630508423, 0.06591796875, -0.186279296875, -0.801513671875
142, 2872299562, -5.334529876708984, 2.055234909057617, 7.958494186401367, -2.5641002655029297, -1.4233490228652954, -2.376948356628418, 0.06689453125, -0.185791015625, -0.802490234375
143, 2872316229, -5.336585998535156, 2.040029287338257, 7.9947638511657715, -2.4762229919433594, -1.4343754053115845, -2.3544859886169434, 0.06494140625, -0.187744140625, -0.803466796875
144, 2872332896, -5.33207368850708, 2.0602104663848877, 7.991107940673828, -2.474212646484375, -1.4399205446243286, -2.375885486602783, 0.06494140625, -0.186767578125, -0.804931640625
145, 2872349563, -5.336883544921875, 2.0617458820343018, 8.010444641113281, -2.579826831817627, -1.4016551971435547, -2.537360668182373, 0.06640625, -0.188720703125, -0.8017578125
146, 2872366230, -5.31964111328125, 2.053642511367798, 7.9915289878845215, -2.6403748989105225, -1.3543485403060913, -2.50565242767334, 0.065185546875, -0.187255859375, -0.79931640625
147, 2872382897, -5.329592704772949, 2.0372040271759033, 8.020547866821289, -2.587676763534546, -1.2262208461761475, -2.578648567199707, 0.06640625, -0.185302734375, -0.802978515625
148, 2872399564, -5.34851598739624, 2.0274658203125, 8.005751609802246, -2.594707489013672, -1.2746801376342773, -2.4033420085906982, 0.06494140625, -0.186767578125, -0.803466796875
149, 2872416231, -5.327169418334961, 2.06361985206604, 7.985174655914307, -2.456463098526001, -1.325073003768921, -2.512695550918579, 0.06640625, -0.187255859375, -0.804443359375
150, 2872432898, -5.338436126708984, 2.066387176513672, 8.004596710205078, -2.541471481323242, -1.3163905143737793, -2.514578342437744, 0.0654296875, -0.189208984375, -0.803466796875
151, 2872449565, -5.337414264678955, 2.0448312759399414, 8.01470947265625, -2.6243669986724854, -1.4306999444961548, -2.542086601257324, 0.06591796875, -0.186279296875, -0.80029296875
152, 2872466232, -5.341577529907227, 2.038879871368408, 7.990730285644531, -2.5696840286254883, -1.366745114326477, -2.4515326023101807, 0.065185546875, -0.187255859375, -0.801025390625
153, 2872482899, -5.348629951477051, 2.040949583053589, 8.005276679992676, -2.5688135623931885, -1.434401035308838, -2.4678735733032227, 0.06591796875, -0.189697265625, -0.80224609375
154, 2872499566, -5.316237449645996, 2.053109884262085, 8.005136489868164, -2.529958486557007, -1.4902877807617188, -2.376307964324951, 0.065185546875, -0.187255859375, -0.80078125
155, 2872516233, -5.330079078674316, 2.0623013973236084, 8.007684707641602, -2.5310471057891846, -1.2000318765640259, -2.4894134998321533, 0.06396484375, -0.185791015625, -0.805419921875
156, 2872532900, -5.329431056976318, 2.056385040283203, 8.012039184570312, -2.528831720352173, -1.1046501398086548, -2.539665699005127, 0.0654296875, -0.189208984375, -0.802001953125
157, 2872549567, -5.3386006355285645, 2.0446627140045166, 7.998292922973633, -2.5186119079589844, -1.1173540353775024, -2.592184543609619, 0.06494140625, -0.187255859375, -0.801513671875
158, 2872566234, -5.3593034744262695, 2.035982370376587, 8.002196311950684, -2.4246134757995605, -1.2170898914337158, -2.500068426132202, 0.06689453125, -0.188232421875, -0.8017578125
159, 2872582901, -5.343926906585693, 2.045292377471924, 7.999031066894531, -2.4525952339172363, -1.313880205154419, -2.4923715591430664, 0.0654296875, -0.187744140625, -0.802001953125
160, 2872599568, -5.345678806304932, 2.0408565998077393, 7.976554870605469, -2.4774906635284424, -1.4712190628051758, -2.4002811908721924, 0.06591796875, -0.186767578125, -0.804443359375
161, 2872616235, -5.341475009918213, 2.0458199977874756, 8.001800537109375, -2.509596347808838, -1.607094407081604, -2.2939248085021973, 0.06591796875, -0.189697265625, -0.803466796875
162, 2872632902, -5.343466758728027, 2.044114828109741, 8.001945495605469, -2.5119271278381348, -1.6455647945404053, -2.306910514831543, 0.06591796875, -0.187255859375, -0.804931640625
163, 2872649569, -5.340144634246826, 2.0501549243927, 7.982706069946289, -2.5022454261779785, -1.6320027112960815, -2.213731050491333, 0.064208984375, -0.187255859375, -0.802001953125
164, 2872666236, -5.333778381347656, 2.0619962215423584, 8.006725311279297, -2.5659191608428955, -1.6711393594741821, -2.3574187755584717, 0.06689453125, -0.187744140625, -0.7998046875
165, 2872682903, -5.331328392028809, 2.0738940238952637, 8.01191234588623, -2.609947681427002, -1.5170789957046509, -2.385413646697998, 0.06494140625, -0.187255859375, -0.802001953125
166, 2872699570, -5.334812641143799, 2.0433483123779297, 8.002677917480469, -2.516345500946045, -1.5312168598175049, -2.247220277786255, 0.06689453125, -0.185791015625, -0.802490234375
167, 2872716237, -5.345020771026611, 2.0652754306793213, 7.972122669219971, -2.498237371444702, -1.604392409324646, -2.26496958732605, 0.06494140625, -0.188232421875, -0.801513671875
168, 2872732904, -5.311369895935059, 2.040191650390625, 8.01142692565918, -2.576817274093628, -1.6857129335403442, -2.334700345993042, 0.06591796875, -0.185791015625, -0.802001953125
169, 2872749571, -5.333205223083496, 2.060312271118164, 8.003497123718262, -2.5992414951324463, -1.703270435333252, -2.3284764289855957, 0.064697265625, -0.189697265625, -0.801513671875
170, 2872766238, -5.334225177764893, 2.042738914489746, 8.008109092712402, -2.541714906692505, -1.7405623197555542, -2.30122447013855, 0.065673828125, -0.186767578125, -0.798828125
171, 2872782905, -5.338145732879639, 2.0470473766326904, 7.997828960418701, -2.4760818481445312, -1.6732903718948364, -2.179025888442993, 0.06689453125, -0.186767578125, -0.802490234375
172, 2872799572, -5.32838773727417, 2.064190626144409, 7.9881439208984375, -2.5332112312316895, -1.7482974529266357, -2.234170436859131, 0.064453125, -0.188720703125, -0.802490234375
173, 2872816239, -5.32096004486084, 2.0764212608337402, 7.997129440307617, -2.5827205181121826, -1.6894521713256836, -2.3156700134277344, 0.064453125, -0.189697265625, -0.804931640625
174, 2872832906, -5.327218055725098, 2.0470757484436035, 8.024062156677246, -2.5064971446990967, -1.7010804414749146, -2.3564069271087646, 0.064453125, -0.186767578125, -0.802978515625
175, 2872849573, -5.313792705535889, 2.0484776496887207, 8.014334678649902, -2.497084617614746, -1.6282762289047241, -2.3239047527313232, 0.063232421875, -0.184814453125, -0.800048828125
176, 2872866240, -5.327618598937988, 2.044668674468994, 7.997570037841797, -2.4954710006713867, -1.5097917318344116, -2.299546480178833, 0.063720703125, -0.186767578125, -0.802001953125
177, 2872882907, -5.306201457977295, 2.066148042678833, 8.007010459899902, -2.5163707733154297, -1.5488255023956299, -2.388486623764038, 0.0654296875, -0.186279296875, -0.80078125
178, 2872899574, -5.309321880340576, 2.0622482299804688, 8.008526802062988, -2.4702296257019043, -1.455134391784668, -2.3494911193847656, 0.062255859375, -0.189208984375, -0.803466796875
179, 2872916241, -5.324549198150635, 2.0560109615325928, 7.981908321380615, -2.5141043663024902, -1.4620497226715088, -2.3581995964050293, 0.064208984375, -0.187744140625, -0.802490234375
180, 2872932908, -5.330300331115723, 2.0504274368286133, 8.007917404174805, -2.543187379837036, -1.441329002380371, -2.3847856521606445, 0.063720703125, -0.187255859375, -0.803955078125
181, 2872949575, -5.333063125610352, 2.041360378265381, 7.9973273277282715, -2.5115811824798584, -1.566715955734253, -2.286547899246216, 0.063720703125, -0.188720703125, -0.802001953125
182, 2872966242, -5.31235933303833, 2.070448637008667, 7.987847328186035, -2.5708367824554443, -1.6391746997833252, -2.3333940505981445, 0.065185546875, -0.188720703125, -0.80078125
183, 2872982909, -5.323103904724121, 2.0665340423583984, 8.008126258850098, -2.4696273803710938, -1.5304099321365356, -2.3596723079681396, 0.062744140625, -0.189697265625, -0.800537109375
184, 2872999576, -5.314476013183594, 2.063683032989502, 8.012958526611328, -2.533877372741699, -1.4084296226501465, -2.3799450397491455, 0.064697265625, -0.187255859375, -0.802490234375
185, 2873016243, -5.307063102722168, 2.0498876571655273, 8.020174026489258, -2.510493278503418, -1.4947317838668823, -2.4383039474487305, 0.064208984375, -0.189208984375, -0.802978515625
186, 2873032910, -5.319697856903076, 2.0488173961639404, 7.988762855529785, -2.6129567623138428, -1.4910948276519775, -2.428506851196289, 0.063232421875, -0.187255859375, -0.803955078125
187, 2873049577, -5.313503265380859, 2.072988271713257, 8.01731014251709, -2.5317256450653076, -1.4197503328323364, -2.2760727405548096, 0.064208984375, -0.189208984375, -0.801025390625
188, 2873066244, -5.327759265899658, 2.049356460571289, 8.035992622375488, -2.4909374713897705, -1.4107731580734253, -2.4481515884399414, 0.064208984375, -0.187255859375, -0.800537109375
189, 2873082911, -5.312685966491699, 2.051368474960327, 8.003783226013184, -2.598139524459839, -1.2904831171035767, -2.4013185501098633, 0.06591796875, -0.186767578125, -0.79931640625
190, 2873099578, -5.320927619934082, 2.055363893508911, 8.006834983825684, -2.498851776123047, -1.3692291975021362, -2.4078755378723145, 0.06396484375, -0.186767578125, -0.805908203125
191, 2873116245, -5.32208251953125, 2.093949556350708, 7.9925031661987305, -2.5017333030700684, -1.2646143436431885, -2.438316583633423, 0.064208984375, -0.187744140625, -0.803466796875
192, 2873132912, -5.321528911590576, 2.072951316833496, 7.995197772979736, -2.614147663116455, -1.4232852458953857, -2.64513897895813, 0.064453125, -0.187744140625, -0.804931640625
193, 2873149579, -5.322921276092529, 2.0670151710510254, 7.9891557693481445, -2.6483407020568848, -1.3558725118637085, -2.6022632122039795, 0.061767578125, -0.188720703125, -0.802001953125
194, 2873166246, -5.332938194274902, 2.038257360458374, 8.00589656829834, -2.5226075649261475, -1.2694294452667236, -2.6184120178222656, 0.063720703125, -0.188720703125, -0.80029296875
195, 2873182913, -5.317017078399658, 2.0528101921081543, 8.006536483764648, -2.5618205070495605, -1.1678237915039062, -2.503270149230957, 0.064453125, -0.188232421875, -0.802490234375
196, 2873199580, -5.326318740844727, 2.0585758686065674, 8.010987281799316, -2.484649658203125, -1.2072418928146362, -2.464031457901001, 0.0634765625, -0.187744140625, -0.805419921875
197, 2873216247, -5.326104640960693, 2.0713629722595215, 7.999473571777344, -2.4257662296295166, -1.2408841848373413, -2.512721300125122, 0.06591796875, -0.187255859375, -0.802978515625
198, 2873232914, -5.340197563171387, 2.066671848297119, 8.000819206237793, -2.4905917644500732, -1.360418677330017, -2.4870572090148926, 0.064208984375, -0.187255859375, -0.802978515625
199, 2873249581, -5.317519664764404, 2.063668727874756, 8.022398948669434, -2.570119619369507, -1.519345760345459, -2.4652099609375, 0.063720703125, -0.187255859375, -0.802978515625
200, 2873266248, -5.335711479187012, 2.067683696746826, 8.003471374511719, -2.5677502155303955, -1.4078662395477295, -2.4080934524536133, 0.064697265625, -0.187255859375, -0.801513671875
201, 2873282915, -5.324127197265625, 2.068023204803467, 8.02233600616455, -2.6027626991271973, -1.5134289264678955, -2.4443867206573486, 0.065185546875, -0.186767578125, -0.80078125
202, 2873299582, -5.328214645385742, 2.059460163116455, 8.007591247558594, -2.514270782470703, -1.4997005462646484, -2.436971664428711, 0.063720703125, -0.187255859375, -0.801513671875
203, 2873316249, -5.317141056060791, 2.0657975673675537, 8.013925552368164, -2.613046407699585, -1.5481470823287964, -2.322688341140747, 0.063720703125, -0.188232421875, -0.803955078125
204, 2873332916, -5.317456245422363, 2.070284843444824, 8.0275297164917, -2.610715627670288, -1.5406808853149414, -2.398770570755005, 0.06494140625, -0.187255859375, -0.801513671875
205, 2873349583, -5.315123558044434, 2.0697689056396484, 8.011409759521484, -2.5485153198242188, -1.4987400770187378, -2.4556949138641357, 0.063720703125, -0.190673828125, -0.801513671875
206, 2873366250, -5.32122278213501, 2.0612947940826416, 8.004345893859863, -2.565906286239624, -1.5548447370529175, -2.4230003356933594, 0.06591796875, -0.187255859375, -0.7998046875
207, 2873382917, -5.322128772735596, 2.066406488418579, 7.998778343200684, -2.6186232566833496, -1.5658005475997925, -2.4217002391815186, 0.064208984375, -0.186279296875, -0.802978515625
208, 2873399584, -5.338590621948242, 2.081183671951294, 7.987285614013672, -2.6072068214416504, -1.6094510555267334, -2.499249219894409, 0.06396484375, -0.189208984375, -0.803466796875
209, 2873416251, -5.329160213470459, 2.063817024230957, 7.996024131774902, -2.6158125400543213, -1.551092505455017, -2.4779651165008545, 0.062744140625, -0.186279296875, -0.802490234375
210, 2873432918, -5.3274712562561035, 2.05316424369812, 8.02552604675293, -2.593414068222046, -1.507576584815979, -2.4728682041168213, 0.064697265625, -0.187255859375, -0.801025390625
211, 2873449585, -5.324937343597412, 2.059399127960205, 8.009340286254883, -2.5422401428222656, -1.4606926441192627, -2.4426064491271973, 0.061279296875, -0.188232421875, -0.802490234375
212, 2873466252, -5.3210601806640625, 2.0548882484436035, 8.005853652954102, -2.59021258354187, -1.5614656209945679, -2.316502571105957, 0.062255859375, -0.187255859375, -0.802001953125
213, 2873482919, -5.315518379211426, 2.0475502014160156, 8.009303092956543, -2.6441144943237305, -1.5510157346725464, -2.417391061782837, 0.062744140625, -0.189697265625, -0.801513671875
214, 2873499586, -5.314751625061035, 2.059326410293579, 8.019715309143066, -2.6072707176208496, -1.5061163902282715, -2.4545421600341797, 0.063232421875, -0.188232421875, -0.802978515625
215, 2873516253, -5.321355819702148, 2.0650954246520996, 8.006712913513184, -2.550320625305176, -1.4117463827133179, -2.3949668407440186, 0.062255859375, -0.189208984375, -0.805908203125
216, 2873532920, -5.323435306549072, 2.0563626289367676, 8.024886131286621, -2.514808416366577, -1.426576018333435, -2.343139410018921, 0.063720703125, -0.189208984375, -0.802978515625
217, 2873549587, -5.3062357902526855, 2.079166889190674, 8.007455825805664, -2.429429054260254, -1.4523298740386963, -2.4521090984344482, 0.062744140625, -0.188232421875, -0.802978515625
218, 2873566254, -5.312195301055908, 2.0672900676727295, 7.995561122894287, -2.5181891918182373, -1.3878880739212036, -2.46085524559021, 0.064697265625, -0.188232421875, -0.80029296875
219, 2873582921, -5.319014549255371, 2.0622692108154297, 8.001846313476562, -2.6431925296783447, -1.4390497207641602, -2.359198808670044, 0.063720703125, -0.187744140625, -0.802490234375
220, 2873599588, -5.324002265930176, 2.0614547729492188, 8.03011417388916, -2.652963876724243, -1.494795799255371, -2.4677071571350098, 0.063720703125, -0.188232421875, -0.801025390625
221, 2873616255, -5.326725959777832, 2.0619497299194336, 8.021421432495117, -2.732555389404297, -1.464188575744629, -2.3970930576324463, 0.063232421875, -0.188232421875, -0.802490234375
222, 2873632922, -5.323982238769531, 2.0753228664398193, 8.003110885620117, -2.58984112739563, -1.4308534860610962, -2.4979169368743896, 0.063232421875, -0.188232421875, -0.802978515625
223, 2873649589, -5.321357250213623, 2.0605294704437256, 8.02485466003418, -2.682546377182007, -1.4344521760940552, -2.3788821697235107, 0.063720703125, -0.187255859375, -0.803955078125
224, 2873666256, -5.318943977355957, 2.05431866645813, 8.018631935119629, -2.5517938137054443, -1.5225727558135986, -2.4381885528564453, 0.061767578125, -0.189697265625, -0.802978515625
225, 2873682923, -5.304193496704102, 2.0678718090057373, 8.00942611694336, -2.6546413898468018, -1.6210792064666748, -2.3590707778930664, 0.062255859375, -0.188720703125, -0.802001953125
226, 2873699590, -5.327535629272461, 2.060925006866455, 7.9926438331604, -2.6362128257751465, -1.6528005599975586, -2.4036755561828613, 0.061767578125, -0.188720703125, -0.802001953125
227, 2873716257, -5.296655654907227, 2.068608522415161, 7.998668193817139, -2.54131817817688, -1.711684226989746, -2.3577775955200195, 0.061279296875, -0.188720703125, -0.802001953125
228, 2873732924, -5.302420616149902, 2.081639289855957, 8.00625228881836, -2.6560628414154053, -1.6132545471191406, -2.4121274948120117, 0.063720703125, -0.187744140625, -0.803955078125
229, 2873749591, -5.304721355438232, 2.0586397647857666, 8.000590324401855, -2.630540132522583, -1.475791335105896, -2.3947365283966064, 0.063720703125, -0.188232421875, -0.802001953125
230, 2873766258, -5.322610378265381, 2.0772955417633057, 8.01772403717041, -2.6389026641845703, -1.5154268741607666, -2.3665242195129395, 0.062255859375, -0.188720703125, -0.800537109375
231, 2873782925, -5.314808368682861, 2.0586729049682617, 8.03093147277832, -2.6250712871551514, -1.5432804822921753, -2.4591522216796875, 0.062255859375, -0.188720703125, -0.801025390625
232, 2873799592, -5.309853553771973, 2.057643413543701, 8.01330852508545, -2.6085898876190186, -1.57075035572052, -2.4086573123931885, 0.064208984375, -0.186767578125, -0.803466796875
233, 2873816259, -5.3002610206604, 2.0634987354278564, 8.02344036102295, -2.4920389652252197, -1.4862282276153564, -2.4231793880462646, 0.064697265625, -0.186279296875, -0.802001953125
234, 2873832926, -5.316043853759766, 2.0565714836120605, 8.013646125793457, -2.565880537033081, -1.4595270156860352, -2.5326993465423584, 0.062744140625, -0.188720703125, -0.803466796875
235, 2873849593, -5.313141822814941, 2.065505266189575, 7.9908671379089355, -2.6617491245269775, -1.4744465351104736, -2.4903104305267334, 0.062744140625, -0.186767578125, -0.802490234375
236, 2873866260, -5.306972980499268, 2.072559118270874, 8.026259422302246, -2.6102545261383057, -1.4427635669708252, -2.543879270553589, 0.063720703125, -0.185302734375, -0.801513671875
237, 2873882927, -5.303471088409424, 2.0662012100219727, 8.013442993164062, -2.6951096057891846, -1.2963101863861084, -2.5701067447662354, 0.062744140625, -0.188720703125, -0.802978515625
238, 2873899594, -5.310457706451416, 2.0608067512512207, 8.010274887084961, -2.627223014831543, -1.2666761875152588, -2.4440791606903076, 0.064208984375, -0.188232421875, -0.803466796875
239, 2873916261, -5.313226222991943, 2.0683414936065674, 8.020663261413574, -2.5987672805786133, -1.3119466304779053, -2.5682239532470703, 0.064453125, -0.186767578125, -0.803955078125
240, 2873932928, -5.321272850036621, 2.061063051223755, 8.013673782348633, -2.6078085899353027, -1.2590949535369873, -2.573692560195923, 0.064208984375, -0.187744140625, -0.802490234375
241, 2873949595, -5.318414688110352, 2.065601110458374, 7.992415428161621, -2.6192574501037598, -1.3173508644104004, -2.509545087814331, 0.06591796875, -0.188232421875, -0.807373046875
242, 2873966262, -5.3094162940979, 2.0761265754699707, 8.014303207397461, -2.5912628173828125, -1.3225630521774292, -2.4880435466766357, 0.063720703125, -0.187255859375, -0.802490234375
243, 2873982929, -5.3145060539245605, 2.0718533992767334, 8.01377010345459, -2.6211018562316895, -1.3202580213546753, -2.5291779041290283, 0.063720703125, -0.187255859375, -0.79931640625
244, 2873999596, -5.314030647277832, 2.0528173446655273, 7.985914707183838, -2.5997023582458496, -1.393254280090332, -2.4688470363616943, 0.06494140625, -0.187255859375, -0.802001953125
245, 2874016263, -5.308908462524414, 2.0576813220977783, 7.985645771026611, -2.634881019592285, -1.4672365188598633, -2.4505081176757812, 0.062255859375, -0.187744140625, -0.802490234375
246, 2874032930, -5.304450988769531, 2.071807861328125, 8.032576560974121, -2.692150831222534, -1.3227039575576782, -2.4761717319488525, 0.061767578125, -0.187255859375, -0.804443359375
247, 2874049597, -5.312774181365967, 2.057086229324341, 8.0066556930542, -2.6191418170928955, -1.415178656578064, -2.5272436141967773, 0.064697265625, -0.187744140625, -0.801025390625
248, 2874066264, -5.3404412269592285, 2.0746312141418457, 8.026771545410156, -2.6207432746887207, -1.367641568183899, -2.5321743488311768, 0.064697265625, -0.188232421875, -0.802001953125
249, 2874082931, -5.3136796951293945, 2.063643217086792, 8.040681838989258, -2.7025115489959717, -1.3641327619552612, -2.5262835025787354, 0.063232421875, -0.185791015625, -0.801025390625
250, 2874099598, -5.305548667907715, 2.061023712158203, 8.03683090209961, -2.7701549530029297, -1.3801790475845337, -2.5294721126556396, 0.062744140625, -0.186279296875, -0.801513671875
251, 2874116265, -5.315096855163574, 2.0531249046325684, 8.010782241821289, -2.6025965213775635, -1.4422000646591187, -2.5046021938323975, 0.062255859375, -0.186767578125, -0.803466796875
252, 2874132932, -5.318174362182617, 2.0533249378204346, 8.010409355163574, -2.7069427967071533, -1.3963918685913086, -2.4889402389526367, 0.062744140625, -0.189697265625, -0.803955078125
253, 2874149599, -5.317025661468506, 2.0569849014282227, 8.008015632629395, -2.648353099822998, -1.359176516532898, -2.4997611045837402, 0.063232421875, -0.187744140625, -0.802001953125
254, 2874166266, -5.305194854736328, 2.073587417602539, 8.030891418457031, -2.609947443008423, -1.3770798444747925, -2.594541311264038, 0.063720703125, -0.187255859375, -0.802490234375
255, 2874182933, -5.308866500854492, 2.0579676628112793, 8.01613712310791, -2.5459537506103516, -1.3076820373535156, -2.476466417312622, 0.064697265625, -0.186767578125, -0.801025390625
256, 2874199600, -5.304166316986084, 2.0597918033599854, 8.021331787109375, -2.6396069526672363, -1.35529625415802, -2.536938190460205, 0.063720703125, -0.186279296875, -0.802490234375
257, 2874216267, -5.314266681671143, 2.0599846839904785, 7.997117042541504, -2.6367509365081787, -1.2989739179611206, -2.540536642074585, 0.063720703125, -0.188232421875, -0.801513671875
258, 2874232934, -5.319108963012695, 2.059190034866333, 8.027137756347656, -2.5780467987060547, -1.4045493602752686, -2.5443274974823, 0.063232421875, -0.186279296875, -0.802001953125
259, 2874249601, -5.3257155418396, 2.0584564208984375, 7.98745059967041, -2.5680320262908936, -1.4050743579864502, -2.5159871578216553, 0.062744140625, -0.188720703125, -0.803466796875
260, 2874266268, -5.310647964477539, 2.060164213180542, 8.0303373336792, -2.603224039077759, -1.3385454416275024, -2.431849241256714, 0.063720703125, -0.187744140625, -0.802001953125
261, 2874282935, -5.307777404785156, 2.0626189708709717, 8.019689559936523, -2.5383212566375732, -1.3399157524108887, -2.5664312839508057, 0.064697265625, -0.186767578125, -0.801513671875
262, 2874299602, -5.304490566253662, 2.0548715591430664, 7.997739315032959, -2.588355541229248, -1.3013044595718384, -2.451122760772705, 0.063232421875, -0.188232421875, -0.802490234375
263, 2874316269, -5.313596725463867, 2.0577967166900635, 8.022823333740234, -2.574537515640259, -1.2901246547698975, -2.568966865539551, 0.063720703125, -0.188232421875, -0.802490234375
264, 2874332936, -5.335182189941406, 2.059016227722168, 8.015026092529297, -2.542649507522583, -1.3074771165847778, -2.50115704536438, 0.063720703125, -0.186767578125, -0.804931640625
265, 2874349603, -5.3059892654418945, 2.062432289123535, 8.013219833374023, -2.6476235389709473, -1.4576702117919922, -2.544494152069092, 0.063720703125, -0.188232421875, -0.803466796875
266, 2874366270, -5.30508279800415, 2.059145212173462, 8.013102531433105, -2.5974225997924805, -1.3135857582092285, -2.501464366912842, 0.063232421875, -0.188720703125, -0.802001953125
267, 2874382937, -5.322577476501465, 2.0333523750305176, 8.017067909240723, -2.589597702026367, -1.2639484405517578, -2.463980197906494, 0.062744140625, -0.188232421875, -0.802490234375
268, 2874399604, -5.3164591789245605, 2.0812296867370605, 8.030118942260742, -2.6409897804260254, -1.3579216003417969, -2.52101993560791, 0.06396484375, -0.189208984375, -0.803955078125
269, 2874416271, -5.3139424324035645, 2.0647122859954834, 8.00512409210205, -2.613136053085327, -1.3519281148910522, -2.472522258758545, 0.063720703125, -0.186767578125, -0.804931640625
270, 2874432938, -5.315948486328125, 2.066134452819824, 7.993990421295166, -2.6712896823883057, -1.351582407951355, -2.625955104827881, 0.064453125, -0.187744140625, -0.803955078125
271, 2874449605, -5.315859317779541, 2.052985191345215, 8.006904602050781, -2.6015079021453857, -1.4096335172653198, -2.5890090465545654, 0.062255859375, -0.188232421875, -0.802978515625
272, 2874466272, -5.312804222106934, 2.0553367137908936, 8.023701667785645, -2.557351589202881, -1.3655027151107788, -2.559746265411377, 0.064453125, -0.189697265625, -0.802978515625
273, 2874482939, -5.317848205566406, 2.0524909496307373, 8.023298263549805, -2.592543363571167, -1.3875681161880493, -2.6037871837615967, 0.064208984375, -0.185791015625, -0.802001953125
274, 2874499606, -5.314571857452393, 2.0393004417419434, 8.016242980957031, -2.4946773052215576, -1.4120155572891235, -2.5746147632598877, 0.063720703125, -0.188232421875, -0.802490234375
275, 2874516273, -5.314664363861084, 2.056396961212158, 8.002861022949219, -2.582759141921997, -1.4630873203277588, -2.426624298095703, 0.0634765625, -0.186767578125, -0.805908203125
276, 2874532940, -5.305875778198242, 2.0734663009643555, 8.014513969421387, -2.5622048377990723, -1.3802428245544434, -2.51829195022583, 0.064208984375, -0.188720703125, -0.801513671875
277, 2874549607, -5.312380790710449, 2.068485975265503, 7.991429328918457, -2.6898841857910156, -1.3739421367645264, -2.47924542427063, 0.062744140625, -0.188232421875, -0.801513671875
278, 2874566274, -5.3143086433410645, 2.0599324703216553, 8.01460075378418, -2.665706157684326, -1.4290735721588135, -2.4979302883148193, 0.063232421875, -0.188232421875, -0.803466796875
279, 2874582941, -5.318536758422852, 2.045278787612915, 7.994738578796387, -2.6795244216918945, -1.3859418630599976, -2.573474884033203, 0.063232421875, -0.186767578125, -0.801025390625
280, 2874599608, -5.323884963989258, 2.046130418777466, 8.013922691345215, -2.635406255722046, -1.4113880395889282, -2.490528106689453, 0.063232421875, -0.188232421875, -0.802490234375
281, 2874616275, -5.302119255065918, 2.0586507320404053, 7.993707180023193, -2.6901919841766357, -1.4415086507797241, -2.471818208694458, 0.063720703125, -0.188232421875, -0.802978515625
282, 2874632942, -5.308716773986816, 2.0519537925720215, 8.028026580810547, -2.634183168411255, -1.3685442209243774, -2.517209768295288, 0.06396484375, -0.187255859375, -0.805419921875
283, 2874649609, -5.2947211265563965, 2.0433969497680664, 8.040138244628906, -2.594592332839966, -1.46970796585083, -2.5150907039642334, 0.06396484375, -0.185302734375, -0.805419921875
284, 2874666276, -5.323770523071289, 2.065249443054199, 8.017684936523438, -2.5733466148376465, -1.455723524093628, -2.5157055854797363, 0.062744140625, -0.190185546875, -0.803955078125
285, 2874682943, -5.330690383911133, 2.05708909034729, 8.01677131652832, -2.65411639213562, -1.3819204568862915, -2.538461923599243, 0.062255859375, -0.186767578125, -0.802978515625
286, 2874699610, -5.32051944732666, 2.0479540824890137, 8.017853736877441, -2.610907554626465, -1.5130958557128906, -2.4953174591064453, 0.06494140625, -0.186767578125, -0.802001953125
287, 2874716277, -5.315054893493652, 2.055833339691162, 8.022303581237793, -2.643935441970825, -1.4933102130889893, -2.45992112159729, 0.061767578125, -0.186767578125, -0.804931640625
288, 2874732944, -5.303330898284912, 2.0598981380462646, 8.027633666992188, -2.609473705291748, -1.4209928512573242, -2.4737770557403564, 0.062255859375, -0.188720703125, -0.803955078125
289, 2874749611, -5.329635143280029, 2.062798261642456, 8.000747680664062, -2.615351676940918, -1.485536813735962, -2.3922905921936035, 0.064453125, -0.188720703125, -0.805419921875
290, 2874766278, -5.316368103027344, 2.061612367630005, 7.990318775177002, -2.6214215755462646, -1.5571626424789429, -2.4347047805786133, 0.061767578125, -0.186767578125, -0.801513671875
291, 2874782945, -5.305713653564453, 2.0527288913726807, 7.9983415603637695, -2.647085666656494, -1.506321668624878, -2.44439959526062, 0.063720703125, -0.187744140625, -0.801025390625
292, 2874799612, -5.31198787689209, 2.0566158294677734, 8.018753051757812, -2.6080005168914795, -1.4805808067321777, -2.4323742389678955, 0.065185546875, -0.187255859375, -0.80078125
293, 2874816279, -5.313297748565674, 2.064723491668701, 8.025774002075195, -2.620615005493164, -1.4950134754180908, -2.4530439376831055, 0.064697265625, -0.187744140625, -0.802490234375
294, 2874832946, -5.3119049072265625, 2.0553770065307617, 8.008735656738281, -2.6034929752349854, -1.448577642440796, -2.4699227809906006, 0.063720703125, -0.186767578125, -0.802978515625
295, 2874849613, -5.313992977142334, 2.048128604888916, 8.000712394714355, -2.588176727294922, -1.4757143259048462, -2.455400228500366, 0.062744140625, -0.188720703125, -0.802001953125
296, 2874866280, -5.314664363861084, 2.0552451610565186, 8.00185489654541, -2.6322176456451416, -1.6122556924819946, -2.4626615047454834, 0.064697265625, -0.186279296875, -0.801513671875
297, 2874882947, -5.30250358581543, 2.066570520401001, 8.03859806060791, -2.6675119400024414, -1.439139485359192, -2.5538809299468994, 0.060791015625, -0.189697265625, -0.801513671875
298, 2874899614, -5.30882453918457, 2.0507891178131104, 8.01006031036377, -2.651503801345825, -1.369767427444458, -2.517894983291626, 0.063232421875, -0.186279296875, -0.802490234375
299, 2874916281, -5.302012920379639, 2.049984931945801, 8.004894256591797, -2.6245718002319336, -1.342989206314087, -2.5534965991973877, 0.062255859375, -0.187255859375, -0.803955078125
300, 2874932948, -5.301711559295654, 2.0372536182403564, 8.023801803588867, -2.6547820568084717, -1.4135394096374512, -2.5100958347320557, 0.061279296875, -0.187744140625, -0.803466796875
301, 2874949615, -5.293937683105469, 2.0507354736328125, 8.018913269042969, -2.5518829822540283, -1.3570631742477417, -2.4700376987457275, 0.063232421875, -0.187255859375, -0.804931640625
302, 2874966282, -5.306164741516113, 2.071378469467163, 8.020315170288086, -2.5590803623199463, -1.4167667627334595, -2.508380174636841, 0.06591796875, -0.186279296875, -0.802490234375
303, 2874982949, -5.32142972946167, 2.0594022274017334, 8.013227462768555, -2.5549824237823486, -1.390974760055542, -2.545121431350708, 0.063232421875, -0.186767578125, -0.801513671875
304, 2874999616, -5.306615352630615, 2.0461738109588623, 7.997260570526123, -2.6699578762054443, -1.5257359743118286, -2.487403154373169, 0.063720703125, -0.187255859375, -0.800048828125
305, 2875016283, -5.307561874389648, 2.053924560546875, 8.007052421569824, -2.6606218814849854, -1.4340680837631226, -2.4366517066955566, 0.060791015625, -0.187255859375, -0.8046875
306, 2875032950, -5.324638843536377, 2.059706211090088, 8.015382766723633, -2.669381618499756, -1.465187668800354, -2.4459874629974365, 0.062744140625, -0.186279296875, -0.803466796875
307, 2875049617, -5.308875560760498, 2.06052827835083, 8.013995170593262, -2.5439305305480957, -1.445542573928833, -2.5005171298980713, 0.062255859375, -0.187255859375, -0.803466796875
308, 2875066284, -5.319832801818848, 2.049760103225708, 8.01799488067627, -2.6715712547302246, -1.2689813375473022, -2.503385305404663, 0.062744140625, -0.188232421875, -0.802001953125
309, 2875082951, -5.316662788391113, 2.0570716857910156, 8.02540397644043, -2.6379292011260986, -1.3192464113235474, -2.4784646034240723, 0.063232421875, -0.186767578125, -0.802978515625
310, 2875099618, -5.306047439575195, 2.0626602172851562, 8.003643989562988, -2.6147751808166504, -1.239975094795227, -2.5303685665130615, 0.064208984375, -0.186767578125, -0.800537109375
311, 2875116285, -5.309927463531494, 2.050311803817749, 8.0073823928833, -2.711745023727417, -1.2935056686401367, -2.561091184616089, 0.063720703125, -0.187255859375, -0.803955078125
312, 2875132952, -5.315974235534668, 2.0550360679626465, 8.007173538208008, -2.6839165687561035, -1.3941251039505005, -2.445974826812744, 0.064208984375, -0.187744140625, -0.803466796875
313, 2875149619, -5.31692361831665, 2.0541675090789795, 8.0039701461792, -2.620217800140381, -1.4756886959075928, -2.443131685256958, 0.063720703125, -0.187255859375, -0.803466796875
314, 2875166286, -5.313165187835693, 2.055046796798706, 8.000282287597656, -2.6115353107452393, -1.462562084197998, -2.3713009357452393, 0.062744140625, -0.186767578125, -0.803955078125
315, 2875182953, -5.321712493896484, 2.075272798538208, 8.024127960205078, -2.544635057449341, -1.5112648010253906, -2.416520357131958, 0.062255859375, -0.186279296875, -0.802001953125
316, 2875199620, -5.322580814361572, 2.0456182956695557, 8.022749900817871, -2.689640998840332, -1.5302822589874268, -2.4816787242889404, 0.063720703125, -0.187255859375, -0.800537109375
317, 2875216287, -5.311140537261963, 2.046508550643921, 7.994757175445557, -2.662607431411743, -1.546533465385437, -2.5060365200042725, 0.061279296875, -0.184814453125, -0.802978515625
318, 2875232954, -5.2972636222839355, 2.0452024936676025, 8.03433609008789, -2.6207046508789062, -1.5582127571105957, -2.421834707260132, 0.061767578125, -0.186279296875, -0.804443359375
319, 2875249621, -5.306806564331055, 2.0621635913848877, 7.99381685256958, -2.4875950813293457, -1.4192637205123901, -2.3786001205444336, 0.064453125, -0.187744140625, -0.805419921875
320, 2875266288, -5.306286334991455, 2.0538909435272217, 8.014060974121094, -2.5691845417022705, -1.3959177732467651, -2.405275821685791, 0.062744140625, -0.186767578125, -0.802490234375
321, 2875282955, -5.318562984466553, 2.0570662021636963, 7.998158931732178, -2.5921337604522705, -1.4191358089447021, -2.4043030738830566, 0.062744140625, -0.187255859375, -0.803466796875
322, 2875299622, -5.322983741760254, 2.047234535217285, 8.008931159973145, -2.5737814903259277, -1.4365392923355103, -2.398577928543091, 0.061767578125, -0.187744140625, -0.800537109375
323, 2875316289, -5.316563606262207, 2.056896924972534, 7.99426794052124, -2.6415023803710938, -1.422337532043457, -2.4976868629455566, 0.0654296875, -0.186767578125, -0.803466796875
324, 2875332956, -5.314981937408447, 2.0577542781829834, 8.020853996276855, -2.562832832336426, -1.4490387439727783, -2.4743151664733887, 0.063232421875, -0.185791015625, -0.804931640625
325, 2875349623, -5.312928199768066, 2.0351505279541016, 8.008540153503418, -2.6044020652770996, -1.4545326232910156, -2.5199313163757324, 0.063720703125, -0.185791015625, -0.803466796875
326, 2875366290, -5.306413650512695, 2.0462632179260254, 8.036468505859375, -2.55983567237854, -1.4637528657913208, -2.392059564590454, 0.062255859375, -0.187255859375, -0.801513671875
327, 2875382957, -5.303189754486084, 2.048067331314087, 8.004729270935059, -2.485776901245117, -1.4174199104309082, -2.509084463119507, 0.063232421875, -0.188232421875, -0.801513671875
328, 2875399624, -5.299266338348389, 2.0614376068115234, 8.01719856262207, -2.5705034732818604, -1.2658436298370361, -2.435626983642578, 0.062255859375, -0.187255859375, -0.802978515625
329, 2875416291, -5.306204319000244, 2.0546350479125977, 8.024441719055176, -2.5858330726623535, -1.2325729131698608, -2.6135330200195312, 0.063720703125, -0.185791015625, -0.803955078125
330, 2875432958, -5.314833164215088, 2.0429725646972656, 8.015830039978027, -2.514539957046509, -1.2322782278060913, -2.502309560775757, 0.062744140625, -0.187255859375, -0.803955078125
331, 2875449625, -5.3151140213012695, 2.039564847946167, 8.028708457946777, -2.499364137649536, -1.2615280151367188, -2.4262654781341553, 0.062255859375, -0.185302734375, -0.803955078125
332, 2875466292, -5.316885948181152, 2.0587494373321533, 8.001221656799316, -2.5836174488067627, -1.4360530376434326, -2.4604971408843994, 0.064697265625, -0.187255859375, -0.801025390625
333, 2875482959, -5.307124137878418, 2.040410280227661, 7.998475551605225, -2.6071043014526367, -1.412476658821106, -2.472189426422119, 0.064208984375, -0.186767578125, -0.802001953125
334, 2875499626, -5.306432247161865, 2.0453336238861084, 7.987767219543457, -2.615018606185913, -1.535404920578003, -2.4771199226379395, 0.063232421875, -0.187744140625, -0.800048828125
335, 2875516293, -5.307375907897949, 2.0496666431427, 8.037507057189941, -2.7177510261535645, -1.3669627904891968, -2.4955735206604004, 0.062744140625, -0.187744140625, -0.803955078125
336, 2875532960, -5.305485248565674, 2.060544490814209, 8.023174285888672, -2.660609245300293, -1.379679560661316, -2.601456642150879, 0.061279296875, -0.186767578125, -0.802978515625
337, 2875549627, -5.307240962982178, 2.0431370735168457, 8.029726028442383, -2.6727497577667236, -1.3130353689193726, -2.641681671142578, 0.063232421875, -0.185791015625, -0.804443359375
338, 2875566294, -5.3441643714904785, 2.05075740814209, 8.017239570617676, -2.603057384490967, -1.325380563735962, -2.5151548385620117, 0.062255859375, -0.185791015625, -0.801513671875
339, 2875582961, -5.280939102172852, 2.039081573486328, 7.994288444519043, -2.5664563179016113, -1.4494482278823853, -2.347839117050171, 0.063720703125, -0.187255859375, -0.801513671875
340, 2875599628, -5.30991792678833, 2.0482144355773926, 8.01530933380127, -2.5515754222869873, -1.3464083671569824, -2.4369330406188965, 0.061767578125, -0.187744140625, -0.800537109375
341, 2875616295, -5.309194564819336, 2.0606894493103027, 7.998968601226807, -2.47975754737854, -1.3267122507095337, -2.448305130004883, 0.064208984375, -0.184814453125, -0.802490234375
342, 2875632962, -5.3180012702941895, 2.0502207279205322, 8.040562629699707, -2.487069845199585, -1.3383660316467285, -2.439225673675537, 0.064453125, -0.185302734375, -0.804443359375
343, 2875649629, -5.3119001388549805, 2.0440754890441895, 8.016478538513184, -2.4578843116760254, -1.4358991384506226, -2.3940961360931396, 0.061767578125, -0.187744140625, -0.802490234375
344, 2875666296, -5.322638511657715, 2.041773796081543, 8.021756172180176, -2.5134384632110596, -1.5343544483184814, -2.383249044418335, 0.064208984375, -0.184814453125, -0.802001953125
345, 2875682963, -5.30669641494751, 2.0663506984710693, 8.002988815307617, -2.480397939682007, -1.4236435890197754, -2.3189353942871094, 0.063232421875, -0.187255859375, -0.801025390625
346, 2875699630, -5.302003860473633, 2.063793420791626, 8.028874397277832, -2.5754337310791016, -1.4647647142410278, -2.365704298019409, 0.063232421875, -0.186767578125, -0.802001953125
347, 2875716297, -5.297386169433594, 2.04148530960083, 8.024070739746094, -2.457090377807617, -1.3519151210784912, -2.541714668273926, 0.061767578125, -0.186767578125, -0.802490234375
348, 2875732964, -5.311618328094482, 2.0634703636169434, 8.012508392333984, -2.491398572921753, -1.3134833574295044, -2.4747376441955566, 0.062744140625, -0.187255859375, -0.802490234375
349, 2875749631, -5.331096172332764, 2.041581630706787, 7.991727352142334, -2.554713010787964, -1.375171422958374, -2.3877182006835938, 0.063232421875, -0.188232421875, -0.803466796875
350, 2875766298, -5.3067803382873535, 2.0518500804901123, 8.00926685333252, -2.497161626815796, -1.4560564756393433, -2.417057752609253, 0.062744140625, -0.187744140625, -0.802978515625
351, 2875782965, -5.309499263763428, 2.0567586421966553, 8.03677749633789, -2.4827287197113037, -1.4413419961929321, -2.3991546630859375, 0.061767578125, -0.189208984375, -0.800048828125
352, 2875799632, -5.305840015411377, 2.0528740882873535, 8.044130325317383, -2.5270774364471436, -1.4697847366333008, -2.4674763679504395, 0.062255859375, -0.185302734375, -0.800537109375
353, 2875816299, -5.304631233215332, 2.0440545082092285, 7.9981865882873535, -2.474071741104126, -1.3557955026626587, -2.4924230575561523, 0.062255859375, -0.188232421875, -0.80712890625
354, 2875832966, -5.306957721710205, 2.05415678024292, 8.008612632751465, -2.4982500076293945, -1.3559107780456543, -2.530778169631958, 0.064697265625, -0.186767578125, -0.802490234375
355, 2875849633, -5.311144828796387, 2.044405937194824, 8.004219055175781, -2.55293345451355, -1.4031280279159546, -2.5210201740264893, 0.062255859375, -0.186767578125, -0.803955078125
356, 2875866300, -5.3138041496276855, 2.0554819107055664, 7.983814716339111, -2.5015921592712402, -1.3977617025375366, -2.42805814743042, 0.064208984375, -0.185302734375, -0.802978515625
357, 2875882967, -5.30980920791626, 2.0639426708221436, 7.994649410247803, -2.5236194133758545, -1.4295985698699951, -2.402010440826416, 0.063720703125, -0.190185546875, -0.80078125
358, 2875899634, -5.316701412200928, 2.0602259635925293, 8.01411247253418, -2.5140914916992188, -1.4601287841796875, -2.4295952320098877, 0.060791015625, -0.188720703125, -0.802978515625
359, 2875916301, -5.3219475746154785, 2.053175687789917, 8.034089088439941, -2.544391632080078, -1.432057499885559, -2.468872547149658, 0.064697265625, -0.186279296875, -0.801513671875
360, 2875932968, -5.313941478729248, 2.0528066158294678, 7.9915313720703125, -2.4577949047088623, -1.5453039407730103, -2.386091947555542, 0.062255859375, -0.188232421875, -0.802001953125
361, 2875949635, -5.3037238121032715, 2.057997703552246, 8.010591506958008, -2.558964967727661, -1.605826735496521, -2.3724148273468018, 0.062255859375, -0.186767578125, -0.804931640625
362, 2875966302, -5.307201385498047, 2.054189682006836, 8.021522521972656, -2.4266366958618164, -1.5533334016799927, -2.3374531269073486, 0.062744140625, -0.187744140625, -0.803466796875
363, 2875982969, -5.293684482574463, 2.0727033615112305, 8.013768196105957, -2.5432770252227783, -1.532164454460144, -2.367522716522217, 0.064208984375, -0.186767578125, -0.7998046875
364, 2875999636, -5.314425468444824, 2.0617828369140625, 8.015253067016602, -2.543290376663208, -1.5595064163208008, -2.385387897491455, 0.060791015625, -0.188720703125, -0.802001953125
365, 2876016303, -5.303250789642334, 2.0720534324645996, 7.993526458740234, -2.689359188079834, -1.4955769777297974, -2.530522108078003, 0.062744140625, -0.185302734375, -0.803955078125
366, 2876032970, -5.298783302307129, 2.063335418701172, 7.995151996612549, -2.5838990211486816, -1.3307464122772217, -2.506535768508911, 0.063232421875, -0.186279296875, -0.804443359375
367, 2876049637, -5.312305450439453, 2.053842067718506, 8.013843536376953, -2.53100848197937, -1.326737880706787, -2.4492530822753906, 0.063232421875, -0.187255859375, -0.805419921875
368, 2876066304, -5.311408519744873, 2.0489909648895264, 8.016196250915527, -2.519188404083252, -1.353400707244873, -2.379560708999634, 0.062744140625, -0.185302734375, -0.802490234375
369, 2876082971, -5.300268173217773, 2.0530800819396973, 8.02325439453125, -2.4713563919067383, -1.2575193643569946, -2.4697301387786865, 0.063232421875, -0.185791015625, -0.802490234375
370, 2876099638, -5.296082496643066, 2.052077054977417, 8.013744354248047, -2.5237667560577393, -1.2879794836044312, -2.4713246822357178, 0.062744140625, -0.187744140625, -0.800537109375
371, 2876116305, -5.287117958068848, 2.0575807094573975, 8.026508331298828, -2.422154426574707, -1.2225325107574463, -2.4626481533050537, 0.062744140625, -0.189697265625, -0.803955078125
372, 2876132972, -5.312970161437988, 2.0525104999542236, 8.022183418273926, -2.393378496170044, -1.1952036619186401, -2.4627506732940674, 0.063720703125, -0.186767578125, -0.804443359375
373, 2876149639, -5.318449020385742, 2.0652098655700684, 8.008275032043457, -2.4458720684051514, -1.3299651145935059, -2.5176899433135986, 0.064453125, -0.187255859375, -0.804443359375
374, 2876166306, -5.313622951507568, 2.053250551223755, 8.006799697875977, -2.4059927463531494, -1.3683968782424927, -2.4632115364074707, 0.063720703125, -0.187255859375, -0.802490234375
375, 2876182973, -5.314607620239258, 2.0489490032196045, 8.03125, -2.45055890083313, -1.3210902214050293, -2.447357416152954, 0.063232421875, -0.188232421875, -0.801513671875
376, 2876199640, -5.301389694213867, 2.054166078567505, 8.022990226745605, -2.4088873863220215, -1.3551039695739746, -2.3927769660949707, 0.061279296875, -0.183837890625, -0.802490234375
377, 2876216307, -5.317061901092529, 2.0669987201690674, 7.992767333984375, -2.402944803237915, -1.382893681526184, -2.3895111083984375, 0.064208984375, -0.185302734375, -0.804443359375
378, 2876232974, -5.307867050170898, 2.064180850982666, 8.018021583557129, -2.487121105194092, -1.441098690032959, -2.344010591506958, 0.063720703125, -0.188720703125, -0.802490234375
379, 2876249641, -5.307286262512207, 2.0606067180633545, 8.00740909576416, -2.505268096923828, -1.4751250743865967, -2.3092410564422607, 0.063720703125, -0.186279296875, -0.804443359375
380, 2876266308, -5.317971706390381, 2.061527729034424, 7.99597692489624, -2.459139347076416, -1.532766342163086, -2.2156779766082764, 0.061767578125, -0.187744140625, -0.802978515625
381, 2876282975, -5.289307594299316, 2.0737836360931396, 8.026310920715332, -2.5625507831573486, -1.411605715751648, -2.413958787918091, 0.063232421875, -0.188720703125, -0.803466796875
382, 2876299642, -5.308466911315918, 2.0540008544921875, 8.017155647277832, -2.4540297985076904, -1.4357327222824097, -2.425048828125, 0.062255859375, -0.188232421875, -0.805419921875
383, 2876316309, -5.312552452087402, 2.0534002780914307, 8.021944046020508, -2.4369077682495117, -1.422158122062683, -2.3893961906433105, 0.062744140625, -0.188720703125, -0.801513671875
384, 2876332976, -5.3172125816345215, 2.070134162902832, 8.017923355102539, -2.463365316390991, -1.40183424949646, -2.4017155170440674, 0.063720703125, -0.187744140625, -0.803466796875
385, 2876349643, -5.302796840667725, 2.053959846496582, 7.999329090118408, -2.3936476707458496, -1.423323392868042, -2.348633289337158, 0.064208984375, -0.186279296875, -0.802978515625
386, 2876366310, -5.302972793579102, 2.056434154510498, 8.022089958190918, -2.480064868927002, -1.374031662940979, -2.3184869289398193, 0.060791015625, -0.188232421875, -0.804443359375
387, 2876382977, -5.3062825202941895, 2.0570313930511475, 8.013981819152832, -2.5002992153167725, -1.3886821269989014, -2.36373233795166, 0.061767578125, -0.188232421875, -0.801513671875
388, 2876399644, -5.286070346832275, 2.0759894847869873, 7.99436616897583, -2.457782030105591, -1.2008130550384521, -2.5155386924743652, 0.064208984375, -0.189208984375, -0.801025390625
389, 2876416311, -5.306634902954102, 2.0577690601348877, 8.026416778564453, -2.526501178741455, -1.2120442390441895, -2.526949405670166, 0.062744140625, -0.188720703125, -0.802490234375
390, 2876432978, -5.325596809387207, 2.0654962062835693, 8.01183795928955, -2.424178123474121, -1.2666889429092407, -2.4853668212890625, 0.063232421875, -0.187255859375, -0.802001953125
391, 2876449645, -5.319914817810059, 2.0585451126098633, 8.037117004394531, -2.375795602798462, -1.2944657802581787, -2.4332191944122314, 0.062744140625, -0.187255859375, -0.802001953125
392, 2876466312, -5.310417652130127, 2.0726265907287598, 8.01595687866211, -2.4295694828033447, -1.2042067050933838, -2.5117604732513428, 0.064208984375, -0.188720703125, -0.801513671875
393, 2876482979, -5.302170276641846, 2.0875473022460938, 7.99287748336792, -2.6341896057128906, -1.4022315740585327, -2.5752549171447754, 0.064208984375, -0.188232421875, -0.802001953125
394, 2876499646, -5.313952445983887, 2.062502861022949, 8.001639366149902, -2.7747642993927, -1.4010530710220337, -2.666691541671753, 0.064208984375, -0.188720703125, -0.801513671875
395, 2876516313, -5.3235392570495605, 2.0532658100128174, 8.005069732666016, -2.6784095764160156, -1.3489569425582886, -2.530752420425415, 0.064208984375, -0.186767578125, -0.802001953125
396, 2876532980, -5.3222336769104, 2.067192316055298, 8.022769927978516, -2.6197822093963623, -1.3567432165145874, -2.4082088470458984, 0.061767578125, -0.187255859375, -0.802978515625
397, 2876549647, -5.30940055847168, 2.0465691089630127, 8.013679504394531, -2.44057035446167, -1.4183802604675293, -2.342358350753784, 0.061279296875, -0.187255859375, -0.803466796875
398, 2876566314, -5.300342559814453, 2.078808069229126, 8.020058631896973, -2.429121255874634, -1.291814923286438, -2.363591194152832, 0.062744140625, -0.187744140625, -0.802001953125
399, 2876582981, -5.295823097229004, 2.068528890609741, 8.014366149902344, -2.408221483230591, -1.256174921989441, -2.4058523178100586, 0.062744140625, -0.188232421875, -0.801513671875
400, 2876599648, -5.3129706382751465, 2.0662944316864014, 8.010981559753418, -2.3347256183624268, -1.3153527975082397, -2.3748605251312256, 0.061767578125, -0.187744140625, -0.802001953125
401, 2876616315, -5.322516918182373, 2.0605902671813965, 8.007644653320312, -2.2716031074523926, -1.4023722410202026, -2.283820390701294, 0.061767578125, -0.187744140625, -0.802001953125
402, 2876632982, -5.298938751220703, 2.068899631500244, 8.008363723754883, -2.3033246994018555, -1.4711166620254517, -2.303196668624878, 0.060791015625, -0.188720703125, -0.802001953125
403, 2876649649, -5.294317245483398, 2.0656590461730957, 8.017642974853516, -2.3221752643585205, -1.3351643085479736, -2.3337907791137695, 0.06640625, -0.186767578125, -0.803466796875
404, 2876666316, -5.308038711547852, 2.0774593353271484, 8.001314163208008, -2.2758548259735107, -1.2314586639404297, -2.369020938873291, 0.062744140625, -0.188232421875, -0.801025390625
405, 2876682983, -5.318757057189941, 2.07548189163208, 7.991487503051758, -2.3492095470428467, -1.252397060394287, -2.4467554092407227, 0.062744140625, -0.188232421875, -0.801513671875
406, 2876699650, -5.3252716064453125, 2.0638821125030518, 8.016948699951172, -2.3012630939483643, -1.320181131362915, -2.411512613296509, 0.063720703125, -0.188232421875, -0.802490234375
407, 2876716317, -5.3110175132751465, 2.0787079334259033, 8.019637107849121, -2.3676507472991943, -1.4204034805297852, -2.3532819747924805, 0.062744140625, -0.188720703125, -0.802001953125
408, 2876732984, -5.320873260498047, 2.0794293880462646, 8.017293930053711, -2.4223084449768066, -1.4650976657867432, -2.3436391353607178, 0.064208984375, -0.188720703125, -0.802978515625
409, 2876749651, -5.302002906799316, 2.0969998836517334, 8.026180267333984, -2.5541110038757324, -1.4071104526519775, -2.3527441024780273, 0.064208984375, -0.187255859375, -0.803466796875
410, 2876766318, -5.309003829956055, 2.06486439704895, 8.002768516540527, -2.5065743923187256, -1.5407962799072266, -2.4132161140441895, 0.063720703125, -0.189697265625, -0.804443359375
411, 2876782985, -5.317583084106445, 2.081321954727173, 7.99572229385376, -2.4658753871917725, -1.5325230360031128, -2.3337652683258057, 0.062744140625, -0.188720703125, -0.800048828125
412, 2876799652, -5.298742294311523, 2.079927682876587, 8.031871795654297, -2.4748783111572266, -1.4719619750976562, -2.3555872440338135, 0.061767578125, -0.188232421875, -0.799072265625
413, 2876816319, -5.329689979553223, 2.0594327449798584, 8.029805183410645, -2.457308292388916, -1.6010627746582031, -2.267287492752075, 0.060791015625, -0.188232421875, -0.802001953125
414, 2876832986, -5.327298641204834, 2.0717222690582275, 8.021815299987793, -2.3810458183288574, -1.644770622253418, -2.1251752376556396, 0.060791015625, -0.188720703125, -0.801513671875
415, 2876849653, -5.342123985290527, 2.0705015659332275, 8.024236679077148, -2.3406293392181396, -1.679450273513794, -2.0286922454833984, 0.061279296875, -0.189208984375, -0.803466796875
416, 2876866320, -5.367568016052246, 2.068312168121338, 8.017127990722656, -2.204280138015747, -1.9486653804779053, -1.826236605644226, 0.062744140625, -0.189208984375, -0.802490234375
417, 2876882987, -5.390460968017578, 2.0490620136260986, 8.020624160766602, -2.4658751487731934, -2.3994104862213135, -1.5963753461837769, 0.062255859375, -0.189697265625, -0.802490234375
418, 2876899654, -5.342047691345215, 2.0796773433685303, 8.004318237304688, -2.673184633255005, -2.9026360511779785, -1.372302770614624, 0.060791015625, -0.189697265625, -0.802001953125
419, 2876916321, -5.256197452545166, 2.1154801845550537, 8.01611328125, -2.630129337310791, -2.9293367862701416, -1.2260926961898804, 0.063232421875, -0.188720703125, -0.801025390625
420, 2876932988, -5.2865495681762695, 2.098661184310913, 8.055851936340332, -2.6777570247650146, -2.6637086868286133, -1.5178471803665161, 0.060302734375, -0.189208984375, -0.802001953125
421, 2876949655, -5.302487373352051, 2.0897018909454346, 8.032540321350098, -2.864178419113159, -2.5504229068756104, -1.4507416486740112, 0.060791015625, -0.188720703125, -0.804443359375
422, 2876966322, -5.281367301940918, 2.1123275756835938, 8.011459350585938, -2.979358673095703, -2.650325059890747, -1.5041569471359253, 0.058837890625, -0.188720703125, -0.80322265625
423, 2876982989, -5.303653240203857, 2.094456434249878, 8.016727447509766, -3.104656219482422, -2.8187544345855713, -1.6079908609390259, 0.062255859375, -0.187744140625, -0.803955078125
424, 2876999656, -5.270200729370117, 2.069671154022217, 8.016093254089355, -2.7502663135528564, -2.9369187355041504, -1.4863946437835693, 0.058349609375, -0.186767578125, -0.80224609375
425, 2877016323, -5.260900974273682, 2.032808303833008, 8.040705680847168, -2.4729835987091064, -2.8255038261413574, -1.351889729499817, 0.057861328125, -0.189697265625, -0.80322265625
426, 2877032990, -5.119040012359619, 2.0540719032287598, 7.945742607116699, -1.8400931358337402, -2.5050759315490723, -1.3635562658309937, 0.059814453125, -0.190673828125, -0.80517578125
427, 2877049657, -5.111731052398682, 2.0881967544555664, 8.090439796447754, -1.6879535913467407, -1.3205907344818115, -1.929532766342163, 0.058837890625, -0.188720703125, -0.8046875
428, 2877066324, -5.225445747375488, 2.0263214111328125, 8.027153968811035, -0.8433749079704285, -0.46392276883125305, -1.8199999332427979, 0.061767578125, -0.190673828125, -0.802001953125
429, 2877082991, -5.293401718139648, 2.099581003189087, 7.9761552810668945, -0.31543320417404175, -0.23356221616268158, -1.5907535552978516, 0.058837890625, -0.190673828125, -0.802001953125
430, 2877099658, -5.347067356109619, 2.0244972705841064, 7.994658946990967, 0.061797045171260834, -0.23394641280174255, -1.274628758430481, 0.058837890625, -0.190185546875, -0.801513671875
431, 2877116325, -5.257569789886475, 2.1757850646972656, 7.975346088409424, 0.6186555624008179, -0.5768235921859741, -0.7255693674087524, 0.058837890625, -0.190673828125, -0.798583984375
432, 2877132992, -5.238483428955078, 2.1420650482177734, 7.997540473937988, 0.46091973781585693, -0.8885558247566223, -1.1717041730880737, 0.059814453125, -0.192626953125, -0.801513671875
433, 2877149659, -5.27833366394043, 2.0745036602020264, 7.9720892906188965, 0.6573436260223389, -0.7559588551521301, -0.6639580726623535, 0.059326171875, -0.1923828125, -0.804931640625
434, 2877166326, -5.213306903839111, 2.1502063274383545, 8.01393985748291, 0.6649633049964905, -0.9012724757194519, -0.8039953708648682, 0.061767578125, -0.191650390625, -0.803955078125
435, 2877182993, -5.301095962524414, 2.2374792098999023, 8.014055252075195, 0.18546795845031738, -1.3183497190475464, -1.4446203708648682, 0.059326171875, -0.193115234375, -0.800048828125
436, 2877199660, -5.392429351806641, 2.224186420440674, 7.960144996643066, -1.6578973531723022, -2.0478761196136475, -1.6268419027328491, 0.058349609375, -0.1953125, -0.801025390625
437, 2877216327, -5.385028839111328, 2.024737596511841, 7.91749906539917, -2.035287857055664, -3.9144792556762695, -1.24440598487854, 0.058837890625, -0.192626953125, -0.798095703125
438, 2877232994, -5.24149751663208, 2.1961634159088135, 7.970452308654785, -2.2652127742767334, -4.992055892944336, -1.1678366661071777, 0.057373046875, -0.1943359375, -0.802490234375
439, 2877249661, -5.207892417907715, 2.314786195755005, 7.990029335021973, -2.9457554817199707, -4.992069721221924, -1.5249419212341309, 0.056884765625, -0.1953125, -0.804443359375
440, 2877266328, -5.217789649963379, 2.3048131465911865, 8.067423820495605, -2.9405813217163086, -4.709535598754883, -1.7720915079116821, 0.05419921875, -0.193603515625, -0.8037109375
441, 2877282995, -5.147669792175293, 2.2246062755584717, 8.117569923400879, -2.3047590255737305, -4.142790794372559, -2.1704845428466797, 0.05517578125, -0.1953125, -0.801513671875
442, 2877299662, -5.165034770965576, 2.085221290588379, 8.11186408996582, -2.2784931659698486, -2.829319715499878, -2.330871105194092, 0.0546875, -0.1953125, -0.80224609375
443, 2877316329, -5.208704948425293, 2.1178390979766846, 8.10766887664795, -1.454122543334961, -2.0954132080078125, -2.173084020614624, 0.05419921875, -0.194580078125, -0.800048828125
444, 2877332996, -5.243342876434326, 2.187133550643921, 8.062962532043457, -1.208906650543213, -1.0939568281173706, -2.3478775024414062, 0.05419921875, -0.1953125, -0.802734375
445, 2877349663, -5.195591449737549, 2.0966784954071045, 8.047449111938477, -0.5660535097122192, -0.4127102494239807, -2.213449716567993, 0.055908203125, -0.1943359375, -0.8037109375
446, 2877366330, -5.11726713180542, 2.098931312561035, 8.135998725891113, 0.3181609511375427, 1.019500732421875, -2.054241180419922, 0.0546875, -0.197265625, -0.802978515625
447, 2877382997, -5.1536688804626465, 2.221198320388794, 8.075875282287598, 0.910979688167572, 2.625058174133301, -2.1346518993377686, 0.056396484375, -0.19775390625, -0.799072265625
448, 2877399664, -5.26715087890625, 2.277216911315918, 7.994102954864502, 1.5445289611816406, 3.273975133895874, -2.4984803199768066, 0.057373046875, -0.1982421875, -0.800537109375
449, 2877416331, -5.241987228393555, 2.2576262950897217, 7.966794013977051, 1.3316236734390259, 3.1987252235412598, -2.8324062824249268, 0.058349609375, -0.19921875, -0.800048828125
450, 2877432998, -5.196575164794922, 2.241403341293335, 7.925257682800293, 1.243772029876709, 3.021332025527954, -2.8849120140075684, 0.059814453125, -0.19970703125, -0.802001953125
451, 2877449665, -5.20472526550293, 2.172370672225952, 8.018148422241211, 2.2749011516571045, 4.150007247924805, -2.599740743637085, 0.060791015625, -0.2001953125, -0.802978515625
452, 2877466332, -5.243320465087891, 2.283586263656616, 7.98687744140625, 3.114741563796997, 5.458828449249268, -2.2398180961608887, 0.061279296875, -0.202392578125, -0.80078125
453, 2877482999, -5.2435736656188965, 2.3224706649780273, 7.9242401123046875, 3.309769630432129, 6.166277885437012, -2.3624391555786133, 0.06494140625, -0.201416015625, -0.798583984375
454, 2877499666, -5.230844020843506, 2.357325315475464, 7.940610885620117, 3.494309186935425, 6.594150066375732, -2.8581342697143555, 0.06591796875, -0.203857421875, -0.798583984375
455, 2877516333, -5.27167272567749, 2.1774704456329346, 7.998220920562744, 4.155309200286865, 7.705101490020752, -2.7179689407348633, 0.06591796875, -0.205810546875, -0.797607421875
456, 2877533000, -5.259413242340088, 2.332778215408325, 7.9550065994262695, 4.695072174072266, 8.560362815856934, -2.7167398929595947, 0.0703125, -0.206298828125, -0.798828125
457, 2877549667, -5.293923854827881, 2.4435932636260986, 7.851494312286377, 4.6280951499938965, 9.303567886352539, -3.5361809730529785, 0.072265625, -0.207275390625, -0.79833984375
458, 2877566334, -5.313000202178955, 2.417154312133789, 7.941873073577881, 4.864091396331787, 11.17086410522461, -4.165062427520752, 0.073974609375, -0.2099609375, -0.796630859375
459, 2877583001, -5.322608947753906, 2.3907525539398193, 7.987374782562256, 5.133103370666504, 13.975870132446289, -4.620471000671387, 0.078857421875, -0.2099609375, -0.794189453125
460, 2877599668, -5.466017246246338, 2.3125851154327393, 7.882415771484375, 6.079636096954346, 16.945528030395508, -5.21736478805542, 0.083984375, -0.21337890625, -0.7939453125
461, 2877616335, -5.442844867706299, 2.3616631031036377, 7.84827995300293, 8.057602882385254, 20.46206283569336, -7.136723041534424, 0.08935546875, -0.212890625, -0.7890625
462, 2877633002, -5.227457046508789, 2.2711939811706543, 7.995197772979736, 11.340717315673828, 25.319133758544922, -9.06116008758545, 0.095458984375, -0.219482421875, -0.788818359375
463, 2877649669, -5.284072399139404, 2.688897132873535, 8.237862586975098, 13.354493141174316, 32.516456604003906, -10.872079849243164, 0.10205078125, -0.218994140625, -0.790283203125
464, 2877666336, -5.186173439025879, 2.4285919666290283, 8.230008125305176, 13.71336841583252, 42.89119338989258, -12.053850173950195, 0.112060546875, -0.22607421875, -0.7861328125
465, 2877683003, -5.283258438110352, 2.341407060623169, 8.185029029846191, 21.164255142211914, 59.17787170410156, -13.413822174072266, 0.125, -0.226806640625, -0.7822265625
466, 2877699670, -5.31566858291626, 2.517141819000244, 8.230143547058105, 26.129566192626953, 78.25341796875, -14.997220993041992, 0.14306640625, -0.23193359375, -0.7734375
467, 2877716337, -5.465146064758301, 2.639500379562378, 7.978434085845947, 31.017831802368164, 99.2218246459961, -17.812946319580078, 0.165283203125, -0.237548828125, -0.765625
468, 2877733004, -5.604918956756592, 2.872464656829834, 7.9462103843688965, 37.05882263183594, 126.10270690917969, -23.532495498657227, 0.192626953125, -0.24365234375, -0.756591796875
469, 2877749671, -5.662951469421387, 3.35208797454834, 8.215704917907715, 37.77392578125, 156.19735717773438, -33.90372085571289, 0.229736328125, -0.252197265625, -0.73974609375
470, 2877766338, -5.843025207519531, 3.314444065093994, 8.067407608032227, 29.439102172851562, 186.9536895751953, -47.32026290893555, 0.269287109375, -0.25341796875, -0.723876953125
471, 2877783005, -6.2909746170043945, 2.6658387184143066, 7.20867919921875, 21.40353775024414, 223.99134826660156, -62.78553771972656, 0.3193359375, -0.253173828125, -0.697021484375
472, 2877799672, -6.704885005950928, 3.1610491275787354, 7.330243110656738, 14.705305099487305, 267.7063293457031, -82.57028198242188, 0.376220703125, -0.247802734375, -0.66455078125
473, 2877816339, -8.324098587036133, 4.01812219619751, 8.734067916870117, 2.0623843669891357, 310.3389587402344, -104.60941314697266, 0.441162109375, -0.23388671875, -0.624755859375
474, 2877833006, -9.200739860534668, 4.260364532470703, 7.963371276855469, 1.86042058467865, 350.0867004394531, -125.24864959716797, 0.5068359375, -0.215087890625, -0.56982421875
475, 2877849673, -15.40867805480957, 7.0637383460998535, 11.5807523727417, -2.7520484924316406, 378.79241943359375, -147.4667205810547, 0.578125, -0.192626953125, -0.5029296875
476, 2877866340, -16.95051383972168, 5.701308250427246, 12.440642356872559, 8.473870277404785, 380.68450927734375, -146.70394897460938, 0.637939453125, -0.16796875, -0.42822265625
477, 2877883007, -18.928197860717773, 6.775234222412109, 13.868735313415527, 9.844746589660645, 356.26934814453125, -144.74960327148438, 0.689697265625, -0.13916015625, -0.343505859375
478, 2877899674, -16.280242919921875, 7.80563497543335, 15.08181095123291, 8.074633598327637, 306.48516845703125, -138.41171264648438, 0.728515625, -0.111328125, -0.266845703125
479, 2877916341, -7.732586860656738, 8.325408935546875, 15.652576446533203, -23.78256607055664, 232.53248596191406, -150.37403869628906, 0.7548828125, -0.079345703125, -0.197509765625
480, 2877933008, -2.716308116912842, 6.61037015914917, 12.068015098571777, -51.62569046020508, 203.3423614501953, -148.7138671875, 0.774658203125, -0.043212890625, -0.143798828125
481, 2877949675, -20.747392654418945, 9.55804443359375, 26.686058044433594, 3.167829990386963, -18.181732177734375, -44.66719436645508, 0.783447265625, -0.0263671875, -0.1240234375
482, 2877966342, -5.4876275062561035, 8.608391761779785, 16.50135040283203, -4.029687881469727, -203.51947021484375, 16.291643142700195, 0.784912109375, -0.02978515625, -0.15673828125
483, 2877983009, 0.41900306940078735, 5.288492679595947, 8.778977394104004, -30.95771598815918, -247.85171508789062, 25.421907424926758, 0.781494140625, -0.03857421875, -0.208740234375
484, 2877999676, 2.33900785446167, 3.0039846897125244, 5.0953145027160645, -39.65547180175781, -239.8072052001953, 30.2406005859375, 0.76953125, -0.044921875, -0.2646484375
485, 2878016343, 1.5676288604736328, 2.121548652648926, 4.430587291717529, -26.983802795410156, -218.51499938964844, 48.14399337768555, 0.763671875, -0.05322265625, -0.316650390625
486, 2878033010, -2.284353256225586, 3.2518160343170166, 6.221248626708984, -18.17970085144043, -209.9296417236328, 69.3892822265625, 0.74951171875, -0.06787109375, -0.37158203125
487, 2878049677, -6.281868934631348, 4.625187397003174, 8.09074592590332, -28.065088272094727, -236.8692626953125, 89.84005737304688, 0.72216796875, -0.088134765625, -0.432861328125
488, 2878066344, -7.142976760864258, 4.31166934967041, 8.197710990905762, -45.32406997680664, -281.47784423828125, 110.99668884277344, 0.677734375, -0.109375, -0.503173828125
489, 2878083011, -6.279276371002197, 3.3155360221862793, 6.819412708282471, -52.41672134399414, -306.7305908203125, 129.7338104248047, 0.61572265625, -0.120849609375, -0.5654296875
490, 2878099678, -6.022336959838867, 2.588813543319702, 5.884479999542236, -49.44945526123047, -307.9684753417969, 140.8293914794922, 0.5517578125, -0.12890625, -0.618896484375
491, 2878116345, -6.504976749420166, 1.9363375902175903, 5.919545650482178, -40.794288635253906, -292.9186706542969, 138.76182556152344, 0.489501953125, -0.13916015625, -0.66357421875
492, 2878133012, -7.222817897796631, 0.7481028437614441, 5.752442359924316, -23.527578353881836, -265.76629638671875, 123.3763427734375, 0.429443359375, -0.1455078125, -0.693115234375
493, 2878149679, -10.246840476989746, 0.6688665747642517, 7.987391948699951, 6.144068717956543, -225.3719482421875, 100.04033660888672, 0.38037109375, -0.15625, -0.703125
494, 2878166346, -16.00830078125, 1.7496038675308228, 11.428258895874023, 42.7627067565918, -210.71209716796875, 85.62686920166016, 0.355712890625, -0.170166015625, -0.70263671875
495, 2878183013, -23.937284469604492, 2.7727601528167725, 13.019305229187012, 69.46543884277344, -230.40774536132812, 82.1616439819336, 0.344482421875, -0.1962890625, -0.7158203125
496, 2878199680, -27.12589454650879, 3.3274576663970947, 9.051471710205078, 72.88565063476562, -262.70379638671875, 75.93164825439453, 0.325439453125, -0.23046875, -0.766357421875
497, 2878216347, -27.159263610839844, 3.766169786453247, 2.8087127208709717, 55.12842559814453, -260.8175048828125, 50.995086669921875, 0.276123046875, -0.269287109375, -0.83251953125
498, 2878233014, -28.541624069213867, 2.937723159790039, -1.9007174968719482, 49.43937301635742, -233.15011596679688, 38.3861083984375, 0.201904296875, -0.306640625, -0.88671875
499, 2878249681, -28.616600036621094, 0.18117272853851318, -5.678441047668457, 69.26565551757812, -211.44363403320312, 63.127662658691406, 0.11572265625, -0.343017578125, -0.9091796875
500, 2878266348, -25.484403610229492, -5.6234636306762695, -9.799392700195312, 79.5433120727539, -172.78848266601562, 82.9434585571289, 0.031982421875, -0.375, -0.9072265625
501, 2878283015, -22.095443725585938, -9.691099166870117, -11.206470489501953, 60.3696174621582, -110.68224334716797, 55.60045623779297, -0.02880859375, -0.401123046875, -0.897216796875
502, 2878299682, -20.017065048217773, -8.735827445983887, -8.594480514526367, 11.681507110595703, -46.70627975463867, -25.695446014404297, -0.0556640625, -0.409912109375, -0.8896484375
503, 2878316349, -21.130996704101562, -4.914662837982178, -4.4918718338012695, -26.071279525756836, 10.146735191345215, -106.88815307617188, -0.05615234375, -0.410400390625, -0.892822265625
504, 2878333016, -10.564948081970215, 0.6512866616249084, 5.573915481567383, -67.18595886230469, 40.81925964355469, -154.98681640625, -0.03125, -0.39404296875, -0.906494140625
505, 2878349683, 3.446389675140381, 9.408832550048828, 8.833843231201172, -68.26982116699219, 20.64353370666504, -144.7567596435547, -0.01416015625, -0.377685546875, -0.919189453125
506, 2878366350, 3.9730162620544434, 7.854682445526123, 1.4109666347503662, -53.790828704833984, 123.96553039550781, -100.88128662109375, 0.01708984375, -0.369873046875, -0.927490234375
507, 2878383017, -14.49221134185791, 3.6239981651306152, 13.381804466247559, -59.63969039916992, 163.93675231933594, -38.940834045410156, 0.059326171875, -0.358154296875, -0.934326171875
508, 2878399684, -15.116737365722656, -6.84925651550293, 14.015603065490723, -38.49555587768555, 100.12130737304688, -38.08914566040039, 0.091064453125, -0.346923828125, -0.938720703125
509, 2878416351, -6.47066593170166, 1.0079147815704346, 9.462136268615723, -6.858644962310791, 67.23562622070312, -35.10239791870117, 0.109619140625, -0.344482421875, -0.941162109375
510, 2878433018, -11.686423301696777, 8.480207443237305, 10.963799476623535, -35.89680099487305, 52.60859298706055, -30.78761100769043, 0.125244140625, -0.339599609375, -0.94580078125
511, 2878449685, -7.336371421813965, -0.3604239523410797, 8.501459121704102, -16.470762252807617, 14.291276931762695, -16.45853042602539, 0.13330078125, -0.330322265625, -0.947265625
512, 2878466352, -6.205672740936279, 3.121751308441162, 8.150111198425293, -11.038981437683105, 2.6519734859466553, -10.902324676513672, 0.1328125, -0.329833984375, -0.94921875
513, 2878483019, -6.244651794433594, 1.3800408840179443, 8.58967113494873, -5.555510520935059, -0.3326705992221832, -6.409707069396973, 0.13427734375, -0.32861328125, -0.94873046875
514, 2878499686, -5.636178970336914, 2.0953540802001953, 8.278081893920898, -1.777277946472168, 0.31200748682022095, -3.8208765983581543, 0.13623046875, -0.328857421875, -0.9482421875
515, 2878516353, -5.528539657592773, 2.0284194946289062, 8.18295669555664, 1.1029022932052612, 3.5415902137756348, -2.789325714111328, 0.13525390625, -0.330322265625, -0.95068359375
516, 2878533020, -5.596007823944092, 2.1598174571990967, 8.061564445495605, 3.299806594848633, 5.762225151062012, -2.3608641624450684, 0.13671875, -0.330810546875, -0.947509765625
517, 2878549687, -5.59799861907959, 2.5051653385162354, 7.896557331085205, 2.6150381565093994, 5.260715007781982, -3.4690613746643066, 0.1376953125, -0.331787109375, -0.947998046875
518, 2878566354, -5.439513206481934, 2.5996861457824707, 7.8512444496154785, 0.1262257993221283, 3.2042064666748047, -5.366245746612549, 0.140380859375, -0.332763671875, -0.948974609375
519, 2878583021, -5.311446189880371, 2.312795400619507, 7.82151460647583, 0.05082201212644577, 3.463804006576538, -5.930621147155762, 0.141357421875, -0.334228515625, -0.94580078125
520, 2878599688, -5.361777305603027, 2.161015272140503, 7.922004222869873, 1.7402231693267822, 3.8099987506866455, -6.149226665496826, 0.141845703125, -0.334228515625, -0.94482421875
521, 2878616355, -5.461132526397705, 2.3717873096466064, 7.855770111083984, 2.5571532249450684, 3.893777847290039, -6.176759719848633, 0.145263671875, -0.334716796875, -0.9453125
522, 2878633022, -5.536055088043213, 2.491909980773926, 7.81554651260376, 2.7882566452026367, 3.6367287635803223, -6.495240688323975, 0.145751953125, -0.336181640625, -0.9443359375
523, 2878649689, -5.559327602386475, 2.4457855224609375, 7.76298713684082, 2.616946220397949, 2.730269432067871, -6.4111552238464355, 0.14794921875, -0.3369140625, -0.944580078125
524, 2878666356, -5.481594085693359, 2.409411907196045, 7.789051532745361, 1.4776930809020996, 1.3049482107162476, -7.2406487464904785, 0.146728515625, -0.33984375, -0.944580078125
525, 2878683023, -5.480335235595703, 2.3247690200805664, 7.820611953735352, 0.9991195201873779, 0.9674238562583923, -7.672016143798828, 0.148193359375, -0.341796875, -0.941650390625
526, 2878699690, -5.5517802238464355, 2.1554219722747803, 7.84146785736084, 1.0419185161590576, 2.2004706859588623, -7.786993026733398, 0.14794921875, -0.34228515625, -0.943115234375
527, 2878716357, -5.31685209274292, 2.2524099349975586, 7.936361312866211, 2.358628988265991, 5.502293586730957, -6.898909091949463, 0.1513671875, -0.3427734375, -0.9423828125
528, 2878733024, -5.298888206481934, 2.479774236679077, 7.853265285491943, 4.603008270263672, 10.485864639282227, -8.322583198547363, 0.1533203125, -0.34375, -0.9423828125
529, 2878749691, -5.4091081619262695, 2.351809501647949, 7.838414192199707, 8.013861656188965, 16.25248146057129, -10.625843048095703, 0.159423828125, -0.345458984375, -0.940185546875
530, 2878766358, -5.127823829650879, 2.50386118888855, 8.082893371582031, 15.725061416625977, 24.324901580810547, -14.623151779174805, 0.164794921875, -0.348388671875, -0.935791015625
531, 2878783025, -4.6703782081604, 2.703101396560669, 8.84569263458252, 14.127927780151367, 38.99172592163086, -15.909860610961914, 0.173828125, -0.35107421875, -0.930908203125
532, 2878799692, -4.688265323638916, 2.618536949157715, 8.900917053222656, 18.99346923828125, 65.6395263671875, -19.6779727935791, 0.19140625, -0.3564453125, -0.92333984375
533, 2878816359, -4.972256660461426, 2.017442226409912, 9.053157806396484, 26.38787269592285, 97.6365737915039, -24.89397621154785, 0.21484375, -0.360595703125, -0.9150390625
534, 2878833026, -5.088402271270752, 2.8026657104492188, 9.152328491210938, 32.692535400390625, 135.7522735595703, -28.493749618530273, 0.248046875, -0.368408203125, -0.899169921875
535, 2878849693, -5.067410945892334, 3.777456283569336, 9.121824264526367, 33.231807708740234, 177.74853515625, -44.17586898803711, 0.29296875, -0.37109375, -0.88037109375
536, 2878866360, -4.9860124588012695, 3.705385684967041, 8.84539794921875, 30.978416442871094, 231.1399688720703, -69.1988754272461, 0.34912109375, -0.371826171875, -0.850341796875
537, 2878883027, -5.559722900390625, 4.228139877319336, 9.297619819641113, 24.18450355529785, 299.6299743652344, -101.38530731201172, 0.422607421875, -0.364013671875, -0.808349609375
538, 2878899694, -7.411289691925049, 4.109986782073975, 10.1892671585083, 14.474953651428223, 374.42279052734375, -140.8987274169922, 0.51123046875, -0.345703125, -0.749755859375
539, 2878916361, -8.450943946838379, 4.98295783996582, 10.241833686828613, 21.67348289489746, 445.9570007324219, -170.71864318847656, 0.60693359375, -0.314208984375, -0.66943359375
540, 2878933028, -19.091068267822266, 6.261551380157471, 15.458593368530273, 27.51051902770996, 467.2762451171875, -174.8722381591797, 0.70263671875, -0.278076171875, -0.56298828125
541, 2878949695, -21.658519744873047, 6.432984352111816, 17.839649200439453, 36.773651123046875, 428.9474182128906, -156.80137634277344, 0.771728515625, -0.23974609375, -0.455810546875
542, 2878966362, -19.170108795166016, 9.45413589477539, 19.678653717041016, 29.340904235839844, 353.6741027832031, -144.5127716064453, 0.81982421875, -0.19970703125, -0.34765625
543, 2878983029, -6.843329906463623, 10.762086868286133, 19.628406524658203, -3.07953143119812, 283.58331298828125, -164.4155731201172, 0.850341796875, -0.154296875, -0.260986328125
544, 2878999696, -0.9073799848556519, 17.466524124145508, 19.584064483642578, -106.06889343261719, 239.1978759765625, -173.20957946777344, 0.87451171875, -0.097900390625, -0.1923828125
545, 2879016363, -19.507755279541016, 14.012982368469238, 33.779998779296875, -109.79138946533203, -65.74140167236328, -28.320241928100586, 0.88330078125, -0.07568359375, -0.1875
546, 2879033030, 2.8336262702941895, 8.054388046264648, 18.003732681274414, -93.10617065429688, -244.7188262939453, 46.57645034790039, 0.8671875, -0.08056640625, -0.254150390625
547, 2879049697, 5.692415237426758, 4.30035924911499, 10.127960205078125, -78.41415405273438, -261.1465759277344, 48.519805908203125, 0.84375, -0.097412109375, -0.33642578125
548, 2879066364, 4.153008460998535, 2.119664192199707, 7.221628665924072, -48.69829559326172, -253.6669921875, 50.662418365478516, 0.79833984375, -0.111572265625, -0.410400390625
549, 2879083031, 0.2641964256763458, 2.489158868789673, 7.4465436935424805, -17.1298770904541, -253.76742553710938, 65.27629852294922, 0.740478515625, -0.130126953125, -0.473388671875
550, 2879099698, -3.932185649871826, 4.404845714569092, 8.448535919189453, -10.417534828186035, -270.79412841796875, 78.8178939819336, 0.676513671875, -0.148193359375, -0.525146484375
551, 2879116365, -8.028575897216797, 5.323166370391846, 9.60550594329834, -21.353443145751953, -309.17987060546875, 94.20207977294922, 0.604736328125, -0.16357421875, -0.572265625
552, 2879133032, -9.514404296875, 5.174251556396484, 9.339263916015625, -29.11365509033203, -352.9068603515625, 117.60101318359375, 0.52685546875, -0.17822265625, -0.616455078125
553, 2879149699, -8.24843978881836, 4.286281108856201, 7.002217769622803, -30.77528190612793, -372.4083251953125, 138.29739379882812, 0.44677734375, -0.1865234375, -0.650146484375
554, 2879166366, -7.11473274230957, 2.838050603866577, 5.47702693939209, -21.75432777404785, -338.80987548828125, 136.14056396484375, 0.372314453125, -0.2001953125, -0.676513671875
555, 2879183033, -10.179889678955078, 1.9509270191192627, 6.735251426696777, -5.0321197509765625, -279.7722473144531, 113.95169067382812, 0.317626953125, -0.2119140625, -0.68701171875
556, 2879199700, -18.52577781677246, 2.6259102821350098, 12.247428894042969, 29.765777587890625, -256.4380798339844, 97.5061264038086, 0.277099609375, -0.229248046875, -0.69873046875
557, 2879216367, -24.536041259765625, 2.8716790676116943, 13.659337043762207, 73.23943328857422, -291.0323791503906, 97.47799682617188, 0.232666015625, -0.26220703125, -0.71826171875
558, 2879233034, -26.096111297607422, 2.8270249366760254, 7.98361349105835, 97.68450927734375, -301.33184814453125, 101.91504669189453, 0.166748046875, -0.302001953125, -0.743896484375
559, 2879249701, -31.493457794189453, 3.816347599029541, 3.1387481689453125, 89.58029174804688, -274.9442138671875, 98.63229370117188, 0.08544921875, -0.341796875, -0.759521484375
560, 2879266368, -35.44999313354492, 3.112788200378418, -2.1710619926452637, 61.42195129394531, -268.762451171875, 100.05643463134766, -9.765625E-4, -0.3642578125, -0.7578125
561, 2879283035, -30.302719116210938, -2.360949993133545, -10.004084587097168, 49.50238037109375, -234.54205322265625, 112.20792388916016, -0.075439453125, -0.379638671875, -0.7431640625
562, 2879299702, -26.810543060302734, -10.36292839050293, -15.070322036743164, 68.90913391113281, -140.60293579101562, 113.34451293945312, -0.1298828125, -0.39013671875, -0.724609375
563, 2879316369, -26.726726531982422, -10.779401779174805, -15.595039367675781, 61.56781005859375, -9.350318908691406, 60.309566497802734, -0.151123046875, -0.40185546875, -0.704833984375
564, 2879333036, -31.203353881835938, -11.01253604888916, -11.981910705566406, -12.614917755126953, 82.69066619873047, -46.969390869140625, -0.137451171875, -0.402099609375, -0.704833984375
565, 2879349703, -14.118252754211426, -3.157644510269165, 5.775826454162598, -26.366544723510742, 103.99041748046875, -118.19993591308594, -0.107421875, -0.396728515625, -0.709228515625
566, 2879366370, 0.7134613394737244, 13.147329330444336, 12.745471000671387, -26.60974884033203, 58.076210021972656, -94.9441146850586, -0.088134765625, -0.39501953125, -0.70947265625
567, 2879383037, -2.857050895690918, 6.820262432098389, 3.315776824951172, -35.194522857666016, 125.39263153076172, -63.7844123840332, -0.0625, -0.38818359375, -0.712890625
568, 2879399704, -13.259099960327148, 1.363768219947815, 12.571623802185059, -55.131343841552734, 128.4761199951172, -35.03097915649414, -0.032470703125, -0.378173828125, -0.716064453125
569, 2879416371, -8.420730590820312, -3.1141016483306885, 10.658729553222656, -44.16653823852539, 98.10124969482422, -60.79032897949219, -0.0078125, -0.366943359375, -0.717041015625
570, 2879433038, -6.632789611816406, 2.453037977218628, 8.772299766540527, -19.948829650878906, 94.84492492675781, -46.75226974487305, 0.01416015625, -0.362548828125, -0.716552734375
571, 2879449705, -14.94597339630127, 7.258509635925293, 13.080323219299316, -57.313968658447266, 68.49090576171875, -49.30287551879883, 0.034423828125, -0.3486328125, -0.720458984375
572, 2879466372, -6.303640842437744, 0.15637093782424927, 9.17093563079834, -36.189571380615234, 27.477197647094727, -28.144733428955078, 0.04345703125, -0.34326171875, -0.722412109375
573, 2879483039, -6.507059574127197, 2.733569860458374, 8.502542495727539, -19.37450408935547, 15.317242622375488, -16.487560272216797, 0.0498046875, -0.336669921875, -0.722412109375
574, 2879499706, -5.785571098327637, 2.370506525039673, 8.312265396118164, -5.423751354217529, 16.015836715698242, -7.836303234100342, 0.053955078125, -0.334716796875, -0.7236328125
575, 2879516373, -5.7851457595825195, 2.6707422733306885, 8.126221656799316, 0.4919755458831787, 15.78083610534668, -5.375943660736084, 0.056396484375, -0.336669921875, -0.72119140625
576, 2879533040, -5.519124507904053, 2.7443888187408447, 7.902108192443848, 1.2920594215393066, 14.860668182373047, -6.314669609069824, 0.06103515625, -0.335693359375, -0.720458984375
577, 2879549707, -5.454196453094482, 2.4863407611846924, 7.944160461425781, -2.6941769123077393, 13.489640235900879, -9.611482620239258, 0.06591796875, -0.334228515625, -0.71923828125
578, 2879566374, -5.508928298950195, 2.917971611022949, 7.86610221862793, -6.628358840942383, 10.966279029846191, -16.1444149017334, 0.069580078125, -0.3349609375, -0.720703125
579, 2879583041, -5.760356903076172, 3.193817615509033, 7.606611728668213, -10.338162422180176, 6.113998889923096, -18.62175750732422, 0.071533203125, -0.333251953125, -0.720703125
580, 2879599708, -5.8069844245910645, 3.1697535514831543, 7.55413293838501, -15.343293190002441, -1.371511697769165, -19.00782585144043, 0.074462890625, -0.327880859375, -0.72412109375
581, 2879616375, -5.831358432769775, 2.9762895107269287, 7.51446008682251, -19.984291076660156, -10.841338157653809, -19.765483856201172, 0.073974609375, -0.326904296875, -0.71923828125
582, 2879633042, -5.699893474578857, 2.548828363418579, 7.534974575042725, -21.07810401916504, -17.132349014282227, -18.896814346313477, 0.072509765625, -0.32275390625, -0.728271484375
583, 2879649709, -5.376496315002441, 1.9655894041061401, 7.942792892456055, -16.528430938720703, -14.971224784851074, -16.304370880126953, 0.070556640625, -0.3193359375, -0.72705078125
584, 2879666376, -5.1712646484375, 2.102142095565796, 8.052793502807617, -11.77873706817627, -8.37060260772705, -16.623720169067383, 0.070556640625, -0.313720703125, -0.7275390625
585, 2879683043, -5.254171371459961, 2.1870992183685303, 8.026233673095703, -6.059767246246338, 0.5226214528083801, -17.748703002929688, 0.071044921875, -0.313720703125, -0.72705078125
586, 2879699710, -5.196468353271484, 2.5375008583068848, 8.025954246520996, -0.9636797308921814, 10.516651153564453, -20.808488845825195, 0.074951171875, -0.313232421875, -0.725830078125
587, 2879716377, -4.769635200500488, 2.7036383152008057, 8.461236953735352, 1.4110538959503174, 22.15251350402832, -24.795928955078125, 0.0810546875, -0.31298828125, -0.7236328125
588, 2879733044, -4.5183634757995605, 1.8882558345794678, 8.923630714416504, 3.562854051589966, 44.582313537597656, -22.78455352783203, 0.089599609375, -0.31396484375, -0.721435546875
589, 2879749711, -4.453145980834961, 2.1533305644989014, 9.338977813720703, 14.473085403442383, 80.7573471069336, -24.806425094604492, 0.107177734375, -0.31591796875, -0.71923828125
590, 2879766378, -4.61897087097168, 2.248788356781006, 9.626502990722656, 22.68568229675293, 122.30209350585938, -33.536041259765625, 0.1328125, -0.318603515625, -0.71240234375
591, 2879783045, -4.982327938079834, 2.6844613552093506, 9.706727981567383, 27.25691795349121, 169.8081512451172, -45.79142379760742, 0.168212890625, -0.323974609375, -0.697021484375
592, 2879799712, -4.935702323913574, 3.157083511352539, 9.256364822387695, 30.986600875854492, 228.9872589111328, -63.859867095947266, 0.21630859375, -0.323486328125, -0.678466796875
593, 2879816379, -5.115669250488281, 3.6886069774627686, 9.560792922973633, 26.9621639251709, 294.3127746582031, -99.1323013305664, 0.2783203125, -0.32275390625, -0.65478515625
594, 2879833046, -5.438209056854248, 3.25771164894104, 9.702150344848633, 13.442991256713867, 374.20294189453125, -142.5879669189453, 0.354248046875, -0.3115234375, -0.6142578125
595, 2879849713, -7.7443413734436035, 4.847768306732178, 11.4951753616333, 11.514877319335938, 446.9787292480469, -182.96054077148438, 0.441650390625, -0.290771484375, -0.55517578125
596, 2879866380, -12.498406410217285, 5.0951972007751465, 12.344491004943848, 15.257131576538086, 499.28125, -198.05787658691406, 0.5302734375, -0.25732421875, -0.47607421875
597, 2879883047, -23.55589485168457, 7.084683418273926, 16.162189483642578, 16.80779457092285, 479.6540222167969, -173.9022979736328, 0.6064453125, -0.22607421875, -0.3837890625
598, 2879899714, -20.36216163635254, 8.513652801513672, 17.815702438354492, -15.673696517944336, 402.05120849609375, -159.65017700195312, 0.6611328125, -0.190673828125, -0.293212890625
599, 2879916381, -13.91128921508789, 7.464232921600342, 18.341068267822266, -19.821897506713867, 330.49871826171875, -153.06163024902344, 0.6953125, -0.14794921875, -0.21337890625
600, 2879933048, 8.288883209228516, 9.51075553894043, 18.155513763427734, -26.41659927368164, 215.98776245117188, -136.44850158691406, 0.715087890625, -0.10595703125, -0.146728515625
601, 2879949715, -27.165733337402344, 21.4554500579834, 42.283931732177734, -13.987706184387207, -21.77895736694336, 6.957829475402832, 0.71728515625, -0.083251953125, -0.114501953125
602, 2879966382, 0.9260152578353882, 14.025750160217285, 22.736726760864258, -59.92930221557617, -276.2973937988281, 89.07156372070312, 0.712890625, -0.07666015625, -0.130615234375
603, 2879983049, 4.370077610015869, 5.762448310852051, 12.95305061340332, -83.04092407226562, -307.8462829589844, 93.3552017211914, 0.7236328125, -0.06591796875, -0.15966796875
604, 2879999716, 2.9049291610717773, 1.6277488470077515, 8.34128189086914, -58.62169647216797, -298.6848449707031, 99.30239868164062, 0.762451171875, -0.055908203125, -0.20556640625
605, 2880016383, -0.5171808004379272, 0.8782125115394592, 7.699272632598877, -17.599464416503906, -291.0295715332031, 115.51766204833984, 0.8125, -0.058837890625, -0.2939453125
606, 2880033050, -4.737441539764404, 2.665665864944458, 8.388832092285156, -7.362922668457031, -294.8100280761719, 119.35379028320312, 0.82861328125, -0.080322265625, -0.43017578125
607, 2880049717, -8.494279861450195, 3.1959121227264404, 9.583264350891113, -19.66463851928711, -321.8397521972656, 118.06053161621094, 0.780029296875, -0.109619140625, -0.57861328125
608, 2880066384, -9.074792861938477, 2.078310251235962, 8.737176895141602, -23.251623153686523, -356.0242004394531, 124.13640594482422, 0.67138671875, -0.126708984375, -0.70263671875
609, 2880083051, -6.558718204498291, 0.5667949914932251, 6.14329719543457, -7.058184623718262, -349.26873779296875, 122.6095199584961, 0.548583984375, -0.13671875, -0.7744140625
610, 2880099718, -7.618149280548096, 0.6743655204772949, 5.787707805633545, 5.871325969696045, -295.7078552246094, 93.26268768310547, 0.449951171875, -0.142333984375, -0.820556640625
611, 2880116385, -13.399497032165527, 1.9805388450622559, 9.795543670654297, 20.249404907226562, -255.27037048339844, 64.82777404785156, 0.370849609375, -0.150146484375, -0.854736328125
612, 2880133052, -21.42078399658203, 2.806485176086426, 13.805444717407227, 53.6915397644043, -279.3687744140625, 61.772544860839844, 0.2802734375, -0.165283203125, -0.88134765625
613, 2880149719, -23.816007614135742, 1.9472798109054565, 10.682064056396484, 90.6246337890625, -317.3848876953125, 75.46398162841797, 0.17236328125, -0.18994140625, -0.885986328125
614, 2880166386, -25.793209075927734, 1.1416927576065063, 3.5682826042175293, 104.96373748779297, -301.23138427734375, 73.291748046875, 0.081298828125, -0.223876953125, -0.876708984375
615, 2880183053, -30.44277000427246, 1.8691250085830688, -0.46293842792510986, 91.61248016357422, -257.19281005859375, 55.8621711730957, 0.005859375, -0.256591796875, -0.864990234375
616, 2880199720, -33.86561965942383, 0.36240190267562866, -4.420407295227051, 79.9919204711914, -226.47390747070312, 54.869285583496094, -0.05908203125, -0.2890625, -0.85009765625
617, 2880216387, -31.573396682739258, -4.630279541015625, -10.690007209777832, 80.30572509765625, -188.22781372070312, 64.89942932128906, -0.117919921875, -0.311767578125, -0.8330078125
618, 2880233054, -26.8485164642334, -8.910005569458008, -14.136584281921387, 84.01310729980469, -103.656005859375, 66.80396270751953, -0.15576171875, -0.331298828125, -0.815673828125
619, 2880249721, -28.818361282348633, -7.726247310638428, -13.820072174072266, -7.321619033813477, 18.005773544311523, 7.892393112182617, -0.164794921875, -0.33740234375, -0.811767578125
620, 2880266388, -27.744304656982422, -9.55175495147705, -9.574735641479492, -73.67448425292969, 86.57476806640625, -61.479061126708984, -0.146728515625, -0.32080078125, -0.818115234375
621, 2880283055, -8.490473747253418, 1.392164707183838, 14.71716022491455, -55.768211364746094, 92.70882415771484, -61.393272399902344, -0.119140625, -0.304443359375, -0.826171875
622, 2880299722, 3.077406644821167, 5.809994697570801, 7.489310264587402, -37.21809768676758, 72.08855438232422, -36.68387985229492, -0.102783203125, -0.290771484375, -0.832763671875
623, 2880316389, -10.229341506958008, -1.4263360500335693, 11.432055473327637, -34.62739181518555, 116.3374252319336, -30.63617515563965, -0.07666015625, -0.2802734375, -0.836181640625
624, 2880333056, -11.712844848632812, -2.078580141067505, 12.384532928466797, -33.155521392822266, 73.80059051513672, -43.088138580322266, -0.0537109375, -0.27294921875, -0.838134765625
625, 2880349723, -5.770284652709961, 2.5013225078582764, 8.677484512329102, -22.86717414855957, 62.12434005737305, -51.735103607177734, -0.033447265625, -0.265625, -0.840087890625
626, 2880366390, -6.127925395965576, 4.027224540710449, 8.434798240661621, -21.36544418334961, 74.24784851074219, -33.36759948730469, -0.016845703125, -0.2587890625, -0.84033203125
627, 2880383057, -6.999156951904297, 1.3612947463989258, 9.036100387573242, -17.498550415039062, 67.67875671386719, -32.1880989074707, 0.004150390625, -0.2548828125, -0.8427734375
628, 2880399724, -11.016363143920898, 6.990663051605225, 10.850931167602539, -34.87427520751953, 45.87225341796875, -35.09404373168945, 0.017578125, -0.244384765625, -0.843017578125
629, 2880416391, -6.1448163986206055, 0.9547015428543091, 8.776446342468262, -27.76306915283203, 24.3111572265625, -20.141721725463867, 0.024658203125, -0.2353515625, -0.843994140625
630, 2880433058, -6.095623016357422, 2.7292699813842773, 8.327077865600586, -16.636371612548828, 12.06484603881836, -16.449220657348633, 0.02783203125, -0.22998046875, -0.844482421875
631, 2880449725, -5.817968845367432, 2.04341721534729, 8.510433197021484, -7.75349760055542, 11.462546348571777, -10.19237995147705, 0.03173828125, -0.22607421875, -0.8447265625
632, 2880466392, -5.50984001159668, 2.3986687660217285, 8.088144302368164, -3.6226751804351807, 9.256928443908691, -8.708284378051758, 0.0341796875, -0.2275390625, -0.84814453125
633, 2880483059, -5.028076648712158, 2.5174028873443604, 7.821981430053711, -2.076768398284912, 8.902382850646973, -8.528738975524902, 0.037353515625, -0.2265625, -0.843994140625
634, 2880499726, -5.078176498413086, 2.864513635635376, 7.70292854309082, -3.020059823989868, 10.754517555236816, -9.120125770568848, 0.042236328125, -0.2265625, -0.843017578125
635, 2880516393, -5.308863639831543, 2.9972784519195557, 7.76587438583374, -4.82004451751709, 10.730159759521484, -10.895919799804688, 0.0458984375, -0.22705078125, -0.84326171875
636, 2880533060, -5.604656219482422, 2.85036039352417, 7.742267608642578, -5.4485554695129395, 8.364569664001465, -12.650045394897461, 0.04833984375, -0.22509765625, -0.84326171875
637, 2880549727, -5.351218223571777, 2.6050894260406494, 7.959817886352539, -6.094803333282471, 4.489147663116455, -14.324901580810547, 0.05078125, -0.22314453125, -0.84326171875
638, 2880566394, -5.625154495239258, 2.368215560913086, 7.979328155517578, -4.732271194458008, 2.440309762954712, -15.051855087280273, 0.054443359375, -0.22119140625, -0.84375
639, 2880583061, -5.5251641273498535, 2.3920369148254395, 7.9441447257995605, -4.645571708679199, 3.553630828857422, -15.526816368103027, 0.054931640625, -0.22119140625, -0.8427734375
640, 2880599728, -5.529768466949463, 2.362774610519409, 7.901156425476074, -2.383673667907715, 6.625889778137207, -14.713484764099121, 0.057373046875, -0.22021484375, -0.842041015625
641, 2880616395, -5.488749027252197, 2.714515209197998, 7.917580604553223, -1.5285037755966187, 10.834870338439941, -14.835535049438477, 0.059326171875, -0.219482421875, -0.841552734375
642, 2880633062, -5.164361953735352, 2.92264461517334, 8.055843353271484, -2.4651377201080322, 15.299784660339355, -18.831378936767578, 0.062744140625, -0.218017578125, -0.842529296875
643, 2880649729, -5.400818347930908, 2.8212475776672363, 8.214603424072266, 3.829045057296753, 22.793834686279297, -27.36597442626953, 0.07177734375, -0.21875, -0.842041015625
644, 2880666396, -4.702862739562988, 2.343132734298706, 9.052742958068848, 2.298203706741333, 41.93724060058594, -29.27507209777832, 0.08203125, -0.22021484375, -0.841796875
645, 2880683063, -4.250658988952637, 2.1959011554718018, 9.467497825622559, 12.355079650878906, 82.812255859375, -28.719928741455078, 0.1005859375, -0.21923828125, -0.835693359375
646, 2880699730, -4.627446174621582, 2.3030200004577637, 9.699117660522461, 28.017520904541016, 131.51675415039062, -31.664443969726562, 0.132568359375, -0.2255859375, -0.8291015625
647, 2880716397, -4.898308277130127, 2.4670908451080322, 9.963479042053223, 32.71593475341797, 186.62791442871094, -39.95838928222656, 0.17333984375, -0.2333984375, -0.816650390625
648, 2880733064, -4.5361104011535645, 3.5927693843841553, 9.3590726852417, 34.11624526977539, 249.05255126953125, -61.17236328125, 0.232421875, -0.238525390625, -0.798583984375
649, 2880749731, -5.065863132476807, 4.0420966148376465, 9.460528373718262, 24.403791427612305, 317.6236877441406, -98.08690643310547, 0.305908203125, -0.237060546875, -0.767822265625
650, 2880766398, -6.434656143188477, 3.702003240585327, 10.13647747039795, 15.738512992858887, 402.0665588378906, -139.99293518066406, 0.39501953125, -0.225341796875, -0.722900390625
