sep=,
DeviceTag:,A,,,,,,,,,,,,,,,,,
FirmwareVersion:,2.2.1,,,,,,,,,,,,,,,,,
AppVersion:,2022.0.1,,,,,,,,,,,,,,,,,
SyncStatus:,Synced,,,,,,,,,,,,,,,,,
OutputRate:,60Hz,,,,,,,,,,,,,,,,,
FilterProfile:,General,,,,,,,,,,,,,,,,,
Measurement Mode:,Inertial Mode - Rate quantities (with mag),,,,,,,,,,,,,,,,,
StartTime:,2022-08-05 16:39:06.750 +0300,,,,,,,,,,,,,,,,,
© Xsens Technologies B. V. 2005-2022,,,,,,,,,,,,,,,,,,,

PacketCounter,SampleTimeFine,Acc_X,Acc_Y,Acc_Z,Gyr_X,Gyr_Y,Gyr_Z,Mag_X,Mag_Y,Mag_Z
1, 2993785325, -5.342301368713379, 2.165755271911621, 7.942256450653076, -2.885462522506714, -1.459424376487732, -2.612969160079956, 0.06591796875, -0.21240234375, -0.80517578125
2, 2993801992, -5.366637706756592, 2.1645922660827637, 7.969903469085693, -2.9498016834259033, -1.4825782775878906, -2.662952184677124, 0.06640625, -0.21240234375, -0.804931640625
3, 2993818659, -5.359842777252197, 2.156102180480957, 7.9669575691223145, -2.9179651737213135, -1.5366467237472534, -2.659801959991455, 0.068359375, -0.21044921875, -0.804443359375
4, 2993835326, -5.349117279052734, 2.1679701805114746, 7.970804691314697, -2.9121253490448, -1.4723973274230957, -2.6240084171295166, 0.0693359375, -0.21142578125, -0.801513671875
5, 2993851993, -5.357352256774902, 2.1552016735076904, 7.9670844078063965, -2.9636452198028564, -1.5354812145233154, -2.6697521209716797, 0.06591796875, -0.2109375, -0.802001953125
6, 2993868660, -5.355527877807617, 2.1685359477996826, 7.948005199432373, -2.9217045307159424, -1.416407823562622, -2.624674081802368, 0.06591796875, -0.2119140625, -0.804931640625
7, 2993885327, -5.36115026473999, 2.1656548976898193, 7.938751220703125, -2.9107167720794678, -1.4156392812728882, -2.69873309135437, 0.06640625, -0.2109375, -0.803466796875
8, 2993901994, -5.3621439933776855, 2.1620941162109375, 7.96768856048584, -2.9592013359069824, -1.358984112739563, -2.617361545562744, 0.0673828125, -0.2099609375, -0.803955078125
9, 2993918661, -5.360682010650635, 2.155280590057373, 7.939857482910156, -2.9239585399627686, -1.49521803855896, -2.647763729095459, 0.0654296875, -0.21240234375, -0.803466796875
10, 2993935328, -5.352531433105469, 2.1590192317962646, 7.962212085723877, -2.948636531829834, -1.4729479551315308, -2.653642177581787, 0.06396484375, -0.21142578125, -0.8046875
11, 2993951995, -5.361228942871094, 2.1516549587249756, 7.944584846496582, -2.928081750869751, -1.553051471710205, -2.6766037940979004, 0.06787109375, -0.20947265625, -0.801513671875
12, 2993968662, -5.351891994476318, 2.142462730407715, 7.940165042877197, -2.936290740966797, -1.624446988105774, -2.602877616882324, 0.06494140625, -0.21142578125, -0.803955078125
13, 2993985329, -5.352391242980957, 2.1583914756774902, 7.937863349914551, -2.9510951042175293, -1.591355323791504, -2.6180660724639893, 0.068359375, -0.2119140625, -0.803466796875
14, 2994001996, -5.355889797210693, 2.149106025695801, 7.966256618499756, -2.9448585510253906, -1.6436821222305298, -2.554495334625244, 0.06640625, -0.21044921875, -0.803955078125
15, 2994018663, -5.3404622077941895, 2.1539924144744873, 7.936397552490234, -2.9575626850128174, -1.7253227233886719, -2.615299940109253, 0.06689453125, -0.21044921875, -0.801513671875
16, 2994035330, -5.352666854858398, 2.1443393230438232, 7.967744827270508, -3.10382342338562, -1.6277893781661987, -2.5865495204925537, 0.06640625, -0.208984375, -0.802001953125
17, 2994051997, -5.353494644165039, 2.127272367477417, 7.958368301391602, -2.862154960632324, -1.5632069110870361, -2.5127978324890137, 0.06640625, -0.2109375, -0.800048828125
18, 2994068664, -5.348462104797363, 2.151991844177246, 7.963629722595215, -2.8209314346313477, -1.5318186283111572, -2.582669258117676, 0.068359375, -0.2099609375, -0.803955078125
19, 2994085331, -5.3386077880859375, 2.1447062492370605, 7.981720924377441, -2.9151222705841064, -1.5728758573532104, -2.6241490840911865, 0.06689453125, -0.20947265625, -0.803955078125
20, 2994101998, -5.341952323913574, 2.1545865535736084, 7.943221569061279, -2.8809292316436768, -1.4767898321151733, -2.6498641967773438, 0.0654296875, -0.20947265625, -0.802978515625
21, 2994118665, -5.357204914093018, 2.152409076690674, 7.943629264831543, -2.9285686016082764, -1.542614221572876, -2.6714937686920166, 0.06689453125, -0.207763671875, -0.802001953125
22, 2994135332, -5.356464385986328, 2.1300878524780273, 7.951977729797363, -2.8338401317596436, -1.5751937627792358, -2.631000518798828, 0.06689453125, -0.21044921875, -0.801025390625
23, 2994151999, -5.360479354858398, 2.1401350498199463, 7.969744682312012, -2.848554849624634, -1.5008655786514282, -2.5866007804870605, 0.06591796875, -0.2099609375, -0.801513671875
24, 2994168666, -5.348451614379883, 2.148287296295166, 7.964405536651611, -2.8324570655822754, -1.5234688520431519, -2.5760738849639893, 0.06494140625, -0.20947265625, -0.801513671875
25, 2994185333, -5.352278709411621, 2.1511569023132324, 7.969773769378662, -2.8814539909362793, -1.3949955701828003, -2.570413589477539, 0.06689453125, -0.208251953125, -0.802978515625
26, 2994202000, -5.3527512550354, 2.1398062705993652, 7.958861351013184, -2.8604774475097656, -1.5059882402420044, -2.59778094291687, 0.06689453125, -0.20849609375, -0.8115234375
27, 2994218667, -5.353300094604492, 2.1447722911834717, 7.939326763153076, -2.9050180912017822, -1.4707964658737183, -2.5604119300842285, 0.06689453125, -0.21142578125, -0.801513671875
28, 2994235334, -5.343163967132568, 2.139583110809326, 7.92514181137085, -2.840127944946289, -1.456414818763733, -2.606271266937256, 0.06591796875, -0.209228515625, -0.801025390625
29, 2994252001, -5.342447757720947, 2.1488659381866455, 7.954677104949951, -2.969318151473999, -1.4799655675888062, -2.544109344482422, 0.06640625, -0.2109375, -0.803466796875
30, 2994268668, -5.362942218780518, 2.143671751022339, 7.955860137939453, -2.8637044429779053, -1.6307092905044556, -2.6325368881225586, 0.06591796875, -0.209228515625, -0.802001953125
31, 2994285335, -5.348971843719482, 2.148128032684326, 7.937634468078613, -2.9606740474700928, -1.5172450542449951, -2.5786609649658203, 0.06591796875, -0.2099609375, -0.8046875
32, 2994302002, -5.337213516235352, 2.148045301437378, 7.975642204284668, -2.9636709690093994, -1.4057273864746094, -2.6359691619873047, 0.06787109375, -0.20849609375, -0.805419921875
33, 2994318669, -5.3447370529174805, 2.1488466262817383, 7.950477123260498, -2.78361439704895, -1.3908723592758179, -2.606015920639038, 0.0654296875, -0.2109375, -0.803955078125
34, 2994335336, -5.348374366760254, 2.1298820972442627, 7.96001672744751, -2.886000394821167, -1.380025029182434, -2.662811279296875, 0.06640625, -0.2109375, -0.803466796875
35, 2994352003, -5.368194103240967, 2.1251184940338135, 7.9780144691467285, -2.7790801525115967, -1.4684911966323853, -2.63248610496521, 0.0654296875, -0.207763671875, -0.802001953125
36, 2994368670, -5.36320161819458, 2.1303937435150146, 7.9630327224731445, -2.740968942642212, -1.4005154371261597, -2.631334066390991, 0.0654296875, -0.208984375, -0.802978515625
37, 2994385337, -5.3472723960876465, 2.1236424446105957, 7.970695495605469, -2.7325031757354736, -1.4891479015350342, -2.6335232257843018, 0.06640625, -0.208740234375, -0.802978515625
38, 2994402004, -5.349002361297607, 2.133913516998291, 7.975527763366699, -2.8741800785064697, -1.451497197151184, -2.585998773574829, 0.06689453125, -0.208984375, -0.803466796875
39, 2994418671, -5.349002361297607, 2.1323657035827637, 7.964540004730225, -2.8163344860076904, -1.4192510843276978, -2.5427908897399902, 0.0654296875, -0.208984375, -0.803466796875
40, 2994435338, -5.346481800079346, 2.1291635036468506, 7.9761223793029785, -2.766146421432495, -1.4366549253463745, -2.608103036880493, 0.064453125, -0.208251953125, -0.800537109375
41, 2994452005, -5.352797508239746, 2.1404049396514893, 7.972221851348877, -2.723078727722168, -1.440407156944275, -2.6035056114196777, 0.06591796875, -0.207763671875, -0.802001953125
42, 2994468672, -5.329565048217773, 2.1327157020568848, 7.962605953216553, -2.7780818939208984, -1.413577914237976, -2.619014263153076, 0.06640625, -0.207763671875, -0.803466796875
43, 2994485339, -5.336960315704346, 2.1142523288726807, 7.968752861022949, -2.6440634727478027, -1.2894587516784668, -2.612943649291992, 0.064453125, -0.208740234375, -0.80322265625
44, 2994502006, -5.359375953674316, 2.1343884468078613, 7.961756229400635, -2.6643998622894287, -1.2639869451522827, -2.6045427322387695, 0.06591796875, -0.207763671875, -0.80419921875
45, 2994518673, -5.352566242218018, 2.130965232849121, 7.9720611572265625, -2.7090044021606445, -1.1290465593338013, -2.6098320484161377, 0.068359375, -0.20947265625, -0.802978515625
46, 2994535340, -5.334771633148193, 2.135718822479248, 7.9524359703063965, -2.5560197830200195, -1.1927579641342163, -2.640413761138916, 0.064453125, -0.209228515625, -0.800537109375
47, 2994552007, -5.342502593994141, 2.1254513263702393, 7.9713521003723145, -2.669304609298706, -1.1607677936553955, -2.633190870285034, 0.06591796875, -0.21044921875, -0.801025390625
48, 2994568674, -5.3474860191345215, 2.116604804992676, 7.9403767585754395, -2.7115530967712402, -1.1824105978012085, -2.6493141651153564, 0.06689453125, -0.207763671875, -0.801513671875
49, 2994585341, -5.346561908721924, 2.111131429672241, 7.96051549911499, -2.62477707862854, -1.2283596992492676, -2.5656630992889404, 0.0673828125, -0.206787109375, -0.803466796875
50, 2994602008, -5.342331409454346, 2.123974323272705, 7.949495315551758, -2.566188097000122, -1.2584929466247559, -2.540921211242676, 0.0673828125, -0.207763671875, -0.803466796875
51, 2994618675, -5.3578901290893555, 2.135380506515503, 7.965065002441406, -2.560936689376831, -1.2825558185577393, -2.456411361694336, 0.0673828125, -0.20947265625, -0.801513671875
52, 2994635342, -5.352786540985107, 2.1265952587127686, 7.959669589996338, -2.639145612716675, -1.4116442203521729, -2.544301986694336, 0.06640625, -0.20947265625, -0.802978515625
53, 2994652009, -5.353643417358398, 2.1158814430236816, 7.956354141235352, -2.6547181606292725, -1.35360586643219, -2.6439225673675537, 0.06640625, -0.208251953125, -0.801513671875
54, 2994668676, -5.357000350952148, 2.129696846008301, 7.959706783294678, -2.7314796447753906, -1.4577982425689697, -2.506471872329712, 0.06494140625, -0.207763671875, -0.80322265625
55, 2994685343, -5.349926948547363, 2.1217355728149414, 7.9589314460754395, -2.6751701831817627, -1.5046695470809937, -2.47513484954834, 0.06591796875, -0.208740234375, -0.8037109375
56, 2994702010, -5.3532562255859375, 2.132248878479004, 7.941895961761475, -2.6953017711639404, -1.584363341331482, -2.4633657932281494, 0.0673828125, -0.208984375, -0.806640625
57, 2994718677, -5.344630241394043, 2.130784749984741, 7.951067924499512, -2.775404930114746, -1.6231406927108765, -2.5088024139404297, 0.06689453125, -0.20849609375, -0.803466796875
58, 2994735344, -5.33914852142334, 2.122316598892212, 7.9545111656188965, -2.6749908924102783, -1.6072100400924683, -2.5020666122436523, 0.06640625, -0.208251953125, -0.802001953125
59, 2994752011, -5.356629371643066, 2.128753185272217, 7.965651035308838, -2.816602945327759, -1.5732089281082153, -2.5362465381622314, 0.06787109375, -0.208251953125, -0.802490234375
60, 2994768678, -5.340489864349365, 2.11185884475708, 7.965405464172363, -2.826514959335327, -1.6010881662368774, -2.5995097160339355, 0.0673828125, -0.20947265625, -0.804443359375
61, 2994785345, -5.35429048538208, 2.1009671688079834, 7.964563369750977, -2.7662103176116943, -1.4480012655258179, -2.556083917617798, 0.06689453125, -0.20947265625, -0.8056640625
62, 2994802012, -5.336017608642578, 2.129596471786499, 7.958919525146484, -2.717763900756836, -1.3891818523406982, -2.5958473682403564, 0.0634765625, -0.20947265625, -0.80517578125
63, 2994818679, -5.352169990539551, 2.1228435039520264, 7.967612266540527, -2.7174694538116455, -1.4469001293182373, -2.579942226409912, 0.06591796875, -0.207763671875, -0.8037109375
64, 2994835346, -5.354215145111084, 2.1340670585632324, 7.974706172943115, -2.649583101272583, -1.4248732328414917, -2.6582655906677246, 0.06640625, -0.208251953125, -0.800048828125
65, 2994852013, -5.370462894439697, 2.1104414463043213, 7.95365571975708, -2.6506075859069824, -1.4735500812530518, -2.5162816047668457, 0.0693359375, -0.2080078125, -0.803955078125
66, 2994868680, -5.349599838256836, 2.1234517097473145, 7.967593193054199, -2.650940418243408, -1.5558949708938599, -2.4638781547546387, 0.06640625, -0.207763671875, -0.803466796875
67, 2994885347, -5.335669040679932, 2.1269304752349854, 7.963318347930908, -2.762035369873047, -1.5873345136642456, -2.487569570541382, 0.0654296875, -0.208740234375, -0.80419921875
68, 2994902014, -5.341433525085449, 2.107801675796509, 7.938078880310059, -2.730198860168457, -1.5808417797088623, -2.530381441116333, 0.06396484375, -0.208251953125, -0.80615234375
69, 2994918681, -5.34726095199585, 2.1169230937957764, 7.973136901855469, -2.7453231811523438, -1.5346107482910156, -2.5383338928222656, 0.0654296875, -0.206787109375, -0.8046875
70, 2994935348, -5.341779708862305, 2.1193995475769043, 7.976725101470947, -2.703049421310425, -1.5111110210418701, -2.5179336071014404, 0.0673828125, -0.208740234375, -0.802490234375
71, 2994952015, -5.354374408721924, 2.1338295936584473, 7.971579551696777, -2.64205265045166, -1.5584816932678223, -2.496623992919922, 0.06787109375, -0.208984375, -0.803955078125
72, 2994968682, -5.337991714477539, 2.1180667877197266, 7.9658002853393555, -2.6147751808166504, -1.6018569469451904, -2.433424711227417, 0.06640625, -0.208251953125, -0.802001953125
73, 2994985349, -5.3412370681762695, 2.125195026397705, 7.965733528137207, -2.705610752105713, -1.473524570465088, -2.51667857170105, 0.0673828125, -0.20947265625, -0.80517578125
74, 2995002016, -5.334103107452393, 2.095010757446289, 7.971429347991943, -2.7404696941375732, -1.4719492197036743, -2.5229921340942383, 0.06494140625, -0.208251953125, -0.80517578125
75, 2995018683, -5.325657367706299, 2.124650001525879, 7.969423770904541, -2.7754693031311035, -1.3162496089935303, -2.5067665576934814, 0.06591796875, -0.205810546875, -0.802734375
76, 2995035350, -5.3372344970703125, 2.1130928993225098, 7.946605682373047, -2.6780128479003906, -1.391960620880127, -2.471561908721924, 0.06640625, -0.208251953125, -0.801513671875
77, 2995052017, -5.3420186042785645, 2.1154465675354004, 7.936037540435791, -2.6924071311950684, -1.5219322443008423, -2.4337189197540283, 0.0673828125, -0.207275390625, -0.802490234375
78, 2995068684, -5.339283466339111, 2.1226229667663574, 7.967257022857666, -2.716611385345459, -1.5709166526794434, -2.49175763130188, 0.0673828125, -0.207763671875, -0.802490234375
79, 2995085351, -5.339016914367676, 2.1257948875427246, 7.954362869262695, -2.7052905559539795, -1.5088187456130981, -2.45035457611084, 0.06591796875, -0.20751953125, -0.810791015625
80, 2995102018, -5.3527350425720215, 2.100865125656128, 7.982499599456787, -2.6494035720825195, -1.5489152669906616, -2.425497055053711, 0.06396484375, -0.206787109375, -0.8056640625
81, 2995118685, -5.335795879364014, 2.1143906116485596, 7.961713790893555, -2.706660747528076, -1.6619058847427368, -2.397643566131592, 0.064453125, -0.208740234375, -0.8056640625
82, 2995135352, -5.34151029586792, 2.119624614715576, 7.961021423339844, -2.6419248580932617, -1.6109492778778076, -2.3209078311920166, 0.06494140625, -0.207275390625, -0.8037109375
83, 2995152019, -5.344926834106445, 2.105144739151001, 7.967067718505859, -2.6602251529693604, -1.618466854095459, -2.3149914741516113, 0.064453125, -0.207275390625, -0.802734375
84, 2995168686, -5.334649562835693, 2.110328197479248, 7.970581531524658, -2.568838596343994, -1.749334692955017, -2.392674446105957, 0.06640625, -0.206298828125, -0.8046875
85, 2995185353, -5.332598686218262, 2.1227340698242188, 7.981565952301025, -2.664822578430176, -1.7559173107147217, -2.321061611175537, 0.06689453125, -0.207275390625, -0.803955078125
86, 2995202020, -5.328681468963623, 2.1337618827819824, 7.958024024963379, -2.7236547470092773, -1.6564760208129883, -2.4150986671447754, 0.068359375, -0.207763671875, -0.804931640625
87, 2995218687, -5.329728603363037, 2.117845296859741, 7.966996192932129, -2.746206283569336, -1.734018087387085, -2.485801935195923, 0.0634765625, -0.206787109375, -0.8037109375
88, 2995235354, -5.320504188537598, 2.110217332839966, 7.983204364776611, -2.8027591705322266, -1.656783103942871, -2.4761717319488525, 0.06591796875, -0.20751953125, -0.810302734375
89, 2995252021, -5.344364643096924, 2.114696979522705, 7.976507186889648, -2.647162675857544, -1.5594295263290405, -2.441467046737671, 0.06494140625, -0.208740234375, -0.801025390625
90, 2995268688, -5.32890510559082, 2.11564564704895, 7.9666571617126465, -2.67323637008667, -1.450831413269043, -2.401190757751465, 0.06591796875, -0.206298828125, -0.80322265625
91, 2995285355, -5.330102443695068, 2.1197829246520996, 7.992188930511475, -2.6984004974365234, -1.454302191734314, -2.514706611633301, 0.06640625, -0.20947265625, -0.803466796875
92, 2995302022, -5.334769248962402, 2.110879898071289, 7.969257831573486, -2.711744785308838, -1.278547763824463, -2.6487250328063965, 0.0673828125, -0.206787109375, -0.802490234375
93, 2995318689, -5.332147598266602, 2.1033778190612793, 7.971439361572266, -2.6193342208862305, -1.3713680505752563, -2.4840352535247803, 0.06494140625, -0.207275390625, -0.8046875
94, 2995335356, -5.347012519836426, 2.1141762733459473, 7.990579605102539, -2.7013206481933594, -1.4142053127288818, -2.471036672592163, 0.06396484375, -0.207763671875, -0.806640625
95, 2995352023, -5.35406494140625, 2.123506784439087, 7.962893962860107, -2.7463603019714355, -1.582224726676941, -2.3985912799835205, 0.064453125, -0.20947265625, -0.802490234375
96, 2995368690, -5.333733081817627, 2.1140172481536865, 7.968115329742432, -2.6277225017547607, -1.6014982461929321, -2.4138691425323486, 0.06689453125, -0.207763671875, -0.800537109375
97, 2995385357, -5.314430236816406, 2.121187448501587, 7.990231990814209, -2.6190781593322754, -1.5645263195037842, -2.3454320430755615, 0.064453125, -0.206787109375, -0.8037109375
98, 2995402024, -5.328186988830566, 2.1145851612091064, 7.968895435333252, -2.5823113918304443, -1.512468695640564, -2.4441051483154297, 0.0673828125, -0.204833984375, -0.80322265625
99, 2995418691, -5.35015869140625, 2.1021738052368164, 7.9595046043396, -2.6253278255462646, -1.445939540863037, -2.470832109451294, 0.0625, -0.208740234375, -0.80419921875
100, 2995435358, -5.338070869445801, 2.110618829727173, 7.970011234283447, -2.57881498336792, -1.4393442869186401, -2.494062900543213, 0.06494140625, -0.205322265625, -0.802734375
101, 2995452025, -5.336665630340576, 2.116861343383789, 7.960601806640625, -2.651081085205078, -1.5015957355499268, -2.4124090671539307, 0.064453125, -0.207763671875, -0.802734375
102, 2995468692, -5.32733678817749, 2.123506546020508, 7.9911699295043945, -2.603851079940796, -1.6109747886657715, -2.444988250732422, 0.06494140625, -0.206298828125, -0.8056640625
103, 2995485359, -5.301244735717773, 2.1356332302093506, 7.968712329864502, -2.5940675735473633, -1.4856648445129395, -2.4958555698394775, 0.06591796875, -0.206787109375, -0.80615234375
104, 2995502026, -5.329277992248535, 2.115025281906128, 7.9893646240234375, -2.595412015914917, -1.5050406455993652, -2.504794120788574, 0.06591796875, -0.207763671875, -0.8046875
105, 2995518693, -5.341357707977295, 2.107551336288452, 8.000935554504395, -2.5809662342071533, -1.438358187675476, -2.469487190246582, 0.0634765625, -0.207275390625, -0.80712890625
106, 2995535360, -5.341639518737793, 2.1047496795654297, 7.982824802398682, -2.5187911987304688, -1.3932156562805176, -2.451968193054199, 0.06396484375, -0.206787109375, -0.80322265625
107, 2995552027, -5.33062744140625, 2.1083409786224365, 7.963459014892578, -2.5779051780700684, -1.434644103050232, -2.375885248184204, 0.0654296875, -0.207763671875, -0.802490234375
108, 2995568694, -5.325737476348877, 2.123206377029419, 7.975161552429199, -2.449355363845825, -1.4586178064346313, -2.4727654457092285, 0.06396484375, -0.208740234375, -0.80419921875
109, 2995585361, -5.329224586486816, 2.1278076171875, 7.979227542877197, -2.4464995861053467, -1.4173812866210938, -2.387526273727417, 0.06640625, -0.206787109375, -0.80419921875
110, 2995602028, -5.338216304779053, 2.109015464782715, 7.9830121994018555, -2.4282889366149902, -1.3932156562805176, -2.395453453063965, 0.06494140625, -0.205810546875, -0.80419921875
111, 2995618695, -5.324278354644775, 2.1135060787200928, 7.954619884490967, -2.4991464614868164, -1.457836389541626, -2.4337573051452637, 0.06396484375, -0.208251953125, -0.80517578125
112, 2995635362, -5.354917049407959, 2.1037325859069824, 7.976858615875244, -2.4318106174468994, -1.4784419536590576, -2.375603675842285, 0.06494140625, -0.206298828125, -0.80224609375
113, 2995652029, -5.342504024505615, 2.1217234134674072, 7.954297065734863, -2.4908225536346436, -1.4459776878356934, -2.3278486728668213, 0.06494140625, -0.207763671875, -0.8037109375
114, 2995668696, -5.325011253356934, 2.134814977645874, 7.969322204589844, -2.6287338733673096, -1.5203442573547363, -2.4357292652130127, 0.06494140625, -0.207763671875, -0.8046875
115, 2995685363, -5.328037738800049, 2.1333000659942627, 7.97899055480957, -2.665104389190674, -1.4886103868484497, -2.550320863723755, 0.06396484375, -0.207763671875, -0.80517578125
116, 2995702030, -5.325243949890137, 2.103682518005371, 7.987981796264648, -2.5760743618011475, -1.3612638711929321, -2.54939866065979, 0.06396484375, -0.208251953125, -0.80517578125
117, 2995718697, -5.336604595184326, 2.103610038757324, 7.975986003875732, -2.4315803050994873, -1.2605035305023193, -2.5057547092437744, 0.06298828125, -0.207763671875, -0.80517578125
118, 2995735364, -5.334855556488037, 2.1259522438049316, 7.992672920227051, -2.3243014812469482, -1.2575196027755737, -2.3802907466888428, 0.0634765625, -0.208251953125, -0.8017578125
119, 2995752031, -5.331979751586914, 2.129556655883789, 7.950401306152344, -2.37658953666687, -1.1998140811920166, -2.438098430633545, 0.06494140625, -0.208251953125, -0.80322265625
120, 2995768698, -5.323530673980713, 2.111619234085083, 7.98250150680542, -2.3951332569122314, -1.283478021621704, -2.4637112617492676, 0.06396484375, -0.205322265625, -0.799560546875
121, 2995785365, -5.345101356506348, 2.1221017837524414, 7.956573009490967, -2.4018821716308594, -1.3294528722763062, -2.567148447036743, 0.06689453125, -0.208251953125, -0.8046875
122, 2995802032, -5.317261219024658, 2.130831241607666, 7.9710307121276855, -2.5474774837493896, -1.322204351425171, -2.464376926422119, 0.064453125, -0.208740234375, -0.8046875
123, 2995818699, -5.354813098907471, 2.106229543685913, 7.968168258666992, -2.462007999420166, -1.3159677982330322, -2.425945281982422, 0.0654296875, -0.206787109375, -0.8046875
124, 2995835366, -5.339323997497559, 2.113837242126465, 7.986945152282715, -2.407914161682129, -1.3444875478744507, -2.327362060546875, 0.06494140625, -0.208740234375, -0.80419921875
125, 2995852033, -5.311557292938232, 2.129190444946289, 7.970992565155029, -2.5325963497161865, -1.4062139987945557, -2.4547464847564697, 0.06298828125, -0.207275390625, -0.802734375
126, 2995868700, -5.329498767852783, 2.111978769302368, 7.973641872406006, -2.5432257652282715, -1.429764986038208, -2.431772232055664, 0.06591796875, -0.207275390625, -0.8037109375
127, 2995885367, -5.329331398010254, 2.1153786182403564, 7.9928669929504395, -2.4867758750915527, -1.2863980531692505, -2.586153268814087, 0.06689453125, -0.20849609375, -0.804443359375
128, 2995902034, -5.3382415771484375, 2.120086908340454, 7.967997074127197, -2.4819605350494385, -1.2375288009643555, -2.4448859691619873, 0.064453125, -0.208251953125, -0.80517578125
129, 2995918701, -5.344888210296631, 2.1242494583129883, 7.974605083465576, -2.564035654067993, -1.3049925565719604, -2.4450392723083496, 0.0634765625, -0.205810546875, -0.80419921875
130, 2995935368, -5.33173131942749, 2.118583917617798, 7.956246376037598, -2.5588371753692627, -1.3819973468780518, -2.5089051723480225, 0.0654296875, -0.20947265625, -0.801025390625
131, 2995952035, -5.333329200744629, 2.1044392585754395, 7.953611850738525, -2.51255464553833, -1.3987351655960083, -2.4431569576263428, 0.06591796875, -0.206787109375, -0.802490234375
132, 2995968702, -5.313952922821045, 2.1145808696746826, 7.976373195648193, -2.4737133979797363, -1.3808320760726929, -2.4815378189086914, 0.06494140625, -0.209228515625, -0.802978515625
133, 2995985369, -5.335261344909668, 2.121392011642456, 7.971430778503418, -2.4984419345855713, -1.2458016872406006, -2.5211987495422363, 0.0634765625, -0.20947265625, -0.802734375
134, 2996002036, -5.341936111450195, 2.1356236934661865, 7.98561429977417, -2.481947660446167, -1.261425495147705, -2.5226078033447266, 0.064453125, -0.207275390625, -0.8017578125
135, 2996018703, -5.352812767028809, 2.0994224548339844, 7.962714195251465, -2.530355453491211, -1.3082199096679688, -2.476632833480835, 0.0625, -0.207763671875, -0.80517578125
136, 2996035370, -5.318317413330078, 2.116337299346924, 7.973858833312988, -2.5724499225616455, -1.3195151090621948, -2.453094720840454, 0.0634765625, -0.206787109375, -0.80322265625
137, 2996052037, -5.329844951629639, 2.124474048614502, 7.997058391571045, -2.4900667667388916, -1.2512060403823853, -2.460650682449341, 0.0654296875, -0.206787109375, -0.8037109375
138, 2996068704, -5.330570697784424, 2.1190648078918457, 7.966258525848389, -2.515705108642578, -1.1598840951919556, -2.4677069187164307, 0.0654296875, -0.206298828125, -0.802001953125
139, 2996085371, -5.3361687660217285, 2.1147375106811523, 7.96693229675293, -2.486135244369507, -1.2564951181411743, -2.4577436447143555, 0.0654296875, -0.207763671875, -0.80322265625
140, 2996102038, -5.364115238189697, 2.117875814437866, 7.9842047691345215, -2.5096476078033447, -1.3400949239730835, -2.4311959743499756, 0.0615234375, -0.207763671875, -0.80517578125
141, 2996118705, -5.330194473266602, 2.128620147705078, 7.964252471923828, -2.617516040802002, -1.3877859115600586, -2.453453779220581, 0.06494140625, -0.207275390625, -0.8037109375
142, 2996135372, -5.338940620422363, 2.123802661895752, 7.992223739624023, -2.575549602508545, -1.367756724357605, -2.520559072494507, 0.06689453125, -0.2099609375, -0.802978515625
143, 2996152039, -5.321814060211182, 2.1176044940948486, 7.991981029510498, -2.5349786281585693, -1.2688788175582886, -2.511543035507202, 0.0634765625, -0.207763671875, -0.800537109375
144, 2996168706, -5.341564178466797, 2.1087679862976074, 7.978034973144531, -2.4235119819641113, -1.12174654006958, -2.4836761951446533, 0.06396484375, -0.208740234375, -0.8037109375
145, 2996185373, -5.352074146270752, 2.127467632293701, 7.970427513122559, -2.532161235809326, -1.2175893783569336, -2.3797271251678467, 0.064453125, -0.205810546875, -0.80322265625
146, 2996202040, -5.350444793701172, 2.1231088638305664, 7.962553977966309, -2.6166317462921143, -1.3270965814590454, -2.508277416229248, 0.06494140625, -0.207763671875, -0.80322265625
147, 2996218707, -5.328423500061035, 2.1026294231414795, 7.957723617553711, -2.585845470428467, -1.4373464584350586, -2.5299839973449707, 0.06298828125, -0.208251953125, -0.80419921875
148, 2996235374, -5.33107852935791, 2.1132218837738037, 7.961601257324219, -2.577418804168701, -1.2548942565917969, -2.5752673149108887, 0.0654296875, -0.207275390625, -0.8037109375
149, 2996252041, -5.327836990356445, 2.118041515350342, 7.965685844421387, -2.5478615760803223, -1.2827094793319702, -2.510863780975342, 0.064453125, -0.207763671875, -0.80224609375
150, 2996268708, -5.361561298370361, 2.1258676052093506, 7.981041431427002, -2.558708667755127, -1.1794006824493408, -2.4936907291412354, 0.06689453125, -0.206787109375, -0.803466796875
151, 2996285375, -5.338222026824951, 2.129117488861084, 7.9734296798706055, -2.4563472270965576, -1.27903413772583, -2.5323915481567383, 0.06591796875, -0.207763671875, -0.80419921875
152, 2996302042, -5.345462322235107, 2.129643440246582, 7.9658637046813965, -2.4525184631347656, -1.3394672870635986, -2.4268033504486084, 0.06494140625, -0.206298828125, -0.80322265625
153, 2996318709, -5.335524082183838, 2.111349105834961, 7.972094535827637, -2.5370917320251465, -1.2145544290542603, -2.4340262413024902, 0.06640625, -0.208984375, -0.8056640625
154, 2996335376, -5.348099708557129, 2.1298828125, 7.967483997344971, -2.4840991497039795, -1.2937616109848022, -2.4012417793273926, 0.0654296875, -0.207275390625, -0.80419921875
155, 2996352043, -5.338282108306885, 2.109966516494751, 7.969444274902344, -2.485213041305542, -1.3622115850448608, -2.4881460666656494, 0.06640625, -0.208740234375, -0.802490234375
156, 2996368710, -5.3598246574401855, 2.124526262283325, 7.966867446899414, -2.5090842247009277, -1.4744720458984375, -2.491539716720581, 0.0654296875, -0.20947265625, -0.8046875
157, 2996385377, -5.350352764129639, 2.1171462535858154, 7.950160980224609, -2.593414306640625, -1.5509260892868042, -2.5158333778381348, 0.0654296875, -0.206787109375, -0.80517578125
158, 2996402044, -5.3431396484375, 2.113278865814209, 7.987348556518555, -2.6036720275878906, -1.554114818572998, -2.4921162128448486, 0.06494140625, -0.207763671875, -0.802734375
159, 2996418711, -5.333644866943359, 2.1162307262420654, 7.985514163970947, -2.630847454071045, -1.5016087293624878, -2.4781699180603027, 0.06494140625, -0.207763671875, -0.80322265625
160, 2996435378, -5.34519624710083, 2.1122121810913086, 8.006248474121094, -2.5840017795562744, -1.40257728099823, -2.4225518703460693, 0.0654296875, -0.207763671875, -0.80517578125
161, 2996452045, -5.3533406257629395, 2.1175079345703125, 7.956385135650635, -2.5479133129119873, -1.3568328619003296, -2.46763014793396, 0.06591796875, -0.207763671875, -0.802001953125
162, 2996468712, -5.340218544006348, 2.130094528198242, 7.980223655700684, -2.6270947456359863, -1.3421697616577148, -2.468334674835205, 0.06591796875, -0.207763671875, -0.8037109375
163, 2996485379, -5.330695152282715, 2.125392436981201, 7.983191967010498, -2.4440531730651855, -1.3960072994232178, -2.4295053482055664, 0.064453125, -0.2099609375, -0.8037109375
164, 2996502046, -5.340634822845459, 2.12888240814209, 7.980441570281982, -2.4936912059783936, -1.36345374584198, -2.4007296562194824, 0.06689453125, -0.20849609375, -0.8046875
165, 2996518713, -5.337177753448486, 2.1313202381134033, 7.958760738372803, -2.546247959136963, -1.3766825199127197, -2.3766536712646484, 0.064453125, -0.205322265625, -0.80517578125
166, 2996535380, -5.345433235168457, 2.1328787803649902, 7.986806869506836, -2.4569878578186035, -1.4796841144561768, -2.45218563079834, 0.064453125, -0.208740234375, -0.802490234375
167, 2996552047, -5.362009525299072, 2.109184503555298, 7.9705400466918945, -2.5683393478393555, -1.5318701267242432, -2.461073398590088, 0.0654296875, -0.2099609375, -0.803466796875
168, 2996568714, -5.336071491241455, 2.123875856399536, 7.972833156585693, -2.5780975818634033, -1.4679151773452759, -2.364628553390503, 0.06591796875, -0.208984375, -0.802978515625
169, 2996585381, -5.336236953735352, 2.1298816204071045, 7.971958160400391, -2.6137888431549072, -1.5044260025024414, -2.4354732036590576, 0.06689453125, -0.207275390625, -0.803955078125
170, 2996602048, -5.322420597076416, 2.122293472290039, 7.962391376495361, -2.5805182456970215, -1.428189992904663, -2.469512701034546, 0.0634765625, -0.207275390625, -0.8056640625
171, 2996618715, -5.324357509613037, 2.128042221069336, 7.975639343261719, -2.652874231338501, -1.2862956523895264, -2.5434823036193848, 0.064453125, -0.208984375, -0.8056640625
172, 2996635382, -5.340931415557861, 2.1165287494659424, 7.96798849105835, -2.575049638748169, -1.2766649723052979, -2.4134719371795654, 0.06494140625, -0.207275390625, -0.8037109375
173, 2996652049, -5.34459114074707, 2.121065855026245, 7.964544296264648, -2.49299955368042, -1.3021881580352783, -2.4523520469665527, 0.064453125, -0.208251953125, -0.801513671875
174, 2996668716, -5.322804927825928, 2.122116804122925, 7.9549055099487305, -2.522313117980957, -1.373724341392517, -2.5096476078033447, 0.06640625, -0.20849609375, -0.80419921875
175, 2996685383, -5.340883255004883, 2.1146292686462402, 7.962779998779297, -2.577073335647583, -1.4091981649398804, -2.522620677947998, 0.06689453125, -0.208984375, -0.80517578125
176, 2996702050, -5.349066734313965, 2.124530792236328, 7.968290328979492, -2.610267162322998, -1.2776128053665161, -2.41748046875, 0.06396484375, -0.206787109375, -0.80322265625
177, 2996718717, -5.346606731414795, 2.1093204021453857, 7.969063758850098, -2.5859994888305664, -1.312740683555603, -2.5046536922454834, 0.064453125, -0.207763671875, -0.8037109375
178, 2996735384, -5.3378472328186035, 2.115412950515747, 7.963809013366699, -2.6166446208953857, -1.395969033241272, -2.452672243118286, 0.06591796875, -0.207275390625, -0.8037109375
179, 2996752051, -5.3335490226745605, 2.130458354949951, 7.9844183921813965, -2.502168655395508, -1.3409016132354736, -2.384939432144165, 0.06640625, -0.208740234375, -0.802978515625
180, 2996768718, -5.335993766784668, 2.126006603240967, 7.982776165008545, -2.5460946559906006, -1.35653817653656, -2.438021659851074, 0.064453125, -0.204833984375, -0.80126953125
181, 2996785385, -5.333985328674316, 2.1212148666381836, 7.982041835784912, -2.5023610591888428, -1.393843173980713, -2.4909119606018066, 0.064453125, -0.20947265625, -0.80322265625
182, 2996802052, -5.3481011390686035, 2.124791383743286, 7.963779926300049, -2.568096160888672, -1.3318349123001099, -2.4511613845825195, 0.0634765625, -0.207763671875, -0.8037109375
183, 2996818719, -5.339329242706299, 2.1342272758483887, 7.974658966064453, -2.5963473320007324, -1.410465955734253, -2.4984936714172363, 0.06591796875, -0.208251953125, -0.8037109375
184, 2996835386, -5.335090637207031, 2.1411752700805664, 7.98629093170166, -2.6316030025482178, -1.4679920673370361, -2.53800106048584, 0.064453125, -0.208740234375, -0.8037109375
185, 2996852053, -5.342450141906738, 2.1169233322143555, 7.969727039337158, -2.6778721809387207, -1.3152636289596558, -2.5345821380615234, 0.06494140625, -0.209716796875, -0.801025390625
186, 2996868720, -5.341601371765137, 2.1141505241394043, 7.961887359619141, -2.6162607669830322, -1.3835726976394653, -2.4817302227020264, 0.06494140625, -0.207763671875, -0.800048828125
187, 2996885387, -5.337156772613525, 2.114450216293335, 7.988387584686279, -2.667562961578369, -1.3717395067214966, -2.48079514503479, 0.06640625, -0.206787109375, -0.802978515625
188, 2996902054, -5.343653678894043, 2.110891819000244, 7.973332405090332, -2.6492629051208496, -1.490684986114502, -2.5415358543395996, 0.06494140625, -0.208740234375, -0.802490234375
189, 2996918721, -5.335129261016846, 2.1164910793304443, 8.004474639892578, -2.5869340896606445, -1.4620882272720337, -2.4854564666748047, 0.06640625, -0.206787109375, -0.80517578125
190, 2996935388, -5.32100772857666, 2.118027448654175, 8.001341819763184, -2.5988824367523193, -1.4212872982025146, -2.509903907775879, 0.0654296875, -0.207763671875, -0.80322265625
191, 2996952055, -5.331937313079834, 2.1257355213165283, 7.96869421005249, -2.517561912536621, -1.387939453125, -2.420233726501465, 0.06494140625, -0.205322265625, -0.80224609375
192, 2996968722, -5.3455023765563965, 2.1159327030181885, 7.971853256225586, -2.571336030960083, -1.428638219833374, -2.4185309410095215, 0.06591796875, -0.207763671875, -0.80322265625
193, 2996985389, -5.323238849639893, 2.121804714202881, 7.953218460083008, -2.534620523452759, -1.5215353965759277, -2.426445245742798, 0.0654296875, -0.208740234375, -0.801513671875
194, 2997002056, -5.338420391082764, 2.117098569869995, 7.986045837402344, -2.5296900272369385, -1.4525861740112305, -2.486135244369507, 0.06689453125, -0.207763671875, -0.8046875
195, 2997018723, -5.338231086730957, 2.1140360832214355, 7.968833923339844, -2.490412473678589, -1.4346187114715576, -2.498634099960327, 0.0654296875, -0.208740234375, -0.8037109375
196, 2997035390, -5.334283828735352, 2.128288507461548, 7.972656726837158, -2.58461594581604, -1.4127326011657715, -2.5060746669769287, 0.0654296875, -0.206787109375, -0.806640625
197, 2997052057, -5.329108715057373, 2.129774332046509, 8.008341789245605, -2.586806058883667, -1.3979541063308716, -2.4621620178222656, 0.06591796875, -0.205810546875, -0.8037109375
198, 2997068724, -5.34515380859375, 2.1224441528320312, 7.964385032653809, -2.5676989555358887, -1.25690495967865, -2.458038091659546, 0.06640625, -0.207763671875, -0.8046875
199, 2997085391, -5.336680889129639, 2.116628885269165, 7.973880290985107, -2.524336576461792, -1.2367222309112549, -2.4701786041259766, 0.0654296875, -0.208740234375, -0.8046875
200, 2997102058, -5.341246128082275, 2.130054473876953, 7.980050563812256, -2.5369765758514404, -1.3137139081954956, -2.4877102375030518, 0.06494140625, -0.206298828125, -0.80517578125
201, 2997118725, -5.325079441070557, 2.129481792449951, 7.971959114074707, -2.5121192932128906, -1.3001903295516968, -2.5524721145629883, 0.064453125, -0.207275390625, -0.806640625
202, 2997135392, -5.336572647094727, 2.121535539627075, 7.971508026123047, -2.4978272914886475, -1.3102049827575684, -2.5089688301086426, 0.06640625, -0.206787109375, -0.801513671875
203, 2997152059, -5.336606025695801, 2.1211977005004883, 7.977614879608154, -2.616286039352417, -1.377489447593689, -2.5030524730682373, 0.064453125, -0.21044921875, -0.802490234375
204, 2997168726, -5.34166955947876, 2.1248371601104736, 7.970571517944336, -2.5837578773498535, -1.4000798463821411, -2.422321081161499, 0.064453125, -0.209716796875, -0.801025390625
205, 2997185393, -5.328407287597656, 2.1252007484436035, 7.962429523468018, -2.5368096828460693, -1.4078660011291504, -2.459446668624878, 0.06494140625, -0.208740234375, -0.80322265625
206, 2997202060, -5.334033489227295, 2.115657329559326, 7.975579261779785, -2.569223165512085, -1.4277801513671875, -2.5476958751678467, 0.06494140625, -0.208740234375, -0.8046875
207, 2997218727, -5.34400749206543, 2.1177480220794678, 7.979409217834473, -2.576766014099121, -1.4715648889541626, -2.5120809078216553, 0.06640625, -0.208984375, -0.8046875
208, 2997235394, -5.3139848709106445, 2.138202428817749, 7.973913669586182, -2.5160768032073975, -1.4335813522338867, -2.4542088508605957, 0.0634765625, -0.207763671875, -0.80224609375
209, 2997252061, -5.335299491882324, 2.134049654006958, 7.9888787269592285, -2.5552384853363037, -1.370458960533142, -2.503077983856201, 0.06591796875, -0.206298828125, -0.80322265625
210, 2997268728, -5.343291759490967, 2.1400160789489746, 7.972993850708008, -2.664655923843384, -1.3134963512420654, -2.6099984645843506, 0.06640625, -0.208984375, -0.803466796875
211, 2997285395, -5.3345866203308105, 2.1150567531585693, 7.99315071105957, -2.6403493881225586, -1.3899757862091064, -2.6227920055389404, 0.0654296875, -0.208984375, -0.806640625
212, 2997302062, -5.337123394012451, 2.110790967941284, 7.974239349365234, -2.601431131362915, -1.339544415473938, -2.5606939792633057, 0.06494140625, -0.207275390625, -0.80517578125
213, 2997318729, -5.332950115203857, 2.1298165321350098, 7.962087631225586, -2.6696505546569824, -1.3415933847427368, -2.547785520553589, 0.0634765625, -0.206787109375, -0.8056640625
214, 2997335396, -5.331727504730225, 2.135944128036499, 7.981990337371826, -2.668203353881836, -1.3844051361083984, -2.5914549827575684, 0.064453125, -0.207275390625, -0.8037109375
215, 2997352063, -5.331591606140137, 2.132464647293091, 7.964968204498291, -2.7029597759246826, -1.4139235019683838, -2.6908321380615234, 0.064453125, -0.207763671875, -0.802734375
216, 2997368730, -5.341762065887451, 2.1117467880249023, 7.981418609619141, -2.7629573345184326, -1.3228319883346558, -2.632704019546509, 0.0654296875, -0.208740234375, -0.802001953125
217, 2997385397, -5.340632915496826, 2.1163461208343506, 7.9894118309021, -2.687246322631836, -1.2938768863677979, -2.5740253925323486, 0.06494140625, -0.205810546875, -0.8037109375
218, 2997402064, -5.338975429534912, 2.130491018295288, 7.960587501525879, -2.6529252529144287, -1.3336021900177002, -2.648071765899658, 0.0654296875, -0.207275390625, -0.80419921875
219, 2997418731, -5.331075668334961, 2.1228837966918945, 7.987695693969727, -2.6810481548309326, -1.3703436851501465, -2.507061004638672, 0.064453125, -0.208251953125, -0.8046875
220, 2997435398, -5.336780071258545, 2.1153926849365234, 7.971688270568848, -2.6822264194488525, -1.4598602056503296, -2.535900831222534, 0.06494140625, -0.207763671875, -0.80322265625
221, 2997452065, -5.351063251495361, 2.1187264919281006, 7.998205184936523, -2.6858503818511963, -1.3863259553909302, -2.5266804695129395, 0.064453125, -0.208251953125, -0.801513671875
222, 2997468732, -5.334118843078613, 2.126168727874756, 7.97040319442749, -2.7635338306427, -1.4577085971832275, -2.5065743923187256, 0.06591796875, -0.207763671875, -0.802978515625
223, 2997485399, -5.346654891967773, 2.122448682785034, 7.988156318664551, -2.716163158416748, -1.4559284448623657, -2.5460562705993652, 0.06591796875, -0.206787109375, -0.80322265625
224, 2997502066, -5.36224365234375, 2.112523078918457, 7.981288909912109, -2.7713840007781982, -1.467902421951294, -2.555392265319824, 0.064453125, -0.207275390625, -0.8056640625
225, 2997518733, -5.342159748077393, 2.124804735183716, 8.002057075500488, -2.7599992752075195, -1.5526292324066162, -2.522172451019287, 0.06591796875, -0.207763671875, -0.8046875
226, 2997535400, -5.33889627456665, 2.114586591720581, 7.971373558044434, -2.7462708950042725, -1.578190803527832, -2.543174982070923, 0.06640625, -0.207763671875, -0.8056640625
227, 2997552067, -5.331658840179443, 2.126190185546875, 7.958873748779297, -2.804232597351074, -1.5252236127853394, -2.498032331466675, 0.064453125, -0.207275390625, -0.80517578125
228, 2997568734, -5.349536895751953, 2.109510898590088, 7.955723285675049, -2.7460789680480957, -1.4816310405731201, -2.5557124614715576, 0.0673828125, -0.20849609375, -0.802978515625
229, 2997585401, -5.344634056091309, 2.127323627471924, 7.974611282348633, -2.7971882820129395, -1.5622849464416504, -2.555225133895874, 0.06591796875, -0.206787109375, -0.802001953125
230, 2997602068, -5.340689659118652, 2.1184921264648438, 7.973536014556885, -2.7532753944396973, -1.5975278615951538, -2.616682529449463, 0.06494140625, -0.206298828125, -0.80224609375
231, 2997618735, -5.348213195800781, 2.0988306999206543, 7.977442264556885, -2.7295970916748047, -1.597246527671814, -2.482203960418701, 0.06640625, -0.207763671875, -0.8056640625
232, 2997635402, -5.329451560974121, 2.1070308685302734, 8.002058029174805, -2.7139220237731934, -1.6401863098144531, -2.507765531539917, 0.064453125, -0.206787109375, -0.802734375
233, 2997652069, -5.3363118171691895, 2.0969901084899902, 7.970184803009033, -2.741366147994995, -1.5772688388824463, -2.439699649810791, 0.0654296875, -0.206787109375, -0.802001953125
234, 2997668736, -5.324682235717773, 2.112628698348999, 7.970800876617432, -2.777146816253662, -1.5645263195037842, -2.3790998458862305, 0.064453125, -0.208251953125, -0.80224609375
235, 2997685403, -5.342970371246338, 2.1078662872314453, 7.972829341888428, -2.7890827655792236, -1.6106036901474, -2.4818837642669678, 0.06494140625, -0.206787109375, -0.802734375
236, 2997702070, -5.343764781951904, 2.1016242504119873, 7.971056938171387, -2.8378357887268066, -1.749629020690918, -2.530240058898926, 0.06298828125, -0.207275390625, -0.80322265625
237, 2997718737, -5.326091289520264, 2.1065709590911865, 8.006601333618164, -2.8580055236816406, -1.7059721946716309, -2.5189192295074463, 0.06494140625, -0.206787109375, -0.80419921875
238, 2997735404, -5.359249114990234, 2.099907159805298, 7.961896896362305, -2.8048081398010254, -1.780991792678833, -2.505831241607666, 0.0634765625, -0.208251953125, -0.8056640625
239, 2997752071, -5.362895965576172, 2.1083476543426514, 7.989694118499756, -2.8934152126312256, -1.9048932790756226, -2.2761621475219727, 0.064453125, -0.206298828125, -0.80517578125
240, 2997768738, -5.352883815765381, 2.116767168045044, 7.976690292358398, -2.9131245613098145, -2.115224838256836, -2.2199294567108154, 0.064453125, -0.207763671875, -0.80419921875
241, 2997785405, -5.340807914733887, 2.1132771968841553, 7.97095251083374, -2.936354875564575, -2.2164204120635986, -2.2771737575531006, 0.06494140625, -0.206298828125, -0.80419921875
242, 2997802072, -5.327372074127197, 2.124936103820801, 7.980837821960449, -3.01065731048584, -2.3014674186706543, -2.359621047973633, 0.064453125, -0.206298828125, -0.80517578125
243, 2997818739, -5.37318754196167, 2.0838263034820557, 7.993163108825684, -3.0917346477508545, -2.4604201316833496, -2.244889259338379, 0.0615234375, -0.206787109375, -0.80615234375
244, 2997835406, -5.391939163208008, 2.0758206844329834, 7.965034484863281, -2.984840154647827, -2.680215358734131, -1.830591082572937, 0.064453125, -0.206298828125, -0.802734375
245, 2997852073, -5.3084540367126465, 2.106031656265259, 7.992000102996826, -3.1402196884155273, -3.032223701477051, -1.7321230173110962, 0.0654296875, -0.206298828125, -0.802001953125
246, 2997868740, -5.312824249267578, 2.1360113620758057, 8.007397651672363, -3.23392391204834, -2.8832602500915527, -1.9279195070266724, 0.0625, -0.205322265625, -0.80419921875
247, 2997885407, -5.351336479187012, 2.1202869415283203, 8.01768970489502, -3.2170326709747314, -2.6717379093170166, -1.8501209020614624, 0.061279296875, -0.205322265625, -0.80517578125
248, 2997902074, -5.3690571784973145, 2.119462251663208, 8.000643730163574, -3.3572487831115723, -2.674170970916748, -1.808948278427124, 0.061279296875, -0.206787109375, -0.8046875
249, 2997918741, -5.342350006103516, 2.1121203899383545, 8.036312103271484, -3.500462532043457, -2.8369271755218506, -1.596824049949646, 0.061767578125, -0.205322265625, -0.80419921875
250, 2997935408, -5.292418956756592, 2.2041075229644775, 8.028890609741211, -3.9364163875579834, -2.9932286739349365, -1.7481693029403687, 0.060791015625, -0.205810546875, -0.8046875
251, 2997952075, -5.278472900390625, 2.091322183609009, 7.966252326965332, -4.1543288230896, -3.308046817779541, -1.9297888278961182, 0.060791015625, -0.204833984375, -0.8046875
252, 2997968742, -5.276834487915039, 2.0501303672790527, 7.977771759033203, -4.030094146728516, -3.290463924407959, -1.8601864576339722, 0.060302734375, -0.204833984375, -0.805419921875
253, 2997985409, -5.093241214752197, 2.1077113151550293, 8.002301216125488, -3.5118212699890137, -2.9168126583099365, -2.002413749694824, 0.057373046875, -0.205322265625, -0.804443359375
254, 2998002076, -5.262423515319824, 2.00515079498291, 8.03908920288086, -2.641054153442383, -1.9611133337020874, -1.9152156114578247, 0.059814453125, -0.202392578125, -0.806396484375
255, 2998018743, -5.318786144256592, 1.9787999391555786, 7.996341228485107, -1.6030476093292236, -1.2109299898147583, -1.0333956480026245, 0.059326171875, -0.204345703125, -0.807373046875
256, 2998035410, -5.349162578582764, 2.0135111808776855, 8.014246940612793, -0.4957978427410126, -0.7767691016197205, -0.24005500972270966, 0.058837890625, -0.207763671875, -0.806884765625
257, 2998052077, -5.294178009033203, 2.0544631481170654, 7.9937744140625, 0.07498758286237717, -0.6487696170806885, 0.29112035036087036, 0.060791015625, -0.205322265625, -0.80419921875
258, 2998068744, -5.223483562469482, 2.1396591663360596, 8.029257774353027, 0.5002480149269104, -0.36051154136657715, 0.23898568749427795, 0.060791015625, -0.206787109375, -0.8037109375
259, 2998085411, -5.246732234954834, 2.141930103302002, 7.980056285858154, 0.6212937235832214, -0.19419549405574799, 0.06592069566249847, 0.059326171875, -0.208251953125, -0.804931640625
260, 2998102078, -5.257907867431641, 2.1885459423065186, 7.966019630432129, 0.5016310811042786, -0.19172386825084686, -0.28551754355430603, 0.056884765625, -0.207275390625, -0.804931640625
261, 2998118745, -5.23292350769043, 2.146228551864624, 7.98564338684082, 0.6537577509880066, -0.250402569770813, -0.5489826798439026, 0.059326171875, -0.209716796875, -0.806396484375
262, 2998135412, -5.3088059425354, 2.1544456481933594, 7.957469463348389, 0.7183530330657959, -0.08778753876686096, -0.4633209705352783, 0.060546875, -0.21142578125, -0.8056640625
263, 2998152079, -5.284597396850586, 2.1720666885375977, 7.984398365020752, 0.6733386516571045, -0.32574230432510376, -0.2526564598083496, 0.057861328125, -0.21240234375, -0.80224609375
264, 2998168746, -5.325026512145996, 2.1546361446380615, 7.964057922363281, 0.7834347486495972, -0.3393554389476776, -0.09534326940774918, 0.060791015625, -0.2109375, -0.8017578125
265, 2998185413, -5.285367488861084, 2.1741788387298584, 7.993967056274414, 0.8734251260757446, -0.5234851837158203, 0.07099200040102005, 0.059326171875, -0.21240234375, -0.8037109375
266, 2998202080, -5.289451599121094, 2.284032106399536, 7.976370811462402, 0.416097491979599, -0.729411244392395, -0.28209826350212097, 0.058837890625, -0.212890625, -0.80322265625
267, 2998218747, -5.309354782104492, 2.331355333328247, 7.882261753082275, -0.5029822587966919, -1.3309383392333984, -0.5899885296821594, 0.060302734375, -0.21435546875, -0.802734375
268, 2998235414, -5.308868408203125, 2.1892330646514893, 7.910257339477539, -0.9910451173782349, -2.0402181148529053, -0.44029513001441956, 0.059814453125, -0.2138671875, -0.80322265625
269, 2998252081, -5.183266639709473, 2.3338072299957275, 7.90728759765625, -1.5521937608718872, -2.581094264984131, -0.8965213298797607, 0.059326171875, -0.21484375, -0.80126953125
270, 2998268748, -5.296888828277588, 2.192253351211548, 7.987613677978516, -2.288853645324707, -2.9038784503936768, -1.5116488933563232, 0.059814453125, -0.21435546875, -0.80078125
271, 2998285415, -5.331114768981934, 2.2335896492004395, 7.99004602432251, -2.799135446548462, -3.443141460418701, -1.618697166442871, 0.058837890625, -0.21484375, -0.802734375
272, 2998302082, -5.320397853851318, 2.270090103149414, 7.9662885665893555, -3.216916799545288, -4.019657611846924, -1.6016134023666382, 0.057373046875, -0.212890625, -0.8046875
273, 2998318749, -5.269341468811035, 2.3641490936279297, 7.971397399902344, -4.098327159881592, -4.600784778594971, -1.9261009693145752, 0.057861328125, -0.2138671875, -0.80419921875
274, 2998335416, -5.223355293273926, 2.202179431915283, 8.02975845336914, -3.862459182739258, -4.198498249053955, -1.9083894491195679, 0.055419921875, -0.21484375, -0.805908203125
275, 2998352083, -5.08720064163208, 2.2456650733947754, 8.076672554016113, -3.509631633758545, -3.533400058746338, -2.251164197921753, 0.056884765625, -0.2138671875, -0.8037109375
276, 2998368750, -5.212442874908447, 2.1256890296936035, 8.069250106811523, -2.972930669784546, -2.3979125022888184, -2.661377429962158, 0.053955078125, -0.21240234375, -0.802490234375
277, 2998385417, -5.256887435913086, 2.114020824432373, 8.072396278381348, -2.1757731437683105, -1.8094221353530884, -2.204728603363037, 0.055419921875, -0.2138671875, -0.80322265625
278, 2998402084, -5.270687580108643, 2.2537825107574463, 8.047236442565918, -2.7901837825775146, -1.0596486330032349, -2.1080148220062256, 0.053955078125, -0.21337890625, -0.804443359375
279, 2998418751, -5.260959148406982, 2.2562766075134277, 8.045936584472656, -1.7916595935821533, -1.0872079133987427, -2.0801098346710205, 0.055908203125, -0.21533203125, -0.805419921875
280, 2998435418, -5.212042331695557, 2.319410800933838, 8.064396858215332, -1.9212214946746826, -0.963639497756958, -2.2296369075775146, 0.053466796875, -0.21484375, -0.806396484375
281, 2998452085, -5.189314842224121, 2.275034189224243, 7.930207252502441, -2.1826884746551514, -0.7002383470535278, -2.6326396465301514, 0.054443359375, -0.21533203125, -0.8037109375
282, 2998468752, -5.137062072753906, 2.2318296432495117, 8.020076751708984, -1.8722881078720093, -0.0770045816898346, -2.619692087173462, 0.055419921875, -0.21484375, -0.80322265625
283, 2998485419, -5.223040580749512, 2.212714433670044, 7.9824018478393555, -1.6398659944534302, 0.4375225603580475, -2.885321855545044, 0.054931640625, -0.2138671875, -0.8017578125
284, 2998502086, -5.258754730224609, 2.222853422164917, 7.979099750518799, -1.468260645866394, 0.38695022463798523, -3.060896873474121, 0.055419921875, -0.21533203125, -0.80322265625
285, 2998518753, -5.251744747161865, 2.3282456398010254, 7.945640563964844, -2.028346300125122, -0.0116281658411026, -3.59193754196167, 0.057861328125, -0.2158203125, -0.80517578125
286, 2998535420, -5.12158727645874, 2.3540048599243164, 7.96703577041626, -2.9767208099365234, -0.8268291354179382, -4.532768726348877, 0.057861328125, -0.21533203125, -0.806884765625
287, 2998552087, -5.191956043243408, 2.296419620513916, 7.9219183921813965, -4.0284552574157715, -1.3761705160140991, -5.707624435424805, 0.058837890625, -0.21533203125, -0.80615234375
288, 2998568754, -5.248868942260742, 2.2548162937164307, 7.9909844398498535, -4.630418300628662, -1.9161633253097534, -6.077728271484375, 0.056396484375, -0.21240234375, -0.802734375
289, 2998585421, -5.2703938484191895, 2.1545794010162354, 8.033539772033691, -4.036562442779541, -1.8842756748199463, -5.955338001251221, 0.059326171875, -0.21337890625, -0.8037109375
290, 2998602088, -5.21940803527832, 2.262500286102295, 7.963689804077148, -3.4882709980010986, -1.490492820739746, -5.7161149978637695, 0.059814453125, -0.212890625, -0.8046875
291, 2998618755, -5.2022705078125, 2.2715647220611572, 8.021827697753906, -3.4413235187530518, -1.2753078937530518, -5.946745872497559, 0.058837890625, -0.2109375, -0.8046875
292, 2998635422, -5.214496612548828, 2.203251838684082, 8.003958702087402, -3.0106067657470703, -0.5138804912567139, -6.113585948944092, 0.057373046875, -0.210693359375, -0.804931640625
293, 2998652089, -5.114810943603516, 2.175645112991333, 8.059017181396484, -2.3080756664276123, 0.9150201678276062, -6.363014221191406, 0.059814453125, -0.21044921875, -0.8046875
294, 2998668756, -5.087563514709473, 2.264930009841919, 8.082426071166992, -1.8155949115753174, 3.2994606494903564, -6.775111198425293, 0.0615234375, -0.212890625, -0.8046875
295, 2998685423, -5.074122428894043, 2.3887271881103516, 8.03107738494873, -3.2839725017547607, 5.369263172149658, -8.7138671875, 0.0634765625, -0.21142578125, -0.801513671875
296, 2998702090, -5.049396514892578, 2.2339847087860107, 8.0115385055542, -3.585575819015503, 8.666658401489258, -10.69282341003418, 0.06396484375, -0.21044921875, -0.8056640625
297, 2998718757, -5.137507438659668, 1.9836922883987427, 8.116132736206055, -0.1889835000038147, 14.300795555114746, -11.220577239990234, 0.070068359375, -0.2109375, -0.803955078125
298, 2998735424, -5.219833850860596, 2.313896894454956, 8.103991508483887, 3.1702640056610107, 22.228614807128906, -12.888134956359863, 0.072998046875, -0.21142578125, -0.8017578125
299, 2998752091, -5.053408622741699, 2.5612354278564453, 8.256734848022461, 2.724965810775757, 30.89067840576172, -15.176138877868652, 0.08251953125, -0.2119140625, -0.800048828125
300, 2998768758, -5.027679443359375, 2.417283296585083, 8.590777397155762, 2.120495319366455, 39.26335144042969, -18.363298416137695, 0.092529296875, -0.21240234375, -0.798095703125
301, 2998785425, -5.032581329345703, 2.2414469718933105, 8.612451553344727, 8.237933158874512, 53.86970901489258, -22.97286605834961, 0.1044921875, -0.213623046875, -0.796142578125
302, 2998802092, -5.094666004180908, 2.026338815689087, 8.638704299926758, 13.690230369567871, 75.42164611816406, -24.876033782958984, 0.1220703125, -0.21630859375, -0.79150390625
303, 2998818759, -5.109831809997559, 2.6395015716552734, 8.873138427734375, 17.284988403320312, 100.58464813232422, -29.04960060119629, 0.145263671875, -0.21875, -0.786865234375
304, 2998835426, -5.789754390716553, 2.4331157207489014, 8.937472343444824, 17.21267318725586, 130.4441680908203, -38.1511116027832, 0.1767578125, -0.222412109375, -0.777099609375
305, 2998852093, -5.512857437133789, 2.5799620151519775, 8.57336139678955, 19.45985984802246, 158.02761840820312, -49.737892150878906, 0.21435546875, -0.224609375, -0.763916015625
306, 2998868760, -6.110201835632324, 2.3257949352264404, 8.429919242858887, 22.761899948120117, 194.43270874023438, -64.5828628540039, 0.2587890625, -0.224853515625, -0.743896484375
307, 2998885427, -6.187213897705078, 2.3867404460906982, 8.332696914672852, 14.251806259155273, 236.96478271484375, -82.47241973876953, 0.3125, -0.218017578125, -0.719970703125
308, 2998902094, -6.711276054382324, 3.2465732097625732, 8.407952308654785, -2.781639337539673, 281.3323059082031, -103.70135498046875, 0.37548828125, -0.207763671875, -0.689453125
309, 2998918761, -8.448126792907715, 4.082650184631348, 9.29606819152832, -5.740266799926758, 321.4056091308594, -129.92361450195312, 0.4443359375, -0.19091796875, -0.64599609375
310, 2998935428, -8.948589324951172, 4.615756034851074, 9.257369041442871, -2.5114552974700928, 357.8591003417969, -159.65054321289062, 0.515380859375, -0.16845703125, -0.586669921875
311, 2998952095, -16.05557632446289, 5.470344543457031, 12.270753860473633, -1.4991509914398193, 365.274658203125, -170.84609985351562, 0.583984375, -0.137939453125, -0.520263671875
312, 2998968762, -16.492996215820312, 4.432919979095459, 12.85837173461914, 5.75006628036499, 368.6435241699219, -161.94615173339844, 0.64501953125, -0.107421875, -0.446044921875
313, 2998985429, -16.924266815185547, 6.277939319610596, 14.013656616210938, -1.8547558784484863, 334.30938720703125, -146.07369995117188, 0.69580078125, -0.074951171875, -0.366455078125
314, 2999002096, -9.439644813537598, 5.457441806793213, 12.916851997375488, -24.40839195251465, 289.5320129394531, -142.808349609375, 0.730712890625, -0.045654296875, -0.292236328125
315, 2999018763, 1.0109941959381104, 5.755820274353027, 9.661259651184082, -60.39579772949219, 242.8036651611328, -156.70843505859375, 0.75537109375, -0.00927734375, -0.230224609375
316, 2999035430, -18.077253341674805, 9.787233352661133, 20.16429328918457, -30.57294464111328, 193.38633728027344, -84.56735229492188, 0.773681640625, 0.01953125, -0.16650390625
317, 2999052097, -14.276077270507812, 10.899738311767578, 22.603191375732422, -10.446263313293457, -55.744590759277344, 12.336470603942871, 0.7802734375, 0.021484375, -0.161865234375
318, 2999068764, -3.2178680896759033, 7.353395462036133, 13.906771659851074, -29.01862335205078, -176.8321075439453, 61.64517593383789, 0.777587890625, 0.00830078125, -0.18896484375
319, 2999085431, 0.3148924708366394, 3.862916946411133, 8.418219566345215, -36.221580505371094, -203.53810119628906, 78.62348175048828, 0.777099609375, -0.008544921875, -0.229736328125
320, 2999102098, 0.6910362243652344, 2.057722568511963, 6.376066207885742, -27.859466552734375, -199.5521240234375, 90.3903579711914, 0.7685546875, -0.025390625, -0.278564453125
321, 2999118765, -1.2634985446929932, 1.6791954040527344, 6.518962383270264, -19.307451248168945, -196.70591735839844, 101.8236312866211, 0.758544921875, -0.047119140625, -0.32421875
322, 2999135432, -3.769897222518921, 1.712365746498108, 7.4620280265808105, -22.85232925415039, -211.66061401367188, 106.9756088256836, 0.7421875, -0.071533203125, -0.38037109375
323, 2999152099, -6.057369709014893, 1.4209517240524292, 8.313371658325195, -30.797821044921875, -244.726806640625, 111.4244384765625, 0.71533203125, -0.095703125, -0.44287109375
324, 2999168766, -6.951147556304932, 0.9398211240768433, 8.392265319824219, -34.914398193359375, -281.67584228515625, 117.97482299804688, 0.668212890625, -0.115478515625, -0.50732421875
325, 2999185433, -7.213525295257568, 0.5760136246681213, 7.934844493865967, -34.44514465332031, -308.69677734375, 123.36018371582031, 0.609130859375, -0.1318359375, -0.571044921875
326, 2999202100, -7.523246765136719, 0.3519144356250763, 7.5167036056518555, -31.301664352416992, -319.5992431640625, 122.78199768066406, 0.54638671875, -0.14404296875, -0.63134765625
327, 2999218767, -7.7898101806640625, -0.27737414836883545, 7.069827079772949, -23.75132942199707, -314.6278076171875, 114.48726654052734, 0.478759765625, -0.15283203125, -0.67626953125
328, 2999235434, -8.640368461608887, -0.9566155076026917, 6.881591320037842, -6.33325719833374, -290.921630859375, 95.03905487060547, 0.4111328125, -0.160888671875, -0.705078125
329, 2999252101, -10.736812591552734, -0.05321197956800461, 7.963968276977539, 13.711935043334961, -255.1395263671875, 70.64025115966797, 0.357421875, -0.166259765625, -0.71630859375
330, 2999268768, -15.787540435791016, 2.2430617809295654, 11.215272903442383, 27.775428771972656, -235.4037628173828, 54.976707458496094, 0.325439453125, -0.172607421875, -0.72021484375
331, 2999285435, -19.576784133911133, 3.3900365829467773, 11.1423921585083, 39.879093170166016, -238.93890380859375, 57.20650100708008, 0.310546875, -0.18310546875, -0.7373046875
332, 2999302102, -23.874691009521484, 5.669241905212402, 8.728229522705078, 31.38300132751465, -231.62486267089844, 62.92564010620117, 0.29443359375, -0.206787109375, -0.782470703125
333, 2999318769, -26.944984436035156, 7.041559219360352, 4.653160095214844, -2.989976644515991, -228.83273315429688, 60.236053466796875, 0.2529296875, -0.228515625, -0.847900390625
334, 2999335436, -26.960773468017578, 3.7088236808776855, -0.290455162525177, -4.697823524475098, -212.64117431640625, 73.43768310546875, 0.183349609375, -0.251953125, -0.90478515625
335, 2999352103, -26.82166290283203, -0.9745567440986633, -4.460683822631836, 46.840606689453125, -189.7113037109375, 108.4338607788086, 0.0966796875, -0.28369140625, -0.92626953125
336, 2999368770, -24.874282836914062, -6.3715691566467285, -8.561452865600586, 78.09326171875, -153.13552856445312, 117.50627899169922, 0.016845703125, -0.32080078125, -0.927734375
337, 2999385437, -23.496978759765625, -9.998275756835938, -9.845903396606445, 69.35452270507812, -101.58482360839844, 73.89591979980469, -0.04150390625, -0.34375, -0.918212890625
338, 2999402104, -21.3898868560791, -7.571868896484375, -8.0850248336792, 26.94012451171875, -54.37105941772461, -10.821483612060547, -0.072265625, -0.356689453125, -0.912353515625
339, 2999418771, -18.4204158782959, -4.823065757751465, -8.81726360321045, -17.63703155517578, 24.227096557617188, -106.05670166015625, -0.071044921875, -0.357177734375, -0.913330078125
340, 2999435438, -10.580180168151855, 2.0387821197509766, 2.0170745849609375, -17.166574478149414, 86.81689453125, -138.42535400390625, -0.04150390625, -0.35693359375, -0.91943359375
341, 2999452105, -3.2438125610351562, 14.723549842834473, 14.260396957397461, -3.76190185546875, 54.28935241699219, -60.711395263671875, -0.019775390625, -0.356689453125, -0.92578125
342, 2999468772, -1.3532613515853882, 8.246500015258789, 4.449047088623047, 0.4572090208530426, 99.45861053466797, -2.5132312774658203, -0.001953125, -0.3623046875, -0.92919921875
343, 2999485439, -15.306073188781738, -4.732078552246094, 15.008363723754883, -18.69468879699707, 99.83586883544922, 8.386345863342285, 0.02099609375, -0.36083984375, -0.93115234375
344, 2999502106, -9.091215133666992, -6.564693450927734, 12.090124130249023, -5.528839111328125, 42.685569763183594, -48.54819107055664, 0.0341796875, -0.360107421875, -0.93310546875
345, 2999518773, -3.6736042499542236, 6.325870037078857, 7.424371719360352, 16.29409408569336, 50.373512268066406, -33.07453918457031, 0.04736328125, -0.361572265625, -0.934326171875
346, 2999535440, -6.175014972686768, 3.834805727005005, 8.26152515411377, 10.556448936462402, 62.41175079345703, -12.384984970092773, 0.06494140625, -0.3662109375, -0.93359375
347, 2999552107, -5.545514106750488, 0.5678468942642212, 8.489005088806152, 15.071615219116211, 51.32689666748047, -24.799137115478516, 0.078857421875, -0.373291015625, -0.93115234375
348, 2999568774, -8.051012992858887, 9.51262092590332, 8.964229583740234, -8.21911907196045, 50.92361831665039, -31.74686622619629, 0.094482421875, -0.3740234375, -0.93408203125
349, 2999585441, -6.877407073974609, 2.82883620262146, 7.639424800872803, -24.759187698364258, 44.04819869995117, -17.263504028320312, 0.105224609375, -0.365966796875, -0.935546875
350, 2999602108, -6.231231689453125, 2.664644479751587, 8.392125129699707, -16.532434463500977, 27.464181900024414, -17.468082427978516, 0.112548828125, -0.361083984375, -0.938232421875
351, 2999618775, -5.657787322998047, 3.3455004692077637, 8.431490898132324, -12.277056694030762, 30.47028350830078, -14.731649398803711, 0.123291015625, -0.358154296875, -0.93701171875
352, 2999635442, -6.211696147918701, 2.3978970050811768, 8.299549102783203, -6.773282051086426, 22.010372161865234, -13.142663955688477, 0.130615234375, -0.358154296875, -0.937744140625
353, 2999652109, -5.881537437438965, 2.22399640083313, 8.155282020568848, -5.161158084869385, 16.31082534790039, -10.42087459564209, 0.13671875, -0.358642578125, -0.9345703125
354, 2999668776, -5.824830532073975, 2.391256809234619, 7.941531181335449, -3.052856922149658, 11.255387306213379, -8.690024375915527, 0.139892578125, -0.355224609375, -0.93701171875
355, 2999685443, -5.551937580108643, 2.672990083694458, 7.704160690307617, -2.6745433807373047, 8.761922836303711, -7.760537147521973, 0.142822265625, -0.3564453125, -0.94140625
356, 2999702110, -5.3309502601623535, 2.9368929862976074, 7.518021583557129, -4.6044487953186035, 6.6621551513671875, -8.766131401062012, 0.146240234375, -0.354736328125, -0.937255859375
357, 2999718777, -5.359932899475098, 3.0103418827056885, 7.567206382751465, -7.400666236877441, 4.195535659790039, -11.438817977905273, 0.148193359375, -0.350830078125, -0.936767578125
358, 2999735444, -5.449092864990234, 3.1437132358551025, 7.593544006347656, -11.124259948730469, 1.2327085733413696, -14.192461967468262, 0.14990234375, -0.350830078125, -0.936767578125
359, 2999752111, -5.638681888580322, 2.8944785594940186, 7.554276466369629, -15.727313041687012, -4.087653160095215, -15.536754608154297, 0.15087890625, -0.346923828125, -0.938232421875
360, 2999768778, -5.712833404541016, 2.7121310234069824, 7.798863887786865, -21.75678825378418, -9.311473846435547, -18.277917861938477, 0.1494140625, -0.34228515625, -0.93994140625
361, 2999785445, -5.813995838165283, 2.6302850246429443, 7.712051868438721, -21.305498123168945, -14.012012481689453, -18.467256546020508, 0.146240234375, -0.334228515625, -0.94775390625
362, 2999802112, -5.549929141998291, 2.388113498687744, 7.815661430358887, -20.32794189453125, -14.257391929626465, -16.915565490722656, 0.144775390625, -0.328857421875, -0.94580078125
363, 2999818779, -5.517632961273193, 1.8668296337127686, 7.934772491455078, -15.157012939453125, -11.648295402526855, -14.760525703430176, 0.142333984375, -0.322265625, -0.946044921875
364, 2999835446, -5.3813910484313965, 1.870768666267395, 8.133076667785645, -7.496266841888428, -4.208502769470215, -12.081968307495117, 0.141845703125, -0.3232421875, -0.94970703125
365, 2999852113, -5.027344703674316, 2.5961618423461914, 8.237213134765625, -2.028744697570801, 4.611972808837891, -12.825079917907715, 0.143798828125, -0.32275390625, -0.948974609375
366, 2999868780, -5.216019153594971, 2.859890937805176, 8.036688804626465, -3.841744899749756, 12.546587944030762, -17.74903106689453, 0.147705078125, -0.3193359375, -0.946044921875
367, 2999885447, -5.208400726318359, 2.681842565536499, 7.904399871826172, -1.751812219619751, 21.32733917236328, -22.73558807373047, 0.1533203125, -0.31982421875, -0.9453125
368, 2999902114, -4.543074131011963, 2.4696719646453857, 9.0637845993042, -0.9800643920898438, 38.51301956176758, -24.85597801208496, 0.162353515625, -0.31884765625, -0.9423828125
369, 2999918781, -4.509260654449463, 2.007077693939209, 9.118882179260254, 2.103257894515991, 68.49813842773438, -24.23019027709961, 0.181396484375, -0.31884765625, -0.937255859375
370, 2999935448, -4.825833797454834, 2.0544984340667725, 9.14592170715332, 16.34653091430664, 108.87179565429688, -31.18102264404297, 0.206298828125, -0.319091796875, -0.928466796875
371, 2999952115, -5.092461585998535, 2.6947762966156006, 9.365021705627441, 31.855831146240234, 156.06446838378906, -45.17013168334961, 0.2470703125, -0.32373046875, -0.911865234375
372, 2999968782, -4.806519031524658, 3.4532368183135986, 9.812615394592285, 34.91374588012695, 206.8978271484375, -65.76927185058594, 0.297119140625, -0.327880859375, -0.88720703125
373, 2999985449, -5.2565693855285645, 3.7938103675842285, 9.977384567260742, 27.392467498779297, 272.9897766113281, -99.52484893798828, 0.367431640625, -0.322265625, -0.854248046875
374, 3000002116, -5.575314998626709, 3.554316520690918, 9.909337997436523, 9.26115608215332, 353.0815124511719, -138.06568908691406, 0.453369140625, -0.303955078125, -0.80419921875
375, 3000018783, -7.376500129699707, 4.04560661315918, 11.0848388671875, 2.020355463027954, 428.3484802246094, -182.2519989013672, 0.5546875, -0.276611328125, -0.73291015625
376, 3000035450, -11.31837272644043, 5.80444860458374, 12.973068237304688, 5.769114971160889, 479.37054443359375, -202.59521484375, 0.652587890625, -0.233154296875, -0.635986328125
377, 3000052117, -22.103763580322266, 6.073710918426514, 15.981770515441895, 13.361916542053223, 477.2336730957031, -181.03514099121094, 0.7431640625, -0.190185546875, -0.5224609375
378, 3000068784, -20.5517520904541, 7.7965474128723145, 17.655677795410156, -6.159125804901123, 415.5290222167969, -163.55715942382812, 0.80615234375, -0.142822265625, -0.40869140625
379, 3000085451, -11.334261894226074, 6.896020889282227, 17.731868743896484, -26.930511474609375, 354.3556823730469, -154.78811645507812, 0.846435546875, -0.09521484375, -0.306396484375
380, 3000102118, 2.8157706260681152, 9.142925262451172, 17.201580047607422, -50.62769317626953, 293.0541687011719, -157.50743103027344, 0.87353515625, -0.046875, -0.216552734375
381, 3000118785, -21.876535415649414, 20.88433074951172, 31.304452896118164, -74.71467590332031, 149.15145874023438, -26.549991607666016, 0.887939453125, -0.021484375, -0.15869140625
382, 3000135452, -8.762767791748047, 14.516409873962402, 26.958843231201172, -112.84500885009766, -179.70565795898438, 92.76756286621094, 0.887939453125, -0.039306640625, -0.1953125
383, 3000152119, 2.691922426223755, 4.854928970336914, 15.181205749511719, -130.5306396484375, -275.9398193359375, 112.91339111328125, 0.865234375, -0.068115234375, -0.277099609375
384, 3000168786, 3.56536602973938, -0.00374583899974823, 9.65360164642334, -98.84452056884766, -282.3618469238281, 106.19742584228516, 0.82568359375, -0.093994140625, -0.368408203125
385, 3000185453, 1.4839880466461182, -1.634057641029358, 8.357070922851562, -39.49263381958008, -278.41009521484375, 103.04780578613281, 0.770263671875, -0.119873046875, -0.447021484375
386, 3000202120, -2.373406171798706, 0.26757800579071045, 9.135733604431152, -2.7632250785827637, -286.6365966796875, 91.88600158691406, 0.70458984375, -0.144287109375, -0.5078125
387, 3000218787, -6.265656471252441, 1.8942995071411133, 10.06568717956543, -1.775878667831421, -315.4173278808594, 79.42118072509766, 0.6328125, -0.1611328125, -0.558837890625
388, 3000235454, -8.575599670410156, 2.2521157264709473, 10.135066986083984, -8.007312774658203, -356.30419921875, 77.10753631591797, 0.554443359375, -0.1728515625, -0.60498046875
389, 3000252121, -8.93198013305664, 2.185784339904785, 8.824920654296875, -6.1865553855896, -381.7897033691406, 82.99469757080078, 0.470458984375, -0.1845703125, -0.643798828125
390, 3000268788, -7.910223484039307, 2.0362868309020996, 7.229888439178467, 4.31677770614624, -375.56378173828125, 86.65621948242188, 0.396240234375, -0.1953125, -0.67333984375
391, 3000285455, -8.858095169067383, 2.1312623023986816, 7.265101432800293, 18.13758659362793, -334.4741516113281, 77.04804229736328, 0.32958984375, -0.2080078125, -0.689208984375
392, 3000302122, -12.144783020019531, 3.079632520675659, 9.5953369140625, 36.289588928222656, -288.80364990234375, 64.49919128417969, 0.281494140625, -0.223876953125, -0.7021484375
393, 3000318789, -20.290271759033203, 4.223766326904297, 13.604219436645508, 66.06158447265625, -276.3106689453125, 66.61148071289062, 0.240234375, -0.246826171875, -0.7177734375
394, 3000335456, -26.105003356933594, 4.442293643951416, 12.927656173706055, 97.90032196044922, -292.9964294433594, 87.24571228027344, 0.187744140625, -0.2841796875, -0.74462890625
395, 3000352123, -31.417564392089844, 5.64082670211792, 8.662976264953613, 96.54523468017578, -300.19390869140625, 108.87815856933594, 0.1015625, -0.32373046875, -0.763427734375
396, 3000368790, -33.820369720458984, 5.875290870666504, 1.3633627891540527, 48.86543655395508, -301.4799499511719, 124.11312866210938, 0.005615234375, -0.351318359375, -0.764892578125
397, 3000385457, -32.47488021850586, 0.27391788363456726, -7.8229289054870605, 12.189750671386719, -264.6863708496094, 141.33221435546875, -0.082275390625, -0.357666015625, -0.7529296875
398, 3000402124, -31.876543045043945, -10.49761962890625, -17.63129234313965, 27.82225799560547, -167.638427734375, 132.4927520751953, -0.143798828125, -0.358642578125, -0.734619140625
399, 3000418791, -30.389328002929688, -17.288803100585938, -23.319658279418945, 82.53844451904297, -21.425403594970703, 73.25428009033203, -0.170166015625, -0.370849609375, -0.716552734375
400, 3000435458, -29.69036865234375, -10.855100631713867, -18.045875549316406, 8.416930198669434, 113.75469207763672, -51.18506622314453, -0.152587890625, -0.37646484375, -0.707763671875
401, 3000452125, -17.962522506713867, -4.494769096374512, 2.8151557445526123, -31.71741485595703, 162.17227172851562, -146.03622436523438, -0.10888671875, -0.373779296875, -0.71142578125
402, 3000468792, -6.5511698722839355, 14.84666633605957, 17.249330520629883, -41.834197998046875, 82.48959350585938, -120.08696746826172, -0.079345703125, -0.368896484375, -0.71484375
403, 3000485459, 0.09591588377952576, 7.949987888336182, 1.9092837572097778, -35.23954772949219, 123.65231323242188, -75.54646301269531, -0.052734375, -0.362060546875, -0.714599609375
404, 3000502126, -15.423480033874512, 0.22425055503845215, 14.121217727661133, -51.28938674926758, 146.5736846923828, -29.1810302734375, -0.02001953125, -0.349853515625, -0.715087890625
405, 3000518793, -11.999115943908691, -5.39764928817749, 11.941661834716797, -41.1243896484375, 87.86453247070312, -60.65005874633789, 0.003173828125, -0.3408203125, -0.71923828125
406, 3000535460, -7.588171005249023, 5.874643802642822, 11.431069374084473, -29.85810089111328, 80.09227752685547, -53.26223373413086, 0.022216796875, -0.33642578125, -0.717041015625
407, 3000552127, -14.887249946594238, 1.7896597385406494, 9.895301818847656, -65.80953216552734, 17.35034942626953, -41.62710189819336, 0.03564453125, -0.321044921875, -0.719970703125
408, 3000568794, -5.687519073486328, 2.591252088546753, 9.59679889678955, -27.70475959777832, 5.810860633850098, -18.886474609375, 0.037841796875, -0.31494140625, -0.719482421875
409, 3000585461, -6.174710273742676, 2.638362169265747, 8.214276313781738, -19.61907196044922, 3.6727848052978516, -13.390216827392578, 0.040283203125, -0.30908203125, -0.72314453125
410, 3000602128, -5.695431709289551, 2.5571846961975098, 8.23044204711914, -13.715907096862793, 2.917743682861328, -9.672311782836914, 0.041259765625, -0.30615234375, -0.72412109375
411, 3000618795, -5.511268138885498, 2.1084587574005127, 8.324840545654297, -8.81556224822998, 3.1707193851470947, -8.149863243103027, 0.043212890625, -0.3046875, -0.722900390625
412, 3000635462, -5.389014720916748, 1.9707865715026855, 8.227448463439941, -5.6969451904296875, 5.001489639282227, -7.466693878173828, 0.04541015625, -0.302001953125, -0.7255859375
413, 3000652129, -5.167339324951172, 2.0494167804718018, 8.079804420471191, -3.579542636871338, 6.146518230438232, -6.410988807678223, 0.046875, -0.30322265625, -0.724365234375
414, 3000668796, -5.163040637969971, 2.2742998600006104, 7.872248649597168, -2.8423445224761963, 5.721487522125244, -6.808792591094971, 0.04736328125, -0.30322265625, -0.724853515625
415, 3000685463, -5.266735553741455, 2.352078676223755, 7.964619159698486, -2.0777153968811035, 5.225165367126465, -7.411447048187256, 0.04931640625, -0.3037109375, -0.723388671875
416, 3000702130, -5.427154541015625, 2.3815431594848633, 7.8702778816223145, -2.1909236907958984, 2.958991289138794, -7.427748680114746, 0.0517578125, -0.302490234375, -0.7197265625
417, 3000718797, -5.406792640686035, 2.395358085632324, 7.870743751525879, -1.4006562232971191, 1.7802428007125854, -6.878469944000244, 0.05322265625, -0.30322265625, -0.72119140625
418, 3000735464, -5.399033546447754, 2.2322587966918945, 7.902564525604248, -0.3618946671485901, 1.2711262702941895, -5.553256034851074, 0.0537109375, -0.30517578125, -0.72119140625
419, 3000752131, -5.398689270019531, 2.0198514461517334, 7.974829196929932, 1.4513756036758423, 1.36753249168396, -3.8900949954986572, 0.05419921875, -0.3056640625, -0.7197265625
420, 3000768798, -5.324991703033447, 2.0324907302856445, 8.040250778198242, 4.034877777099609, 2.0819220542907715, -2.228881359100342, 0.055908203125, -0.3056640625, -0.7216796875
421, 3000785465, -5.268649578094482, 2.2552521228790283, 8.046067237854004, 4.348121166229248, 2.7516300678253174, -2.5011825561523438, 0.0537109375, -0.30810546875, -0.72021484375
422, 3000802132, -5.131933689117432, 2.6256003379821777, 7.896376132965088, 1.3265266418457031, 1.8478349447250366, -5.224824905395508, 0.055908203125, -0.3095703125, -0.718994140625
423, 3000818799, -5.169449806213379, 2.387941837310791, 7.941758155822754, 3.0851712226867676, 2.9310853481292725, -7.193647384643555, 0.057861328125, -0.311279296875, -0.71826171875
424, 3000835466, -4.996617317199707, 2.3452041149139404, 7.997148036956787, 5.152784824371338, 7.162729740142822, -8.841712951660156, 0.059326171875, -0.3095703125, -0.719970703125
425, 3000852133, -4.966573715209961, 2.46917724609375, 8.247187614440918, 9.046041488647461, 16.28870964050293, -10.498085975646973, 0.062255859375, -0.312744140625, -0.714599609375
426, 3000868800, -4.981724739074707, 2.821826457977295, 8.196989059448242, 13.265564918518066, 31.241474151611328, -14.508484840393066, 0.0693359375, -0.315673828125, -0.7138671875
427, 3000885467, -4.305884838104248, 2.8191444873809814, 9.280938148498535, 14.68006420135498, 50.07660675048828, -20.985666275024414, 0.081787109375, -0.318359375, -0.71044921875
428, 3000902134, -4.479685306549072, 2.100022315979004, 9.276211738586426, 18.886857986450195, 80.50320434570312, -24.040555953979492, 0.099853515625, -0.31787109375, -0.703369140625
429, 3000918801, -4.578366756439209, 2.1929495334625244, 9.415921211242676, 31.317575454711914, 122.62315368652344, -28.653114318847656, 0.1220703125, -0.325439453125, -0.697998046875
430, 3000935468, -4.734076976776123, 3.2544729709625244, 9.608116149902344, 46.92771911621094, 173.8322296142578, -40.874427795410156, 0.15869140625, -0.332763671875, -0.68603515625
431, 3000952135, -4.339948654174805, 3.843411445617676, 9.731359481811523, 48.88578414916992, 237.79443359375, -64.54337310791016, 0.20654296875, -0.33642578125, -0.661376953125
432, 3000968802, -5.143184661865234, 3.6247899532318115, 9.743063926696777, 44.98735809326172, 313.43389892578125, -95.85316467285156, 0.269287109375, -0.3408203125, -0.632568359375
433, 3000985469, -5.466511249542236, 3.2967369556427, 9.919495582580566, 29.05388069152832, 403.29541015625, -137.89599609375, 0.345703125, -0.3330078125, -0.58935546875
434, 3001002136, -8.438583374023438, 5.449002742767334, 12.123225212097168, 26.069231033325195, 483.3658752441406, -177.87600708007812, 0.4384765625, -0.314208984375, -0.525634765625
435, 3001018803, -17.34565544128418, 7.479766845703125, 15.950026512145996, 35.8912239074707, 537.3302612304688, -188.78546142578125, 0.532470703125, -0.28564453125, -0.439697265625
436, 3001035470, -24.49444007873535, 7.686316013336182, 18.142372131347656, 39.41402053833008, 487.1767883300781, -169.48779296875, 0.606689453125, -0.25390625, -0.3408203125
437, 3001052137, -18.906639099121094, 9.035959243774414, 19.421897888183594, 20.781158447265625, 396.021240234375, -156.4401397705078, 0.658447265625, -0.217041015625, -0.248779296875
438, 3001068804, -6.122450828552246, 8.25846004486084, 19.728731155395508, 9.351714134216309, 331.8381652832031, -166.38938903808594, 0.69140625, -0.174072265625, -0.159912109375
439, 3001085471, -1.4986176490783691, 12.527726173400879, 19.200851440429688, -57.40375900268555, 275.0463562011719, -177.43943786621094, 0.711669921875, -0.12109375, -0.08447265625
440, 3001102138, -25.395124435424805, 13.247041702270508, 36.236873626708984, -33.68624496459961, -32.99591827392578, -52.29890441894531, 0.721435546875, -0.084228515625, -0.045166015625
441, 3001118805, -3.219322443008423, 9.686171531677246, 19.870283126831055, -33.656036376953125, -265.27850341796875, 29.566059112548828, 0.735107421875, -0.062255859375, -0.059814453125
442, 3001135472, 3.187112808227539, 5.6488356590271, 9.939571380615234, -46.241737365722656, -306.2191467285156, 44.756446838378906, 0.768310546875, -0.042724609375, -0.10107421875
443, 3001152139, 4.065005302429199, 3.3330721855163574, 5.5684075355529785, -42.454490661621094, -287.52850341796875, 52.561439514160156, 0.814697265625, -0.031494140625, -0.1650390625
444, 3001168806, 1.5349993705749512, 2.556811571121216, 5.154753684997559, -24.625505447387695, -263.90423583984375, 74.72343444824219, 0.85693359375, -0.032958984375, -0.267578125
445, 3001185473, -2.6754021644592285, 3.7000324726104736, 6.5292744636535645, -19.21475601196289, -264.0009460449219, 95.4297866821289, 0.85986328125, -0.052734375, -0.394287109375
446, 3001202140, -5.935112476348877, 4.204190731048584, 7.6412200927734375, -31.35600471496582, -291.74407958984375, 108.41822052001953, 0.8095703125, -0.076416015625, -0.524658203125
447, 3001218807, -7.302394866943359, 3.4429757595062256, 7.972929954528809, -37.40957260131836, -325.44671630859375, 120.80424499511719, 0.7177734375, -0.09130859375, -0.62939453125
448, 3001235474, -7.762362003326416, 2.625943183898926, 7.107361793518066, -29.233985900878906, -347.8780517578125, 132.92233276367188, 0.6171875, -0.100341796875, -0.710693359375
449, 3001252141, -7.829300880432129, 2.4103007316589355, 6.28732967376709, -11.33382511138916, -343.615966796875, 130.66075134277344, 0.519775390625, -0.111083984375, -0.771728515625
450, 3001268808, -10.359376907348633, 3.024843215942383, 5.798056602478027, 9.772961616516113, -319.39678955078125, 110.45797729492188, 0.4267578125, -0.127197265625, -0.823486328125
451, 3001285475, -16.60843849182129, 2.6746573448181152, 7.99238920211792, 42.253971099853516, -281.9327697753906, 102.51219940185547, 0.32763671875, -0.143310546875, -0.85400390625
452, 3001302142, -28.174640655517578, 2.3329639434814453, 9.582685470581055, 93.89805603027344, -290.66363525390625, 112.38729095458984, 0.229248046875, -0.17333984375, -0.861328125
453, 3001318809, -33.13706588745117, 4.1427483558654785, 5.344357013702393, 100.80027770996094, -317.5947265625, 112.1679458618164, 0.138916015625, -0.213134765625, -0.861328125
454, 3001335476, -35.49812698364258, 2.6058189868927, -2.2971203327178955, 61.15428924560547, -303.99993896484375, 99.84341430664062, 0.050537109375, -0.24462890625, -0.860595703125
455, 3001352143, -34.509490966796875, -2.417210578918457, -10.997101783752441, 58.682098388671875, -261.4791564941406, 88.54354858398438, -0.02880859375, -0.26513671875, -0.853271484375
456, 3001368810, -31.775007247924805, -6.509092807769775, -15.041622161865234, 99.47603607177734, -176.42979431152344, 78.64677429199219, -0.086669921875, -0.292724609375, -0.83544921875
457, 3001385477, -31.645259857177734, -6.393784046173096, -16.561187744140625, 75.59024047851562, -68.14657592773438, 49.68580627441406, -0.12158203125, -0.316162109375, -0.823486328125
458, 3001402144, -31.307891845703125, -12.18142318725586, -17.58400535583496, -33.72053909301758, 56.97578430175781, -21.45085906982422, -0.116455078125, -0.3125, -0.82373046875
459, 3001418811, -12.844050407409668, -8.14746379852295, 4.424060344696045, -67.19842529296875, 119.54753112792969, -66.35057067871094, -0.08642578125, -0.292236328125, -0.833740234375
460, 3001435478, -1.2601507902145386, 3.903987169265747, 14.798460006713867, -55.834651947021484, 76.02436065673828, -74.10162353515625, -0.065185546875, -0.2783203125, -0.837890625
461, 3001452145, -9.710453033447266, 0.9971997141838074, 9.215631484985352, -31.86614227294922, 116.62181854248047, -72.46012115478516, -0.03515625, -0.263671875, -0.84130859375
462, 3001468812, -11.307663917541504, 2.434589385986328, 10.54546070098877, -25.384382247924805, 99.142822265625, -38.773128509521484, -0.00537109375, -0.2548828125, -0.840576171875
463, 3001485479, -12.411336898803711, 4.21784782409668, 12.40665054321289, -37.876853942871094, 78.6715087890625, -52.10872268676758, 0.0166015625, -0.245849609375, -0.842041015625
464, 3001502146, -8.547890663146973, 2.147937774658203, 7.966912269592285, -34.94076156616211, 37.15803527832031, -28.14290428161621, 0.0283203125, -0.23486328125, -0.84423828125
465, 3001518813, -6.537201881408691, 2.6212902069091797, 9.145057678222656, -31.583539962768555, 22.454051971435547, -23.29763412475586, 0.036376953125, -0.2255859375, -0.845703125
466, 3001535480, -6.72284460067749, 2.6101512908935547, 8.636882781982422, -20.7016544342041, 14.292180061340332, -14.754304885864258, 0.042724609375, -0.218505859375, -0.84765625
467, 3001552147, -5.872941493988037, 2.712852954864502, 8.294306755065918, -8.862756729125977, 11.161197662353516, -8.15921401977539, 0.04541015625, -0.215087890625, -0.84814453125
468, 3001568814, -5.5583648681640625, 2.6071202754974365, 8.104658126831055, -0.8011271953582764, 11.19537353515625, -5.422224044799805, 0.0478515625, -0.217041015625, -0.848388671875
469, 3001585481, -5.553950309753418, 2.36523699760437, 8.060254096984863, 0.18560896813869476, 12.023576736450195, -6.178823947906494, 0.05078125, -0.216064453125, -0.846435546875
470, 3001602148, -5.4237847328186035, 2.434767246246338, 7.966175556182861, 0.9064275622367859, 12.224392890930176, -6.7800445556640625, 0.054931640625, -0.216552734375, -0.84326171875
471, 3001618815, -5.577361583709717, 2.7102718353271484, 7.784866809844971, 1.3231083154678345, 11.70241928100586, -7.972573280334473, 0.057861328125, -0.218017578125, -0.84423828125
472, 3001635482, -5.651197910308838, 2.8889081478118896, 7.628873825073242, 0.6307579278945923, 9.909974098205566, -8.849499702453613, 0.062255859375, -0.217529296875, -0.844970703125
473, 3001652149, -5.807730197906494, 2.7711260318756104, 7.603222846984863, -0.783966600894928, 6.828405380249023, -9.114717483520508, 0.06689453125, -0.216552734375, -0.84228515625
474, 3001668816, -5.68054723739624, 2.7374067306518555, 7.576440334320068, -1.6344366073608398, 4.147549152374268, -8.26390266418457, 0.06689453125, -0.217529296875, -0.84326171875
475, 3001685483, -5.699288368225098, 2.690143346786499, 7.5732269287109375, -2.059312582015991, 3.1819493770599365, -7.908511161804199, 0.0673828125, -0.2197265625, -0.84326171875
476, 3001702150, -5.519102096557617, 2.678506851196289, 7.636458396911621, -2.0157196521759033, 2.2761948108673096, -8.240489959716797, 0.0693359375, -0.21728515625, -0.841796875
477, 3001718817, -5.514821529388428, 2.5812628269195557, 7.717507839202881, -0.7647826671600342, 3.27765154838562, -8.79846477508545, 0.0693359375, -0.216796875, -0.84521484375
478, 3001735484, -5.381639003753662, 2.8412764072418213, 7.653168201446533, -0.6721414923667908, 5.00761079788208, -9.606596946716309, 0.072998046875, -0.2177734375, -0.84375
479, 3001752151, -5.43514347076416, 2.864067316055298, 7.710202217102051, -0.42041993141174316, 7.023935317993164, -13.49005126953125, 0.076416015625, -0.21826171875, -0.842529296875
480, 3001768818, -5.583497524261475, 2.5433952808380127, 7.672482013702393, 4.521218299865723, 11.433635711669922, -17.251358032226562, 0.079345703125, -0.21875, -0.841552734375
481, 3001785485, -5.28577995300293, 2.832768678665161, 8.06374454498291, 10.514562606811523, 17.01877212524414, -21.201446533203125, 0.0830078125, -0.220703125, -0.84033203125
482, 3001802152, -5.000555992126465, 2.080838203430176, 8.596061706542969, 6.364691257476807, 31.295677185058594, -19.432668685913086, 0.092041015625, -0.2197265625, -0.840087890625
483, 3001818819, -4.810657024383545, 2.352611780166626, 8.857255935668945, 12.309381484985352, 58.44453048706055, -18.512176513671875, 0.103515625, -0.224853515625, -0.836669921875
484, 3001835486, -4.857662200927734, 2.3406434059143066, 8.850008010864258, 19.531312942504883, 93.78001403808594, -21.934011459350586, 0.125732421875, -0.22705078125, -0.831298828125
485, 3001852153, -5.041848659515381, 2.535839319229126, 8.864786148071289, 32.406280517578125, 135.70143127441406, -26.751523971557617, 0.15869140625, -0.235107421875, -0.819580078125
486, 3001868820, -5.012601852416992, 3.6793813705444336, 9.083664894104004, 37.96083450317383, 185.76467895507812, -38.982425689697266, 0.19970703125, -0.243896484375, -0.807373046875
487, 3001885487, -4.555962562561035, 4.739079475402832, 8.935738563537598, 32.40538024902344, 242.74099731445312, -65.88129425048828, 0.25439453125, -0.245361328125, -0.78759765625
488, 3001902154, -5.496682167053223, 4.6474833488464355, 9.162503242492676, 30.669681549072266, 319.4684753417969, -104.9323959350586, 0.327392578125, -0.24365234375, -0.75439453125
489, 3001918821, -7.114752292633057, 5.17832612991333, 10.849373817443848, 17.124855041503906, 404.93939208984375, -159.0236053466797, 0.41845703125, -0.23193359375, -0.706298828125
490, 3001935488, -9.968718528747559, 6.469143867492676, 12.059098243713379, 12.386484146118164, 473.6882629394531, -200.7344970703125, 0.520263671875, -0.20654296875, -0.636962890625
491, 3001952155, -21.99354362487793, 7.952724933624268, 16.819250106811523, 21.769105911254883, 486.7646789550781, -199.4029998779297, 0.61767578125, -0.172607421875, -0.544921875
492, 3001968822, -23.68072509765625, 8.867631912231445, 18.875869750976562, 21.34273338317871, 421.8105163574219, -179.7929229736328, 0.69189453125, -0.144287109375, -0.449462890625
493, 3001985489, -15.750219345092773, 10.491005897521973, 20.02721405029297, 8.928650856018066, 339.91162109375, -170.1620635986328, 0.74560546875, -0.112060546875, -0.365478515625
494, 3002002156, 1.8548424243927002, 11.304854393005371, 19.12086296081543, -51.222660064697266, 279.1676330566406, -206.27548217773438, 0.77685546875, -0.071044921875, -0.286376953125
495, 3002018823, -19.93567657470703, 17.235326766967773, 31.739046096801758, -80.96683502197266, 143.1615447998047, -121.37720489501953, 0.793701171875, -0.03369140625, -0.229736328125
496, 3002035490, -8.207292556762695, 12.687994003295898, 27.577871322631836, -77.08016967773438, -180.99783325195312, 9.194056510925293, 0.7783203125, -0.028564453125, -0.244873046875
497, 3002052157, 6.100550651550293, 6.5083818435668945, 13.534793853759766, -72.0547866821289, -260.3184814453125, 50.26360321044922, 0.75, -0.037841796875, -0.282958984375
498, 3002068824, 5.599185943603516, 3.0236740112304688, 8.203805923461914, -59.185699462890625, -244.5461883544922, 55.32810974121094, 0.723388671875, -0.046875, -0.316650390625
499, 3002085491, 2.121027708053589, 1.4146884679794312, 7.343581676483154, -29.656343460083008, -237.6683807373047, 71.5955581665039, 0.701416015625, -0.058349609375, -0.343994140625
500, 3002102158, -1.8035516738891602, 2.1375255584716797, 7.978207111358643, -11.207756996154785, -254.34376525878906, 89.93236541748047, 0.681884765625, -0.078125, -0.376953125
501, 3002118825, -4.045937538146973, 2.9178285598754883, 8.228938102722168, -17.83308219909668, -282.7212219238281, 98.82247161865234, 0.66064453125, -0.1005859375, -0.40869140625
502, 3002135492, -5.871026039123535, 2.6302285194396973, 8.094816207885742, -28.39727783203125, -310.4117736816406, 105.07801818847656, 0.64404296875, -0.12548828125, -0.454345703125
503, 3002152159, -7.301198482513428, 2.680025339126587, 7.871094703674316, -29.236919403076172, -329.71844482421875, 114.14027404785156, 0.619873046875, -0.15576171875, -0.52197265625
504, 3002168826, -7.511464595794678, 3.0475006103515625, 7.400002479553223, -25.407604217529297, -336.4749755859375, 119.93297576904297, 0.574462890625, -0.1875, -0.6015625
505, 3002185493, -8.440752029418945, 3.2775590419769287, 7.108191967010498, -17.535619735717773, -321.8741455078125, 113.8443832397461, 0.49853515625, -0.213623046875, -0.677490234375
506, 3002202160, -12.268518447875977, 4.286357402801514, 8.123028755187988, -2.3128836154937744, -289.8893127441406, 104.37480926513672, 0.41162109375, -0.23486328125, -0.72021484375
507, 3002218827, -20.813762664794922, 4.8809051513671875, 12.041670799255371, 25.841064453125, -277.7215270996094, 106.2128677368164, 0.330810546875, -0.25341796875, -0.72607421875
508, 3002235494, -27.13665008544922, 4.6933512687683105, 12.829955101013184, 59.79046630859375, -305.4047546386719, 115.6573257446289, 0.265380859375, -0.2734375, -0.718017578125
509, 3002252161, -31.523969650268555, 4.8553056716918945, 9.038506507873535, 77.35662078857422, -330.5465393066406, 117.04500579833984, 0.215087890625, -0.3037109375, -0.7177734375
510, 3002268828, -33.43537902832031, 4.673440456390381, 2.054086208343506, 68.68092346191406, -337.0914611816406, 114.9517593383789, 0.1611328125, -0.3310546875, -0.732177734375
511, 3002285495, -31.008438110351562, 0.2917836904525757, -7.477778434753418, 67.21162414550781, -299.1576843261719, 107.05540466308594, 0.095703125, -0.3583984375, -0.75390625
512, 3002302162, -29.28232765197754, -6.8229851722717285, -13.603075981140137, 103.5264892578125, -206.4896697998047, 98.48314666748047, 0.03466796875, -0.39013671875, -0.771484375
513, 3002318829, -29.871910095214844, -13.095260620117188, -19.786388397216797, 126.19964599609375, -71.42938995361328, 65.34686279296875, -0.002685546875, -0.424560546875, -0.7646484375
514, 3002335496, -29.70360565185547, -12.034127235412598, -18.514585494995117, 38.90495681762695, 72.01747131347656, -26.35066032409668, 0.0029296875, -0.445556640625, -0.76708984375
515, 3002352163, -21.672880172729492, -9.45399284362793, -8.858357429504395, -65.8328628540039, 166.8897705078125, -139.74728393554688, 0.052978515625, -0.4375, -0.779296875
516, 3002368830, -10.696528434753418, 10.655561447143555, 19.943490982055664, -70.15969848632812, 127.39019012451172, -124.73194885253906, 0.107666015625, -0.4208984375, -0.7900390625
517, 3002385497, -0.41918039321899414, 9.240799903869629, 4.5566511154174805, -53.73234176635742, 132.6843719482422, -81.87840270996094, 0.150634765625, -0.40673828125, -0.7978515625
518, 3002402164, -11.928356170654297, -3.5141055583953857, 12.73863697052002, -57.05325698852539, 171.5458526611328, -49.15303039550781, 0.19970703125, -0.39794921875, -0.799560546875
519, 3002418831, -14.315912246704102, -6.387221336364746, 12.907022476196289, -37.444366455078125, 113.06502532958984, -78.2859878540039, 0.243408203125, -0.384765625, -0.801513671875
520, 3002435498, -16.203428268432617, 13.520648002624512, 11.527366638183594, -63.53377914428711, 58.917266845703125, -75.4400405883789, 0.274169921875, -0.368408203125, -0.804931640625
521, 3002452165, -9.033376693725586, -2.335310935974121, 10.720413208007812, -53.99604415893555, 16.67538833618164, -37.81302261352539, 0.288330078125, -0.35107421875, -0.811279296875
522, 3002468832, -5.915308952331543, 4.308229446411133, 7.723147869110107, -36.6676025390625, -10.708029747009277, -25.280447006225586, 0.291259765625, -0.340576171875, -0.815185546875
523, 3002485499, -5.949291706085205, 1.4641178846359253, 8.583562850952148, -27.3643798828125, -7.306053638458252, -19.23456573486328, 0.289306640625, -0.3330078125, -0.820068359375
524, 3002502166, -6.007577419281006, 1.481733798980713, 8.278533935546875, -16.585529327392578, -4.803810119628906, -13.061600685119629, 0.290771484375, -0.326904296875, -0.821044921875
525, 3002518833, -5.484278678894043, 1.697878360748291, 8.177199363708496, -7.7371649742126465, 1.327935814857483, -8.509799003601074, 0.292724609375, -0.325927734375, -0.822509765625
526, 3002535500, -5.4642815589904785, 1.872733473777771, 8.093859672546387, 1.0667498111724854, 6.8804497718811035, -4.13039493560791, 0.294677734375, -0.326416015625, -0.820556640625
527, 3002552167, -5.380866527557373, 2.107839822769165, 7.955867767333984, 4.9858927726745605, 10.26308536529541, -3.1289260387420654, 0.29736328125, -0.328125, -0.822998046875
528, 3002568834, -5.430579662322998, 2.2319540977478027, 7.741968631744385, 9.813430786132812, 12.046834945678711, -1.2935961484909058, 0.30078125, -0.330078125, -0.817138671875
529, 3002585501, -5.377731800079346, 2.38826322555542, 7.830636978149414, 14.729849815368652, 13.215728759765625, 1.1624915599822998, 0.302734375, -0.33447265625, -0.815673828125
530, 3002602168, -5.5376081466674805, 2.4016401767730713, 7.913790225982666, 14.7332181930542, 12.279095649719238, 0.4890046715736389, 0.307861328125, -0.340576171875, -0.815185546875
531, 3002618835, -5.56691837310791, 2.6894469261169434, 7.757624626159668, 10.460176467895508, 10.419260025024414, -2.2803003787994385, 0.310302734375, -0.340576171875, -0.813720703125
532, 3002635502, -5.734593868255615, 2.5957393646240234, 7.770877361297607, 6.992647647857666, 8.234787940979004, -4.058013916015625, 0.3134765625, -0.3466796875, -0.81201171875
533, 3002652169, -5.562244892120361, 2.6464953422546387, 7.666736602783203, 2.933454751968384, 5.06812047958374, -6.656165599822998, 0.3154296875, -0.34716796875, -0.809814453125
534, 3002668836, -5.393166542053223, 2.8464789390563965, 7.677738189697266, -0.2293362021446228, 3.445901870727539, -9.183706283569336, 0.31787109375, -0.34765625, -0.809326171875
535, 3002685503, -5.488225936889648, 2.4839251041412354, 7.8175458908081055, -0.4508988857269287, 3.096877336502075, -10.9749174118042, 0.3203125, -0.34716796875, -0.808349609375
536, 3002702170, -5.219728469848633, 2.324683904647827, 8.096094131469727, 1.4087954759597778, 5.957191467285156, -12.15090274810791, 0.322998046875, -0.34716796875, -0.80712890625
537, 3002718837, -5.287955284118652, 2.260389804840088, 8.076752662658691, 5.945710182189941, 15.221364974975586, -15.967101097106934, 0.327880859375, -0.34716796875, -0.806884765625
538, 3002735504, -5.213838577270508, 3.168630361557007, 8.267179489135742, 15.902898788452148, 24.6207275390625, -25.20271873474121, 0.333984375, -0.350830078125, -0.80419921875
539, 3002752171, -5.213447093963623, 1.8948396444320679, 8.218816757202148, 7.197999954223633, 41.94332504272461, -21.36350440979004, 0.345947265625, -0.347412109375, -0.80126953125
540, 3002768838, -4.897484302520752, 2.075169801712036, 8.77582836151123, 8.877703666687012, 67.43534088134766, -18.71198081970215, 0.35888671875, -0.349853515625, -0.79296875
541, 3002785505, -4.91290283203125, 2.281342029571533, 8.9812593460083, 16.03150177001953, 101.3569107055664, -20.932519912719727, 0.382568359375, -0.3525390625, -0.781982421875
542, 3002802172, -5.083624362945557, 2.6592555046081543, 9.09762954711914, 25.985380172729492, 143.4743194580078, -28.694509506225586, 0.4130859375, -0.356689453125, -0.765869140625
543, 3002818839, -4.822151184082031, 3.581853151321411, 9.440618515014648, 30.216703414916992, 194.11888122558594, -46.60118865966797, 0.45556640625, -0.35791015625, -0.744140625
544, 3002835506, -4.848576068878174, 4.311583518981934, 8.844371795654297, 33.59684753417969, 256.1506042480469, -75.54317474365234, 0.512939453125, -0.357421875, -0.70654296875
545, 3002852173, -5.637392520904541, 4.161690711975098, 9.41341781616211, 21.804306030273438, 331.0725402832031, -117.9867935180664, 0.581787109375, -0.34716796875, -0.656982421875
546, 3002868840, -7.177947998046875, 4.361346244812012, 11.025339126586914, 16.753582000732422, 421.4248962402344, -163.79457092285156, 0.663818359375, -0.322021484375, -0.585205078125
547, 3002885507, -10.557745933532715, 6.409134387969971, 13.754047393798828, 18.81636619567871, 498.2891845703125, -195.2881622314453, 0.752685546875, -0.28759765625, -0.48681640625
548, 3002902174, -22.19363021850586, 7.559162616729736, 16.96215057373047, 20.56330680847168, 502.16864013671875, -190.22320556640625, 0.82763671875, -0.24560546875, -0.377685546875
549, 3002918841, -24.535602569580078, 9.074666023254395, 19.41684341430664, 13.614617347717285, 429.0565490722656, -170.94091796875, 0.869384765625, -0.206298828125, -0.2802734375
550, 3002935508, -16.790414810180664, 9.880738258361816, 21.89039421081543, 7.820784568786621, 348.6182556152344, -159.25526428222656, 0.88330078125, -0.172119140625, -0.201171875
551, 3002952175, 8.167285919189453, 13.24077033996582, 18.595579147338867, -42.82084655761719, 265.7349548339844, -172.828125, 0.879150390625, -0.130126953125, -0.144287109375
552, 3002968842, -27.161781311035156, 23.350648880004883, 42.014984130859375, -74.69924926757812, 50.90349197387695, -15.978187561035156, 0.85888671875, -0.117919921875, -0.126953125
553, 3002985509, 0.4523140490055084, 14.401200294494629, 26.16656494140625, -127.08747100830078, -234.9488983154297, 82.74962615966797, 0.80810546875, -0.1298828125, -0.181396484375
554, 3003002176, 4.782121658325195, 4.32088041305542, 16.199756622314453, -126.59127044677734, -301.1689758300781, 90.2862548828125, 0.75341796875, -0.139892578125, -0.23388671875
555, 3003018843, 4.386761665344238, -0.4117736220359802, 10.225996017456055, -60.34521484375, -328.19281005859375, 94.35908508300781, 0.712646484375, -0.14697265625, -0.275634765625
556, 3003035510, 2.82708477973938, -0.14379216730594635, 7.344915390014648, 10.918240547180176, -332.1737365722656, 96.95320892333984, 0.6904296875, -0.16064453125, -0.31640625
557, 3003052177, -1.1217461824417114, 3.1626129150390625, 7.050474166870117, 22.718128204345703, -318.3511657714844, 86.70570373535156, 0.678955078125, -0.1787109375, -0.364013671875
558, 3003068844, -7.168069362640381, 4.472762107849121, 9.182741165161133, 0.39474594593048096, -332.58880615234375, 81.23193359375, 0.668212890625, -0.204833984375, -0.425537109375
559, 3003085511, -9.204573631286621, 4.522511959075928, 8.932046890258789, -4.890130043029785, -369.4822692871094, 95.23070526123047, 0.648193359375, -0.23779296875, -0.51220703125
560, 3003102178, -7.472445487976074, 4.374894142150879, 6.175861358642578, -2.2246694564819336, -364.2110595703125, 106.18768310546875, 0.602783203125, -0.287841796875, -0.616943359375
561, 3003118845, -10.187111854553223, 4.909603118896484, 6.273911476135254, -6.489016532897949, -311.10321044921875, 103.5162582397461, 0.515869140625, -0.341552734375, -0.7177734375
562, 3003135512, -16.933563232421875, 6.541986465454102, 10.037293434143066, -6.176451206207275, -280.36358642578125, 109.38246154785156, 0.388427734375, -0.382080078125, -0.7763671875
563, 3003152179, -22.586275100708008, 7.496648788452148, 12.507719039916992, 6.258400917053223, -298.0945129394531, 133.08033752441406, 0.25244140625, -0.39892578125, -0.785888671875
564, 3003168846, -25.272720336914062, 6.649222373962402, 10.50889778137207, 9.701460838317871, -314.1409606933594, 159.02659606933594, 0.13818359375, -0.4033203125, -0.774169921875
565, 3003185513, -28.065921783447266, 4.068667888641357, 7.703721046447754, 13.633340835571289, -315.08587646484375, 178.7081298828125, 0.04052734375, -0.400634765625, -0.751953125
566, 3003202180, -30.20903968811035, 2.0497822761535645, 2.6065680980682373, 10.28637981414795, -301.5339050292969, 174.24261474609375, -0.040771484375, -0.393310546875, -0.724365234375
567, 3003218847, -32.06734085083008, 0.1659981906414032, -3.973388433456421, -1.8240857124328613, -271.7860412597656, 133.52073669433594, -0.096923828125, -0.38623046875, -0.701904296875
568, 3003235514, -32.39753341674805, -5.820263385772705, -11.083904266357422, 22.226560592651367, -215.9774169921875, 85.99796295166016, -0.130126953125, -0.383544921875, -0.688720703125
569, 3003252181, -30.615480422973633, -12.852835655212402, -16.458738327026367, 100.6521987915039, -118.27102661132812, 37.765289306640625, -0.1494140625, -0.40185546875, -0.677490234375
570, 3003268848, -28.048931121826172, -9.079780578613281, -16.539554595947266, 82.80985260009766, 16.871435165405273, -43.300323486328125, -0.138916015625, -0.423828125, -0.666748046875
571, 3003285515, -29.531747817993164, -6.86537504196167, -11.184873580932617, -25.391141891479492, 128.64755249023438, -128.9947052001953, -0.0947265625, -0.42431640625, -0.66943359375
572, 3003302182, -10.805989265441895, 4.021291732788086, 14.572279930114746, -40.13594436645508, 135.23504638671875, -129.12794494628906, -0.044921875, -0.41357421875, -0.673583984375
573, 3003318849, 2.637193441390991, 12.901429176330566, 7.714833736419678, -30.434062957763672, 101.09455108642578, -82.43670654296875, -0.01025390625, -0.40576171875, -0.676513671875
574, 3003335516, -8.820234298706055, 3.8347742557525635, 9.502992630004883, -17.733667373657227, 139.58929443359375, -38.70499801635742, 0.028564453125, -0.3935546875, -0.672607421875
575, 3003352183, -16.41077995300293, -3.7958693504333496, 15.439021110534668, -29.503969192504883, 102.3579330444336, -30.637907028198242, 0.05908203125, -0.3876953125, -0.671142578125
576, 3003368850, -8.351170539855957, 0.05982863903045654, 11.726001739501953, -12.509346008300781, 64.034912109375, -52.5858039855957, 0.084228515625, -0.38037109375, -0.669921875
577, 3003385517, -5.472101211547852, 6.4318671226501465, 7.916940212249756, -4.980114459991455, 65.9447250366211, -33.70176696777344, 0.102294921875, -0.374755859375, -0.66357421875
578, 3003402184, -7.129676342010498, 1.8960014581680298, 9.164932250976562, -2.5754520893096924, 65.6205062866211, -22.475793838500977, 0.119873046875, -0.37109375, -0.660400390625
579, 3003418851, -5.66414737701416, 2.39945912361145, 8.420453071594238, 9.686211585998535, 58.14265441894531, -22.338748931884766, 0.1357421875, -0.36865234375, -0.656494140625
580, 3003435518, -9.873892784118652, 7.820757865905762, 9.693602561950684, -13.977375984191895, 47.89729309082031, -19.357389450073242, 0.15087890625, -0.3681640625, -0.65185546875
581, 3003452185, -5.703265190124512, 1.318867802619934, 8.83305549621582, -14.416903495788574, 36.90808868408203, -16.454689025878906, 0.158447265625, -0.36376953125, -0.650390625
582, 3003468852, -6.265041351318359, 2.9585299491882324, 8.152239799499512, -6.632583141326904, 25.70870590209961, -13.43643856048584, 0.169921875, -0.361328125, -0.6484375
583, 3003485519, -5.490126609802246, 2.165863275527954, 8.247714042663574, -6.739422798156738, 23.809118270874023, -12.49687671661377, 0.17236328125, -0.359130859375, -0.64892578125
584, 3003502186, -5.122402191162109, 2.5623159408569336, 7.808862686157227, -12.09773063659668, 24.018327713012695, -18.814443588256836, 0.182861328125, -0.354736328125, -0.648681640625
585, 3003518853, -5.438416481018066, 2.9443140029907227, 8.058951377868652, -21.951358795166016, 20.803512573242188, -26.3237247467041, 0.18994140625, -0.350341796875, -0.64697265625
586, 3003535520, -5.650811195373535, 3.2253291606903076, 7.962359428405762, -19.758495330810547, 12.97542667388916, -25.207504272460938, 0.196044921875, -0.34326171875, -0.6494140625
587, 3003552187, -5.538167953491211, 3.2853147983551025, 7.656379222869873, -19.283306121826172, 7.783374786376953, -24.380176544189453, 0.201416015625, -0.33984375, -0.6494140625
588, 3003568854, -5.7502665519714355, 3.377873659133911, 7.875340938568115, -28.954971313476562, -3.5189497470855713, -29.003620147705078, 0.20556640625, -0.3349609375, -0.650146484375
589, 3003585521, -6.127110004425049, 2.6485679149627686, 7.578667640686035, -33.018367767333984, -14.154905319213867, -26.574499130249023, 0.20458984375, -0.327880859375, -0.655029296875
590, 3003602188, -5.457094192504883, 2.3114776611328125, 7.902700424194336, -28.369258880615234, -12.944686889648438, -22.691457748413086, 0.20458984375, -0.3212890625, -0.65869140625
591, 3003618855, -5.572709560394287, 1.5551519393920898, 8.119382858276367, -18.904911041259766, -9.534635543823242, -18.290502548217773, 0.20556640625, -0.314453125, -0.662109375
592, 3003635522, -5.0692057609558105, 2.044290781021118, 8.134692192077637, -11.522899627685547, -3.6376101970672607, -16.653003692626953, 0.20556640625, -0.311767578125, -0.663330078125
593, 3003652189, -5.265442371368408, 1.8722727298736572, 8.212890625, -4.59307861328125, 4.7613606452941895, -16.132518768310547, 0.209228515625, -0.308837890625, -0.664794921875
594, 3003668856, -5.155601501464844, 2.274799346923828, 8.169939041137695, 0.5922499895095825, 16.627674102783203, -15.893489837646484, 0.215576171875, -0.309326171875, -0.66552734375
595, 3003685523, -4.855311870574951, 3.0608203411102295, 8.467655181884766, 5.759206771850586, 31.446474075317383, -22.539770126342773, 0.22265625, -0.309326171875, -0.658203125
596, 3003702190, -4.136831283569336, 2.504453659057617, 9.473719596862793, 7.787337779998779, 57.003204345703125, -26.751678466796875, 0.234619140625, -0.31103515625, -0.65478515625
597, 3003718857, -4.4784674644470215, 1.9763811826705933, 9.328038215637207, 18.704030990600586, 98.25080108642578, -31.632713317871094, 0.254638671875, -0.310546875, -0.647705078125
598, 3003735524, -4.880828380584717, 2.0044400691986084, 9.713048934936523, 32.12409973144531, 147.51641845703125, -38.110599517822266, 0.283203125, -0.311767578125, -0.633056640625
599, 3003752191, -4.714524745941162, 2.2304160594940186, 9.936942100524902, 40.415977478027344, 204.37002563476562, -50.59574890136719, 0.32177734375, -0.31640625, -0.614501953125
600, 3003768858, -4.660649299621582, 3.373940944671631, 10.02011489868164, 45.967681884765625, 279.0559387207031, -74.55960083007812, 0.376220703125, -0.318603515625, -0.58447265625
601, 3003785525, -4.517012596130371, 3.9925003051757812, 10.300389289855957, 32.45499801635742, 368.6133117675781, -116.07160949707031, 0.443115234375, -0.312744140625, -0.53662109375
602, 3003802192, -7.330991744995117, 5.130521297454834, 11.992228507995605, 22.559734344482422, 461.3072204589844, -170.49034118652344, 0.5263671875, -0.29443359375, -0.470703125
603, 3003818859, -11.189886093139648, 7.2482008934021, 14.507877349853516, 10.377911567687988, 505.0091247558594, -199.05859375, 0.6123046875, -0.26171875, -0.38818359375
604, 3003835526, -25.807085037231445, 9.0226469039917, 19.56519889831543, 5.308946132659912, 494.2468566894531, -185.55223083496094, 0.6875, -0.22900390625, -0.294189453125
605, 3003852193, -24.24932098388672, 10.927881240844727, 20.356870651245117, -17.274490356445312, 401.86590576171875, -173.3644256591797, 0.743408203125, -0.198486328125, -0.212158203125
606, 3003868860, -9.92664623260498, 9.954941749572754, 22.458938598632812, -60.38700866699219, 297.0710144042969, -177.8995819091797, 0.789306640625, -0.164306640625, -0.149658203125
607, 3003885527, -3.2658231258392334, 14.912103652954102, 32.64533996582031, -87.02212524414062, 168.22288513183594, -123.38423919677734, 0.821533203125, -0.130126953125, -0.110107421875
608, 3003902194, -5.2131781578063965, 11.191758155822754, 33.3885498046875, -13.009299278259277, -149.9292449951172, 11.638941764831543, 0.8369140625, -0.13330078125, -0.14501953125
609, 3003918861, 9.522123336791992, 8.551348686218262, 16.569355010986328, 6.494737148284912, -227.3471221923828, 51.94812774658203, 0.839111328125, -0.15185546875, -0.21435546875
610, 3003935528, 7.485195636749268, 5.73599910736084, 11.093180656433105, 1.5061595439910889, -216.98338317871094, 56.77621078491211, 0.83251953125, -0.17236328125, -0.292236328125
611, 3003952195, 2.125499725341797, 4.089925765991211, 10.670105934143066, 6.835779190063477, -227.467529296875, 74.61967468261719, 0.810546875, -0.1962890625, -0.373779296875
612, 3003968862, -3.6269121170043945, 4.222761154174805, 11.462201118469238, 8.612713813781738, -269.0122375488281, 101.34605407714844, 0.756103515625, -0.2255859375, -0.46142578125
613, 3003985529, -7.1507463455200195, 4.2056379318237305, 11.14454460144043, 0.4402889907360077, -327.1148376464844, 130.11126708984375, 0.6669921875, -0.25048828125, -0.539794921875
614, 3004002196, -7.689518451690674, 3.845221996307373, 9.004606246948242, -13.946762084960938, -369.2257080078125, 155.9847412109375, 0.55810546875, -0.26025390625, -0.593017578125
615, 3004018863, -5.671987533569336, 2.952948570251465, 5.397671699523926, -29.195005416870117, -361.82177734375, 165.09336853027344, 0.4638671875, -0.256103515625, -0.623779296875
616, 3004035530, -6.553404331207275, 1.8667826652526855, 4.733802795410156, -40.7520866394043, -299.231689453125, 147.83282470703125, 0.4052734375, -0.244873046875, -0.638427734375
617, 3004052197, -12.321601867675781, 1.800559639930725, 8.614311218261719, -34.034976959228516, -246.74600219726562, 123.76871490478516, 0.384765625, -0.242919921875, -0.65869140625
618, 3004068864, -20.84156608581543, 2.510701894760132, 13.339092254638672, -5.248359203338623, -262.85137939453125, 108.23771667480469, 0.37109375, -0.2646484375, -0.70068359375
619, 3004085531, -23.48493003845215, 1.0906192064285278, 10.99500560760498, 35.376747131347656, -299.87628173828125, 93.85231018066406, 0.31689453125, -0.310791015625, -0.76953125
620, 3004102198, -25.194416046142578, -0.141710102558136, 5.733691215515137, 77.03702545166016, -292.28790283203125, 71.08747863769531, 0.2138671875, -0.35595703125, -0.81494140625
621, 3004118865, -32.20561599731445, 1.1744905710220337, 3.773502826690674, 106.53691101074219, -277.0374755859375, 51.64176940917969, 0.10791015625, -0.39599609375, -0.817626953125
622, 3004135532, -34.398231506347656, 2.264098882675171, -1.4170926809310913, 98.7850112915039, -288.35931396484375, 53.48638916015625, 0.020263671875, -0.42333984375, -0.7880859375
623, 3004152199, -29.946292877197266, -1.9120323657989502, -9.567766189575195, 77.88208770751953, -255.6481170654297, 59.919864654541016, -0.0498046875, -0.440673828125, -0.7646484375
624, 3004168866, -28.319385528564453, -6.971831798553467, -13.685839653015137, 80.1670913696289, -167.77142333984375, 59.68281555175781, -0.091796875, -0.457763671875, -0.739501953125
625, 3004185533, -30.689783096313477, -7.079065799713135, -11.231388092041016, 79.40443420410156, -90.9984359741211, 51.589630126953125, -0.117919921875, -0.4755859375, -0.724853515625
626, 3004202200, -27.139869689941406, -4.788365840911865, -15.991607666015625, -25.824556350708008, 13.354053497314453, -11.08469009399414, -0.12109375, -0.478515625, -0.719970703125
627, 3004218867, -15.612360000610352, -7.854497909545898, -3.2589805126190186, -78.39988708496094, 125.6631851196289, -75.65570831298828, -0.0888671875, -0.459228515625, -0.730712890625
628, 3004235534, -2.8201797008514404, 9.611496925354004, 19.38227081298828, -65.4767074584961, 68.3609619140625, -37.473445892333984, -0.063720703125, -0.44384765625, -0.740966796875
629, 3004252201, 1.3660435676574707, -0.24899519979953766, 4.152338027954102, -61.42667770385742, 93.73104095458984, -60.96683120727539, -0.0419921875, -0.427978515625, -0.74609375
630, 3004268868, -12.198554992675781, -0.9763641953468323, 12.856815338134766, -49.891788482666016, 128.5138702392578, -37.64226531982422, -0.00830078125, -0.410888671875, -0.750732421875
631, 3004285535, -8.068556785583496, -1.134276270866394, 10.594152450561523, -40.8304443359375, 113.92615509033203, -51.05649185180664, 0.0234375, -0.3994140625, -0.751953125
632, 3004302202, -5.946666717529297, 1.1392617225646973, 8.954300880432129, -24.74138641357422, 115.75798034667969, -48.8001823425293, 0.054931640625, -0.38671875, -0.752685546875
633, 3004318869, -6.325758934020996, 0.5083975195884705, 9.329702377319336, -8.346729278564453, 120.8214340209961, -42.563968658447266, 0.088134765625, -0.380859375, -0.747802734375
634, 3004335536, -17.90524673461914, 7.391628265380859, 13.12507438659668, -46.73925018310547, 60.248497009277344, -43.88290023803711, 0.111572265625, -0.368408203125, -0.74658203125
635, 3004352203, -4.9576921463012695, 0.7246934175491333, 9.558558464050293, -16.919912338256836, 32.76860046386719, -17.44013786315918, 0.1201171875, -0.362548828125, -0.7451171875
636, 3004368870, -7.154797554016113, 3.5501186847686768, 8.415419578552246, -6.584179878234863, 20.521146774291992, -9.411328315734863, 0.127197265625, -0.361083984375, -0.744873046875
637, 3004385537, -6.094578742980957, 2.830178737640381, 8.211441040039062, -0.14099803566932678, 14.804365158081055, -5.93185567855835, 0.13330078125, -0.361083984375, -0.74462890625
638, 3004402204, -5.98372220993042, 1.9889874458312988, 8.208452224731445, 4.557277202606201, 13.363940238952637, -3.9491868019104004, 0.13720703125, -0.363037109375, -0.743896484375
639, 3004418871, -5.588677406311035, 2.297475576400757, 8.055058479309082, 6.282473564147949, 14.177863121032715, -2.9576034545898438, 0.138671875, -0.362060546875, -0.743896484375
640, 3004435538, -5.290562152862549, 2.670449733734131, 7.93538761138916, 5.892009258270264, 16.15753746032715, -4.927414417266846, 0.14208984375, -0.364990234375, -0.73876953125
641, 3004452205, -5.4334716796875, 3.1059141159057617, 7.670783996582031, -0.3941029906272888, 14.17585563659668, -10.143548011779785, 0.147705078125, -0.363037109375, -0.738037109375
642, 3004468872, -5.66104793548584, 3.1186227798461914, 7.453610420227051, -5.296199321746826, 7.855288982391357, -13.757875442504883, 0.150146484375, -0.363037109375, -0.736572265625
643, 3004485539, -5.695503234863281, 2.822474479675293, 7.502849578857422, -7.818680763244629, 1.892171859741211, -13.4002685546875, 0.1533203125, -0.362548828125, -0.73681640625
644, 3004502206, -5.591702938079834, 2.6086347103118896, 7.705010414123535, -7.632819175720215, -1.3571281433105469, -11.787651062011719, 0.151123046875, -0.363037109375, -0.736572265625
645, 3004518873, -5.6481523513793945, 2.4348866939544678, 7.8013596534729, -7.364691734313965, -2.943502426147461, -10.656257629394531, 0.1552734375, -0.357177734375, -0.739501953125
646, 3004535540, -5.460710525512695, 2.3978593349456787, 7.860833644866943, -6.196471214294434, -3.1557679176330566, -9.957530975341797, 0.1552734375, -0.359130859375, -0.740478515625
647, 3004552207, -5.3904709815979, 2.5749034881591797, 7.8117218017578125, -5.879717826843262, -0.719153642654419, -10.523250579833984, 0.1552734375, -0.357666015625, -0.740478515625
648, 3004568874, -5.52791166305542, 2.413661241531372, 7.699625492095947, -3.5309689044952393, 0.8439326286315918, -11.85588264465332, 0.15869140625, -0.355224609375, -0.7392578125
649, 3004585541, -5.096033573150635, 2.4817020893096924, 8.059219360351562, -0.11583351343870163, 4.677772045135498, -12.547772407531738, 0.1591796875, -0.354736328125, -0.73876953125
650, 3004602208, -5.08640193939209, 2.438455104827881, 8.083803176879883, 4.1449809074401855, 14.94219970703125, -15.883256912231445, 0.164306640625, -0.353759765625, -0.7373046875
651, 3004618875, -4.446234226226807, 2.900726318359375, 8.843015670776367, 12.438654899597168, 31.78902244567871, -21.97732162475586, 0.173828125, -0.356201171875, -0.73388671875
652, 3004635542, -4.66782808303833, 1.9955185651779175, 9.045018196105957, 16.196016311645508, 61.66896438598633, -20.150531768798828, 0.188232421875, -0.3564453125, -0.73046875
653, 3004652209, -4.690290451049805, 2.0657238960266113, 9.242709159851074, 28.272327423095703, 99.91993713378906, -22.52410125732422, 0.20947265625, -0.363037109375, -0.720947265625
654, 3004668876, -4.835700988769531, 2.3283281326293945, 9.238368034362793, 41.3356819152832, 145.40330505371094, -25.951772689819336, 0.239990234375, -0.36962890625, -0.705810546875
655, 3004685543, -4.900490760803223, 3.281263828277588, 9.278584480285645, 47.12238311767578, 198.2499542236328, -37.69546127319336, 0.281494140625, -0.377197265625, -0.68505859375
656, 3004702210, -4.630145072937012, 3.207941770553589, 9.101811408996582, 44.76396179199219, 259.2005615234375, -59.844635009765625, 0.332763671875, -0.38037109375, -0.651123046875
