sep=,
DeviceTag:,A,,,,,,,,,,,,,,,,,
FirmwareVersion:,2.2.1,,,,,,,,,,,,,,,,,
AppVersion:,2022.0.1,,,,,,,,,,,,,,,,,
SyncStatus:,Synced,,,,,,,,,,,,,,,,,
OutputRate:,60Hz,,,,,,,,,,,,,,,,,
FilterProfile:,General,,,,,,,,,,,,,,,,,
Measurement Mode:,Inertial Mode - Rate quantities (with mag),,,,,,,,,,,,,,,,,
StartTime:,2022-08-05 16:43:29.458 +0300,,,,,,,,,,,,,,,,,
© Xsens Technologies B. V. 2005-2022,,,,,,,,,,,,,,,,,,,

PacketCounter,SampleTimeFine,Acc_X,Acc_Y,Acc_Z,Gyr_X,Gyr_Y,Gyr_Z,Mag_X,Mag_Y,Mag_Z
1, 3256490579, -5.3371262550354, 2.077025890350342, 7.983436584472656, -2.7210934162139893, -1.2614256143569946, -2.6470983028411865, 0.058349609375, -0.206787109375, -0.80224609375
2, 3256507246, -5.326412200927734, 2.0630953311920166, 7.990976810455322, -2.6823925971984863, -1.3368678092956543, -2.5614240169525146, 0.058349609375, -0.206787109375, -0.80224609375
3, 3256523913, -5.328075885772705, 2.07247257232666, 8.003777503967285, -2.740020990371704, -1.3866714239120483, -2.685619354248047, 0.058837890625, -0.207275390625, -0.802734375
4, 3256540580, -5.315499782562256, 2.073408603668213, 7.9791412353515625, -2.788992166519165, -1.4426480531692505, -2.6364173889160156, 0.059814453125, -0.206298828125, -0.7998046875
5, 3256557247, -5.320202827453613, 2.0773274898529053, 8.015204429626465, -2.777672290802002, -1.3670653104782104, -2.5079574584960938, 0.058837890625, -0.206787109375, -0.80029296875
6, 3256573914, -5.3179030418396, 2.0753605365753174, 7.999862194061279, -2.7538137435913086, -1.3247146606445312, -2.5557124614715576, 0.059326171875, -0.206298828125, -0.806396484375
7, 3256590581, -5.324919700622559, 2.0650038719177246, 7.997979640960693, -2.741366147994995, -1.3042117357254028, -2.581632375717163, 0.060302734375, -0.207275390625, -0.802734375
8, 3256607248, -5.32608699798584, 2.0734920501708984, 7.991933822631836, -2.726882219314575, -1.3891689777374268, -2.659213066101074, 0.056884765625, -0.207275390625, -0.80029296875
9, 3256623915, -5.32200813293457, 2.0712554454803467, 8.010210990905762, -2.719403028488159, -1.3793977499008179, -2.573141574859619, 0.058837890625, -0.205810546875, -0.8017578125
10, 3256640582, -5.32391881942749, 2.073197603225708, 7.992759704589844, -2.7991225719451904, -1.3911027908325195, -2.5958092212677, 0.058349609375, -0.204833984375, -0.80126953125
11, 3256657249, -5.319976806640625, 2.0781056880950928, 7.983700752258301, -2.7953059673309326, -1.4244118928909302, -2.6366353034973145, 0.057373046875, -0.207763671875, -0.80126953125
12, 3256673916, -5.3270673751831055, 2.059480905532837, 8.009765625, -2.7361412048339844, -1.3884774446487427, -2.573615550994873, 0.057373046875, -0.205322265625, -0.802001953125
13, 3256690583, -5.331766605377197, 2.076312780380249, 7.9941582679748535, -2.7087738513946533, -1.4276008605957031, -2.6160943508148193, 0.057861328125, -0.206298828125, -0.80029296875
14, 3256707250, -5.319396495819092, 2.060534715652466, 8.004891395568848, -2.845160722732544, -1.4744335412979126, -2.5306241512298584, 0.056884765625, -0.206787109375, -0.80126953125
15, 3256723917, -5.307847499847412, 2.0677785873413086, 8.003987312316895, -2.8307929039001465, -1.547135353088379, -2.487826108932495, 0.059326171875, -0.207763671875, -0.8037109375
16, 3256740584, -5.308793067932129, 2.0613322257995605, 7.991039276123047, -2.861284017562866, -1.457554578781128, -2.5724751949310303, 0.060302734375, -0.205810546875, -0.80078125
17, 3256757251, -5.317080497741699, 2.0602071285247803, 8.022278785705566, -2.8187670707702637, -1.5201393365859985, -2.5760483741760254, 0.058837890625, -0.205810546875, -0.80029296875
18, 3256773918, -5.328817844390869, 2.0743513107299805, 8.022088050842285, -2.7433767318725586, -1.4270246028900146, -2.5993692874908447, 0.056884765625, -0.206787109375, -0.80078125
19, 3256790585, -5.32008171081543, 2.0600204467773438, 8.000160217285156, -2.69815731048584, -1.3072723150253296, -2.514514207839966, 0.059814453125, -0.206298828125, -0.80224609375
20, 3256807252, -5.337212085723877, 2.051192045211792, 8.022059440612793, -2.770103693008423, -1.331373929977417, -2.579686164855957, 0.059326171875, -0.207763671875, -0.80322265625
21, 3256823919, -5.328243732452393, 2.0746259689331055, 8.001696586608887, -2.7145237922668457, -1.4264867305755615, -2.524503469467163, 0.058349609375, -0.205810546875, -0.80126953125
22, 3256840586, -5.309452056884766, 2.053190231323242, 8.01451587677002, -2.7828330993652344, -1.4317373037338257, -2.5111076831817627, 0.058349609375, -0.204345703125, -0.802978515625
23, 3256857253, -5.306162357330322, 2.0620462894439697, 7.998427867889404, -2.7561447620391846, -1.3693320751190186, -2.533186197280884, 0.059814453125, -0.207763671875, -0.80029296875
24, 3256873920, -5.315767288208008, 2.067425489425659, 8.00156021118164, -2.666961193084717, -1.3631465435028076, -2.5691208839416504, 0.056396484375, -0.205322265625, -0.80029296875
25, 3256890587, -5.323923110961914, 2.0592079162597656, 8.0001802444458, -2.6888856887817383, -1.3371752500534058, -2.5758056640625, 0.060791015625, -0.208251953125, -0.80419921875
26, 3256907254, -5.298778533935547, 2.0580501556396484, 7.9820709228515625, -2.743812084197998, -1.3139957189559937, -2.636085271835327, 0.058837890625, -0.206787109375, -0.80322265625
27, 3256923921, -5.32699728012085, 2.0686333179473877, 8.009163856506348, -2.721362590789795, -1.3060429096221924, -2.6502490043640137, 0.059814453125, -0.206787109375, -0.80322265625
28, 3256940588, -5.34254789352417, 2.0460803508758545, 7.988126754760742, -2.7841386795043945, -1.2957464456558228, -2.691023588180542, 0.061279296875, -0.204833984375, -0.8017578125
29, 3256957255, -5.331453800201416, 2.0661702156066895, 8.006888389587402, -2.796804904937744, -1.4525091648101807, -2.5793402194976807, 0.058837890625, -0.206298828125, -0.8017578125
30, 3256973922, -5.317571640014648, 2.049510955810547, 7.985422611236572, -2.6731979846954346, -1.4849990606307983, -2.5363876819610596, 0.058837890625, -0.204345703125, -0.80224609375
31, 3256990589, -5.321564674377441, 2.0738706588745117, 8.00284194946289, -2.6485328674316406, -1.415895938873291, -2.555699586868286, 0.060791015625, -0.205322265625, -0.80224609375
32, 3257007256, -5.324650287628174, 2.0547797679901123, 7.996286869049072, -2.648686408996582, -1.4685428142547607, -2.60351824760437, 0.056396484375, -0.206787109375, -0.803955078125
33, 3257023923, -5.32705020904541, 2.0676321983337402, 7.99299430847168, -2.5849106311798096, -1.5284380912780762, -2.5581839084625244, 0.058349609375, -0.205322265625, -0.803466796875
34, 3257040590, -5.324581623077393, 2.0594682693481445, 8.001030921936035, -2.6684083938598633, -1.301163673400879, -2.571784257888794, 0.057861328125, -0.205322265625, -0.8017578125
35, 3257057257, -5.314781665802002, 2.0580129623413086, 7.997282981872559, -2.6960315704345703, -1.3258543014526367, -2.5722451210021973, 0.058837890625, -0.205810546875, -0.80126953125
36, 3257073924, -5.323982238769531, 2.064286708831787, 7.996722221374512, -2.6361231803894043, -1.3378026485443115, -2.5265393257141113, 0.058837890625, -0.205810546875, -0.79931640625
37, 3257090591, -5.330301284790039, 2.0515074729919434, 8.013769149780273, -2.6094863414764404, -1.419724941253662, -2.5944769382476807, 0.059326171875, -0.205810546875, -0.80078125
38, 3257107258, -5.329502582550049, 2.0565900802612305, 7.998041152954102, -2.6607885360717773, -1.3845587968826294, -2.544417381286621, 0.057373046875, -0.204833984375, -0.802490234375
39, 3257123925, -5.313840389251709, 2.062244415283203, 8.015809059143066, -2.6678192615509033, -1.383470058441162, -2.5706698894500732, 0.061279296875, -0.202392578125, -0.80322265625
40, 3257140592, -5.333191394805908, 2.056475877761841, 7.977611541748047, -2.6485841274261475, -1.3740447759628296, -2.571835517883301, 0.058837890625, -0.206787109375, -0.80078125
41, 3257157259, -5.3287353515625, 2.0423531532287598, 7.983622074127197, -2.7160096168518066, -1.4030510187149048, -2.4212329387664795, 0.060302734375, -0.204833984375, -0.80029296875
42, 3257173926, -5.316262245178223, 2.049773931503296, 8.0068941116333, -2.742684841156006, -1.4979461431503296, -2.454349994659424, 0.057861328125, -0.206787109375, -0.80126953125
43, 3257190593, -5.311358451843262, 2.0623512268066406, 7.992249965667725, -2.735347032546997, -1.457260251045227, -2.510326623916626, 0.059814453125, -0.205322265625, -0.80126953125
44, 3257207260, -5.329538345336914, 2.0534162521362305, 8.024139404296875, -2.720747947692871, -1.500123381614685, -2.577329397201538, 0.057373046875, -0.206298828125, -0.80224609375
45, 3257223927, -5.321558475494385, 2.063847541809082, 8.013672828674316, -2.627453327178955, -1.5144919157028198, -2.554342269897461, 0.059326171875, -0.205810546875, -0.802734375
46, 3257240594, -5.32179594039917, 2.0565974712371826, 8.000870704650879, -2.702293872833252, -1.445555329322815, -2.5125038623809814, 0.060791015625, -0.208251953125, -0.802734375
47, 3257257261, -5.328615665435791, 2.0522899627685547, 8.011067390441895, -2.6415791511535645, -1.399004340171814, -2.485495090484619, 0.059326171875, -0.205322265625, -0.8017578125
48, 3257273928, -5.322934627532959, 2.061033248901367, 8.009060859680176, -2.6543471813201904, -1.3950855731964111, -2.4973795413970947, 0.056884765625, -0.204833984375, -0.80029296875
49, 3257290595, -5.321103572845459, 2.049818754196167, 8.02415657043457, -2.545620918273926, -1.3769259452819824, -2.4363954067230225, 0.057373046875, -0.205810546875, -0.8017578125
50, 3257307262, -5.315040588378906, 2.0494673252105713, 8.010761260986328, -2.6181178092956543, -1.3727896213531494, -2.4596645832061768, 0.058837890625, -0.207275390625, -0.803955078125
51, 3257323929, -5.305233955383301, 2.0596697330474854, 8.01262378692627, -2.524618625640869, -1.3953288793563843, -2.5195345878601074, 0.058349609375, -0.206298828125, -0.80224609375
52, 3257340596, -5.317189693450928, 2.0614476203918457, 8.010823249816895, -2.5860891342163086, -1.3576526641845703, -2.4803340435028076, 0.058837890625, -0.206298828125, -0.80224609375
53, 3257357263, -5.323538780212402, 2.0597329139709473, 8.001392364501953, -2.637660026550293, -1.3746337890625, -2.4926795959472656, 0.059326171875, -0.203857421875, -0.802734375
54, 3257373930, -5.313700199127197, 2.07157301902771, 8.020615577697754, -2.587510585784912, -1.3560134172439575, -2.610536575317383, 0.055908203125, -0.205322265625, -0.80029296875
55, 3257390597, -5.322620391845703, 2.039985418319702, 8.005901336669922, -2.6511967182159424, -1.332065463066101, -2.5983831882476807, 0.059326171875, -0.204833984375, -0.803466796875
56, 3257407264, -5.336630344390869, 2.0365495681762695, 7.993078708648682, -2.6599557399749756, -1.3991066217422485, -2.490924835205078, 0.058349609375, -0.205810546875, -0.802734375
57, 3257423931, -5.326370716094971, 2.054237127304077, 7.999647617340088, -2.648430109024048, -1.4229648113250732, -2.499863862991333, 0.057373046875, -0.205810546875, -0.80078125
58, 3257440598, -5.321344375610352, 2.0554113388061523, 7.996480941772461, -2.7380619049072266, -1.3654643297195435, -2.4958040714263916, 0.058349609375, -0.204833984375, -0.80078125
59, 3257457265, -5.317908763885498, 2.059269666671753, 8.022370338439941, -2.6211655139923096, -1.4520351886749268, -2.5015411376953125, 0.059326171875, -0.205810546875, -0.7998046875
60, 3257473932, -5.31441593170166, 2.054990291595459, 8.000127792358398, -2.6700732707977295, -1.4264739751815796, -2.5693511962890625, 0.057861328125, -0.205810546875, -0.80126953125
61, 3257490599, -5.326923370361328, 2.0566446781158447, 8.006401062011719, -2.7010645866394043, -1.3100897073745728, -2.5119402408599854, 0.055419921875, -0.204833984375, -0.800537109375
62, 3257507266, -5.319231986999512, 2.044314384460449, 8.002766609191895, -2.6670761108398438, -1.4236947298049927, -2.502796173095703, 0.058349609375, -0.204833984375, -0.802490234375
63, 3257523933, -5.323629379272461, 2.046027660369873, 7.993542671203613, -2.7903501987457275, -1.418341875076294, -2.5566983222961426, 0.057373046875, -0.203857421875, -0.802490234375
64, 3257540600, -5.319361686706543, 2.051476240158081, 8.013745307922363, -2.7371654510498047, -1.4584001302719116, -2.5436103343963623, 0.060302734375, -0.205810546875, -0.802734375
65, 3257557267, -5.320553302764893, 2.0491881370544434, 8.006796836853027, -2.7115018367767334, -1.6122044324874878, -2.452518939971924, 0.058349609375, -0.205810546875, -0.8017578125
66, 3257573934, -5.301222801208496, 2.051851987838745, 8.003957748413086, -2.766786813735962, -1.3698827028274536, -2.535388946533203, 0.058837890625, -0.205810546875, -0.80224609375
67, 3257590601, -5.310910224914551, 2.050405263900757, 8.018241882324219, -2.6815733909606934, -1.469477653503418, -2.5307528972625732, 0.056884765625, -0.204833984375, -0.801513671875
68, 3257607268, -5.318496227264404, 2.048978328704834, 7.97917366027832, -2.68359637260437, -1.3404663801193237, -2.5308678150177, 0.058349609375, -0.203857421875, -0.802490234375
69, 3257623935, -5.322986602783203, 2.0490245819091797, 8.003344535827637, -2.6774752140045166, -1.4017703533172607, -2.5414459705352783, 0.058837890625, -0.205810546875, -0.80322265625
70, 3257640602, -5.333256244659424, 2.043682813644409, 8.003182411193848, -2.7865850925445557, -1.5239558219909668, -2.4585764408111572, 0.059326171875, -0.204833984375, -0.802734375
71, 3257657269, -5.3156561851501465, 2.05989408493042, 8.007261276245117, -2.7995834350585938, -1.4842687845230103, -2.5855891704559326, 0.058349609375, -0.204833984375, -0.80126953125
72, 3257673936, -5.317420482635498, 2.06478214263916, 8.033041954040527, -2.751572370529175, -1.5056041479110718, -2.6156327724456787, 0.057373046875, -0.206298828125, -0.7998046875
73, 3257690603, -5.331700325012207, 2.048283576965332, 8.01614761352539, -2.7405593395233154, -1.4071874618530273, -2.5095198154449463, 0.060302734375, -0.205322265625, -0.802734375
74, 3257707270, -5.3420939445495605, 2.0315518379211426, 8.017760276794434, -2.7300965785980225, -1.4365012645721436, -2.591301202774048, 0.056884765625, -0.205810546875, -0.804443359375
75, 3257723937, -5.317494869232178, 2.039545774459839, 8.00971508026123, -2.6659491062164307, -1.4948339462280273, -2.4791173934936523, 0.054931640625, -0.205810546875, -0.802490234375
76, 3257740604, -5.315488338470459, 2.046823024749756, 8.032100677490234, -2.6804463863372803, -1.4911972284317017, -2.4914631843566895, 0.058837890625, -0.204345703125, -0.8017578125
77, 3257757271, -5.325279235839844, 2.0511863231658936, 7.989410400390625, -2.602250576019287, -1.417061448097229, -2.534172296524048, 0.057861328125, -0.204833984375, -0.8017578125
78, 3257773938, -5.330230236053467, 2.048785924911499, 8.000343322753906, -2.6855430603027344, -1.4521377086639404, -2.5397558212280273, 0.058837890625, -0.204345703125, -0.7998046875
79, 3257790605, -5.3120646476745605, 2.0480027198791504, 8.001060485839844, -2.6263649463653564, -1.353849172592163, -2.4315929412841797, 0.058837890625, -0.204345703125, -0.8017578125
80, 3257807272, -5.314352989196777, 2.042963981628418, 7.999281883239746, -2.645702600479126, -1.434772253036499, -2.466054916381836, 0.059326171875, -0.204833984375, -0.802734375
81, 3257823939, -5.313318252563477, 2.054352045059204, 8.001175880432129, -2.688001871109009, -1.4291632175445557, -2.503526449203491, 0.056884765625, -0.204833984375, -0.802001953125
82, 3257840606, -5.323910713195801, 2.066704034805298, 8.011999130249023, -2.6422066688537598, -1.3144184350967407, -2.547286033630371, 0.058837890625, -0.205810546875, -0.802734375
83, 3257857273, -5.328840255737305, 2.0521230697631836, 8.00631332397461, -2.5765740871429443, -1.4340169429779053, -2.4817047119140625, 0.060302734375, -0.205322265625, -0.80126953125
84, 3257873940, -5.326541900634766, 2.0431838035583496, 8.008622169494629, -2.6621716022491455, -1.3779634237289429, -2.466669797897339, 0.058837890625, -0.204833984375, -0.803466796875
85, 3257890607, -5.32874870300293, 2.052879810333252, 8.011570930480957, -2.6616594791412354, -1.4208135604858398, -2.542022466659546, 0.059326171875, -0.204833984375, -0.803955078125
86, 3257907274, -5.315310001373291, 2.0547022819519043, 8.013885498046875, -2.6729671955108643, -1.3902446031570435, -2.5036797523498535, 0.059326171875, -0.205322265625, -0.80322265625
87, 3257923941, -5.330491542816162, 2.0537354946136475, 8.001715660095215, -2.714728832244873, -1.4432247877120972, -2.5813632011413574, 0.059326171875, -0.204345703125, -0.804931640625
88, 3257940608, -5.3092265129089355, 2.0464420318603516, 8.013045310974121, -2.649890422821045, -1.4852550029754639, -2.55049991607666, 0.058837890625, -0.204345703125, -0.802734375
89, 3257957275, -5.317509174346924, 2.0333354473114014, 8.019380569458008, -2.664015531539917, -1.4776607751846313, -2.5062925815582275, 0.061279296875, -0.205322265625, -0.80126953125
90, 3257973942, -5.316206932067871, 2.045783281326294, 8.012514114379883, -2.629976511001587, -1.419148564338684, -2.4938063621520996, 0.058349609375, -0.205810546875, -0.7998046875
91, 3257990609, -5.305645942687988, 2.0536437034606934, 8.000081062316895, -2.619347095489502, -1.399285912513733, -2.4642109870910645, 0.058837890625, -0.204833984375, -0.80224609375
92, 3258007276, -5.322575092315674, 2.045063018798828, 8.014698028564453, -2.577547311782837, -1.3068625926971436, -2.484342575073242, 0.057373046875, -0.206787109375, -0.804931640625
93, 3258023943, -5.339133262634277, 2.0388596057891846, 8.01607608795166, -2.626160144805908, -1.3630056381225586, -2.506215810775757, 0.058349609375, -0.203857421875, -0.804443359375
94, 3258040610, -5.327796936035156, 2.0501692295074463, 7.989741325378418, -2.5477471351623535, -1.4175221920013428, -2.5232226848602295, 0.058349609375, -0.206298828125, -0.80224609375
95, 3258057277, -5.308408737182617, 2.038475513458252, 8.024751663208008, -2.646074056625366, -1.3018169403076172, -2.4898619651794434, 0.059326171875, -0.204833984375, -0.80029296875
96, 3258073944, -5.329118728637695, 2.044589042663574, 7.992032527923584, -2.6268768310546875, -1.3292478322982788, -2.510390281677246, 0.059814453125, -0.204345703125, -0.798828125
97, 3258090611, -5.327454566955566, 2.035085916519165, 8.006872177124023, -2.6110360622406006, -1.3903088569641113, -2.4743025302886963, 0.058837890625, -0.202392578125, -0.802490234375
98, 3258107278, -5.3240065574646, 2.043113946914673, 8.000731468200684, -2.605900526046753, -1.4243736267089844, -2.4561941623687744, 0.059326171875, -0.202392578125, -0.803466796875
99, 3258123945, -5.338968753814697, 2.0419483184814453, 8.026727676391602, -2.5948355197906494, -1.3928442001342773, -2.521916151046753, 0.059326171875, -0.202880859375, -0.802978515625
100, 3258140612, -5.324981212615967, 2.0268702507019043, 8.026790618896484, -2.6278374195098877, -1.415998101234436, -2.4342310428619385, 0.056884765625, -0.206298828125, -0.80029296875
101, 3258157279, -5.31205940246582, 2.046175479888916, 8.009604454040527, -2.6863627433776855, -1.491517424583435, -2.50042724609375, 0.059326171875, -0.204833984375, -0.7998046875
102, 3258173946, -5.3127827644348145, 2.048997402191162, 7.998635292053223, -2.714895486831665, -1.4540332555770874, -2.497072219848633, 0.058837890625, -0.203857421875, -0.80078125
103, 3258190613, -5.330060958862305, 2.0438098907470703, 8.0046968460083, -2.647700548171997, -1.5461748838424683, -2.534902334213257, 0.058349609375, -0.204833984375, -0.802978515625
104, 3258207280, -5.337564468383789, 2.0420467853546143, 8.015557289123535, -2.6571896076202393, -1.6231154203414917, -2.4179160594940186, 0.056884765625, -0.204833984375, -0.802001953125
105, 3258223947, -5.326961517333984, 2.0450022220611572, 8.002894401550293, -2.661505699157715, -1.5974644422531128, -2.5171396732330322, 0.058349609375, -0.203857421875, -0.804443359375
106, 3258240614, -5.313953399658203, 2.0621440410614014, 8.022887229919434, -2.637967109680176, -1.430904746055603, -2.4342949390411377, 0.057861328125, -0.205322265625, -0.80224609375
107, 3258257281, -5.318765163421631, 2.053398609161377, 8.02220344543457, -2.5566344261169434, -1.4355920553207397, -2.5550849437713623, 0.056396484375, -0.203857421875, -0.801025390625
108, 3258273948, -5.326076030731201, 2.0378198623657227, 8.010174751281738, -2.624814987182617, -1.3560644388198853, -2.447216749191284, 0.058349609375, -0.202880859375, -0.80029296875
109, 3258290615, -5.327417373657227, 2.0370914936065674, 8.006037712097168, -2.511428117752075, -1.4856009483337402, -2.4592807292938232, 0.057373046875, -0.204833984375, -0.8017578125
110, 3258307282, -5.320347309112549, 2.0382535457611084, 8.0184907913208, -2.624098300933838, -1.56184983253479, -2.487057685852051, 0.058837890625, -0.205322265625, -0.802734375
111, 3258323949, -5.312936782836914, 2.0472426414489746, 8.01175594329834, -2.642155647277832, -1.6723687648773193, -2.4224367141723633, 0.059814453125, -0.203857421875, -0.802734375
112, 3258340616, -5.310472011566162, 2.0367376804351807, 7.996750354766846, -2.6790759563446045, -1.6381500959396362, -2.494715690612793, 0.057861328125, -0.203857421875, -0.802978515625
113, 3258357283, -5.303833961486816, 2.0413658618927, 8.010954856872559, -2.7008724212646484, -1.536634087562561, -2.5011701583862305, 0.060791015625, -0.204833984375, -0.7998046875
114, 3258373950, -5.323806285858154, 2.0387463569641113, 8.016133308410645, -2.6188862323760986, -1.5061293840408325, -2.441582202911377, 0.056396484375, -0.203857421875, -0.801025390625
115, 3258390617, -5.307155132293701, 2.040797710418701, 7.991508960723877, -2.6128668785095215, -1.4893913269042969, -2.4743149280548096, 0.059326171875, -0.204345703125, -0.802734375
116, 3258407284, -5.312357425689697, 2.032736301422119, 8.032429695129395, -2.7023706436157227, -1.511456847190857, -2.4816150665283203, 0.056396484375, -0.204833984375, -0.802978515625
117, 3258423951, -5.303868770599365, 2.0433390140533447, 8.027448654174805, -2.7457330226898193, -1.4034608602523804, -2.4365875720977783, 0.058349609375, -0.204833984375, -0.803466796875
118, 3258440618, -5.31726598739624, 2.0347704887390137, 8.00914192199707, -2.6411564350128174, -1.312599778175354, -2.483100414276123, 0.059326171875, -0.203369140625, -0.80029296875
119, 3258457285, -5.319079399108887, 2.0362236499786377, 8.03382396697998, -2.63608455657959, -1.3453326225280762, -2.474238157272339, 0.056884765625, -0.204833984375, -0.79931640625
120, 3258473952, -5.325174331665039, 2.0330488681793213, 8.005331039428711, -2.645113468170166, -1.3952522277832031, -2.4902334213256836, 0.056884765625, -0.203369140625, -0.801513671875
121, 3258490619, -5.305987358093262, 2.0359044075012207, 8.012125015258789, -2.6486480236053467, -1.3795002698898315, -2.4853670597076416, 0.054931640625, -0.203369140625, -0.802001953125
122, 3258507286, -5.306596279144287, 2.0350501537323, 8.017192840576172, -2.568301200866699, -1.3417599201202393, -2.524298667907715, 0.056884765625, -0.204833984375, -0.803466796875
123, 3258523953, -5.310003757476807, 2.028641939163208, 7.993469715118408, -2.566303014755249, -1.3721108436584473, -2.4580764770507812, 0.057861328125, -0.202392578125, -0.803466796875
124, 3258540620, -5.311420440673828, 2.0483663082122803, 8.03721809387207, -2.5272819995880127, -1.3218971490859985, -2.432924747467041, 0.056396484375, -0.204345703125, -0.802001953125
125, 3258557287, -5.319141864776611, 2.0327367782592773, 8.018763542175293, -2.5475292205810547, -1.3896812200546265, -2.5318541526794434, 0.057861328125, -0.205322265625, -0.80126953125
126, 3258573954, -5.310820579528809, 2.031041383743286, 8.028555870056152, -2.599715232849121, -1.4401381015777588, -2.47800350189209, 0.057861328125, -0.206787109375, -0.80224609375
127, 3258590621, -5.32319974899292, 2.0365803241729736, 7.986150741577148, -2.6510939598083496, -1.4151402711868286, -2.4697303771972656, 0.057861328125, -0.203857421875, -0.80126953125
128, 3258607288, -5.301790714263916, 2.0452585220336914, 7.987655162811279, -2.596795082092285, -1.410568356513977, -2.5709774494171143, 0.057861328125, -0.205322265625, -0.805419921875
129, 3258623955, -5.321968078613281, 2.037346124649048, 8.015231132507324, -2.61852765083313, -1.378078579902649, -2.550218343734741, 0.057861328125, -0.205810546875, -0.8017578125
130, 3258640622, -5.3112921714782715, 2.0290486812591553, 8.030117988586426, -2.63859486579895, -1.351146936416626, -2.5691208839416504, 0.057861328125, -0.205322265625, -0.803466796875
131, 3258657289, -5.314291000366211, 2.0438504219055176, 8.018620491027832, -2.559938430786133, -1.3130481243133545, -2.5156540870666504, 0.057373046875, -0.203369140625, -0.80078125
132, 3258673956, -5.3151655197143555, 2.0335004329681396, 8.023924827575684, -2.590660572052002, -1.192219853401184, -2.5559937953948975, 0.058349609375, -0.204345703125, -0.80224609375
133, 3258690623, -5.317834854125977, 2.054091215133667, 8.002535820007324, -2.558900833129883, -1.2135168313980103, -2.468398094177246, 0.058349609375, -0.205322265625, -0.803466796875
134, 3258707290, -5.320135116577148, 2.0428428649902344, 8.030389785766602, -2.5421762466430664, -1.320475697517395, -2.5151419639587402, 0.058837890625, -0.204833984375, -0.803466796875
135, 3258723957, -5.330101013183594, 2.042384147644043, 8.012065887451172, -2.5514605045318604, -1.3076180219650269, -2.4699606895446777, 0.057373046875, -0.203857421875, -0.804443359375
136, 3258740624, -5.290086269378662, 2.0440597534179688, 7.985011577606201, -2.5570313930511475, -1.3440905809402466, -2.498237371444702, 0.058349609375, -0.204345703125, -0.802490234375
137, 3258757291, -5.313640594482422, 2.033385992050171, 8.024141311645508, -2.481691598892212, -1.2876657247543335, -2.478720188140869, 0.058349609375, -0.203857421875, -0.80126953125
138, 3258773958, -5.3228254318237305, 2.0300893783569336, 8.017728805541992, -2.5704779624938965, -1.3093852996826172, -2.578225612640381, 0.056884765625, -0.204345703125, -0.80078125
139, 3258790625, -5.320094585418701, 2.0221338272094727, 8.02415943145752, -2.516319751739502, -1.309167504310608, -2.4494831562042236, 0.056884765625, -0.204345703125, -0.802001953125
140, 3258807292, -5.319856643676758, 2.050811529159546, 8.018497467041016, -2.6263651847839355, -1.3619171380996704, -2.4776577949523926, 0.058349609375, -0.202880859375, -0.802001953125
141, 3258823959, -5.300180912017822, 2.0432238578796387, 7.997445583343506, -2.64264178276062, -1.3393394947052002, -2.6592133045196533, 0.055908203125, -0.203857421875, -0.802001953125
142, 3258840626, -5.309372425079346, 2.0305209159851074, 8.01163101196289, -2.5678398609161377, -1.2884341478347778, -2.5570056438446045, 0.058349609375, -0.205810546875, -0.80224609375
143, 3258857293, -5.321854591369629, 2.030733346939087, 8.014930725097656, -2.5339925289154053, -1.2492337226867676, -2.5219030380249023, 0.057861328125, -0.205810546875, -0.79833984375
144, 3258873960, -5.32921028137207, 2.033881664276123, 8.017327308654785, -2.5216217041015625, -1.2067935466766357, -2.5376169681549072, 0.060302734375, -0.202880859375, -0.7998046875
145, 3258890627, -5.335099220275879, 2.0425846576690674, 8.023143768310547, -2.472919225692749, -1.2902781963348389, -2.50850772857666, 0.058349609375, -0.202392578125, -0.802001953125
146, 3258907294, -5.335749626159668, 2.0339114665985107, 7.991440296173096, -2.4880433082580566, -1.354694128036499, -2.49396014213562, 0.058837890625, -0.204833984375, -0.80078125
147, 3258923961, -5.31196403503418, 2.0378949642181396, 8.010704040527344, -2.5162816047668457, -1.4021034240722656, -2.504167079925537, 0.059326171875, -0.202392578125, -0.803466796875
148, 3258940628, -5.31989049911499, 2.0464274883270264, 8.005966186523438, -2.5315980911254883, -1.311037540435791, -2.557710647583008, 0.057861328125, -0.204833984375, -0.80078125
149, 3258957295, -5.319443225860596, 2.0352861881256104, 8.004618644714355, -2.5140914916992188, -1.3639147281646729, -2.6102802753448486, 0.056396484375, -0.202880859375, -0.801513671875
150, 3258973962, -5.322087287902832, 2.0380282402038574, 8.007736206054688, -2.6256093978881836, -1.3032256364822388, -2.485687255859375, 0.059814453125, -0.205322265625, -0.80078125
151, 3258990629, -5.329217910766602, 2.030487060546875, 8.00281047821045, -2.5505764484405518, -1.28579580783844, -2.5003116130828857, 0.057373046875, -0.202880859375, -0.803466796875
152, 3259007296, -5.310031890869141, 2.027926445007324, 8.012703895568848, -2.522786855697632, -1.2792904376983643, -2.5190858840942383, 0.057861328125, -0.202880859375, -0.802490234375
153, 3259023963, -5.314446449279785, 2.047717571258545, 8.016905784606934, -2.5010547637939453, -1.26116943359375, -2.5065228939056396, 0.058349609375, -0.206787109375, -0.803466796875
154, 3259040630, -5.3210954666137695, 2.0378479957580566, 8.006397247314453, -2.498262643814087, -1.1569385528564453, -2.5310215950012207, 0.058837890625, -0.203369140625, -0.79931640625
155, 3259057297, -5.338756561279297, 2.05024790763855, 8.011032104492188, -2.4800140857696533, -1.202452301979065, -2.5169217586517334, 0.056884765625, -0.203369140625, -0.802001953125
156, 3259073964, -5.331868648529053, 2.0483155250549316, 8.018351554870605, -2.395940065383911, -1.2796233892440796, -2.4636857509613037, 0.056884765625, -0.203857421875, -0.80078125
157, 3259090631, -5.32384729385376, 2.036180257797241, 8.003092765808105, -2.461841583251953, -1.3141237497329712, -2.454106330871582, 0.059814453125, -0.205322265625, -0.7998046875
158, 3259107298, -5.312102794647217, 2.042587995529175, 8.018264770507812, -2.225397825241089, -1.442327857017517, -2.4180307388305664, 0.056884765625, -0.202880859375, -0.802001953125
159, 3259123965, -5.317774772644043, 2.0464065074920654, 7.993583679199219, -2.4801418781280518, -1.3519407510757446, -2.4869933128356934, 0.058837890625, -0.203857421875, -0.80078125
160, 3259140632, -5.317633628845215, 2.0474209785461426, 8.002557754516602, -2.4640824794769287, -1.1748160123825073, -2.504115104675293, 0.058349609375, -0.204345703125, -0.8017578125
161, 3259157299, -5.319451808929443, 2.034384250640869, 8.012115478515625, -2.45939564704895, -1.2367092370986938, -2.5284600257873535, 0.059814453125, -0.203857421875, -0.80126953125
162, 3259173966, -5.331218719482422, 2.039623737335205, 7.988072395324707, -2.505204200744629, -1.3375723361968994, -2.5347485542297363, 0.058349609375, -0.205322265625, -0.80029296875
163, 3259190633, -5.314162254333496, 2.058046340942383, 8.000691413879395, -2.562589168548584, -1.376772403717041, -2.614121913909912, 0.058349609375, -0.203857421875, -0.80126953125
164, 3259207300, -5.314853668212891, 2.0347981452941895, 8.033682823181152, -2.690114974975586, -1.2750258445739746, -2.6398372650146484, 0.058349609375, -0.205810546875, -0.80224609375
165, 3259223967, -5.336619853973389, 2.03755784034729, 7.98105525970459, -2.579301595687866, -1.2602474689483643, -2.602186679840088, 0.059326171875, -0.203857421875, -0.802734375
166, 3259240634, -5.329931735992432, 2.045766830444336, 7.999673843383789, -2.625250816345215, -1.3769516944885254, -2.600893259048462, 0.059326171875, -0.204833984375, -0.80322265625
167, 3259257301, -5.32586145401001, 2.0330395698547363, 8.020755767822266, -2.7122316360473633, -1.4692727327346802, -2.5315210819244385, 0.057861328125, -0.20166015625, -0.80078125
168, 3259273968, -5.2939982414245605, 2.020967960357666, 8.029502868652344, -2.5904431343078613, -1.3993884325027466, -2.591198682785034, 0.058837890625, -0.206298828125, -0.80224609375
169, 3259290635, -5.346819877624512, 2.0414769649505615, 8.003351211547852, -2.636136293411255, -1.3454737663269043, -2.5957064628601074, 0.055419921875, -0.204833984375, -0.800048828125
170, 3259307302, -5.313828468322754, 2.0494325160980225, 7.984767913818359, -2.633780002593994, -1.2823256254196167, -2.569197654724121, 0.058349609375, -0.203857421875, -0.802978515625
171, 3259323969, -5.315567970275879, 2.042283296585083, 8.025017738342285, -2.5424578189849854, -1.2770622968673706, -2.646547794342041, 0.060302734375, -0.203857421875, -0.806884765625
172, 3259340636, -5.318432331085205, 2.0367369651794434, 7.995718479156494, -2.6892826557159424, -1.3281210660934448, -2.5975637435913086, 0.060302734375, -0.204345703125, -0.80224609375
173, 3259357303, -5.33482027053833, 2.0292065143585205, 8.00739860534668, -2.6674351692199707, -1.3361378908157349, -2.5266165733337402, 0.061767578125, -0.204345703125, -0.80126953125
174, 3259373970, -5.3442277908325195, 2.0507988929748535, 8.010454177856445, -2.550884485244751, -1.359893798828125, -2.4754037857055664, 0.058837890625, -0.203857421875, -0.79931640625
175, 3259390637, -5.3245015144348145, 2.055482864379883, 8.009387016296387, -2.5613980293273926, -1.3405686616897583, -2.4954326152801514, 0.059326171875, -0.205810546875, -0.80078125
176, 3259407304, -5.32221794128418, 2.0399043560028076, 7.998266696929932, -2.5257840156555176, -1.3505194187164307, -2.520930290222168, 0.059326171875, -0.204345703125, -0.803955078125
177, 3259423971, -5.318233013153076, 2.037825584411621, 8.002927780151367, -2.4338724613189697, -1.3434374332427979, -2.5228896141052246, 0.059814453125, -0.204833984375, -0.80224609375
178, 3259440638, -5.333274841308594, 2.038987636566162, 8.022653579711914, -2.5259885787963867, -1.2911490201950073, -2.6081411838531494, 0.059814453125, -0.205322265625, -0.80126953125
179, 3259457305, -5.331077575683594, 2.0357754230499268, 8.000999450683594, -2.574908971786499, -1.367449402809143, -2.5153980255126953, 0.058349609375, -0.205322265625, -0.80078125
180, 3259473972, -5.3345794677734375, 2.0349950790405273, 8.002511024475098, -2.6028778553009033, -1.290252685546875, -2.5406265258789062, 0.059326171875, -0.203369140625, -0.80078125
181, 3259490639, -5.322700023651123, 2.0351755619049072, 7.996657371520996, -2.4925897121429443, -1.3149816989898682, -2.4632375240325928, 0.058349609375, -0.203857421875, -0.80078125
182, 3259507306, -5.31718635559082, 2.0459530353546143, 8.008504867553711, -2.6271843910217285, -1.3655668497085571, -2.527743101119995, 0.059326171875, -0.205322265625, -0.803466796875
183, 3259523973, -5.342761993408203, 2.029334306716919, 8.003350257873535, -2.57735538482666, -1.3905649185180664, -2.5836174488067627, 0.059814453125, -0.203857421875, -0.8017578125
184, 3259540640, -5.3317155838012695, 2.0498008728027344, 8.011883735656738, -2.558234930038452, -1.4067903757095337, -2.523837089538574, 0.060791015625, -0.204345703125, -0.8037109375
185, 3259557307, -5.320092678070068, 2.037074327468872, 7.9987359046936035, -2.623765230178833, -1.4275753498077393, -2.515333890914917, 0.058349609375, -0.204345703125, -0.80078125
186, 3259573974, -5.318221569061279, 2.058370590209961, 8.029850006103516, -2.620819568634033, -1.3467414379119873, -2.5800445079803467, 0.057373046875, -0.203369140625, -0.80029296875
187, 3259590641, -5.312016010284424, 2.0471770763397217, 8.005995750427246, -2.57999324798584, -1.2774591445922852, -2.6253530979156494, 0.058837890625, -0.203369140625, -0.802490234375
188, 3259607308, -5.324068069458008, 2.035271644592285, 8.005635261535645, -2.5914676189422607, -1.2660229206085205, -2.5935678482055664, 0.058349609375, -0.202880859375, -0.802978515625
189, 3259623975, -5.343224048614502, 2.0339515209198, 8.014364242553711, -2.630399227142334, -1.3139572143554688, -2.5206356048583984, 0.058349609375, -0.203369140625, -0.8017578125
190, 3259640642, -5.32089376449585, 2.0247669219970703, 8.004837989807129, -2.657266855239868, -1.4593734741210938, -2.5302789211273193, 0.058837890625, -0.203857421875, -0.802490234375
191, 3259657309, -5.2978515625, 2.0251855850219727, 8.009929656982422, -2.687835216522217, -1.3829706907272339, -2.6393380165100098, 0.059814453125, -0.204833984375, -0.80126953125
192, 3259673976, -5.315321445465088, 2.0744009017944336, 7.976067543029785, -2.676642656326294, -1.4220045804977417, -2.6120986938476562, 0.060791015625, -0.205810546875, -0.80126953125
193, 3259690643, -5.333066463470459, 2.0433285236358643, 8.014045715332031, -2.5867295265197754, -1.4553779363632202, -2.658918857574463, 0.060791015625, -0.203857421875, -0.804931640625
194, 3259707310, -5.3407793045043945, 2.0203328132629395, 7.996664047241211, -2.612149953842163, -1.3292224407196045, -2.6983492374420166, 0.059814453125, -0.202880859375, -0.80224609375
195, 3259723977, -5.332990646362305, 2.021721124649048, 8.00383472442627, -2.543059825897217, -1.3844178915023804, -2.5643696784973145, 0.058837890625, -0.204833984375, -0.803955078125
196, 3259740644, -5.314877986907959, 2.0327022075653076, 7.995183944702148, -2.5570826530456543, -1.3331027030944824, -2.5535991191864014, 0.059326171875, -0.204345703125, -0.803466796875
197, 3259757311, -5.317658424377441, 2.0506553649902344, 7.995335102081299, -2.57631778717041, -1.2663047313690186, -2.565765380859375, 0.061279296875, -0.203857421875, -0.80126953125
198, 3259773978, -5.318293571472168, 2.043452262878418, 8.005485534667969, -2.6117782592773438, -1.2747952938079834, -2.6170032024383545, 0.059326171875, -0.205322265625, -0.798828125
199, 3259790645, -5.317173957824707, 2.019232988357544, 8.030426025390625, -2.3825831413269043, -1.219753623008728, -2.481294631958008, 0.059814453125, -0.203369140625, -0.80029296875
200, 3259807312, -5.329810619354248, 2.039396047592163, 7.997537136077881, -2.5361952781677246, -1.2182936668395996, -2.549193859100342, 0.061279296875, -0.204345703125, -0.802734375
201, 3259823979, -5.300224304199219, 2.031170606613159, 8.004622459411621, -2.6884241104125977, -1.299729347229004, -2.5608601570129395, 0.060302734375, -0.203857421875, -0.80224609375
202, 3259840646, -5.332268238067627, 2.0188052654266357, 8.003421783447266, -2.6441657543182373, -1.2586593627929688, -2.571950912475586, 0.059814453125, -0.202392578125, -0.80224609375
203, 3259857313, -5.316013336181641, 2.0567431449890137, 8.005793571472168, -2.596423864364624, -1.2492467164993286, -2.547900438308716, 0.058837890625, -0.204345703125, -0.80029296875
204, 3259873980, -5.3441057205200195, 2.0415642261505127, 8.007622718811035, -2.6112022399902344, -1.0418479442596436, -2.652873992919922, 0.060302734375, -0.203369140625, -0.80126953125
205, 3259890647, -5.348103046417236, 2.007046937942505, 7.986840724945068, -2.592197895050049, -1.1880069971084595, -2.684262752532959, 0.059814453125, -0.203369140625, -0.8017578125
206, 3259907314, -5.325116157531738, 2.046232223510742, 8.001382827758789, -2.6986825466156006, -1.2909570932388306, -2.6508123874664307, 0.060791015625, -0.203369140625, -0.80322265625
207, 3259923981, -5.3259358406066895, 2.033973455429077, 8.000300407409668, -2.6662440299987793, -1.263487458229065, -2.6908962726593018, 0.061279296875, -0.203857421875, -0.80224609375
208, 3259940648, -5.323775768280029, 2.0278165340423584, 7.984045028686523, -2.6676270961761475, -1.3585491180419922, -2.6413486003875732, 0.058837890625, -0.204345703125, -0.8017578125
209, 3259957315, -5.347140312194824, 2.0382866859436035, 8.016757011413574, -2.6404521465301514, -1.4170228242874146, -2.759166955947876, 0.058837890625, -0.203369140625, -0.80126953125
210, 3259973982, -5.32973575592041, 2.0347189903259277, 8.005912780761719, -2.6632730960845947, -1.3990427255630493, -2.657292366027832, 0.061279296875, -0.203369140625, -0.80322265625
211, 3259990649, -5.33182430267334, 2.041049003601074, 7.996150970458984, -2.6413230895996094, -1.283401370048523, -2.649416446685791, 0.059326171875, -0.204345703125, -0.8017578125
212, 3260007316, -5.342082977294922, 2.0279698371887207, 8.013843536376953, -2.648545503616333, -1.292993187904358, -2.6166961193084717, 0.058837890625, -0.203857421875, -0.802978515625
213, 3260023983, -5.348383903503418, 2.017777919769287, 7.998608112335205, -2.538795232772827, -1.335817813873291, -2.5255279541015625, 0.059326171875, -0.205322265625, -0.80029296875
214, 3260040650, -5.334649085998535, 2.021411895751953, 7.995947360992432, -2.5264365673065186, -1.5322412252426147, -2.3768584728240967, 0.059814453125, -0.204345703125, -0.80126953125
215, 3260057317, -5.32782506942749, 2.007241725921631, 8.018614768981934, -2.579237937927246, -1.5192561149597168, -2.373375415802002, 0.060302734375, -0.202392578125, -0.80126953125
216, 3260073984, -5.328136444091797, 2.0239734649658203, 7.994207859039307, -2.5916855335235596, -1.4512029886245728, -2.443016290664673, 0.058837890625, -0.203369140625, -0.7998046875
217, 3260090651, -5.328294277191162, 2.040792942047119, 7.9866156578063965, -2.683109760284424, -1.5282204151153564, -2.419721841812134, 0.060791015625, -0.204833984375, -0.802734375
218, 3260107318, -5.325240612030029, 2.036083936691284, 7.9906487464904785, -2.743607521057129, -1.4423283338546753, -2.45204496383667, 0.060791015625, -0.202880859375, -0.804443359375
219, 3260123985, -5.327968597412109, 2.0267930030822754, 8.013269424438477, -2.738189935684204, -1.4438265562057495, -2.5445454120635986, 0.058349609375, -0.204833984375, -0.802978515625
220, 3260140652, -5.33405876159668, 2.013267993927002, 7.980927467346191, -2.6387743949890137, -1.347970962524414, -2.5074453353881836, 0.061767578125, -0.202880859375, -0.80322265625
221, 3260157319, -5.338412761688232, 2.016216993331909, 8.008061408996582, -2.647956609725952, -1.4052921533584595, -2.5099806785583496, 0.057861328125, -0.203857421875, -0.80078125
222, 3260173986, -5.338729381561279, 2.0398974418640137, 8.012351036071777, -2.6052982807159424, -1.4442106485366821, -2.4599719047546387, 0.060791015625, -0.203369140625, -0.80078125
223, 3260190653, -5.337115287780762, 2.0352625846862793, 7.985435485839844, -2.6443963050842285, -1.5580719709396362, -2.4379963874816895, 0.060302734375, -0.204833984375, -0.80322265625
224, 3260207320, -5.325459957122803, 2.0315234661102295, 7.983349323272705, -2.666948080062866, -1.5476473569869995, -2.430722236633301, 0.059326171875, -0.204345703125, -0.80224609375
225, 3260223987, -5.339097023010254, 2.0231738090515137, 8.00135326385498, -2.762150287628174, -1.6477419137954712, -2.510672092437744, 0.060791015625, -0.203857421875, -0.80419921875
226, 3260240654, -5.340890884399414, 2.0195841789245605, 7.9916911125183105, -2.640477418899536, -1.6031503677368164, -2.508392810821533, 0.060791015625, -0.201416015625, -0.802734375
227, 3260257321, -5.338149547576904, 2.035175323486328, 8.000898361206055, -2.68449330329895, -1.5955177545547485, -2.4080426692962646, 0.059814453125, -0.204345703125, -0.80029296875
228, 3260273988, -5.328542709350586, 2.0238871574401855, 7.993086338043213, -2.7363202571868896, -1.7055498361587524, -2.4383552074432373, 0.059326171875, -0.203857421875, -0.8017578125
229, 3260290655, -5.324953556060791, 2.017209529876709, 8.002668380737305, -2.693354845046997, -1.581084966659546, -2.4765946865081787, 0.058837890625, -0.205322265625, -0.80322265625
230, 3260307322, -5.333070755004883, 2.021217107772827, 7.973822593688965, -2.741199016571045, -1.633859634399414, -2.5477335453033447, 0.058837890625, -0.202880859375, -0.8017578125
231, 3260323989, -5.340962886810303, 2.028101921081543, 8.032506942749023, -2.7668509483337402, -1.6045206785202026, -2.47336745262146, 0.059326171875, -0.205322265625, -0.804443359375
232, 3260340656, -5.31008243560791, 2.026754379272461, 8.019545555114746, -2.7097856998443604, -1.5342905521392822, -2.402574062347412, 0.058349609375, -0.202880859375, -0.802490234375
233, 3260357323, -5.332950115203857, 2.0226492881774902, 8.019979476928711, -2.688872814178467, -1.4606925249099731, -2.4171605110168457, 0.060791015625, -0.203369140625, -0.80126953125
234, 3260373990, -5.323604583740234, 2.0399093627929688, 8.002717018127441, -2.7317609786987305, -1.5253005027770996, -2.5193676948547363, 0.057861328125, -0.202880859375, -0.804443359375
235, 3260390657, -5.339512348175049, 2.031022548675537, 8.015547752380371, -2.723052740097046, -1.5203828811645508, -2.4683730602264404, 0.059326171875, -0.203369140625, -0.808349609375
236, 3260407324, -5.334477424621582, 2.020581007003784, 8.005548477172852, -2.714613437652588, -1.548121452331543, -2.4888758659362793, 0.060302734375, -0.202880859375, -0.804931640625
237, 3260423991, -5.336184978485107, 2.0160229206085205, 8.025873184204102, -2.7080953121185303, -1.4709503650665283, -2.5035393238067627, 0.058349609375, -0.203857421875, -0.802978515625
238, 3260440658, -5.313777446746826, 2.0363268852233887, 8.003432273864746, -2.688770294189453, -1.6118074655532837, -2.4673614501953125, 0.059326171875, -0.201904296875, -0.80224609375
239, 3260457325, -5.337127208709717, 2.028810977935791, 8.002434730529785, -2.7559006214141846, -1.584900975227356, -2.5681211948394775, 0.058837890625, -0.202880859375, -0.80078125
240, 3260473992, -5.320601940155029, 2.0174338817596436, 7.992382526397705, -2.807459592819214, -1.6337318420410156, -2.4316186904907227, 0.061279296875, -0.204345703125, -0.8017578125
241, 3260490659, -5.318539619445801, 2.025698661804199, 8.028600692749023, -2.76308536529541, -1.614880919456482, -2.5120937824249268, 0.059326171875, -0.204345703125, -0.80029296875
242, 3260507326, -5.328666687011719, 2.0185883045196533, 8.018292427062988, -2.769655704498291, -1.4811058044433594, -2.550551414489746, 0.058837890625, -0.203369140625, -0.803955078125
243, 3260523993, -5.333907604217529, 2.0348939895629883, 8.013175010681152, -2.8565971851348877, -1.4983941316604614, -2.5445830821990967, 0.058349609375, -0.203857421875, -0.802490234375
244, 3260540660, -5.3203511238098145, 2.0106730461120605, 8.009870529174805, -2.7603189945220947, -1.6045459508895874, -2.5466575622558594, 0.057861328125, -0.203369140625, -0.802001953125
245, 3260557327, -5.309407711029053, 2.027616500854492, 8.019967079162598, -2.6927788257598877, -1.5180264711380005, -2.479322671890259, 0.059326171875, -0.202880859375, -0.8017578125
246, 3260573994, -5.3088860511779785, 2.022336721420288, 8.005733489990234, -2.6946356296539307, -1.450011968612671, -2.5595285892486572, 0.058349609375, -0.20166015625, -0.80029296875
247, 3260590661, -5.324939727783203, 2.027878522872925, 7.9998297691345215, -2.727407217025757, -1.300446629524231, -2.558926820755005, 0.059814453125, -0.202880859375, -0.802734375
248, 3260607328, -5.326493740081787, 2.0161190032958984, 8.011305809020996, -2.722041130065918, -1.3997085094451904, -2.600841999053955, 0.056884765625, -0.201904296875, -0.804443359375
249, 3260623995, -5.333479404449463, 2.007467269897461, 8.036149024963379, -2.6812336444854736, -1.306471824645996, -2.5080788135528564, 0.057373046875, -0.202880859375, -0.80078125
250, 3260640662, -5.333940029144287, 2.00628399848938, 7.987663269042969, -2.610856771469116, -1.3702667951583862, -2.54888653755188, 0.058349609375, -0.202392578125, -0.802490234375
251, 3260657329, -5.327345371246338, 2.0142743587493896, 7.993765830993652, -2.622420310974121, -1.268059253692627, -2.5202128887176514, 0.059814453125, -0.203857421875, -0.80126953125
252, 3260673996, -5.323152542114258, 2.017235517501831, 7.987529277801514, -2.610971450805664, -1.4018727540969849, -2.4974300861358643, 0.058837890625, -0.203369140625, -0.802490234375
253, 3260690663, -5.327834129333496, 2.0212857723236084, 8.021320343017578, -2.63940167427063, -1.346805453300476, -2.48020601272583, 0.058349609375, -0.20166015625, -0.80078125
254, 3260707330, -5.3237385749816895, 2.028977394104004, 8.021430015563965, -2.6400675773620605, -1.3384045362472534, -2.543571710586548, 0.058837890625, -0.20166015625, -0.802490234375
255, 3260723997, -5.324378490447998, 2.0148186683654785, 8.0260648727417, -2.7098238468170166, -1.3230369091033936, -2.509852647781372, 0.059326171875, -0.201904296875, -0.804931640625
256, 3260740664, -5.323761940002441, 2.0177690982818604, 8.019009590148926, -2.550769090652466, -1.406137466430664, -2.501041889190674, 0.059814453125, -0.203857421875, -0.80322265625
257, 3260757331, -5.3112921714782715, 2.0165021419525146, 8.029387474060059, -2.6558964252471924, -1.3610718250274658, -2.5548033714294434, 0.057861328125, -0.202880859375, -0.80126953125
258, 3260773998, -5.333673000335693, 2.013420581817627, 8.003364562988281, -2.6949431896209717, -1.3829835653305054, -2.542393684387207, 0.058837890625, -0.203857421875, -0.80224609375
259, 3260790665, -5.313974857330322, 2.0216894149780273, 8.021976470947266, -2.647751569747925, -1.4559284448623657, -2.521916389465332, 0.057861328125, -0.202880859375, -0.802978515625
260, 3260807332, -5.319117546081543, 2.019064426422119, 8.00971794128418, -2.6834683418273926, -1.3937407732009888, -2.5159614086151123, 0.055908203125, -0.202880859375, -0.804443359375
261, 3260823999, -5.326028823852539, 2.0084073543548584, 8.005196571350098, -2.6399011611938477, -1.445824146270752, -2.498352289199829, 0.058837890625, -0.202392578125, -0.803466796875
262, 3260840666, -5.325754642486572, 2.0217702388763428, 8.005388259887695, -2.64271879196167, -1.4602185487747192, -2.4957399368286133, 0.057861328125, -0.203369140625, -0.801513671875
263, 3260857333, -5.318807125091553, 2.013820171356201, 8.001701354980469, -2.657292366027832, -1.3311434984207153, -2.504384756088257, 0.058349609375, -0.202392578125, -0.80126953125
264, 3260874000, -5.332170486450195, 2.0254201889038086, 8.016440391540527, -2.5973968505859375, -1.2883188724517822, -2.534632921218872, 0.057373046875, -0.202880859375, -0.801513671875
265, 3260890667, -5.325969696044922, 2.0070641040802, 7.966653347015381, -2.5670206546783447, -1.3056715726852417, -2.5772268772125244, 0.058837890625, -0.202880859375, -0.80224609375
266, 3260907334, -5.347316265106201, 2.0268681049346924, 7.982989311218262, -2.5918774604797363, -1.3793081045150757, -2.5313162803649902, 0.059326171875, -0.202392578125, -0.80029296875
267, 3260924001, -5.331559658050537, 2.0248684883117676, 8.000282287597656, -2.61976957321167, -1.4623827934265137, -2.452044725418091, 0.060302734375, -0.202392578125, -0.802734375
268, 3260940668, -5.312339782714844, 2.0146725177764893, 8.001630783081055, -2.637545108795166, -1.4837439060211182, -2.474327802658081, 0.059814453125, -0.201416015625, -0.803955078125
269, 3260957335, -5.321826457977295, 2.006941795349121, 8.007014274597168, -2.621178388595581, -1.4510619640350342, -2.4597926139831543, 0.059326171875, -0.203369140625, -0.798828125
270, 3260974002, -5.310856819152832, 2.0204005241394043, 8.012689590454102, -2.612457275390625, -1.4073539972305298, -2.5639851093292236, 0.060302734375, -0.201904296875, -0.802734375
271, 3260990669, -5.326227188110352, 2.0067520141601562, 8.004217147827148, -2.5359139442443848, -1.3837519884109497, -2.5087385177612305, 0.058837890625, -0.202880859375, -0.8017578125
272, 3261007336, -5.325876712799072, 2.013690710067749, 8.014571189880371, -2.554994821548462, -1.3672443628311157, -2.4079909324645996, 0.060302734375, -0.203857421875, -0.804931640625
273, 3261024003, -5.317516803741455, 2.031740188598633, 8.010300636291504, -2.55786395072937, -1.383213996887207, -2.4968032836914062, 0.057861328125, -0.20166015625, -0.804931640625
274, 3261040670, -5.324798583984375, 2.012333393096924, 8.016185760498047, -2.5235300064086914, -1.2845540046691895, -2.5548670291900635, 0.059326171875, -0.202880859375, -0.80126953125
275, 3261057337, -5.34660005569458, 2.0143022537231445, 8.029489517211914, -2.539473533630371, -1.2369014024734497, -2.462430715560913, 0.059814453125, -0.204345703125, -0.8017578125
276, 3261074004, -5.326421737670898, 2.0086405277252197, 8.005066871643066, -2.4661054611206055, -1.369446873664856, -2.4249203205108643, 0.058349609375, -0.202392578125, -0.80078125
277, 3261090671, -5.3241047859191895, 2.026324987411499, 8.008682250976562, -2.5226972103118896, -1.4626259803771973, -2.376781940460205, 0.059326171875, -0.201904296875, -0.80224609375
278, 3261107338, -5.323236465454102, 2.0225977897644043, 8.034919738769531, -2.44482159614563, -1.4233746528625488, -2.4804744720458984, 0.061279296875, -0.201416015625, -0.802734375
279, 3261124005, -5.334473133087158, 2.023162603378296, 8.025521278381348, -2.469038963317871, -1.3938944339752197, -2.5108513832092285, 0.058837890625, -0.20166015625, -0.803466796875
280, 3261140672, -5.325883388519287, 2.0145530700683594, 8.017536163330078, -2.5251431465148926, -1.377899169921875, -2.4707674980163574, 0.059814453125, -0.201171875, -0.803955078125
281, 3261157339, -5.321916103363037, 2.015584945678711, 8.022759437561035, -2.4739179611206055, -1.4355789422988892, -2.3638217449188232, 0.059814453125, -0.20166015625, -0.8017578125
282, 3261174006, -5.318714141845703, 2.0123138427734375, 8.034963607788086, -2.460099697113037, -1.5069230794906616, -2.4357550144195557, 0.059814453125, -0.202880859375, -0.80126953125
283, 3261190673, -5.318260192871094, 2.02488374710083, 8.023591041564941, -2.4836764335632324, -1.4243478775024414, -2.435742139816284, 0.057373046875, -0.20263671875, -0.80078125
284, 3261207340, -5.316328048706055, 2.018592596054077, 8.013168334960938, -2.507969856262207, -1.4549294710159302, -2.4610347747802734, 0.055908203125, -0.203369140625, -0.801025390625
285, 3261224007, -5.318175792694092, 2.0284829139709473, 8.010648727416992, -2.5286142826080322, -1.4702075719833374, -2.5291647911071777, 0.058349609375, -0.203369140625, -0.802490234375
286, 3261240674, -5.329108715057373, 2.009066104888916, 8.004692077636719, -2.5256941318511963, -1.3705099821090698, -2.432130813598633, 0.057861328125, -0.2021484375, -0.79931640625
287, 3261257341, -5.3433122634887695, 2.001324415206909, 8.006157875061035, -2.492013454437256, -1.3797050714492798, -2.3856821060180664, 0.060302734375, -0.201904296875, -0.80224609375
288, 3261274008, -5.336755752563477, 2.0144519805908203, 8.011920928955078, -2.477503776550293, -1.4539178609848022, -2.404904842376709, 0.058349609375, -0.204833984375, -0.802490234375
289, 3261290675, -5.315788745880127, 2.03576922416687, 8.002026557922363, -2.4489197731018066, -1.4778783321380615, -2.3552029132843018, 0.058349609375, -0.202392578125, -0.802001953125
290, 3261307342, -5.315645694732666, 2.0214991569519043, 7.99845027923584, -2.497903823852539, -1.3867995738983154, -2.389920711517334, 0.058349609375, -0.201904296875, -0.802978515625
291, 3261324009, -5.330204010009766, 2.01283597946167, 8.014904975891113, -2.4698965549468994, -1.4443769454956055, -2.4482154846191406, 0.059326171875, -0.202392578125, -0.802490234375
292, 3261340676, -5.316999912261963, 2.0174694061279297, 8.001806259155273, -2.5245676040649414, -1.499854326248169, -2.442171335220337, 0.059326171875, -0.203857421875, -0.803466796875
293, 3261357343, -5.328957557678223, 2.019249677658081, 8.011659622192383, -2.5303428173065186, -1.4507033824920654, -2.4174933433532715, 0.057861328125, -0.20166015625, -0.80078125
294, 3261374010, -5.326448917388916, 2.0090277194976807, 8.009559631347656, -2.4980196952819824, -1.4761112928390503, -2.4174678325653076, 0.059326171875, -0.203369140625, -0.8017578125
295, 3261390677, -5.311723232269287, 2.0268666744232178, 8.022957801818848, -2.506638288497925, -1.5003408193588257, -2.4752371311187744, 0.058349609375, -0.203857421875, -0.80078125
296, 3261407344, -5.315998554229736, 2.0256707668304443, 8.016551971435547, -2.537834405899048, -1.4043570756912231, -2.4169552326202393, 0.058837890625, -0.20166015625, -0.802490234375
297, 3261424011, -5.302145957946777, 2.0317280292510986, 8.006019592285156, -2.5144755840301514, -1.4222348928451538, -2.476210117340088, 0.057861328125, -0.202880859375, -0.802978515625
298, 3261440678, -5.322202682495117, 2.022709608078003, 7.999125957489014, -2.5085721015930176, -1.4283052682876587, -2.4830875396728516, 0.058837890625, -0.203369140625, -0.8017578125
299, 3261457345, -5.321921348571777, 2.0227396488189697, 8.00208568572998, -2.5260653495788574, -1.421594500541687, -2.424344301223755, 0.060302734375, -0.203369140625, -0.8017578125
300, 3261474012, -5.3242974281311035, 2.010831594467163, 8.012063026428223, -2.405749797821045, -1.393830418586731, -2.461021900177002, 0.058837890625, -0.204345703125, -0.79931640625
301, 3261490679, -5.309915065765381, 2.015207529067993, 8.025976181030273, -2.377396821975708, -1.4279849529266357, -2.406223773956299, 0.057373046875, -0.2021484375, -0.7998046875
302, 3261507346, -5.326472282409668, 2.0290677547454834, 7.998402118682861, -2.370147943496704, -1.4401381015777588, -2.323558807373047, 0.058837890625, -0.20166015625, -0.801513671875
303, 3261524013, -5.3281779289245605, 2.025831460952759, 8.007725715637207, -2.4042255878448486, -1.4631893634796143, -2.3780622482299805, 0.058837890625, -0.201904296875, -0.803466796875
304, 3261540680, -5.330634593963623, 2.0075366497039795, 8.002467155456543, -2.44608998298645, -1.4716033935546875, -2.364154815673828, 0.057861328125, -0.204833984375, -0.80029296875
305, 3261557347, -5.322232723236084, 2.034489393234253, 8.014264106750488, -2.355625629425049, -1.466596007347107, -2.3182311058044434, 0.058349609375, -0.2021484375, -0.80078125
306, 3261574014, -5.320131301879883, 2.0324549674987793, 8.009191513061523, -2.403841257095337, -1.549068808555603, -2.4221670627593994, 0.059814453125, -0.203857421875, -0.802734375
307, 3261590681, -5.342372894287109, 2.0311074256896973, 7.999298095703125, -2.4054298400878906, -1.6445915699005127, -2.295499801635742, 0.056884765625, -0.203857421875, -0.803955078125
308, 3261607348, -5.330461502075195, 2.0372989177703857, 8.015509605407715, -2.390907049179077, -1.706804871559143, -2.2408294677734375, 0.057373046875, -0.204345703125, -0.802001953125
309, 3261624015, -5.325193881988525, 2.0348317623138428, 8.011035919189453, -2.3701353073120117, -1.7249130010604858, -2.2882513999938965, 0.058349609375, -0.202880859375, -0.80078125
310, 3261640682, -5.311664581298828, 2.0248868465423584, 8.009961128234863, -2.4043283462524414, -1.676901936531067, -2.148252487182617, 0.058837890625, -0.203857421875, -0.802490234375
311, 3261657349, -5.312487602233887, 2.0361502170562744, 8.01850414276123, -2.4157772064208984, -1.6651967763900757, -2.240061044692993, 0.057861328125, -0.205322265625, -0.802490234375
312, 3261674016, -5.32516622543335, 2.0135395526885986, 7.999918460845947, -2.362272262573242, -1.6881459951400757, -2.2303411960601807, 0.058837890625, -0.202880859375, -0.80029296875
313, 3261690683, -5.3194074630737305, 2.025338649749756, 8.019015312194824, -2.291440010070801, -1.631580114364624, -2.11672306060791, 0.058349609375, -0.204833984375, -0.803466796875
314, 3261707350, -5.309470176696777, 2.0262246131896973, 8.029775619506836, -2.3726325035095215, -1.584196925163269, -2.164106845855713, 0.057373046875, -0.203369140625, -0.803955078125
315, 3261724017, -5.316936492919922, 2.028641700744629, 8.017928123474121, -2.2705788612365723, -1.56051766872406, -2.1402227878570557, 0.057373046875, -0.202392578125, -0.804443359375
316, 3261740684, -5.307079315185547, 2.0416483879089355, 8.019694328308105, -2.2472453117370605, -1.5334835052490234, -2.15378475189209, 0.058837890625, -0.202880859375, -0.802978515625
317, 3261757351, -5.304731845855713, 2.053022861480713, 8.007129669189453, -2.3099582195281982, -1.6236788034439087, -2.2013862133026123, 0.058349609375, -0.203857421875, -0.802490234375
318, 3261774018, -5.312732696533203, 2.0319480895996094, 8.011663436889648, -2.4234097003936768, -1.5702762603759766, -2.2103378772735596, 0.058837890625, -0.2021484375, -0.80126953125
319, 3261790685, -5.294157028198242, 2.0588297843933105, 8.025520324707031, -2.4401347637176514, -1.6476651430130005, -2.141132116317749, 0.060302734375, -0.204345703125, -0.80078125
320, 3261807352, -5.303046226501465, 2.059595823287964, 8.01338005065918, -2.5219032764434814, -1.5628230571746826, -2.322406053543091, 0.056396484375, -0.205322265625, -0.803466796875
321, 3261824019, -5.318645000457764, 2.0497164726257324, 8.0438814163208, -2.5882532596588135, -1.5263633728027344, -2.343421459197998, 0.058349609375, -0.204833984375, -0.802978515625
322, 3261840686, -5.321017265319824, 2.0355706214904785, 8.0316801071167, -2.5781874656677246, -1.5529876947402954, -2.3028252124786377, 0.055908203125, -0.204833984375, -0.802001953125
323, 3261857353, -5.321459770202637, 2.0330755710601807, 8.008974075317383, -2.5740761756896973, -1.56882905960083, -2.255582332611084, 0.058837890625, -0.202880859375, -0.80224609375
324, 3261874020, -5.321484565734863, 2.0410075187683105, 8.045159339904785, -2.405787944793701, -1.6625714302062988, -2.1968653202056885, 0.056884765625, -0.20263671875, -0.7998046875
325, 3261890687, -5.3196120262146, 2.0332531929016113, 8.037981033325195, -2.460599422454834, -1.7149239778518677, -2.167717933654785, 0.058349609375, -0.203369140625, -0.80126953125
326, 3261907354, -5.330645561218262, 2.0378596782684326, 8.01466178894043, -2.5776243209838867, -1.9166626930236816, -2.046787977218628, 0.057373046875, -0.205322265625, -0.802978515625
327, 3261924021, -5.3250885009765625, 2.056252956390381, 8.02575969696045, -2.5621535778045654, -2.0690066814422607, -2.0197534561157227, 0.057861328125, -0.204833984375, -0.802001953125
328, 3261940688, -5.302239418029785, 2.0416805744171143, 8.008363723754883, -2.6907296180725098, -2.207084894180298, -2.0031440258026123, 0.054443359375, -0.203369140625, -0.802001953125
329, 3261957355, -5.321673393249512, 2.0259721279144287, 8.043768882751465, -2.741558074951172, -2.2156524658203125, -1.9802974462509155, 0.057861328125, -0.203857421875, -0.802490234375
330, 3261974022, -5.3347625732421875, 2.0359621047973633, 8.032719612121582, -2.756169319152832, -2.361631393432617, -1.921182632446289, 0.055908203125, -0.205322265625, -0.801513671875
331, 3261990689, -5.344663143157959, 2.027637243270874, 8.025778770446777, -2.797598123550415, -2.5974221229553223, -1.7388460636138916, 0.054931640625, -0.203857421875, -0.802490234375
332, 3262007356, -5.304571628570557, 2.0642449855804443, 8.0270414352417, -2.676565408706665, -2.761958122253418, -1.5370051860809326, 0.053955078125, -0.204345703125, -0.803955078125
333, 3262024023, -5.232519149780273, 2.090320348739624, 8.010619163513184, -3.1407320499420166, -2.9767723083496094, -1.9032800197601318, 0.055419921875, -0.203369140625, -0.804931640625
334, 3262040690, -5.281203269958496, 2.075514554977417, 8.043673515319824, -3.2001023292541504, -2.791464328765869, -2.0813138484954834, 0.057373046875, -0.203369140625, -0.802001953125
335, 3262057357, -5.294020175933838, 2.038841724395752, 8.048866271972656, -3.283932685852051, -2.7119240760803223, -2.010341167449951, 0.05224609375, -0.204345703125, -0.802490234375
336, 3262074024, -5.297379493713379, 2.0091445446014404, 8.065816879272461, -3.2027018070220947, -2.7881221771240234, -1.906071662902832, 0.0537109375, -0.204345703125, -0.802978515625
337, 3262090691, -5.300846099853516, 2.0337116718292236, 8.026479721069336, -3.057234287261963, -2.721029043197632, -1.6725220680236816, 0.053955078125, -0.203369140625, -0.803955078125
338, 3262107358, -5.290607929229736, 2.035919189453125, 8.038715362548828, -3.0024359226226807, -2.900420904159546, -1.607107400894165, 0.05078125, -0.203857421875, -0.8037109375
339, 3262124025, -5.221303939819336, 2.063856840133667, 8.034858703613281, -2.787686347961426, -2.7506117820739746, -1.5408216714859009, 0.05224609375, -0.204833984375, -0.803955078125
340, 3262140692, -5.2379984855651855, 2.072420597076416, 8.05585765838623, -2.630680799484253, -2.3745410442352295, -1.625074863433838, 0.05224609375, -0.203125, -0.802490234375
341, 3262157359, -5.224998950958252, 2.0362372398376465, 8.030295372009277, -2.5072526931762695, -2.0780482292175293, -1.5798169374465942, 0.05126953125, -0.203857421875, -0.8037109375
342, 3262174026, -5.291898727416992, 1.9757323265075684, 8.009145736694336, -2.061246156692505, -1.7298303842544556, -1.3497508764266968, 0.05126953125, -0.204345703125, -0.802978515625
343, 3262190693, -5.263803005218506, 1.994313359260559, 8.049310684204102, -1.3412474393844604, -1.3669625520706177, -0.9211864471435547, 0.052734375, -0.203857421875, -0.802490234375
344, 3262207360, -5.25473165512085, 2.034024238586426, 8.057540893554688, -1.0905119180679321, -1.2388736009597778, -0.6363988518714905, 0.05224609375, -0.204345703125, -0.802001953125
345, 3262224027, -5.273151397705078, 2.0715479850769043, 7.991003036499023, -1.024802565574646, -1.2484015226364136, -0.6156269311904907, 0.05078125, -0.205322265625, -0.80419921875
346, 3262240694, -5.121435165405273, 2.1646385192871094, 8.017023086547852, -1.1651087999343872, -1.4494611024856567, -0.943879246711731, 0.05224609375, -0.205810546875, -0.802001953125
347, 3262257361, -5.204371929168701, 2.070333242416382, 8.04640007019043, -1.642030119895935, -1.316146969795227, -1.815940260887146, 0.0517578125, -0.205810546875, -0.800048828125
348, 3262274028, -5.275164604187012, 2.0486629009246826, 8.017264366149902, -1.381753921508789, -1.1822181940078735, -1.5738492012023926, 0.04931640625, -0.204833984375, -0.801025390625
349, 3262290695, -5.296398162841797, 2.0097310543060303, 7.953115463256836, -1.0683567523956299, -0.9705035090446472, -1.3923190832138062, 0.053466796875, -0.207275390625, -0.803466796875
350, 3262307362, -5.178498268127441, 1.9867669343948364, 8.013699531555176, -0.265219509601593, -1.0103826522827148, -0.8355375528335571, 0.052734375, -0.207275390625, -0.802978515625
351, 3262324029, -5.270957946777344, 2.0212783813476562, 8.030709266662598, 0.009226974099874496, -0.8470631837844849, -0.8540554046630859, 0.05126953125, -0.204833984375, -0.802978515625
352, 3262340696, -5.289299011230469, 2.1068520545959473, 7.955929279327393, 0.23200623691082, -1.1717554330825806, -0.49645093083381653, 0.0517578125, -0.208251953125, -0.804443359375
353, 3262357363, -5.258457183837891, 2.046848773956299, 7.976814270019531, 0.9138675928115845, -1.0026218891143799, -0.09775086492300034, 0.0498046875, -0.208251953125, -0.800537109375
354, 3262374030, -5.176076412200928, 2.232896327972412, 8.02293586730957, 0.8322527408599854, -1.3791288137435913, -0.5199506878852844, 0.052734375, -0.209228515625, -0.802001953125
355, 3262390697, -5.313796520233154, 2.2087574005126953, 8.030131340026855, 0.26703161001205444, -1.712990164756775, -0.7487104535102844, 0.0498046875, -0.209716796875, -0.802001953125
356, 3262407364, -5.133813858032227, 2.3133673667907715, 8.150813102722168, -0.8667977452278137, -1.605263113975525, -0.8319005370140076, 0.05224609375, -0.210205078125, -0.802978515625
357, 3262424031, -5.254743576049805, 2.0784435272216797, 8.002481460571289, -0.3854455351829529, -0.5722005367279053, -0.5719316005706787, 0.0498046875, -0.209228515625, -0.802001953125
358, 3262440698, -5.254178524017334, 2.1661229133605957, 8.094048500061035, 0.4468775689601898, 0.23931224644184113, -0.9193934202194214, 0.0517578125, -0.212890625, -0.801025390625
359, 3262457365, -5.3315348625183105, 2.166689157485962, 8.011818885803223, 0.7376777529716492, 0.916723370552063, -0.8346283435821533, 0.05322265625, -0.212646484375, -0.79736328125
360, 3262474032, -5.227023124694824, 2.179619073867798, 8.051568984985352, 1.144343376159668, 0.9095773696899414, -0.6140260100364685, 0.05224609375, -0.212158203125, -0.800537109375
361, 3262490699, -5.182186603546143, 2.191331148147583, 8.09221076965332, 0.9898730516433716, 1.519646167755127, -0.8457056283950806, 0.052734375, -0.212646484375, -0.7998046875
362, 3262507366, -5.294165134429932, 2.140108823776245, 8.043420791625977, 1.2174291610717773, 1.899354338645935, -1.1293151378631592, 0.052734375, -0.216796875, -0.80126953125
363, 3262524033, -5.340904235839844, 2.1641621589660645, 8.00507640838623, 1.6577755212783813, 1.8027430772781372, -0.8242678046226501, 0.052734375, -0.21484375, -0.802001953125
364, 3262540700, -5.30289363861084, 2.21490740776062, 8.01474666595459, 1.6108403205871582, 1.7944960594177246, -0.9893801212310791, 0.054931640625, -0.216796875, -0.79931640625
365, 3262557367, -5.272578716278076, 2.281808853149414, 8.021440505981445, 1.59599769115448, 1.7162367105484009, -0.9716305732727051, 0.055419921875, -0.21923828125, -0.7998046875
366, 3262574034, -5.257957458496094, 2.3485360145568848, 7.979849815368652, 0.9036737084388733, 1.3176774978637695, -1.4468615055084229, 0.054443359375, -0.220703125, -0.797607421875
367, 3262590701, -5.2546892166137695, 2.3977701663970947, 7.943729400634766, -0.4852069318294525, 0.552011251449585, -2.487748622894287, 0.056396484375, -0.22021484375, -0.799560546875
368, 3262607368, -5.274300575256348, 2.353241443634033, 7.900086402893066, -1.8972481489181519, -0.1930941641330719, -3.3603227138519287, 0.056884765625, -0.2197265625, -0.799560546875
369, 3262624035, -5.229555130004883, 2.306028127670288, 7.954862117767334, -2.583258628845215, -0.5257262587547302, -3.8439669609069824, 0.057373046875, -0.22021484375, -0.800537109375
370, 3262640702, -5.202699661254883, 2.3293192386627197, 7.9210686683654785, -3.2071456909179688, -0.7481855154037476, -4.54296350479126, 0.057373046875, -0.21875, -0.800048828125
371, 3262657369, -5.276044845581055, 2.2762534618377686, 7.932729721069336, -3.792933940887451, -1.0699578523635864, -4.8733673095703125, 0.057373046875, -0.21826171875, -0.797607421875
372, 3262674036, -5.230039119720459, 2.2600018978118896, 7.935234546661377, -3.9509003162384033, -1.4007844924926758, -5.00395393371582, 0.055908203125, -0.216796875, -0.79833984375
373, 3262690703, -5.230517864227295, 2.2540509700775146, 7.995072841644287, -3.3914802074432373, -0.9143350124359131, -4.991403102874756, 0.054443359375, -0.21728515625, -0.798828125
374, 3262707370, -5.26381778717041, 2.2882931232452393, 7.972150802612305, -2.9587020874023438, -0.4172949194908142, -5.280390739440918, 0.056884765625, -0.216796875, -0.80224609375
375, 3262724037, -5.313666820526123, 2.250166177749634, 7.920958518981934, -3.141704797744751, -0.5716754794120789, -5.759207248687744, 0.056396484375, -0.21826171875, -0.80078125
376, 3262740704, -5.285231113433838, 2.227250337600708, 7.9763336181640625, -3.346184492111206, -0.7438825964927673, -5.984600067138672, 0.059326171875, -0.2177734375, -0.800537109375
377, 3262757371, -5.264707088470459, 2.156506299972534, 7.9676618576049805, -2.9544637203216553, 0.2784164845943451, -6.055560111999512, 0.058349609375, -0.21484375, -0.80029296875
378, 3262774038, -5.212508678436279, 2.2422614097595215, 8.021607398986816, -1.9292638301849365, 2.1661109924316406, -6.047581672668457, 0.060302734375, -0.21875, -0.798583984375
379, 3262790705, -5.230457782745361, 2.1030049324035645, 8.037935256958008, -1.1206709146499634, 4.005577087402344, -6.092813014984131, 0.062255859375, -0.21923828125, -0.797607421875
380, 3262807372, -5.2488532066345215, 2.129178762435913, 8.036232948303223, 0.2786214053630829, 6.760339260101318, -6.447959899902344, 0.0634765625, -0.216796875, -0.800048828125
381, 3262824039, -5.295980453491211, 2.1867427825927734, 8.026495933532715, 1.518046259880066, 9.817793846130371, -6.469156742095947, 0.064453125, -0.2177734375, -0.802490234375
382, 3262840706, -5.28602409362793, 2.277696371078491, 7.953025817871094, 2.449094295501709, 12.859972953796387, -7.064295291900635, 0.07080078125, -0.216796875, -0.7978515625
383, 3262857373, -5.243577003479004, 2.4087226390838623, 7.945610046386719, 3.2074122428894043, 16.958942413330078, -9.204922676086426, 0.074951171875, -0.220947265625, -0.796142578125
384, 3262874040, -5.252216339111328, 2.3617501258850098, 8.039809226989746, 5.174719333648682, 23.099246978759766, -11.205160140991211, 0.080078125, -0.221435546875, -0.79541015625
385, 3262890707, -5.261728763580322, 2.364173173904419, 8.22887897491455, 7.421879291534424, 29.53860855102539, -14.425333976745605, 0.08642578125, -0.221923828125, -0.793212890625
386, 3262907374, -5.133565425872803, 2.3158483505249023, 8.458712577819824, 8.286932945251465, 38.52996063232422, -16.257366180419922, 0.095458984375, -0.2236328125, -0.790771484375
387, 3262924041, -5.143161773681641, 2.2705953121185303, 8.46949291229248, 12.285423278808594, 53.43819808959961, -18.67778205871582, 0.110107421875, -0.2275390625, -0.787841796875
388, 3262940708, -5.285974502563477, 2.1892855167388916, 8.425849914550781, 16.264545440673828, 70.33634948730469, -19.9687442779541, 0.1259765625, -0.228271484375, -0.783203125
389, 3262957375, -5.508155822753906, 2.3388161659240723, 8.259920120239258, 21.42816925048828, 92.03115844726562, -21.432863235473633, 0.145263671875, -0.2333984375, -0.775390625
390, 3262974042, -5.7355241775512695, 2.569337844848633, 8.222649574279785, 23.51880645751953, 114.57221984863281, -27.40558433532715, 0.171142578125, -0.237060546875, -0.7685546875
391, 3262990709, -5.763862609863281, 2.5383169651031494, 8.345312118530273, 21.20268440246582, 135.97084045410156, -33.15322494506836, 0.206298828125, -0.2392578125, -0.7568359375
392, 3263007376, -5.9302239418029785, 2.306835651397705, 7.610109329223633, 22.917917251586914, 165.44581604003906, -41.82190704345703, 0.241455078125, -0.242431640625, -0.741455078125
393, 3263024043, -6.484780788421631, 2.765408992767334, 7.801524639129639, 17.008947372436523, 197.17689514160156, -53.0088005065918, 0.284912109375, -0.239990234375, -0.722900390625
394, 3263040710, -6.805126667022705, 3.436737298965454, 7.763906955718994, 3.3957595825195312, 231.52297973632812, -73.52039337158203, 0.337890625, -0.2353515625, -0.6982421875
395, 3263057377, -7.920072555541992, 4.018136024475098, 8.199479103088379, -7.330270767211914, 265.0382385253906, -100.98783874511719, 0.393798828125, -0.221435546875, -0.666748046875
396, 3263074044, -8.753131866455078, 4.542905330657959, 8.240060806274414, -4.119326114654541, 294.2666320800781, -128.0822296142578, 0.455078125, -0.203369140625, -0.620849609375
397, 3263090711, -11.768105506896973, 5.49350643157959, 9.929845809936523, -12.87350082397461, 317.0313720703125, -161.8880157470703, 0.520263671875, -0.179931640625, -0.571044921875
398, 3263107378, -14.997496604919434, 6.02589750289917, 11.120927810668945, -7.899904251098633, 321.3838806152344, -166.49583435058594, 0.58349609375, -0.14794921875, -0.511962890625
399, 3263124045, -15.432577133178711, 5.178259372711182, 11.643889427185059, -3.828139543533325, 319.66937255859375, -167.16639709472656, 0.637451171875, -0.11376953125, -0.446044921875
400, 3263140712, -14.820393562316895, 6.066171169281006, 12.39893627166748, -1.046356439590454, 299.7903137207031, -158.00230407714844, 0.685302734375, -0.083984375, -0.3779296875
401, 3263157379, -10.198463439941406, 5.834875583648682, 12.05584716796875, -20.182994842529297, 263.969970703125, -160.41775512695312, 0.71923828125, -0.05126953125, -0.30908203125
402, 3263174046, 0.6410679817199707, 5.804604530334473, 8.77951431274414, -61.93413543701172, 217.89178466796875, -172.15928649902344, 0.7470703125, -0.012939453125, -0.248779296875
403, 3263190713, -15.706405639648438, 8.768271446228027, 14.783463478088379, -44.01801681518555, 217.02297973632812, -111.88558959960938, 0.765869140625, 0.0224609375, -0.1875
404, 3263207380, -17.007381439208984, 11.851947784423828, 21.347139358520508, -19.45512580871582, -4.217457294464111, 0.12900495529174805, 0.775390625, 0.029541015625, -0.169677734375
405, 3263224047, -5.79290246963501, 9.138358116149902, 14.442360877990723, -51.60503005981445, -142.48826599121094, 59.995460510253906, 0.778076171875, 0.014892578125, -0.1875
406, 3263240714, -0.8169905543327332, 4.053220748901367, 8.871139526367188, -71.33277130126953, -184.9406280517578, 77.61497497558594, 0.77490234375, 4.8828125E-4, -0.2236328125
407, 3263257381, 0.6726730465888977, 1.1879618167877197, 6.030496597290039, -57.424964904785156, -189.51454162597656, 84.4299545288086, 0.768310546875, -0.015625, -0.26708984375
408, 3263274048, 0.09531036764383316, 0.012303508818149567, 5.555966854095459, -27.373634338378906, -182.61102294921875, 90.74703979492188, 0.761474609375, -0.03759765625, -0.30908203125
409, 3263290715, -2.063953399658203, 0.8711580038070679, 6.638115882873535, -9.655389785766602, -184.38623046875, 88.38419342041016, 0.751953125, -0.058837890625, -0.3525390625
410, 3263307382, -4.773930072784424, 1.6726601123809814, 8.261841773986816, -9.101700782775879, -207.64321899414062, 84.16339874267578, 0.7333984375, -0.07763671875, -0.408935546875
411, 3263324049, -6.502130508422852, 1.8716331720352173, 9.004474639892578, -11.5880765914917, -247.34292602539062, 90.5632553100586, 0.700927734375, -0.097900390625, -0.470703125
412, 3263340716, -6.81153678894043, 1.9105734825134277, 8.647991180419922, -12.768460273742676, -282.9454345703125, 104.65325927734375, 0.6494140625, -0.118896484375, -0.53759765625
413, 3263357383, -6.752716541290283, 2.1151106357574463, 7.899960041046143, -15.513656616210938, -300.4153137207031, 116.49826049804688, 0.585693359375, -0.1328125, -0.58984375
414, 3263374050, -7.12321138381958, 2.230780839920044, 7.743943691253662, -22.083539962768555, -300.5621643066406, 122.56621551513672, 0.5244140625, -0.145751953125, -0.64208984375
415, 3263390717, -8.258180618286133, 2.001802682876587, 8.294564247131348, -24.161361694335938, -292.0935363769531, 125.25373077392578, 0.460693359375, -0.153564453125, -0.681396484375
416, 3263407384, -9.003931045532227, 1.3679760694503784, 8.492249488830566, -17.06476402282715, -277.88165283203125, 123.25995635986328, 0.397705078125, -0.162353515625, -0.70947265625
417, 3263424051, -10.2316312789917, 1.13729727268219, 9.18964958190918, 0.6554020643234253, -248.82693481445312, 111.29019165039062, 0.349365234375, -0.166748046875, -0.716552734375
418, 3263440718, -15.784215927124023, 2.1381452083587646, 11.941261291503906, 22.399660110473633, -226.2552032470703, 97.67029571533203, 0.32080078125, -0.178466796875, -0.71826171875
419, 3263457385, -21.62494468688965, 2.8956875801086426, 12.297368049621582, 38.20490646362305, -230.33938598632812, 93.21070098876953, 0.31201171875, -0.19873046875, -0.739990234375
420, 3263474052, -26.72354507446289, 3.2575442790985107, 8.850207328796387, 37.89767074584961, -245.07757568359375, 84.69586181640625, 0.2880859375, -0.22900390625, -0.79443359375
421, 3263490719, -29.745450973510742, 3.593439817428589, 2.6212382316589355, 26.665870666503906, -251.4521942138672, 63.14980697631836, 0.229736328125, -0.260986328125, -0.86083984375
422, 3263507386, -31.382627487182617, 0.9430627822875977, -3.9441919326782227, 35.30600357055664, -241.91453552246094, 53.5916633605957, 0.146240234375, -0.29296875, -0.906982421875
423, 3263524053, -29.095550537109375, -3.953871250152588, -10.5023832321167, 63.98476028442383, -213.28538513183594, 60.82261657714844, 0.053955078125, -0.322998046875, -0.92041015625
424, 3263540720, -24.734844207763672, -9.037609100341797, -14.450718879699707, 60.572166442871094, -145.97406005859375, 38.29731369018555, -0.016845703125, -0.35205078125, -0.916748046875
425, 3263557387, -22.6599178314209, -10.622360229492188, -17.423751831054688, -8.725276947021484, -13.884207725524902, -48.332862854003906, -0.039306640625, -0.361328125, -0.916748046875
426, 3263574054, -21.599872589111328, -9.428321838378906, -12.696722984313965, -37.616363525390625, 87.43680572509766, -126.57960510253906, -0.022216796875, -0.3544921875, -0.9248046875
427, 3263590721, -7.9704718589782715, 4.3219146728515625, 16.93918800354004, -38.70655059814453, 103.14949035644531, -115.08240509033203, 0.01953125, -0.346923828125, -0.937255859375
428, 3263607388, 0.5852068066596985, 12.027365684509277, 6.02647590637207, -27.58258628845215, 79.04126739501953, -84.42631530761719, 0.041259765625, -0.34375, -0.949462890625
429, 3263624055, -9.23280143737793, 1.7848169803619385, 8.798612594604492, -40.4395751953125, 154.12869262695312, -41.513824462890625, 0.08154296875, -0.33642578125, -0.958251953125
430, 3263640722, -15.719773292541504, -4.171875476837158, 14.278203964233398, -24.147220611572266, 108.04278564453125, -34.8313102722168, 0.11572265625, -0.332763671875, -0.9638671875
431, 3263657389, -10.691429138183594, 2.296060800552368, 11.930355072021484, -1.7408943176269531, 66.0855941772461, -41.91083526611328, 0.137939453125, -0.332763671875, -0.96630859375
432, 3263674056, -10.326507568359375, 5.628627777099609, 7.98482608795166, -33.768733978271484, 19.867294311523438, -23.57495880126953, 0.1474609375, -0.325927734375, -0.97119140625
433, 3263690723, -6.311567306518555, 1.1595090627670288, 9.50146484375, -20.876718521118164, 8.482574462890625, -19.179807662963867, 0.153076171875, -0.318359375, -0.97216796875
434, 3263707390, -6.360228061676025, 2.3893868923187256, 8.556966781616211, -13.863594055175781, 3.9464282989501953, -11.195630073547363, 0.155517578125, -0.31591796875, -0.9755859375
435, 3263724057, -5.706974029541016, 1.9262160062789917, 8.328179359436035, -8.543631553649902, 2.9608356952667236, -7.533018112182617, 0.15771484375, -0.31201171875, -0.97607421875
436, 3263740724, -5.311343669891357, 1.9110221862792969, 8.228096008300781, -2.919642925262451, 3.8326783180236816, -3.6627187728881836, 0.16015625, -0.3115234375, -0.9775390625
437, 3263757391, -5.269797325134277, 2.1166930198669434, 8.32779312133789, 0.7673757076263428, 6.379157066345215, -1.7995868921279907, 0.16015625, -0.31298828125, -0.9765625
438, 3263774058, -5.414053440093994, 2.191174030303955, 8.141338348388672, 3.9881227016448975, 9.204343795776367, -1.2129409313201904, 0.16162109375, -0.3154296875, -0.97900390625
439, 3263790725, -5.664092540740967, 2.314923048019409, 7.913874626159668, 4.516564846038818, 9.581658363342285, -1.8161206245422363, 0.1640625, -0.3154296875, -0.976318359375
440, 3263807392, -5.612369060516357, 2.4660391807556152, 7.918693542480469, 2.543078899383545, 7.912858963012695, -2.900562047958374, 0.167724609375, -0.320556640625, -0.9755859375
441, 3263824059, -5.580257892608643, 2.347266435623169, 7.895662307739258, -0.23772436380386353, 4.989348888397217, -4.784774303436279, 0.168701171875, -0.318603515625, -0.97509765625
442, 3263840726, -5.394642353057861, 2.19401216506958, 7.951240539550781, -0.7728120684623718, 3.587308406829834, -5.210519790649414, 0.172607421875, -0.319091796875, -0.974365234375
443, 3263857393, -5.41855525970459, 2.1402318477630615, 7.96696662902832, 0.48125630617141724, 4.182637691497803, -4.260647773742676, 0.173095703125, -0.319580078125, -0.974853515625
444, 3263874060, -5.436110973358154, 2.2701354026794434, 7.8661394119262695, 1.1056939363479614, 3.670985460281372, -3.9706220626831055, 0.1748046875, -0.322021484375, -0.973388671875
445, 3263890727, -5.472371578216553, 2.3400495052337646, 7.810571670532227, 0.9580492973327637, 2.6575927734375, -3.966024160385132, 0.17529296875, -0.321533203125, -0.972412109375
446, 3263907394, -5.446907043457031, 2.478205919265747, 7.774459362030029, -0.3751492500305176, 1.0307254791259766, -4.659974575042725, 0.1748046875, -0.322998046875, -0.97119140625
447, 3263924061, -5.319269180297852, 2.4893558025360107, 7.773086071014404, -1.5209721326828003, -1.1226048469543457, -6.092865467071533, 0.1767578125, -0.3251953125, -0.97265625
448, 3263940728, -5.323557376861572, 2.3028266429901123, 7.82602071762085, -2.421924352645874, -1.0718532800674438, -7.631022930145264, 0.177734375, -0.32470703125, -0.97314453125
449, 3263957395, -5.259450435638428, 2.335355520248413, 7.9339752197265625, -1.314367413520813, 0.4271751344203949, -8.214303016662598, 0.177734375, -0.32421875, -0.97216796875
450, 3263974062, -5.388128757476807, 2.191601276397705, 7.981561660766602, 0.5676224231719971, 3.7214179039001465, -9.3751220703125, 0.1787109375, -0.32470703125, -0.97216796875
451, 3263990729, -5.318134307861328, 2.303328275680542, 7.990057945251465, 2.613950729370117, 7.899301052093506, -10.27570629119873, 0.182373046875, -0.3251953125, -0.97216796875
452, 3264007396, -5.414403915405273, 2.3675262928009033, 7.885636329650879, 3.27860164642334, 10.721250534057617, -12.13258171081543, 0.186279296875, -0.3271484375, -0.971435546875
453, 3264024063, -5.353684902191162, 2.4261064529418945, 7.958008289337158, 3.8814377784729004, 14.474161148071289, -15.06820297241211, 0.19140625, -0.3251953125, -0.97216796875
454, 3264040730, -4.946910858154297, 2.8841638565063477, 8.545669555664062, 8.053476333618164, 23.348501205444336, -21.46742820739746, 0.19677734375, -0.330322265625, -0.969482421875
455, 3264057397, -4.8942131996154785, 1.9114776849746704, 8.714767456054688, 1.3874437808990479, 40.385372161865234, -21.383817672729492, 0.207763671875, -0.330322265625, -0.965576171875
456, 3264074064, -4.7395453453063965, 1.9469361305236816, 9.058182716369629, 5.699005126953125, 65.35488891601562, -22.02954864501953, 0.225830078125, -0.327392578125, -0.95849609375
457, 3264090731, -4.932395935058594, 2.1448447704315186, 8.946639060974121, 16.952924728393555, 97.95947265625, -25.26261329650879, 0.24853515625, -0.33154296875, -0.94970703125
458, 3264107398, -4.9707255363464355, 3.209453821182251, 9.215980529785156, 26.806663513183594, 137.61822509765625, -36.35689163208008, 0.283935546875, -0.336669921875, -0.933837890625
459, 3264124065, -4.883006572723389, 4.288064002990723, 9.515003204345703, 29.907611846923828, 183.28826904296875, -61.55952072143555, 0.330078125, -0.3369140625, -0.912109375
460, 3264140732, -5.650511264801025, 4.383278846740723, 9.548885345458984, 36.32200241088867, 250.0435028076172, -97.39202117919922, 0.3916015625, -0.337158203125, -0.883544921875
461, 3264157399, -5.495051860809326, 3.9022233486175537, 10.024237632751465, 24.123380661010742, 328.1705322265625, -146.23081970214844, 0.474853515625, -0.326904296875, -0.8330078125
462, 3264174066, -7.652203559875488, 4.953007221221924, 11.822314262390137, 16.74491310119629, 412.873046875, -191.10043334960938, 0.572509765625, -0.299560546875, -0.76171875
463, 3264190733, -10.017775535583496, 6.172580242156982, 12.492542266845703, 18.865089416503906, 470.412353515625, -219.95823669433594, 0.673583984375, -0.257568359375, -0.666748046875
464, 3264207400, -21.814878463745117, 6.2389326095581055, 15.680845260620117, 39.972198486328125, 457.80126953125, -201.85592651367188, 0.760498046875, -0.213623046875, -0.552490234375
465, 3264224067, -22.03777503967285, 7.9572062492370605, 16.257946014404297, 43.03154754638672, 380.2969970703125, -176.38331604003906, 0.814697265625, -0.169677734375, -0.44140625
466, 3264240734, -9.5829439163208, 6.6842570304870605, 15.341386795043945, 36.486629486083984, 297.9814453125, -168.64186096191406, 0.84619140625, -0.124267578125, -0.3515625
467, 3264257401, 5.3835649490356445, 9.044977188110352, 10.489714622497559, -18.71782684326172, 282.0050048828125, -199.29620361328125, 0.8671875, -0.072265625, -0.269775390625
468, 3264274068, -17.61404037475586, 17.102197647094727, 20.600749969482422, -69.05292510986328, 246.6756134033203, -111.57551574707031, 0.88232421875, -0.026123046875, -0.190185546875
469, 3264290735, -15.575944900512695, 13.47391128540039, 23.69429588317871, -89.77935791015625, -31.117036819458008, 23.90656852722168, 0.884033203125, -0.01953125, -0.17822265625
470, 3264307402, -4.017822265625, 6.836740970611572, 14.268684387207031, -95.81539154052734, -192.82968139648438, 107.94990539550781, 0.876708984375, -0.040771484375, -0.22607421875
471, 3264324069, 0.7938196659088135, 2.4728944301605225, 7.625971794128418, -87.25393676757812, -236.22308349609375, 128.6205291748047, 0.85791015625, -0.07275390625, -0.2978515625
472, 3264340736, 2.2144627571105957, 0.05480996519327164, 4.52357292175293, -72.50066375732422, -231.41880798339844, 124.81348419189453, 0.8232421875, -0.106201171875, -0.371826171875
473, 3264357403, 1.550292730331421, -1.4454833269119263, 3.92244029045105, -44.543643951416016, -210.75698852539062, 115.57926177978516, 0.778076171875, -0.13818359375, -0.431884765625
474, 3264374070, -1.4114527702331543, -0.33754488825798035, 5.231003284454346, -22.72308349609375, -197.36622619628906, 101.8604507446289, 0.7255859375, -0.163818359375, -0.47998046875
475, 3264390737, -5.189844131469727, 1.373901605606079, 7.451963424682617, -21.37913703918457, -209.45803833007812, 91.3258285522461, 0.674560546875, -0.181884765625, -0.518798828125
476, 3264407404, -8.029266357421875, 2.1363894939422607, 9.07597827911377, -28.668813705444336, -248.4539794921875, 92.73640441894531, 0.61328125, -0.197509765625, -0.555908203125
477, 3264424071, -8.800968170166016, 2.327749252319336, 9.093990325927734, -32.547542572021484, -290.36297607421875, 102.66123962402344, 0.5478515625, -0.20654296875, -0.592529296875
478, 3264440738, -8.790838241577148, 2.34637713432312, 8.317684173583984, -32.14617156982422, -315.5492858886719, 111.70909118652344, 0.477783203125, -0.216064453125, -0.625
479, 3264457405, -8.892716407775879, 2.174643039703369, 7.590388774871826, -28.039108276367188, -322.15631103515625, 115.6225357055664, 0.410888671875, -0.22705078125, -0.654052734375
480, 3264474072, -8.976045608520508, 1.4956588745117188, 7.022279739379883, -15.854554176330566, -308.8896179199219, 111.8056411743164, 0.3505859375, -0.23828125, -0.672119140625
481, 3264490739, -10.27330207824707, 1.0533466339111328, 7.635243892669678, 5.434206008911133, -271.6617736816406, 96.43705749511719, 0.301513671875, -0.2509765625, -0.6865234375
482, 3264507406, -16.210317611694336, 2.708792209625244, 11.157188415527344, 29.27342987060547, -243.25076293945312, 74.78585052490234, 0.2646484375, -0.267822265625, -0.697998046875
483, 3264524073, -23.01888656616211, 4.133182048797607, 13.019448280334473, 52.936397552490234, -260.833740234375, 65.13377380371094, 0.22021484375, -0.289306640625, -0.72216796875
484, 3264540740, -26.49095916748047, 6.533193588256836, 10.35079288482666, 63.30874252319336, -283.6184387207031, 67.31504821777344, 0.1572265625, -0.320068359375, -0.7470703125
485, 3264557407, -29.84629249572754, 8.937063217163086, 5.425732612609863, 45.17211151123047, -289.0896301269531, 74.29734802246094, 0.074462890625, -0.34375, -0.761962890625
486, 3264574074, -30.668611526489258, 4.661014556884766, -2.80714750289917, 34.310794830322266, -281.4576721191406, 99.1045913696289, -0.011962890625, -0.361083984375, -0.7626953125
487, 3264590741, -27.257774353027344, -2.569406270980835, -11.031972885131836, 49.10816955566406, -227.0771942138672, 122.31558990478516, -0.0869140625, -0.373046875, -0.746826171875
488, 3264607408, -26.67559242248535, -13.075921058654785, -17.03156852722168, 58.08095169067383, -110.13636016845703, 109.90937805175781, -0.139404296875, -0.384033203125, -0.73095703125
489, 3264624075, -23.73100471496582, -15.74063777923584, -16.5784912109375, 5.114250183105469, 28.515453338623047, -0.36197254061698914, -0.1484375, -0.387451171875, -0.7197265625
490, 3264640742, -24.62259292602539, -11.982379913330078, -7.6809163093566895, -41.21112060546875, 96.92979431152344, -124.54952239990234, -0.122802734375, -0.382080078125, -0.724365234375
491, 3264657409, -11.949060440063477, 1.5783239603042603, 9.569770812988281, -30.078824996948242, 94.2835922241211, -165.29925537109375, -0.086669921875, -0.376953125, -0.726318359375
492, 3264674076, -2.3881537914276123, 15.346969604492188, 10.608855247497559, -20.276321411132812, 57.4465217590332, -114.09064483642578, -0.06396484375, -0.37451171875, -0.725830078125
493, 3264690743, -2.9190542697906494, 8.568758010864258, 4.7553229331970215, -27.40158462524414, 131.89097595214844, -34.096073150634766, -0.037841796875, -0.369873046875, -0.7255859375
494, 3264707410, -12.678312301635742, -4.342034816741943, 13.574996948242188, -24.38664436340332, 136.70458984375, -8.862201690673828, -0.0126953125, -0.363037109375, -0.727783203125
495, 3264724077, -10.526474952697754, -4.12790584564209, 10.905743598937988, 0.7999074459075928, 89.45939636230469, -48.995506286621094, 0.011962890625, -0.363037109375, -0.72412109375
496, 3264740744, -7.422331809997559, 10.164669036865234, 10.541991233825684, -3.5126214027404785, 85.6932373046875, -37.38615417480469, 0.031005859375, -0.36328125, -0.720458984375
497, 3264757411, -12.43006420135498, 2.41414213180542, 7.710348129272461, -50.07689666748047, 46.22295379638672, -37.00110626220703, 0.048583984375, -0.351318359375, -0.72412109375
498, 3264774078, -6.813847541809082, 0.7997701168060303, 9.927955627441406, -18.665578842163086, 18.906152725219727, -18.156103134155273, 0.053466796875, -0.346435546875, -0.72705078125
499, 3264790745, -6.357705593109131, 2.7450456619262695, 8.686919212341309, -10.253252029418945, 13.235925674438477, -10.354141235351562, 0.05810546875, -0.34423828125, -0.723876953125
500, 3264807412, -5.84008264541626, 2.2885303497314453, 8.231918334960938, -1.2816088199615479, 10.398164749145508, -4.772876739501953, 0.05908203125, -0.344970703125, -0.726318359375
501, 3264824079, -5.784059524536133, 2.6061758995056152, 8.085143089294434, 4.738396644592285, 10.567234992980957, -0.6979079842567444, 0.060546875, -0.344970703125, -0.724853515625
502, 3264840746, -5.680062294006348, 2.7810683250427246, 7.897366046905518, 7.410161972045898, 12.21705436706543, -0.2756952941417694, 0.065673828125, -0.347412109375, -0.72265625
503, 3264857413, -5.559834957122803, 2.6667325496673584, 7.86054801940918, 7.909815788269043, 13.432610511779785, -0.24371783435344696, 0.066650390625, -0.350341796875, -0.720947265625
504, 3264874080, -5.356051921844482, 3.0186848640441895, 7.707216739654541, 6.852972030639648, 14.28016185760498, -1.0610966682434082, 0.072021484375, -0.35205078125, -0.71826171875
505, 3264890747, -5.553222179412842, 2.821819543838501, 7.673981666564941, 4.5480194091796875, 15.001416206359863, -2.589625597000122, 0.073486328125, -0.35400390625, -0.71630859375
506, 3264907414, -5.770956516265869, 2.6417078971862793, 7.625546455383301, 4.136921405792236, 13.943493843078613, -3.3248636722564697, 0.076171875, -0.3564453125, -0.7177734375
507, 3264924081, -5.701170444488525, 2.579430103302002, 7.686941623687744, 3.684612989425659, 13.039349555969238, -2.7157158851623535, 0.07958984375, -0.35595703125, -0.715576171875
508, 3264940748, -5.711180210113525, 2.73964262008667, 7.623625755310059, 2.582024097442627, 12.723530769348145, -2.276778221130371, 0.083740234375, -0.3564453125, -0.716796875
509, 3264957415, -5.7496657371521, 2.832388401031494, 7.509518146514893, 3.25148868560791, 11.288731575012207, -1.7283458709716797, 0.085205078125, -0.358642578125, -0.71630859375
510, 3264974082, -5.783068656921387, 2.8714680671691895, 7.488955497741699, 2.62880539894104, 9.130247116088867, -2.4096951484680176, 0.087158203125, -0.359619140625, -0.709716796875
511, 3264990749, -5.903339385986328, 2.67331600189209, 7.464861869812012, 2.618828535079956, 7.759707927703857, -1.9915542602539062, 0.090087890625, -0.361083984375, -0.7099609375
512, 3265007416, -5.883772850036621, 2.7376677989959717, 7.428382873535156, 2.672077178955078, 5.979457855224609, -1.218332290649414, 0.091552734375, -0.362548828125, -0.7099609375
513, 3265024083, -5.6865668296813965, 2.935236930847168, 7.318269729614258, 1.8860105276107788, 4.421334743499756, -1.3262896537780762, 0.091064453125, -0.365478515625, -0.7119140625
514, 3265040750, -5.507025718688965, 3.0451204776763916, 7.320712089538574, 0.290620893239975, 3.344487190246582, -3.500525951385498, 0.093994140625, -0.362548828125, -0.707275390625
515, 3265057417, -5.5476837158203125, 3.1370179653167725, 7.370762825012207, -1.9937437772750854, 1.1048294305801392, -6.919795989990234, 0.09375, -0.362548828125, -0.70947265625
516, 3265074084, -5.576140880584717, 3.046968460083008, 7.38791036605835, -1.8271079063415527, -0.7777425646781921, -8.946133613586426, 0.09619140625, -0.362548828125, -0.709228515625
517, 3265090751, -5.561023235321045, 2.903923988342285, 7.499545097351074, 0.17319951951503754, 0.4173782467842102, -9.875452995300293, 0.09716796875, -0.364501953125, -0.709228515625
518, 3265107418, -5.577508926391602, 2.5764286518096924, 7.580872058868408, 3.7676236629486084, 5.557850360870361, -10.498318672180176, 0.09814453125, -0.364501953125, -0.707275390625
519, 3265124085, -5.378115177154541, 2.79628849029541, 7.705548286437988, 10.657301902770996, 12.944212913513184, -13.54587459564209, 0.10009765625, -0.365966796875, -0.705078125
520, 3265140752, -5.373497486114502, 2.99485445022583, 7.725953578948975, 16.378707885742188, 20.778629302978516, -18.05573844909668, 0.107666015625, -0.3701171875, -0.703369140625
521, 3265157419, -5.142245769500732, 3.253767967224121, 8.179838180541992, 11.806870460510254, 30.5772647857666, -20.570680618286133, 0.11669921875, -0.37109375, -0.701904296875
522, 3265174086, -5.441229820251465, 2.421635389328003, 8.271162033081055, 9.144911766052246, 50.25727081298828, -18.690961837768555, 0.125244140625, -0.37060546875, -0.694091796875
523, 3265190753, -5.098720550537109, 2.9385368824005127, 8.654190063476562, 13.215818405151367, 76.02410125732422, -22.56577491760254, 0.140625, -0.373779296875, -0.690185546875
524, 3265207420, -4.982907295227051, 3.3339507579803467, 8.525711059570312, 18.322973251342773, 108.39474487304688, -32.02103042602539, 0.164306640625, -0.376953125, -0.684326171875
525, 3265224087, -5.0022735595703125, 3.5928752422332764, 8.640148162841797, 30.7853946685791, 154.06002807617188, -43.31209182739258, 0.1962890625, -0.379638671875, -0.66796875
526, 3265240754, -4.792940616607666, 4.368610382080078, 9.711008071899414, 42.171722412109375, 214.30154418945312, -65.04888153076172, 0.2392578125, -0.380859375, -0.6484375
527, 3265257421, -4.828418731689453, 3.9738147258758545, 9.201441764831543, 35.56820297241211, 290.79229736328125, -98.50069427490234, 0.29541015625, -0.382080078125, -0.618408203125
528, 3265274088, -6.609807014465332, 4.53459358215332, 9.649527549743652, 33.47926330566406, 383.3554992675781, -142.0792236328125, 0.373291015625, -0.373779296875, -0.57373046875
529, 3265290755, -10.022351264953613, 5.99221658706665, 11.426658630371094, 22.65294647216797, 446.6502990722656, -185.78436279296875, 0.45751953125, -0.354736328125, -0.51123046875
530, 3265307422, -20.571273803710938, 8.662820816040039, 14.033279418945312, 32.15358352661133, 470.5377502441406, -194.3000946044922, 0.544921875, -0.324951171875, -0.4326171875
531, 3265324089, -23.645055770874023, 8.232297897338867, 14.942421913146973, 34.68914031982422, 389.90240478515625, -181.04318237304688, 0.61083984375, -0.290771484375, -0.351806640625
532, 3265340756, -14.590044021606445, 8.449178695678711, 14.462691307067871, 34.694217681884766, 313.5053405761719, -169.48220825195312, 0.65771484375, -0.25390625, -0.275146484375
533, 3265357423, -2.5989322662353516, 6.857064247131348, 13.390767097473145, 23.46072006225586, 276.2352600097656, -179.0553741455078, 0.690673828125, -0.212158203125, -0.2060546875
534, 3265374090, -2.005779981613159, 10.407073020935059, 10.032767295837402, -8.318095207214355, 291.9081726074219, -164.17727661132812, 0.712158203125, -0.166015625, -0.13330078125
535, 3265390757, -18.57842254638672, 15.899638175964355, 22.94530487060547, -19.427974700927734, 133.25340270996094, -47.52671813964844, 0.720947265625, -0.13623046875, -0.075927734375
536, 3265407424, -10.027732849121094, 12.869752883911133, 19.70246696472168, -65.91373443603516, -88.60176849365234, 52.4974250793457, 0.720947265625, -0.125, -0.06884765625
537, 3265424091, -0.969817042350769, 6.696686744689941, 11.383269309997559, -112.01866149902344, -187.6804656982422, 86.87702941894531, 0.72509765625, -0.1201171875, -0.078857421875
538, 3265440758, 0.9105870723724365, 2.6667990684509277, 7.00692081451416, -126.1978988647461, -212.02244567871094, 79.72213745117188, 0.743408203125, -0.11376953125, -0.09912109375
539, 3265457425, 0.6269961595535278, 0.12899795174598694, 4.718667507171631, -108.44458770751953, -216.3916473388672, 72.45126342773438, 0.7802734375, -0.106689453125, -0.133544921875
540, 3265474092, -1.128957986831665, -0.5068367123603821, 4.836075782775879, -65.33356475830078, -215.89199829101562, 72.15360260009766, 0.82470703125, -0.10693359375, -0.197265625
541, 3265490759, -4.316294193267822, 1.286445140838623, 5.877377510070801, -32.32656478881836, -226.075927734375, 73.26211547851562, 0.85693359375, -0.116943359375, -0.287109375
542, 3265507426, -6.97225284576416, 2.8544180393218994, 6.9551215171813965, -27.27318572998047, -256.3453063964844, 76.04798126220703, 0.851318359375, -0.13525390625, -0.409423828125
543, 3265524093, -7.923095226287842, 3.46562123298645, 7.234095096588135, -36.60262680053711, -291.3974914550781, 79.33087158203125, 0.79443359375, -0.14794921875, -0.53271484375
544, 3265540760, -7.865341663360596, 3.2974090576171875, 6.623636245727539, -44.15376663208008, -311.6101989746094, 81.97114562988281, 0.7099609375, -0.154052734375, -0.634765625
545, 3265557427, -8.484041213989258, 2.901183605194092, 6.258277893066406, -40.783843994140625, -316.5433044433594, 84.1301040649414, 0.61669921875, -0.15283203125, -0.71142578125
546, 3265574094, -8.846895217895508, 2.4048428535461426, 5.943145751953125, -23.578189849853516, -313.5424499511719, 86.02127838134766, 0.5244140625, -0.151123046875, -0.767333984375
547, 3265590761, -8.815032958984375, 2.285276174545288, 5.790568828582764, 1.8798604011535645, -292.5657043457031, 81.93617248535156, 0.443359375, -0.157470703125, -0.814453125
548, 3265607428, -10.39400577545166, 3.24641489982605, 7.072991371154785, 25.595226287841797, -253.94143676757812, 67.73102569580078, 0.3564453125, -0.16845703125, -0.849853515625
549, 3265624095, -16.48919105529785, 4.969505310058594, 10.554126739501953, 47.943145751953125, -236.3069305419922, 57.84031677246094, 0.273681640625, -0.1826171875, -0.86376953125
550, 3265640762, -21.166452407836914, 7.161522388458252, 11.665306091308594, 59.358280181884766, -253.21771240234375, 59.920650482177734, 0.192138671875, -0.19970703125, -0.866455078125
551, 3265657429, -24.077287673950195, 7.841161251068115, 9.891721725463867, 54.059104919433594, -271.36187744140625, 71.3031234741211, 0.115966796875, -0.22216796875, -0.863525390625
552, 3265674096, -26.34619903564453, 6.617912292480469, 5.843579292297363, 45.75221633911133, -276.5121154785156, 89.42724609375, 0.03759765625, -0.2470703125, -0.862060546875
553, 3265690763, -26.7398738861084, 2.8094778060913086, 0.052085936069488525, 50.08173370361328, -266.8406982421875, 113.49261474609375, -0.04248046875, -0.26953125, -0.853515625
554, 3265707430, -26.20964813232422, -3.4942545890808105, -5.962808609008789, 58.30510330200195, -223.77822875976562, 127.47624969482422, -0.113525390625, -0.28564453125, -0.83984375
555, 3265724097, -29.67533302307129, -14.515727996826172, -17.11697769165039, 49.80753707885742, -123.63664245605469, 101.27603912353516, -0.15966796875, -0.30029296875, -0.825927734375
556, 3265740764, -26.415565490722656, -17.94078826904297, -21.266223907470703, 14.225387573242188, 16.357391357421875, 4.746636390686035, -0.17138671875, -0.306640625, -0.816162109375
557, 3265757431, -20.63886070251465, -11.177716255187988, -13.732152938842773, -46.4498176574707, 135.3763885498047, -132.71412658691406, -0.13818359375, -0.29833984375, -0.82373046875
558, 3265774098, -11.758516311645508, 5.871120929718018, 14.632226943969727, -53.56504821777344, 147.81752014160156, -148.10140991210938, -0.091796875, -0.2861328125, -0.82861328125
559, 3265790765, -7.401319980621338, 13.064095497131348, 10.509385108947754, -49.172935485839844, 89.4847183227539, -82.28489685058594, -0.065673828125, -0.270263671875, -0.8359375
560, 3265807432, -5.532154560089111, 0.3228875994682312, 7.911858558654785, -50.74186706542969, 137.0545196533203, -46.54701614379883, -0.030517578125, -0.256591796875, -0.839111328125
561, 3265824099, -12.924105644226074, -7.677094459533691, 13.490219116210938, -16.82406997680664, 133.4845733642578, -32.239627838134766, 0.002197265625, -0.243408203125, -0.842041015625
562, 3265840766, -12.556949615478516, 5.070309638977051, 13.943900108337402, -11.459810256958008, 88.1750717163086, -68.81536865234375, 0.0283203125, -0.242431640625, -0.837646484375
563, 3265857433, -11.244248390197754, 8.633983612060547, 3.8632113933563232, -62.8886604309082, 36.397865295410156, -38.743614196777344, 0.042236328125, -0.22607421875, -0.841552734375
564, 3265874100, -8.614453315734863, -1.869149088859558, 11.421238899230957, -35.741031646728516, 2.850682497024536, -27.934019088745117, 0.0498046875, -0.212890625, -0.843505859375
565, 3265890767, -6.424321174621582, 2.8910937309265137, 8.863080024719238, -16.61526107788086, 2.6525888442993164, -9.52619457244873, 0.04931640625, -0.21044921875, -0.843017578125
566, 3265907434, -5.790630340576172, 2.449324369430542, 8.15229320526123, -9.033256530761719, 0.6802414655685425, -6.528947830200195, 0.052734375, -0.20654296875, -0.844970703125
567, 3265924101, -5.7166361808776855, 2.2394440174102783, 7.964043617248535, -4.459606170654297, 1.3890984058380127, -4.669835567474365, 0.05126953125, -0.20703125, -0.843994140625
568, 3265940768, -5.654065132141113, 2.1565423011779785, 8.018784523010254, -0.28071513772010803, 3.383418321609497, -2.494920253753662, 0.05419921875, -0.20458984375, -0.843994140625
569, 3265957435, -5.541910171508789, 2.377730131149292, 7.99626350402832, 3.9396753311157227, 6.496578693389893, -1.3122797012329102, 0.05322265625, -0.2080078125, -0.843017578125
570, 3265974102, -5.60658597946167, 2.4500651359558105, 7.9329609870910645, 6.28857946395874, 9.364089965820312, -0.9762156009674072, 0.055908203125, -0.20849609375, -0.84375
571, 3265990769, -5.619527339935303, 2.5438199043273926, 7.813565254211426, 6.953038215637207, 10.998682022094727, -0.6093648672103882, 0.058349609375, -0.211181640625, -0.84326171875
572, 3266007436, -5.616649150848389, 2.6799397468566895, 7.778956890106201, 6.851202964782715, 12.170439720153809, -1.1973048448562622, 0.060791015625, -0.212646484375, -0.843994140625
573, 3266024103, -5.69803524017334, 2.517094612121582, 7.722517967224121, 6.326154708862305, 11.427733421325684, -1.3785146474838257, 0.06494140625, -0.215087890625, -0.84130859375
574, 3266040770, -5.66733455657959, 2.4498746395111084, 7.74962854385376, 7.148310661315918, 10.971148490905762, -0.6018090844154358, 0.068359375, -0.218017578125, -0.83984375
575, 3266057437, -5.651860237121582, 2.5697550773620605, 7.677867889404297, 8.552719116210938, 11.142831802368164, 0.08981739729642868, 0.06982421875, -0.21826171875, -0.838134765625
576, 3266074104, -5.699196815490723, 2.658106803894043, 7.602020740509033, 9.05045223236084, 11.149772644042969, -0.30082136392593384, 0.072998046875, -0.2236328125, -0.837890625
577, 3266090771, -5.727535724639893, 2.776181936264038, 7.532322406768799, 8.909582138061523, 10.811043739318848, -1.4328265190124512, 0.077392578125, -0.226318359375, -0.835693359375
578, 3266107438, -5.736902236938477, 2.690916061401367, 7.495710849761963, 8.71784496307373, 11.239301681518555, -1.6972525119781494, 0.081787109375, -0.229248046875, -0.834228515625
579, 3266124105, -5.725231647491455, 2.6798102855682373, 7.479801654815674, 8.129162788391113, 11.400506973266602, -1.7976667881011963, 0.08251953125, -0.231689453125, -0.833984375
580, 3266140772, -5.759274482727051, 2.7561211585998535, 7.377151966094971, 8.189672470092773, 11.443717956542969, -1.952355146408081, 0.08642578125, -0.234375, -0.83349609375
581, 3266157439, -5.750263690948486, 2.8365049362182617, 7.355012893676758, 7.55034065246582, 11.105730056762695, -2.6794228553771973, 0.0888671875, -0.236328125, -0.831298828125
582, 3266174106, -5.791234016418457, 2.8937723636627197, 7.2936692237854, 6.905886173248291, 10.319190979003906, -3.8808388710021973, 0.092041015625, -0.23828125, -0.82958984375
583, 3266190773, -5.810245037078857, 2.9032232761383057, 7.245763301849365, 7.355414390563965, 10.178166389465332, -4.656033039093018, 0.093505859375, -0.242431640625, -0.83154296875
584, 3266207440, -5.802241325378418, 2.8467330932617188, 7.35227108001709, 9.795258522033691, 10.429109573364258, -5.5691914558410645, 0.097412109375, -0.243408203125, -0.830810546875
585, 3266224107, -5.753577709197998, 2.9620349407196045, 7.34035587310791, 11.211286544799805, 11.10827350616455, -7.574093341827393, 0.099609375, -0.245361328125, -0.828369140625
586, 3266240774, -5.534692764282227, 3.1662421226501465, 7.485988140106201, 10.6936674118042, 12.199455261230469, -11.371297836303711, 0.103515625, -0.24853515625, -0.82666015625
587, 3266257441, -5.426608562469482, 3.107644557952881, 7.8026442527771, 12.012242317199707, 18.818811416625977, -16.254579544067383, 0.109619140625, -0.25244140625, -0.82470703125
588, 3266274108, -5.233428478240967, 2.8704605102539062, 8.246976852416992, 7.086995601654053, 33.316307067871094, -18.340917587280273, 0.117919921875, -0.251953125, -0.81787109375
589, 3266290775, -5.265960216522217, 2.788682222366333, 8.242579460144043, 9.241822242736816, 54.75468063354492, -20.959938049316406, 0.132080078125, -0.255615234375, -0.818115234375
590, 3266307442, -5.33283805847168, 2.8956503868103027, 8.306982040405273, 13.172785758972168, 81.58010864257812, -25.60019874572754, 0.151611328125, -0.256103515625, -0.812744140625
591, 3266324109, -5.028602600097656, 3.326960563659668, 8.431828498840332, 19.139734268188477, 116.25784301757812, -32.08501434326172, 0.1767578125, -0.2587890625, -0.803466796875
592, 3266340776, -5.064068794250488, 4.294856548309326, 8.698989868164062, 28.168922424316406, 161.3195343017578, -47.5974006652832, 0.2158203125, -0.262939453125, -0.79345703125
593, 3266357443, -5.058107376098633, 4.402445316314697, 9.537720680236816, 36.49876403808594, 219.3871612548828, -73.17513275146484, 0.265380859375, -0.264404296875, -0.772705078125
594, 3266374110, -5.44922399520874, 3.474238634109497, 8.743043899536133, 34.486881256103516, 297.660400390625, -102.6688003540039, 0.330322265625, -0.26513671875, -0.740966796875
595, 3266390777, -7.039793968200684, 5.077504634857178, 9.522465705871582, 30.704360961914062, 379.81060791015625, -147.63720703125, 0.41650390625, -0.25634765625, -0.697998046875
596, 3266407444, -10.25818157196045, 5.783667087554932, 10.667248725891113, 25.00495147705078, 435.4862060546875, -184.39544677734375, 0.509521484375, -0.238037109375, -0.628173828125
597, 3266424111, -20.27861785888672, 7.640663146972656, 13.180276870727539, 31.680606842041016, 445.2897644042969, -187.9362030029297, 0.60009765625, -0.20849609375, -0.54833984375
598, 3266440778, -22.120210647583008, 7.661200046539307, 14.211468696594238, 29.856170654296875, 378.80987548828125, -177.6705780029297, 0.673095703125, -0.182373046875, -0.464111328125
599, 3266457445, -14.952046394348145, 7.540726184844971, 14.248133659362793, 22.758251190185547, 313.0487365722656, -167.22567749023438, 0.722412109375, -0.152587890625, -0.3857421875
600, 3266474112, -4.1809401512146, 6.0910797119140625, 12.84830379486084, 9.864700317382812, 276.7402038574219, -173.5436248779297, 0.75830078125, -0.119384765625, -0.310302734375
601, 3266490779, -0.408933162689209, 8.544029235839844, 9.179835319519043, -21.26384162902832, 278.52197265625, -172.64588928222656, 0.781982421875, -0.080322265625, -0.238525390625
602, 3266507446, -21.355274200439453, 13.283853530883789, 22.92793083190918, -24.334632873535156, 132.55921936035156, -76.07295227050781, 0.794189453125, -0.055908203125, -0.182373046875
603, 3266524113, -11.13815975189209, 10.836647033691406, 19.224239349365234, -48.182594299316406, -91.99723052978516, 14.08340072631836, 0.78466796875, -0.05908203125, -0.18212890625
604, 3266540780, -2.3904507160186768, 6.122374534606934, 11.177687644958496, -76.9421615600586, -194.83517456054688, 50.79400634765625, 0.765869140625, -0.06494140625, -0.207763671875
605, 3266557447, 0.1100335419178009, 3.217417001724243, 6.55176305770874, -90.47900390625, -219.4110107421875, 51.43976593017578, 0.749267578125, -0.072509765625, -0.238037109375
606, 3266574114, 0.6888584494590759, 1.2312434911727905, 4.21498966217041, -81.90333557128906, -217.4566650390625, 50.01456832885742, 0.73388671875, -0.0791015625, -0.267333984375
607, 3266590781, -0.4440045952796936, 0.7248338460922241, 4.220061302185059, -53.0515251159668, -205.18373107910156, 55.921871185302734, 0.71875, -0.0869140625, -0.29833984375
608, 3266607448, -3.4476394653320312, 2.3160059452056885, 5.491671562194824, -31.166109085083008, -204.48524475097656, 64.79975891113281, 0.70751953125, -0.098876953125, -0.32177734375
609, 3266624115, -6.550901412963867, 3.982548475265503, 6.937439441680908, -31.389432907104492, -232.2689666748047, 75.9813232421875, 0.6962890625, -0.11572265625, -0.352294921875
610, 3266640782, -7.447353363037109, 4.5094523429870605, 7.215681076049805, -45.10264205932617, -271.784912109375, 89.51144409179688, 0.686279296875, -0.136962890625, -0.400390625
611, 3266657449, -7.076644420623779, 4.073469161987305, 6.538080215454102, -54.50380325317383, -295.6366882324219, 102.99291229248047, 0.66796875, -0.160888671875, -0.465576171875
612, 3266674116, -7.388663291931152, 3.53938364982605, 5.949763298034668, -54.300533294677734, -302.4910888671875, 113.95821380615234, 0.626220703125, -0.1875, -0.54296875
613, 3266690783, -7.77083683013916, 2.9175422191619873, 5.884366035461426, -43.38663101196289, -297.3504638671875, 119.80168151855469, 0.565185546875, -0.21484375, -0.6162109375
614, 3266707450, -8.3484525680542, 2.3874127864837646, 5.766576766967773, -25.518930435180664, -280.4664306640625, 116.15502166748047, 0.489501953125, -0.235595703125, -0.671630859375
615, 3266724117, -10.033037185668945, 2.3685436248779297, 6.887186050415039, -4.019064903259277, -250.33544921875, 101.52198028564453, 0.412841796875, -0.252685546875, -0.694091796875
616, 3266740784, -15.037672996520996, 3.841186046600342, 10.585987091064453, 20.29413414001465, -235.78744506835938, 85.6319808959961, 0.35205078125, -0.266357421875, -0.692626953125
617, 3266757451, -20.145357131958008, 5.006852149963379, 12.260886192321777, 44.01813888549805, -253.8555450439453, 77.39218139648438, 0.30615234375, -0.28515625, -0.686767578125
618, 3266774118, -23.1112117767334, 4.792760372161865, 9.30526351928711, 58.3370361328125, -268.76434326171875, 74.82185363769531, 0.275146484375, -0.306640625, -0.69189453125
619, 3266790785, -26.220510482788086, 4.156829357147217, 4.313302516937256, 65.42875671386719, -261.52117919921875, 69.05260467529297, 0.243896484375, -0.33203125, -0.708740234375
620, 3266807452, -29.514543533325195, 3.1895627975463867, -0.5357609987258911, 70.85035705566406, -251.51361083984375, 72.85325622558594, 0.201904296875, -0.3583984375, -0.73583984375
621, 3266824119, -28.015390396118164, -0.24391084909439087, -6.409391403198242, 74.54963684082031, -228.88882446289062, 87.63057708740234, 0.146484375, -0.384765625, -0.763427734375
622, 3266840786, -26.26293182373047, -8.184464454650879, -12.051721572875977, 65.3611831665039, -148.9852752685547, 78.45381927490234, 0.089599609375, -0.41455078125, -0.77587890625
623, 3266857453, -26.31840705871582, -14.576951026916504, -20.304662704467773, 39.29154968261719, -20.681142807006836, 18.147174835205078, 0.066650390625, -0.431640625, -0.784912109375
624, 3266874120, -26.3942813873291, -12.993703842163086, -17.173479080200195, -35.53373336791992, 85.0805892944336, -88.45036315917969, 0.083740234375, -0.42919921875, -0.793212890625
625, 3266890787, -13.662967681884766, -1.8735487461090088, 9.14507007598877, -63.45027160644531, 119.36229705810547, -147.83363342285156, 0.132568359375, -0.4140625, -0.802001953125
626, 3266907454, -7.680047035217285, 14.88509464263916, 14.377998352050781, -59.24619674682617, 53.04695129394531, -101.46990966796875, 0.164794921875, -0.39794921875, -0.814208984375
627, 3266924121, -2.3595101833343506, 2.37555193901062, 4.578914165496826, -44.161338806152344, 120.32369995117188, -45.7709846496582, 0.197021484375, -0.385498046875, -0.819580078125
628, 3266940788, -11.813268661499023, -6.433928966522217, 12.515915870666504, -19.248987197875977, 132.93081665039062, -18.863811492919922, 0.233154296875, -0.38232421875, -0.818115234375
629, 3266957455, -16.9396915435791, 4.768437385559082, 13.867183685302734, -27.55937385559082, 77.29320526123047, -63.13943099975586, 0.268310546875, -0.3779296875, -0.81494140625
630, 3266974122, -8.78191089630127, 3.4776391983032227, 7.013923168182373, -35.18851852416992, 32.17971420288086, -24.167633056640625, 0.282958984375, -0.364501953125, -0.818359375
631, 3266990789, -6.713447093963623, 1.4323433637619019, 9.214224815368652, -18.280771255493164, 5.394129276275635, -15.732123374938965, 0.286865234375, -0.362060546875, -0.819580078125
632, 3267007456, -6.1212053298950195, 2.2962825298309326, 8.534192085266113, -7.801760673522949, 6.660848140716553, -5.299859523773193, 0.289306640625, -0.358642578125, -0.8212890625
633, 3267024123, -6.000491142272949, 2.4705262184143066, 7.938083648681641, -2.7438249588012695, 4.69072961807251, -3.0868687629699707, 0.290283203125, -0.357666015625, -0.82177734375
634, 3267040790, -5.762939453125, 2.290884494781494, 7.964344024658203, 0.6974531412124634, 4.210017681121826, -1.5315628051757812, 0.29296875, -0.356201171875, -0.820556640625
635, 3267057457, -5.599948883056641, 2.442695140838623, 7.992950916290283, 3.2315735816955566, 5.645852565765381, -1.3916021585464478, 0.29345703125, -0.360107421875, -0.819580078125
636, 3267074124, -5.577033996582031, 2.517407178878784, 7.880112171173096, 4.879822254180908, 7.3559441566467285, -1.6893500089645386, 0.29736328125, -0.36328125, -0.81787109375
637, 3267090791, -5.587100028991699, 2.6915283203125, 7.744314193725586, 4.305054187774658, 8.342602729797363, -2.262665033340454, 0.300537109375, -0.365234375, -0.819091796875
638, 3267107458, -5.559322834014893, 2.8080573081970215, 7.611876964569092, 1.6923532485961914, 7.781517505645752, -3.2347183227539062, 0.302001953125, -0.365234375, -0.816162109375
639, 3267124125, -5.599528789520264, 2.8083348274230957, 7.551511764526367, -0.5998879671096802, 6.409982681274414, -4.963255405426025, 0.304931640625, -0.365234375, -0.814453125
640, 3267140792, -5.715565204620361, 2.5422520637512207, 7.64165735244751, -1.2071781158447266, 4.554906368255615, -5.145874500274658, 0.308837890625, -0.36572265625, -0.8134765625
641, 3267157459, -5.657804489135742, 2.3801770210266113, 7.695342063903809, -0.24127162992954254, 3.8302578926086426, -3.961683511734009, 0.308837890625, -0.3642578125, -0.81396484375
642, 3267174126, -5.541329383850098, 2.468047857284546, 7.725033760070801, 1.226714015007019, 4.0853095054626465, -3.39327335357666, 0.309326171875, -0.36669921875, -0.813232421875
643, 3267190793, -5.616016864776611, 2.5235652923583984, 7.685832500457764, 3.3042755126953125, 5.5937180519104, -3.0347979068756104, 0.31103515625, -0.369384765625, -0.811767578125
644, 3267207460, -5.664510250091553, 2.547621965408325, 7.625940799713135, 4.373234272003174, 6.450130462646484, -2.235105276107788, 0.3154296875, -0.371337890625, -0.81103515625
645, 3267224127, -5.615416049957275, 2.7341673374176025, 7.516109943389893, 4.613097667694092, 6.645772457122803, -2.186082363128662, 0.31640625, -0.373291015625, -0.810546875
646, 3267240794, -5.7193989753723145, 2.7759926319122314, 7.467037200927734, 4.107822895050049, 6.0238447189331055, -3.1581358909606934, 0.3173828125, -0.374267578125, -0.807861328125
647, 3267257461, -5.700806140899658, 2.7697501182556152, 7.459747314453125, 3.8832767009735107, 5.442514419555664, -4.184590816497803, 0.31884765625, -0.375244140625, -0.806396484375
648, 3267274128, -5.724630355834961, 2.6706383228302, 7.50870943069458, 4.55215311050415, 5.922586441040039, -4.372217178344727, 0.321533203125, -0.375732421875, -0.806640625
649, 3267290795, -5.659258842468262, 2.7142820358276367, 7.51267147064209, 5.44703483581543, 7.2090229988098145, -4.394487380981445, 0.323486328125, -0.3779296875, -0.80517578125
650, 3267307462, -5.587881565093994, 2.7871830463409424, 7.55720329284668, 6.148311614990234, 9.410538673400879, -5.43027925491333, 0.328125, -0.37890625, -0.805908203125
651, 3267324129, -5.527845859527588, 2.7944869995117188, 7.572731971740723, 6.643062591552734, 12.493789672851562, -6.530412197113037, 0.32958984375, -0.3818359375, -0.80126953125
652, 3267340796, -5.459469318389893, 2.7313103675842285, 7.647167682647705, 10.819498062133789, 18.132396697998047, -9.769086837768555, 0.33447265625, -0.3837890625, -0.799072265625
