Yaw,Pitch,Roll,MagX,MagY,MagZ,AccelX,AccelY,AccelZ,GyroX,GyroY,GyroZ
-146.027,-030.380,+009.478,+0.279,+0.794,+2.484,-04.8120,-01.3810,-08.0510,-00.002521,-00.007678,+00.005750
-146.023,-030.386,+009.477,+0.279,+0.804,+2.463,-04.8100,-01.3550,-08.0700,+00.002112,-00.001904,+00.002820
-146.020,-030.395,+009.478,+0.275,+0.784,+2.457,-04.7900,-01.3380,-08.0200,-00.000312,-00.018119,+00.003534
-146.020,-030.427,+009.475,+0.289,+0.813,+2.479,-04.8280,-01.2890,-08.1040,-00.004581,-00.028276,+00.005859
-146.015,-030.453,+009.472,+0.289,+0.803,+2.442,-04.8230,-01.3490,-08.0580,+00.002509,-00.018222,+00.005524
-146.014,-030.466,+009.483,+0.279,+0.789,+2.468,-04.8340,-01.3980,-08.0480,+00.011225,-00.012726,+00.003090
-146.010,-030.484,+009.487,+0.279,+0.789,+2.485,-04.7940,-01.3660,-08.0580,+00.004888,-00.016764,+00.006759
-146.006,-030.510,+009.495,+0.280,+0.828,+2.468,-04.8620,-01.3050,-08.0210,-00.002183,-00.021826,+00.010061
-145.999,-030.531,+009.493,+0.284,+0.813,+2.468,-04.8230,-01.3460,-08.0450,+00.003660,-00.011377,+00.007375
-145.990,-030.536,+009.495,+0.284,+0.769,+2.469,-04.8060,-01.3580,-08.0710,+00.006913,-00.003260,+00.004693
-145.983,-030.543,+009.498,+0.284,+0.813,+2.452,-04.7970,-01.3060,-08.0650,+00.002908,-00.006055,+00.007140
-145.976,-030.551,+009.501,+0.280,+0.828,+2.490,-04.8260,-01.3730,-08.1110,+00.010420,+00.000436,+00.006996
-145.970,-030.575,+009.500,+0.270,+0.784,+2.479,-04.8230,-01.3300,-08.0660,-00.003332,-00.022713,+00.007033
-145.963,-030.602,+009.491,+0.275,+0.804,+2.463,-04.8330,-01.3590,-08.0240,-00.002515,-00.016156,+00.010170
-145.953,-030.615,+009.489,+0.275,+0.789,+2.468,-04.8300,-01.3700,-08.0620,+00.003323,-00.007174,+00.008041
-145.945,-030.643,+009.487,+0.289,+0.798,+2.463,-04.8580,-01.3500,-08.0340,-00.001128,-00.029861,+00.010894
-145.938,-030.678,+009.481,+0.284,+0.799,+2.474,-04.8430,-01.3340,-08.0310,-00.001067,-00.024735,+00.010990
-145.927,-030.704,+009.477,+0.275,+0.789,+2.441,-04.8550,-01.3450,-08.0490,+00.002134,-00.019009,+00.010646
-145.920,-030.732,+009.477,+0.284,+0.774,+2.485,-04.8520,-01.3660,-08.0140,+00.001739,-00.026799,+00.010073
-145.914,-030.766,+009.478,+0.293,+0.793,+2.458,-04.8490,-01.3600,-08.0380,+00.002260,-00.028204,+00.010449
-145.909,-030.797,+009.482,+0.293,+0.794,+2.469,-04.8580,-01.3350,-08.0210,+00.003978,-00.027525,+00.007669
-145.906,-030.823,+009.488,+0.279,+0.784,+2.468,-04.8690,-01.3450,-08.0250,+00.004888,-00.018430,+00.006404
-145.902,-030.850,+009.493,+0.293,+0.813,+2.458,-04.8660,-01.3410,-07.9920,+00.006125,-00.021379,+00.006741
-145.897,-030.874,+009.499,+0.284,+0.794,+2.469,-04.8850,-01.3420,-08.0190,+00.007648,-00.020977,+00.005725
-145.893,-030.896,+009.506,+0.284,+0.769,+2.463,-04.8740,-01.3630,-08.0130,+00.007693,-00.016994,+00.006109
-145.890,-030.917,+009.515,+0.293,+0.803,+2.442,-04.8390,-01.3620,-08.0080,+00.008612,-00.018222,+00.004473
-145.886,-030.936,+009.520,+0.289,+0.798,+2.452,-04.8910,-01.2860,-08.0070,+00.007653,-00.014911,+00.004336
-145.885,-030.954,+009.529,+0.284,+0.789,+2.469,-04.9060,-01.3380,-08.0500,+00.009254,-00.011925,+00.002327
-145.883,-030.966,+009.537,+0.289,+0.808,+2.458,-04.8660,-01.3580,-08.0430,+00.009723,-00.015862,+00.001781
-145.882,-030.976,+009.543,+0.298,+0.803,+2.453,-04.8760,-01.3350,-08.0120,+00.005798,-00.003102,+00.001852
-145.885,-030.988,+009.553,+0.293,+0.789,+2.469,-04.9070,-01.3120,-08.0110,+00.009212,-00.005840,-00.002372
-145.884,-030.984,+009.558,+0.298,+0.798,+2.453,-04.8710,-01.3210,-08.0080,+00.006986,-00.000210,-00.001451
-145.885,-030.981,+009.565,+0.279,+0.784,+2.458,-04.8850,-01.3520,-07.9950,+00.003896,+00.004936,+00.000594
-145.886,-030.980,+009.573,+0.289,+0.798,+2.463,-04.9020,-01.3550,-08.0100,+00.006153,-00.001167,+00.000798
-145.884,-030.977,+009.578,+0.293,+0.838,+2.469,-04.8830,-01.3550,-08.0190,+00.002805,+00.005345,+00.001181
-145.882,-030.975,+009.580,+0.293,+0.793,+2.453,-04.9110,-01.3500,-07.9980,+00.001285,+00.006254,+00.000938
-145.881,-030.965,+009.580,+0.303,+0.784,+2.475,-04.8850,-01.3440,-07.9840,-00.000366,+00.012020,-00.000263
-145.879,-030.949,+009.577,+0.293,+0.808,+2.463,-04.8760,-01.3370,-08.0080,-00.001369,+00.015270,+00.000297
-145.874,-030.933,+009.572,+0.284,+0.779,+2.479,-04.8530,-01.3380,-08.0600,-00.002103,+00.010995,+00.001660
-145.870,-030.926,+009.569,+0.289,+0.799,+2.480,-04.8490,-01.3550,-07.9930,-00.000105,+00.004620,+00.002258
-145.867,-030.924,+009.569,+0.298,+0.808,+2.447,-04.8640,-01.3630,-07.9960,+00.001038,+00.000235,+00.002198
-145.866,-030.926,+009.570,+0.279,+0.789,+2.452,-04.8880,-01.3750,-08.0390,+00.001487,-00.000772,+00.000311
-145.863,-030.928,+009.569,+0.293,+0.789,+2.480,-04.8800,-01.3600,-07.9810,-00.000040,+00.001031,+00.001635
-145.861,-030.926,+009.569,+0.279,+0.823,+2.463,-04.8790,-01.3690,-08.0240,-00.001091,+00.001826,+00.002021
-145.858,-030.925,+009.566,+0.298,+0.788,+2.458,-04.8930,-01.3690,-08.0360,-00.002063,-00.000832,+00.003329
-145.853,-030.924,+009.562,+0.298,+0.833,+2.485,-04.8820,-01.3840,-08.0260,-00.003072,+00.001338,+00.004432
-145.845,-030.921,+009.554,+0.303,+0.798,+2.448,-04.9040,-01.2950,-08.0800,-00.003150,+00.001208,+00.005297
-145.841,-030.921,+009.549,+0.284,+0.828,+2.474,-04.8970,-01.3510,-08.0640,-00.001663,-00.000522,+00.002791
-145.837,-030.925,+009.544,+0.293,+0.784,+2.458,-04.8750,-01.3610,-08.0240,-00.002983,-00.002960,+00.003498
-145.833,-030.929,+009.539,+0.293,+0.798,+2.458,-04.9020,-01.3820,-08.0060,-00.003547,-00.002248,+00.002621
-145.833,-030.948,+009.534,+0.298,+0.798,+2.464,-04.9030,-01.3490,-08.0080,-00.005404,-00.012684,+00.004193
-145.831,-030.959,+009.528,+0.303,+0.789,+2.480,-04.9150,-01.3620,-08.0560,-00.003769,-00.008108,+00.001706
-145.830,-030.973,+009.526,+0.289,+0.803,+2.442,-04.9550,-01.3640,-08.1090,+00.005077,-00.020934,+00.004941
-145.828,-030.995,+009.517,+0.289,+0.794,+2.463,-04.9130,-01.3460,-08.0270,-00.005653,-00.012146,+00.003711
-145.823,-031.009,+009.508,+0.289,+0.808,+2.469,-04.8640,-01.3410,-08.0490,-00.003863,-00.009461,+00.005120
-145.818,-031.019,+009.501,+0.293,+0.808,+2.463,-04.8810,-01.3450,-07.9990,-00.004004,-00.011299,+00.004632
-145.817,-031.041,+009.495,+0.303,+0.788,+2.459,-04.9070,-01.3430,-08.0400,-00.005560,-00.019875,+00.005322
-145.813,-031.059,+009.488,+0.293,+0.804,+2.490,-04.9000,-01.3370,-08.0350,-00.003870,-00.013658,+00.005959
-145.808,-031.067,+009.481,+0.293,+0.789,+2.453,-04.9050,-01.3320,-08.0050,-00.009166,-00.009183,+00.006692
-145.802,-031.079,+009.474,+0.293,+0.813,+2.453,-04.9120,-01.3110,-08.0210,-00.004091,-00.007740,+00.005815
-145.797,-031.094,+009.464,+0.303,+0.789,+2.480,-04.9150,-01.3090,-08.0440,-00.003562,-00.012934,+00.006751
-145.789,-031.104,+009.457,+0.303,+0.813,+2.453,-04.8990,-01.3360,-08.0100,-00.001790,-00.008500,+00.007448
-145.783,-031.114,+009.454,+0.303,+0.793,+2.459,-04.8900,-01.3280,-08.0240,-00.000548,-00.007967,+00.005715
-145.779,-031.128,+009.449,+0.303,+0.793,+2.453,-04.8920,-01.3210,-08.0040,-00.001326,-00.011446,+00.004905
-145.773,-031.142,+009.443,+0.307,+0.793,+2.464,-04.9430,-01.3240,-08.0360,-00.002861,-00.007061,+00.005570
-145.770,-031.148,+009.441,+0.303,+0.788,+2.459,-04.8980,-01.3170,-07.9890,+00.001269,-00.000893,+00.002686
-145.768,-031.151,+009.443,+0.293,+0.784,+2.469,-04.9040,-01.3230,-08.0120,+00.001761,-00.004391,+00.002036
-145.765,-031.162,+009.440,+0.298,+0.798,+2.458,-04.9130,-01.3360,-08.0070,-00.002930,-00.009873,+00.005744
-145.763,-031.184,+009.434,+0.298,+0.803,+2.475,-04.9220,-01.3860,-08.0050,-00.005497,-00.013925,+00.006949
-145.759,-031.200,+009.431,+0.303,+0.793,+2.469,-04.9180,-01.3960,-08.0050,+00.002210,-00.011343,+00.004385
-145.757,-031.208,+009.433,+0.312,+0.793,+2.459,-04.9310,-01.3780,-07.9830,+00.004784,-00.006594,+00.002524
-145.756,-031.215,+009.436,+0.303,+0.803,+2.469,-04.9160,-01.3410,-07.9930,+00.000449,-00.004631,+00.003519
-145.755,-031.222,+009.436,+0.303,+0.783,+2.459,-04.9140,-01.3200,-07.9940,+00.000339,-00.006281,+00.001810
-145.756,-031.229,+009.438,+0.307,+0.803,+2.464,-04.9480,-01.3350,-07.9850,+00.004371,-00.005792,-00.000631
-145.758,-031.231,+009.445,+0.303,+0.788,+2.469,-04.9370,-01.3090,-08.0110,+00.005705,-00.000099,-00.001741
-145.761,-031.228,+009.451,+0.303,+0.789,+2.475,-04.9280,-01.3180,-07.9830,+00.003730,+00.003647,-00.002430
-145.764,-031.221,+009.455,+0.303,+0.818,+2.448,-04.9080,-01.2810,-08.0110,+00.003086,+00.009295,-00.004050
-145.764,-031.214,+009.461,+0.303,+0.823,+2.453,-04.9130,-01.3440,-08.0050,+00.004705,+00.003371,-00.001702
-145.766,-031.209,+009.466,+0.303,+0.793,+2.469,-04.9190,-01.3090,-08.0430,+00.002340,+00.007664,-00.002506
-145.768,-031.203,+009.470,+0.298,+0.803,+2.453,-04.8900,-01.3600,-07.9920,+00.002588,+00.005135,-00.001917
-145.771,-031.196,+009.476,+0.303,+0.788,+2.459,-04.9170,-01.3040,-08.0200,+00.002629,+00.004429,-00.002605
-145.773,-031.182,+009.481,+0.298,+0.784,+2.464,-04.8730,-01.3220,-07.9900,+00.005259,+00.014049,-00.004868
-145.780,-031.179,+009.490,+0.307,+0.793,+2.464,-04.9170,-01.3020,-08.0000,+00.006521,+00.001309,-00.005534
-145.788,-031.173,+009.501,+0.293,+0.794,+2.464,-04.9170,-01.3370,-08.0460,+00.005804,+00.008879,-00.005317
-145.794,-031.167,+009.511,+0.293,+0.789,+2.485,-04.9310,-01.3500,-08.0260,+00.003556,+00.002390,-00.003563
-145.801,-031.162,+009.518,+0.303,+0.823,+2.469,-04.9000,-01.3220,-07.9960,+00.003158,+00.005018,-00.006272
-145.806,-031.153,+009.524,+0.298,+0.788,+2.458,-04.9060,-01.3650,-08.0040,+00.003452,+00.008372,-00.004565
-145.812,-031.143,+009.530,+0.298,+0.793,+2.464,-04.8920,-01.3200,-08.0280,+00.003123,+00.005119,-00.006188
-145.818,-031.133,+009.537,+0.303,+0.818,+2.453,-04.9220,-01.3110,-07.9980,+00.004037,+00.011827,-00.005892
-145.824,-031.124,+009.543,+0.303,+0.833,+2.458,-04.9260,-01.3240,-07.9930,+00.002795,+00.005387,-00.005954
-145.829,-031.111,+009.549,+0.293,+0.813,+2.485,-04.9070,-01.3170,-08.0300,+00.003099,+00.010570,-00.007366
-145.836,-031.098,+009.556,+0.298,+0.818,+2.458,-04.9190,-01.3400,-08.0270,+00.002469,+00.015737,-00.007267
-145.842,-031.070,+009.559,+0.298,+0.788,+2.453,-04.8820,-01.3670,-07.9780,-00.001428,+00.027846,-00.008272
-145.846,-031.038,+009.555,+0.289,+0.784,+2.469,-04.9000,-01.3900,-07.9910,-00.014872,+00.031554,-00.003982
-145.846,-030.995,+009.546,+0.298,+0.803,+2.458,-04.8520,-01.4130,-08.0070,-00.010167,+00.044438,-00.004315
-145.840,-030.952,+009.534,+0.293,+0.784,+2.453,-04.8710,-01.3620,-08.0000,-00.009092,+00.035234,+00.001915
-145.835,-030.917,+009.522,+0.289,+0.789,+2.480,-04.8730,-01.3360,-08.0210,-00.007652,+00.024676,-00.001473
-145.832,-030.897,+009.512,+0.298,+0.803,+2.437,-04.8800,-01.3260,-08.0030,-00.004808,+00.014675,-00.002096
-145.831,-030.882,+009.507,+0.284,+0.828,+2.447,-04.8610,-01.3590,-08.0210,-00.002116,+00.012000,-00.002532
-145.833,-030.873,+009.507,+0.284,+0.818,+2.474,-04.8680,-01.3340,-08.0380,-00.000414,+00.006419,-00.003364
-145.835,-030.855,+009.512,+0.293,+0.818,+2.436,-04.8520,-01.3390,-08.0230,+00.001565,+00.006257,-00.004668
-145.840,-030.849,+009.515,+0.303,+0.788,+2.459,-04.8630,-01.3270,-08.0210,+00.001626,+00.004711,-00.004235
-145.844,-030.840,+009.519,+0.289,+0.779,+2.480,-04.8460,-01.3440,-08.0250,+00.000888,+00.007475,-00.004201
-145.846,-030.814,+009.522,+0.298,+0.798,+2.448,-04.8110,-01.3480,-08.0210,+00.000654,+00.011032,-00.004329
-145.846,-030.805,+009.521,+0.284,+0.803,+2.458,-04.8480,-01.3600,-08.0480,-00.002455,+00.007447,-00.000811
-145.845,-030.797,+009.518,+0.275,+0.794,+2.457,-04.8660,-01.3580,-08.0350,-00.003647,+00.006577,+00.000271
-145.844,-030.789,+009.513,+0.293,+0.818,+2.458,-04.8690,-01.3510,-08.0330,-00.004223,+00.007548,+00.000328
-145.842,-030.781,+009.508,+0.284,+0.784,+2.447,-04.8380,-01.3420,-08.0480,-00.002960,+00.006457,-00.000640
-145.842,-030.775,+009.505,+0.293,+0.789,+2.469,-04.8130,-01.3550,-08.0450,-00.002897,+00.003639,+00.000217
-145.841,-030.773,+009.502,+0.280,+0.828,+2.463,-04.8480,-01.3480,-08.0350,-00.001141,+00.001217,+00.001560
-145.841,-030.771,+009.502,+0.284,+0.789,+2.452,-04.8490,-01.3680,-08.0090,-00.001546,+00.001868,+00.000306
-145.839,-030.769,+009.497,+0.293,+0.794,+2.464,-04.8610,-01.3270,-08.0490,-00.001686,+00.002777,+00.000873
-145.838,-030.767,+009.494,+0.284,+0.803,+2.458,-04.8610,-01.3300,-08.0020,-00.001744,+00.001639,+00.000039
-145.836,-030.767,+009.490,+0.275,+0.799,+2.452,-04.8620,-01.3540,-08.0430,-00.001450,+00.000184,+00.002577
-145.833,-030.769,+009.486,+0.279,+0.779,+2.469,-04.8720,-01.3240,-08.0430,-00.002920,+00.001343,+00.001211
-145.831,-030.768,+009.482,+0.289,+0.833,+2.463,-04.8470,-01.3480,-08.0220,-00.003971,+00.000649,+00.001990
-145.827,-030.767,+009.475,+0.275,+0.799,+2.457,-04.8500,-01.3120,-08.0390,-00.003302,+00.001953,+00.001930
-145.823,-030.768,+009.467,+0.284,+0.803,+2.463,-04.8770,-01.3010,-08.0620,-00.002336,-00.000385,+00.001026
-145.822,-030.771,+009.465,+0.298,+0.798,+2.475,-04.8580,-01.3680,-08.0320,-00.000168,-00.001764,+00.001151
-145.823,-030.773,+009.465,+0.293,+0.808,+2.442,-04.8440,-01.3440,-08.0070,-00.001137,-00.003401,+00.000385
-145.824,-030.776,+009.464,+0.289,+0.808,+2.474,-04.8680,-01.3220,-08.0370,-00.001553,-00.005224,+00.000593
-145.825,-030.782,+009.465,+0.293,+0.803,+2.447,-04.8550,-01.3300,-08.0220,+00.000931,-00.004289,-00.000722
-145.826,-030.786,+009.465,+0.279,+0.799,+2.463,-04.8490,-01.3380,-08.0400,-00.000702,-00.003291,+00.000702
-145.828,-030.791,+009.465,+0.289,+0.799,+2.469,-04.8050,-01.3510,-07.8740,-00.001467,+00.000110,-00.001068
-145.828,-030.794,+009.463,+0.279,+0.808,+2.458,-04.8270,-01.1570,-07.9230,-00.002830,-00.005661,+00.002802
-145.830,-030.795,+009.464,+0.284,+0.779,+2.463,-04.8860,-01.3630,-08.0620,-00.000145,-00.001447,-00.001156
-145.833,-030.797,+009.466,+0.293,+0.798,+2.469,-04.8500,-01.3720,-08.0320,-00.000047,-00.001942,-00.000301
-145.833,-030.804,+009.464,+0.284,+0.818,+2.431,-04.8480,-01.2670,-08.0440,-00.002605,-00.007455,+00.000953
-145.835,-030.818,+009.462,+0.284,+0.789,+2.447,-04.8950,-01.3500,-08.0440,-00.006079,-00.007975,+00.002101
-145.833,-030.820,+009.459,+0.289,+0.803,+2.469,-04.8720,-01.3460,-08.0540,-00.002621,+00.000766,+00.001732
-145.830,-030.821,+009.454,+0.289,+0.789,+2.453,-04.8580,-01.3550,-08.0200,-00.003980,-00.001794,+00.002143
-145.830,-030.829,+009.448,+0.293,+0.784,+2.464,-04.8440,-01.3200,-08.0400,-00.004332,-00.003676,+00.002164
-145.827,-030.829,+009.442,+0.303,+0.828,+2.469,-04.8740,-01.3390,-08.0170,-00.004600,+00.001344,+00.002608
-145.825,-030.828,+009.438,+0.284,+0.813,+2.452,-04.8450,-01.3380,-08.0120,-00.002270,-00.000024,+00.001377
-145.824,-030.827,+009.435,+0.293,+0.808,+2.437,-04.8640,-01.3380,-08.0400,-00.001793,+00.002047,-00.000510
-145.822,-030.824,+009.433,+0.289,+0.798,+2.458,-04.8480,-01.3370,-08.0450,-00.000967,+00.001751,+00.000650
-145.821,-030.821,+009.431,+0.293,+0.798,+2.464,-04.8690,-01.3320,-08.0290,-00.001338,+00.004116,+00.001000
-145.819,-030.815,+009.429,+0.280,+0.843,+2.473,-04.8750,-01.3320,-08.0270,-00.001031,+00.004311,+00.000798
-145.816,-030.814,+009.427,+0.293,+0.784,+2.485,-04.8520,-01.3300,-08.0240,-00.000528,+00.001323,-00.000138
-145.814,-030.813,+009.423,+0.279,+0.799,+2.458,-04.8610,-01.3040,-08.0590,-00.000658,-00.000339,+00.001279
-145.811,-030.813,+009.421,+0.289,+0.798,+2.442,-04.8590,-01.3370,-08.0400,-00.000503,-00.000079,+00.002056
-145.809,-030.815,+009.420,+0.284,+0.769,+2.480,-04.8600,-01.3690,-08.0410,-00.000415,-00.001328,+00.001781
-145.808,-030.819,+009.420,+0.289,+0.794,+2.453,-04.8720,-01.3230,-08.0350,+00.001805,-00.004111,-00.000138
-145.807,-030.825,+009.422,+0.284,+0.799,+2.479,-04.8720,-01.3390,-08.0450,+00.002036,-00.005217,-00.000361
-145.809,-030.832,+009.427,+0.289,+0.779,+2.480,-04.8650,-01.3590,-08.0310,+00.002943,-00.006250,+00.000311
-145.809,-030.840,+009.429,+0.289,+0.813,+2.463,-04.8480,-01.3310,-08.0450,+00.001670,-00.006905,+00.001458
-145.813,-030.848,+009.433,+0.289,+0.774,+2.447,-04.8560,-01.3240,-08.0170,+00.002462,-00.007933,-00.002107
-145.816,-030.857,+009.438,+0.298,+0.788,+2.458,-04.8680,-01.3450,-08.0290,+00.002064,-00.008454,-00.001571
-145.818,-030.867,+009.444,+0.275,+0.809,+2.468,-04.8520,-01.3390,-08.0560,+00.003590,-00.010979,+00.001220
-145.817,-030.878,+009.448,+0.303,+0.808,+2.453,-04.9030,-01.3350,-08.0700,+00.003650,-00.012910,+00.000539
-145.821,-030.893,+009.456,+0.289,+0.804,+2.490,-04.8850,-01.3760,-08.0410,+00.006147,-00.015008,-00.000404
-145.823,-030.906,+009.461,+0.289,+0.793,+2.442,-04.8940,-01.3390,-07.9850,+00.006125,-00.011726,-00.000989
-145.826,-030.915,+009.468,+0.298,+0.808,+2.469,-04.8730,-01.3660,-08.0450,+00.003928,-00.004852,-00.000938
-145.827,-030.914,+009.475,+0.298,+0.808,+2.485,-04.9060,-01.3430,-08.0530,+00.005136,+00.007471,-00.001299
-145.826,-030.894,+009.481,+0.284,+0.813,+2.458,-04.8590,-01.3470,-07.9550,+00.006364,+00.005428,-00.001625
-145.825,-030.884,+009.487,+0.293,+0.803,+2.458,-04.8280,-01.3530,-08.0250,+00.006307,+00.010876,+00.000132
-145.825,-030.882,+009.493,+0.289,+0.804,+2.480,-04.9090,-01.3630,-08.0240,+00.005923,+00.003242,-00.003070
-145.827,-030.876,+009.501,+0.289,+0.833,+2.463,-04.8990,-01.3670,-08.0100,+00.006133,+00.005807,-00.003485
-145.830,-030.870,+009.510,+0.279,+0.784,+2.458,-04.8500,-01.3640,-08.0320,+00.007006,+00.007126,-00.003728
-145.834,-030.864,+009.521,+0.293,+0.794,+2.464,-04.8480,-01.3580,-08.0330,+00.007140,+00.007076,-00.003394
-145.837,-030.857,+009.529,+0.279,+0.804,+2.463,-04.8980,-01.3610,-08.0550,+00.005294,+00.006818,-00.002712
-145.838,-030.849,+009.534,+0.284,+0.784,+2.463,-04.9090,-01.3440,-08.0230,+00.002878,+00.006760,-00.000855
-145.839,-030.840,+009.536,+0.293,+0.799,+2.474,-04.8530,-01.3670,-08.0580,+00.001601,+00.005162,-00.001391
-145.841,-030.831,+009.539,+0.284,+0.818,+2.458,-04.8590,-01.3660,-08.0090,+00.002674,+00.003344,-00.002963
-145.843,-030.830,+009.543,+0.293,+0.803,+2.474,-04.8530,-01.3610,-08.0680,+00.002126,-00.000720,-00.001464
-145.844,-030.823,+009.547,+0.279,+0.799,+2.458,-04.8460,-01.3650,-07.9720,+00.002148,+00.006543,-00.001869
-145.846,-030.822,+009.549,+0.298,+0.818,+2.458,-04.8620,-01.3580,-08.0470,+00.001183,+00.000400,-00.001412
-145.846,-030.808,+009.550,+0.289,+0.823,+2.436,-04.8110,-01.3300,-08.0620,+00.001759,+00.013752,-00.001696
-145.849,-030.807,+009.553,+0.293,+0.789,+2.480,-04.8300,-01.3400,-08.0090,+00.000861,-00.002017,-00.000966
-145.849,-030.804,+009.554,+0.293,+0.803,+2.474,-04.8840,-01.3470,-08.0870,+00.001613,+00.013171,-00.000545
-145.850,-030.797,+009.556,+0.279,+0.804,+2.463,-04.8690,-01.3530,-07.9900,+00.000763,-00.001714,-00.001969
-145.850,-030.796,+009.557,+0.293,+0.799,+2.474,-04.8280,-01.3580,-08.0190,+00.001197,+00.001384,-00.000186
-145.848,-030.780,+009.558,+0.279,+0.813,+2.452,-04.8290,-01.3000,-08.0130,+00.001896,+00.006979,-00.000952
-145.850,-030.779,+009.557,+0.293,+0.803,+2.464,-04.8730,-01.3510,-08.0070,-00.001545,+00.001172,-00.001641
-145.849,-030.775,+009.554,+0.284,+0.794,+2.469,-04.8730,-01.3510,-08.0620,-00.003249,+00.003991,+00.000114
-145.848,-030.770,+009.551,+0.279,+0.803,+2.452,-04.8630,-01.3530,-08.0170,-00.001750,+00.005605,-00.000262
-145.847,-030.753,+009.550,+0.280,+0.838,+2.457,-04.8210,-01.3550,-08.0450,-00.000358,+00.001153,-00.002617
-145.847,-030.749,+009.547,+0.284,+0.794,+2.458,-04.8390,-01.3370,-08.0030,-00.002077,+00.003178,-00.001654
-145.846,-030.744,+009.545,+0.284,+0.803,+2.447,-04.8490,-01.3550,-08.0310,-00.002502,+00.004923,-00.001427
-145.846,-030.739,+009.541,+0.284,+0.813,+2.469,-04.8320,-01.3640,-08.0630,-00.002258,+00.003856,-00.000577
-145.846,-030.735,+009.538,+0.279,+0.794,+2.474,-04.8470,-01.3500,-08.0410,-00.002421,+00.002106,-00.001604
-145.844,-030.732,+009.535,+0.293,+0.798,+2.453,-04.8490,-01.3400,-08.0470,-00.003304,+00.003169,+00.000408
-145.844,-030.727,+009.531,+0.289,+0.789,+2.469,-04.8560,-01.3420,-08.0440,-00.003628,+00.006882,-00.001073
-145.847,-030.715,+009.527,+0.284,+0.779,+2.480,-04.8820,-01.3590,-08.1280,-00.003745,+00.013591,-00.004003
-145.849,-030.693,+009.523,+0.279,+0.828,+2.452,-04.8450,-01.3470,-08.0210,-00.005079,+00.022475,-00.005741
-145.860,-030.659,+009.533,+0.284,+0.799,+2.458,-04.7580,-01.5140,-07.8780,-00.001072,+00.036504,-00.016463
-145.863,-030.614,+009.524,+0.275,+0.799,+2.484,-04.7660,-01.4130,-08.0300,-00.018515,+00.039062,-00.005220
-145.860,-030.582,+009.510,+0.284,+0.828,+2.468,-04.7910,-01.3740,-08.0160,-00.012910,+00.023815,-00.000044
-145.856,-030.562,+009.483,+0.275,+0.818,+2.463,-04.8430,-01.3280,-08.0290,-00.035079,+00.016724,+00.001374
-145.862,-030.544,+009.481,+0.279,+0.789,+2.463,-04.8250,-01.3710,-08.0000,-00.005076,+00.013900,-00.009635
-145.878,-030.536,+009.490,+0.275,+0.804,+2.468,-04.8130,-01.2470,-08.0110,+00.003047,-00.014517,-00.016413
-145.900,-030.514,+009.497,+0.270,+0.794,+2.457,-04.8980,-01.2610,-07.8620,-00.033193,+00.019830,-00.017042
-145.930,-030.479,+009.532,+0.279,+0.784,+2.469,-04.8440,-01.4050,-08.2030,+00.025047,+00.044803,-00.030675
-145.959,-030.417,+009.575,+0.280,+0.838,+2.468,-04.8910,-01.3100,-08.1530,+00.033832,+00.046694,-00.030420
-145.991,-030.347,+009.652,+0.270,+0.794,+2.468,-04.8450,-01.4240,-08.1020,+00.065607,+00.066769,-00.035504
-146.014,-030.250,+009.726,+0.279,+0.794,+2.474,-04.6790,-01.4020,-08.0150,+00.044322,+00.079726,-00.026264
-146.027,-030.161,+009.790,+0.261,+0.799,+2.457,-04.7730,-01.3790,-08.1340,+00.058228,+00.076013,-00.024043
-146.060,-030.085,+009.908,+0.261,+0.824,+2.462,-04.9250,-01.3390,-08.2070,+00.126313,+00.064980,-00.047005
-146.135,-029.988,+010.128,+0.261,+0.804,+2.495,-04.6470,-00.9590,-08.3880,+00.168305,+00.092607,-00.073996
-146.220,-029.905,+010.379,+0.261,+0.828,+2.451,-04.6970,-01.4710,-08.0830,+00.194242,+00.050342,-00.082357
-146.326,-029.825,+010.664,+0.256,+0.823,+2.446,-04.6620,-01.3700,-08.1760,+00.208083,+00.056852,-00.096267
-146.441,-029.743,+010.974,+0.247,+0.863,+2.472,-04.6940,-01.4850,-08.0850,+00.223833,+00.052114,-00.101988
-146.563,-029.659,+011.300,+0.252,+0.848,+2.424,-04.6960,-01.6650,-08.1000,+00.246843,+00.053930,-00.107463
-146.699,-029.585,+011.650,+0.238,+0.853,+2.455,-04.5980,-01.7320,-07.9920,+00.245124,+00.035062,-00.116731
-146.851,-029.515,+012.039,+0.238,+0.834,+2.434,-04.6770,-01.6280,-08.0430,+00.281367,+00.026445,-00.131569
-147.033,-029.447,+012.497,+0.242,+0.883,+2.428,-04.6610,-01.7940,-08.0210,+00.339489,+00.030728,-00.157542
-147.241,-029.393,+012.990,+0.242,+0.883,+2.450,-04.6080,-01.7770,-07.9980,+00.351938,+00.006762,-00.169263
-147.462,-029.339,+013.513,+0.233,+0.883,+2.423,-04.6970,-01.7330,-08.1770,+00.367124,+00.013887,-00.176704
-147.692,-029.286,+014.045,+0.229,+0.928,+2.438,-04.5120,-01.9670,-07.8760,+00.361680,-00.004411,-00.181260
-147.920,-029.256,+014.547,+0.229,+0.923,+2.422,-04.5320,-01.8880,-07.8660,+00.334188,-00.029857,-00.174480
-148.152,-029.245,+015.036,+0.233,+0.928,+2.433,-04.5480,-02.0420,-08.0230,+00.320437,-00.037640,-00.169124
-148.366,-029.240,+015.465,+0.224,+0.942,+2.416,-04.4280,-02.5790,-07.6990,+00.262923,-00.042980,-00.148526
-148.532,-029.274,+015.745,+0.224,+0.962,+2.405,-04.0860,-02.5520,-07.4500,+00.113247,-00.078171,-00.084020
-148.597,-029.372,+015.748,+0.229,+0.928,+2.417,-04.3700,-02.6620,-07.5410,-00.101324,-00.092023,+00.007434
-148.570,-029.475,+015.503,+0.229,+0.977,+2.427,-04.8030,-02.4010,-08.0140,-00.244038,-00.064404,+00.057438
-148.499,-029.554,+015.142,+0.247,+0.932,+2.412,-04.6170,-02.4050,-07.7900,-00.307435,-00.051131,+00.081262
-148.403,-029.632,+014.743,+0.233,+0.937,+2.433,-04.7010,-02.0920,-08.0290,-00.302601,-00.044370,+00.090376
-148.305,-029.700,+014.376,+0.238,+0.923,+2.423,-04.7580,-01.9960,-08.1280,-00.256751,-00.030268,+00.084084
-148.231,-029.764,+014.114,+0.229,+0.908,+2.428,-04.7710,-01.9610,-08.1270,-00.159914,-00.053232,+00.057962
-148.188,-029.833,+013.939,+0.247,+0.908,+2.445,-04.7880,-01.9220,-08.1510,-00.115713,-00.042553,+00.040469
-148.158,-029.914,+013.813,+0.242,+0.913,+2.428,-04.8400,-01.9250,-08.1850,-00.080086,-00.070934,+00.037372
-148.137,-030.013,+013.728,+0.247,+0.878,+2.434,-04.7810,-02.0740,-08.0010,-00.060924,-00.085068,+00.041653
-148.118,-030.130,+013.662,+0.243,+0.928,+2.460,-04.7760,-02.0120,-07.9850,-00.047604,-00.095324,+00.039740
-148.085,-030.240,+013.595,+0.256,+0.888,+2.424,-04.7060,-02.0460,-07.9900,-00.044696,-00.083870,+00.052248
-148.030,-030.347,+013.505,+0.256,+0.893,+2.434,-04.7400,-01.9990,-08.0000,-00.056719,-00.087794,+00.068409
-147.954,-030.454,+013.387,+0.252,+0.903,+2.450,-04.8870,-01.9690,-07.9140,-00.077071,-00.069765,+00.082051
-147.865,-030.548,+013.244,+0.266,+0.883,+2.424,-04.8860,-01.8910,-07.9510,-00.092801,-00.050030,+00.086388
-147.746,-030.585,+013.059,+0.261,+0.878,+2.429,-04.8720,-01.8500,-07.9750,-00.122115,+00.016823,+00.101316
-147.594,-030.572,+012.806,+0.270,+0.863,+2.435,-04.8310,-01.8740,-07.9970,-00.172958,+00.047248,+00.114565
-147.401,-030.533,+012.456,+0.270,+0.873,+2.446,-04.7490,-01.9670,-07.9490,-00.251510,+00.082961,+00.149116
-147.149,-030.463,+012.010,+0.261,+0.853,+2.446,-04.6800,-01.8450,-07.9430,-00.285553,+00.095843,+00.182212
-146.880,-030.421,+011.555,+0.261,+0.833,+2.457,-04.5930,-01.6230,-07.8010,-00.260277,+00.055669,+00.192384
-146.631,-030.466,+011.144,+0.256,+0.843,+2.451,-04.6480,-01.4230,-07.9560,-00.252740,-00.038866,+00.195845
-146.360,-030.577,+010.684,+0.280,+0.823,+2.468,-04.7680,-01.4450,-07.9740,-00.300668,-00.057144,+00.235532
-146.026,-030.709,+010.154,+0.279,+0.804,+2.463,-04.6900,-01.5350,-07.8640,-00.301590,-00.104962,+00.276459
-145.688,-030.947,+009.710,+0.289,+0.803,+2.453,-04.7250,-01.3540,-08.0800,-00.192380,-00.203384,+00.288632
-145.363,-031.323,+009.370,+0.312,+0.828,+2.464,-04.7820,-01.1990,-08.2440,-00.125326,-00.312793,+00.296383
-145.032,-031.802,+009.102,+0.317,+0.803,+2.475,-04.6070,-01.3360,-08.1680,-00.059129,-00.414950,+00.326669
-144.590,-032.450,+008.853,+0.340,+0.798,+2.444,-04.6210,-01.5260,-08.1800,+00.020249,-00.578012,+00.469929
-144.080,-033.443,+008.601,+0.386,+0.788,+2.452,-05.1310,-01.3900,-07.9630,+00.009251,-00.933848,+00.450994
-143.711,-034.914,+008.398,+0.419,+0.782,+2.464,-04.7840,-01.2410,-08.0530,-00.017815,-01.450279,+00.444073
-143.480,-036.996,+008.196,+0.484,+0.801,+2.429,-05.3040,-01.0140,-08.1970,-00.117089,-01.919095,+00.393243
-143.280,-039.626,+007.861,+0.576,+0.761,+2.428,-04.6910,-01.0450,-07.3880,-00.243370,-02.525857,+00.520404
-142.751,-043.023,+007.149,+0.669,+0.745,+2.405,-04.8510,-01.3270,-08.0730,-00.287774,-03.032374,+00.890692
-141.466,-046.873,+005.821,+0.799,+0.738,+2.340,-05.8480,-01.5910,-07.9230,-00.476147,-03.403454,+01.319999
-139.317,-051.198,+003.525,+0.952,+0.687,+2.299,-07.3780,-02.0260,-07.6600,-00.674169,-03.829994,+01.676768
-135.829,-055.952,-000.164,+1.077,+0.626,+2.240,-09.0070,-02.0040,-07.5040,-00.828237,-04.220352,+02.074400
-130.303,-060.887,-005.893,+1.248,+0.560,+2.108,-10.1020,-02.3710,-08.7840,-00.879440,-04.548072,+02.438814
-121.619,-065.874,-014.463,+1.411,+0.468,+1.991,-10.4060,-01.8150,-08.2780,-00.569686,-05.123707,+02.645869
-108.142,-070.390,-027.522,+1.526,+0.373,+1.878,-12.2130,-03.1000,-09.6300,-00.413061,-05.249806,+02.673085
-088.946,-072.989,-047.052,+1.665,+0.281,+1.685,-13.1950,-07.1480,-11.8400,-01.798830,-04.720546,+02.970192
-069.585,-072.540,-069.191,+1.743,+0.106,+1.512,+00.7420,-06.4770,-13.7070,-04.275630,-03.327885,+02.947161
-066.744,-071.828,-074.517,+1.748,+0.007,+1.475,-10.5180,-04.7890,-23.5220,-01.090635,+01.101542,-00.263577
-072.995,-072.083,-069.022,+1.739,+0.022,+1.458,-01.1850,-05.6600,-08.8990,-00.370646,+01.556339,-00.815137
-080.207,-072.228,-062.859,+1.725,+0.032,+1.517,-02.5850,-04.0960,-08.9790,-00.691729,+01.823231,-00.950773
-089.068,-072.010,-055.062,+1.716,+0.028,+1.565,-03.6700,-02.4930,-10.9650,-00.399842,+02.389838,-01.129444
-099.866,-070.948,-044.972,+1.679,+0.083,+1.633,-02.9340,-02.2060,-09.9270,+00.017608,+03.162525,-01.247078
-110.666,-068.835,-034.592,+1.637,+0.084,+1.761,-03.2390,-02.3390,-08.9800,+00.300454,+03.624649,-01.352160
-120.377,-065.733,-025.036,+1.600,+0.119,+1.894,-04.8760,-02.3070,-09.5370,+00.648978,+04.224327,-01.597536
-128.775,-061.645,-016.531,+1.471,+0.255,+2.039,-04.6920,-01.8560,-08.0170,+00.963653,+04.565571,-01.859826
-135.326,-057.117,-009.438,+1.308,+0.312,+2.182,-05.1490,+00.6190,-06.6920,+01.478415,+04.406804,-01.963340
-139.948,-052.593,-003.488,+1.165,+0.413,+2.300,-07.3250,+01.5990,-07.2610,+02.071483,+04.044194,-01.765515
-142.883,-048.212,+001.180,+1.007,+0.509,+2.341,-09.1260,+00.2540,-09.1230,+02.031554,+03.788971,-01.422158
-144.674,-043.835,+004.675,+0.859,+0.570,+2.393,-12.4260,-00.5150,-12.4340,+01.923328,+03.797770,-01.253022
-146.098,-039.154,+008.004,+0.729,+0.631,+2.435,-13.4190,-01.0310,-11.1730,+02.174729,+03.991749,-01.477102
-147.549,-034.635,+011.403,+0.581,+0.721,+2.385,-14.7240,-01.7900,-08.4200,+02.188939,+03.490438,-01.768982
-149.239,-030.572,+014.723,+0.483,+0.752,+2.359,-16.7210,-02.2440,-08.4400,+02.027097,+03.035990,-02.157734
-151.150,-026.619,+017.806,+0.428,+0.821,+2.372,-15.3730,-01.3370,-07.8440,+01.839006,+02.798930,-02.487659
-153.189,-022.561,+020.789,+0.349,+0.916,+2.395,-15.2330,-00.5310,-09.4390,+01.886322,+02.870729,-02.831102
-155.182,-018.241,+023.351,+0.215,+1.017,+2.453,-13.7710,-01.4520,-06.8250,+01.359141,+02.841836,-02.948424
-157.061,-014.095,+024.902,+0.048,+1.103,+2.510,-13.8520,-00.3180,-05.1420,+00.666869,+02.532367,-02.888596
-158.827,-010.367,+025.789,-0.142,+1.169,+2.501,-13.5290,+01.4180,-02.5830,+00.364396,+02.125083,-02.636309
-160.348,-007.395,+026.463,-0.295,+1.171,+2.484,-13.2290,+03.5980,+00.2190,+00.452052,+01.493035,-02.102125
-161.576,-005.493,+027.451,-0.402,+1.172,+2.468,-14.4770,+05.2560,+01.5580,+00.927251,+00.736166,-01.447042
-162.366,-004.637,+028.690,-0.458,+1.241,+2.417,-14.0510,+04.6490,+02.1110,+00.949803,+00.092580,-00.626983
-162.525,-004.986,+029.216,-0.476,+1.261,+2.405,-12.5620,+03.0490,+01.0420,+00.095205,-00.571585,+00.419606
-161.957,-007.143,+028.493,-0.425,+1.261,+2.467,+02.1620,-00.1250,-02.8280,-00.819952,-02.097548,+01.977773
-160.535,-010.255,+026.706,-0.323,+1.270,+2.498,-00.1970,-07.9140,-04.8260,-01.981726,-02.221171,+02.869834
-159.379,-014.535,+024.219,-0.175,+1.214,+2.575,-02.0350,-05.5200,-05.0540,-01.720945,-03.275864,+01.980508
-158.779,-019.266,+021.780,-0.021,+1.184,+2.652,-06.9870,+01.4790,-09.2970,-02.109854,-03.657335,+02.203877
-157.777,-023.740,+019.395,+0.141,+1.143,+2.687,-13.9040,+00.4470,-16.9050,-01.549663,-03.007766,+02.049238
-156.778,-026.949,+017.011,+0.262,+1.087,+2.714,-12.2240,-11.2220,-12.2120,-01.935036,-02.131994,+01.294762
-156.034,-028.747,+014.065,+0.317,+0.993,+2.787,-08.3640,+03.5250,-09.6810,-01.701290,-00.919627,+00.646606
-155.696,-029.567,+012.738,+0.345,+0.963,+2.778,-04.3730,-00.7950,-06.5250,-00.562992,-00.533287,+00.252087
-155.655,-030.158,+012.233,+0.373,+0.948,+2.779,-06.3320,-01.0350,-09.8980,-00.302463,-00.384376,+00.121946
-155.577,-030.490,+011.935,+0.387,+0.928,+2.775,-05.5010,-01.2010,-08.4920,-00.163062,-00.199828,+00.113244
-155.503,-030.648,+011.843,+0.391,+0.928,+2.769,-04.9600,-01.5420,-08.1180,-00.012531,-00.111022,+00.071616
-155.453,-030.753,+011.812,+0.382,+0.913,+2.775,-05.1180,-01.4600,-08.1360,-00.006702,-00.068035,+00.049627
-155.412,-030.830,+011.767,+0.391,+0.898,+2.775,-05.1270,-01.3680,-08.1640,-00.028476,-00.064869,+00.039965
-155.392,-030.892,+011.727,+0.392,+0.957,+2.791,-05.0930,-01.4470,-08.0490,-00.022039,-00.042026,+00.015325
-155.381,-030.914,+011.691,+0.391,+0.918,+2.791,-04.8710,-01.6020,-07.9830,-00.031317,-00.008402,+00.015368
-155.356,-030.913,+011.635,+0.401,+0.913,+2.802,-04.8820,-01.5660,-07.9840,-00.042218,+00.022402,+00.019640
-155.330,-030.905,+011.575,+0.391,+0.923,+2.759,-05.0280,-01.6310,-08.0050,-00.043929,+00.036800,+00.014458
-155.262,-030.820,+011.427,+0.396,+0.938,+2.786,-04.8990,-01.7820,-07.9720,-00.132205,+00.104289,+00.051889
-155.140,-030.716,+011.184,+0.391,+0.918,+2.829,-04.8870,-01.6610,-07.9810,-00.166701,+00.108917,+00.084237
-154.959,-030.584,+010.892,+0.373,+0.898,+2.790,-04.5900,-01.4770,-07.8310,-00.171650,+00.158106,+00.133887
-154.796,-030.562,+010.615,+0.373,+0.888,+2.780,-04.7530,-01.4550,-07.9900,-00.166503,+00.062693,+00.129572
-154.577,-030.509,+010.313,+0.382,+0.908,+2.802,-04.7450,-01.4480,-08.0180,-00.175207,+00.073159,+00.166896
-154.313,-030.487,+009.956,+0.382,+0.883,+2.813,-04.7400,-01.6170,-08.0120,-00.198725,+00.041723,+00.199834
-154.027,-030.499,+009.586,+0.382,+0.854,+2.802,-04.8570,-01.4440,-08.0210,-00.190512,+00.016727,+00.218201
-153.729,-030.510,+009.220,+0.368,+0.849,+2.818,-04.8410,-01.3550,-08.0390,-00.184866,+00.018592,+00.232503
-153.435,-030.544,+008.877,+0.377,+0.869,+2.813,-04.7520,-01.1670,-08.0180,-00.156611,+00.000501,+00.215169
-153.163,-030.599,+008.589,+0.396,+0.829,+2.814,-04.7260,-01.1350,-08.0620,-00.119163,-00.037320,+00.205735
-152.909,-030.699,+008.334,+0.391,+0.819,+2.808,-04.7520,-01.1520,-08.0940,-00.100000,-00.082249,+00.203051
-152.634,-030.861,+008.084,+0.391,+0.839,+2.808,-04.6720,-01.1670,-08.0840,-00.093822,-00.137642,+00.238683
-152.322,-031.107,+007.830,+0.415,+0.838,+2.787,-04.7480,-01.0930,-08.1280,-00.075592,-00.212423,+00.278587
-151.981,-031.468,+007.580,+0.424,+0.819,+2.815,-04.6590,-01.2050,-08.0500,-00.058681,-00.315908,+00.314237
-151.565,-031.952,+007.319,+0.447,+0.823,+2.805,-04.6470,-01.1950,-08.1460,-00.016004,-00.428369,+00.403913
-151.027,-032.598,+007.037,+0.470,+0.803,+2.817,-05.1730,-00.8910,-08.1160,+00.023280,-00.560835,+00.494533
-150.502,-033.510,+006.734,+0.489,+0.798,+2.818,-04.9700,-00.7470,-08.0970,-00.036205,-00.874123,+00.443014
-150.094,-034.818,+006.453,+0.554,+0.807,+2.761,-04.7710,-00.7750,-08.0240,-00.057141,-01.292403,+00.438077
-149.697,-036.752,+006.093,+0.623,+0.797,+2.764,-04.6280,-01.1590,-08.1700,-00.173729,-01.883119,+00.512801
-149.228,-039.481,+005.550,+0.711,+0.771,+2.779,-04.7720,-00.6870,-07.5170,-00.226848,-02.643829,+00.610058
-148.459,-043.082,+004.832,+0.851,+0.774,+2.699,-04.6270,-00.6750,-08.3860,-00.106847,-03.230854,+00.906741
-147.005,-047.327,+003.494,+0.994,+0.723,+2.625,-05.7740,-00.6980,-08.5510,-00.341360,-03.919143,+01.322682
-144.264,-052.483,+000.726,+1.147,+0.657,+2.572,-06.7330,-01.2550,-08.4200,-00.662258,-04.797035,+01.930274
-139.476,-058.592,-004.205,+1.370,+0.585,+2.442,-08.0240,-03.0240,-10.0630,-00.956902,-05.809066,+02.386099
-130.511,-065.560,-013.084,+1.596,+0.448,+2.216,-11.7500,-02.3450,-12.5480,-00.614072,-06.988282,+02.831931
-113.149,-072.633,-029.475,+1.777,+0.346,+2.041,-14.5670,-01.7580,-13.3420,+00.271495,-07.887506,+02.660435
-081.595,-076.537,-060.659,+1.962,+0.229,+1.704,-22.3460,-11.5480,-17.8330,-01.556743,-06.878907,+02.977286
-053.022,-074.405,-092.471,+2.040,-0.011,+1.418,-01.4230,-01.8260,-13.5600,-04.414308,-04.612745,+03.376739
-051.120,-073.285,-096.502,+2.049,-0.086,+1.392,-09.7160,-02.5190,-25.9770,-00.152298,+01.508805,-00.330241
-058.377,-074.432,-088.639,+2.036,-0.031,+1.445,+01.0070,-05.7430,-07.2330,+00.838453,+01.636499,-00.992850
-067.063,-075.237,-079.887,+2.013,-0.005,+1.551,-01.9880,-03.7900,-08.5150,+00.104125,+02.159304,-00.879138
-079.974,-075.475,-067.237,+1.976,+0.075,+1.673,-03.6680,-01.7990,-11.1430,+00.231177,+03.070566,-01.089361
-097.177,-074.371,-050.001,+1.846,+0.151,+1.824,-03.5300,-00.7070,-10.2790,+00.738582,+04.216669,-01.262555
-112.874,-071.432,-033.728,+1.666,+0.258,+2.004,-02.7750,+00.3470,-07.6560,+01.309017,+04.708475,-01.315717
-124.402,-067.188,-021.054,+1.508,+0.319,+2.105,-05.1460,-00.3540,-09.1740,+01.779831,+05.060623,-01.563873
-132.958,-061.919,-011.188,+1.286,+0.461,+2.186,-05.2420,+00.0570,-08.5360,+01.864545,+05.378311,-01.941582
-138.921,-056.278,-003.930,+1.058,+0.552,+2.251,-05.2080,+02.1330,-06.9620,+01.882252,+05.053670,-01.993808
-142.787,-050.882,+001.604,+0.929,+0.648,+2.288,-07.5610,+03.9420,-08.1370,+02.267629,+04.569111,-01.815742
-145.126,-045.829,+006.066,+0.771,+0.748,+2.242,-11.6470,+01.3710,-11.9360,+02.313762,+04.216194,-01.546493
-146.504,-040.532,+009.359,+0.623,+0.819,+2.224,-15.7290,-01.0830,-14.9800,+01.887369,+04.658059,-01.519551
-147.641,-035.045,+012.126,+0.525,+0.859,+2.247,-16.4010,-01.7850,-11.0190,+01.802221,+04.395007,-01.775796
-149.205,-029.737,+014.968,+0.405,+0.940,+2.241,-20.9130,-05.0740,-10.7620,+01.668061,+04.177475,-02.540834
-151.555,-024.090,+017.572,+0.219,+1.031,+2.275,-20.3850,-04.8550,-08.1420,+01.147948,+04.232427,-03.495156
-154.368,-018.356,+019.643,+0.038,+1.067,+2.283,-19.7500,-01.4580,-05.9530,+00.801813,+03.846269,-03.844492
-157.052,-013.036,+020.959,-0.184,+1.104,+2.225,-19.3240,+01.1420,-02.1110,+00.344563,+03.343330,-03.599118
-159.308,-008.742,+021.727,-0.366,+1.066,+2.195,-19.1200,+05.7050,+02.6220,+00.388616,+02.419664,-02.816638
-160.617,-006.036,+023.148,-0.449,+1.096,+2.159,-18.5740,+11.8010,+06.4390,+01.644100,+01.339971,-01.400615
-161.101,-005.081,+025.542,-0.505,+1.146,+2.086,-17.2560,+04.9880,+08.3030,+01.920378,+00.074640,-00.411617
-161.580,-005.862,+026.289,-0.486,+1.156,+2.054,-11.0220,-00.7240,+04.7330,-00.211976,-01.256135,+00.125616
-161.654,-009.035,+025.670,-0.417,+1.155,+2.112,-05.4540,-05.8280,-12.6690,-00.463917,-02.428711,+01.267819
-160.875,-012.618,+023.953,-0.319,+1.139,+2.121,+00.7360,-04.6290,-02.7580,-01.538189,-03.106592,+02.139051
-160.868,-017.289,+022.779,-0.175,+1.128,+2.176,-08.4990,-02.5670,-14.7190,-00.949233,-03.744487,+01.596353
-160.452,-021.697,+021.748,-0.064,+1.112,+2.181,-11.0850,+02.6120,-13.4040,-00.651528,-03.163464,+01.820542
-159.810,-025.282,+020.405,+0.048,+1.101,+2.186,-12.2700,-12.2740,-12.0060,-01.383865,-02.487170,+01.361629
-159.233,-027.781,+017.564,+0.131,+1.042,+2.255,-17.6070,+00.6410,-17.7760,-02.295440,-01.243015,+00.967472
-158.916,-028.918,+015.771,+0.154,+0.977,+2.284,-07.7040,-01.8560,-11.6340,-00.986871,-00.718618,+00.295714
-158.940,-029.528,+015.005,+0.191,+0.942,+2.275,-05.6420,-01.4190,-09.5700,-00.520851,-00.373292,+00.063220
-158.952,-029.809,+014.569,+0.191,+0.957,+2.275,-04.9050,-02.1810,-08.1870,-00.329184,-00.204349,+00.063515
-158.945,-029.991,+014.339,+0.201,+0.927,+2.275,-04.9870,-01.9990,-08.1440,-00.153558,-00.122720,+00.033799
-158.964,-030.099,+014.208,+0.196,+0.922,+2.280,-04.9860,-01.7190,-08.1890,-00.106409,-00.076068,-00.011647
-159.026,-030.169,+014.176,+0.205,+0.922,+2.275,-04.9040,-01.7160,-08.1060,-00.031622,-00.072415,-00.042950
-159.120,-030.262,+014.230,+0.196,+0.917,+2.297,-04.8220,-01.9790,-08.0150,+00.021962,-00.111803,-00.045958
-159.209,-030.377,+014.326,+0.196,+0.932,+2.275,-04.7570,-02.0130,-07.9610,+00.050188,-00.124574,-00.033278
-159.288,-030.491,+014.432,+0.205,+0.922,+2.281,-04.9050,-02.0010,-07.9770,+00.058228,-00.096604,-00.031183
-159.349,-030.583,+014.547,+0.196,+0.917,+2.302,-04.8170,-01.9540,-07.9510,+00.082941,-00.101820,-00.019379
-159.414,-030.699,+014.683,+0.210,+0.967,+2.286,-04.9040,-01.9630,-07.9540,+00.094005,-00.108893,-00.024474
-159.475,-030.812,+014.822,+0.210,+0.962,+2.281,-04.8750,-02.1840,-07.8490,+00.091150,-00.105149,-00.013451
-159.508,-030.921,+014.933,+0.215,+0.942,+2.281,-04.8670,-02.1630,-07.8690,+00.073629,-00.094731,+00.008700
-159.495,-031.029,+014.980,+0.228,+0.952,+2.260,-04.8550,-02.1450,-07.8320,+00.020148,-00.084652,+00.051728
-159.401,-031.134,+014.891,+0.228,+0.927,+2.266,-04.6800,-02.2410,-07.8640,-00.072981,-00.079255,+00.117153
-159.147,-031.182,+014.543,+0.238,+0.927,+2.282,-04.8560,-02.4370,-07.7900,-00.256956,+00.062987,+00.240983
-158.661,-031.104,+013.899,+0.238,+0.961,+2.287,-04.9390,-02.4540,-07.6230,-00.388582,+00.207345,+00.386159
-158.037,-030.954,+013.120,+0.224,+0.927,+2.260,-05.0930,-01.9290,-07.9300,-00.388877,+00.255657,+00.430726
-157.520,-030.859,+012.533,+0.214,+0.902,+2.314,-04.9660,-01.2290,-08.0870,-00.214457,+00.113317,+00.291263
-157.265,-030.891,+012.248,+0.224,+0.907,+2.293,-04.6990,-01.3330,-08.0810,-00.092468,-00.039803,+00.147929
-157.145,-031.021,+012.136,+0.219,+0.892,+2.298,-04.8130,-01.5540,-08.0010,-00.022486,-00.113804,+00.099687
-157.040,-031.188,+012.062,+0.224,+0.887,+2.298,-04.7940,-01.7800,-07.9420,-00.012988,-00.141406,+00.119494
-156.886,-031.396,+011.952,+0.247,+0.902,+2.288,-04.8460,-01.6910,-07.9010,-00.037871,-00.170915,+00.165771
-156.674,-031.639,+011.754,+0.238,+0.882,+2.272,-04.9010,-01.7350,-08.0110,-00.104354,-00.178925,+00.221877
-156.372,-031.943,+011.489,+0.256,+0.907,+2.305,-04.9320,-01.6310,-08.0170,-00.074407,-00.246354,+00.297458
-156.007,-032.348,+011.253,+0.265,+0.897,+2.295,-04.8890,-01.7230,-07.9850,-00.010136,-00.328717,+00.358701
-155.597,-032.912,+011.058,+0.293,+0.897,+2.301,-04.8690,-01.2300,-07.9390,+00.020298,-00.501559,+00.394429
-155.349,-033.670,+010.957,+0.312,+0.867,+2.297,-05.1000,-00.9380,-08.0110,+00.045272,-00.693182,+00.261719
-155.237,-034.707,+010.931,+0.344,+0.891,+2.282,-05.1380,-01.2930,-07.8440,+00.022013,-01.009537,+00.251473
-155.232,-036.161,+010.993,+0.377,+0.901,+2.267,-05.1340,-01.4190,-07.7350,+00.083575,-01.417876,+00.267418
-155.264,-038.247,+011.112,+0.442,+0.890,+2.270,-05.1640,-01.4660,-07.5930,+00.085348,-02.029599,+00.369312
-155.235,-041.131,+011.166,+0.525,+0.894,+2.236,-05.0490,-01.2960,-07.5920,+00.098023,-02.746913,+00.615788
-154.955,-044.765,+011.206,+0.651,+0.883,+2.225,-05.1220,-01.3390,-08.1440,+00.214644,-03.227244,+00.895381
-154.334,-049.045,+010.847,+0.743,+0.911,+2.186,-05.9580,-01.8220,-08.4760,-00.020168,-03.821207,+01.189986
-153.245,-054.152,+009.930,+0.915,+0.855,+2.091,-07.2040,-01.9950,-07.8980,-00.049042,-04.566741,+01.484518
-151.763,-060.075,+008.531,+1.077,+0.818,+2.007,-08.7920,-02.9630,-09.3180,-00.157961,-05.285911,+01.585236
-149.224,-067.101,+006.153,+1.216,+0.782,+1.916,-09.3150,-02.0550,-08.6150,-00.081146,-06.352009,+01.852240
-144.274,-075.168,+001.453,+1.406,+0.749,+1.676,-12.9840,-00.4940,-11.0250,+00.016936,-07.210488,+01.806495
-129.023,-083.078,-013.767,+1.564,+0.687,+1.473,-17.5570,-04.2450,-14.1730,-00.258852,-06.768910,+01.753332
-051.901,-086.576,-090.494,+1.656,+0.611,+1.305,-07.4580,-06.3670,-14.1490,+00.180442,-05.356319,+01.483179
-022.997,-084.033,-120.176,+1.702,+0.545,+1.172,-22.7810,-11.1900,-36.4440,-01.018353,-00.106893,+01.026533
-043.949,-084.190,-100.510,+1.679,+0.486,+1.188,+00.2870,-04.2190,-11.5360,-01.010377,+02.138826,+00.439509
-065.391,-083.498,-080.464,+1.679,+0.407,+1.194,-00.3190,-02.8060,-07.0540,-01.126988,+01.993870,+00.665924
-083.570,-082.104,-063.551,+1.683,+0.308,+1.168,-03.0140,-04.2010,-09.2550,-00.878342,+02.488601,+00.416735
-101.507,-079.865,-046.682,+1.720,+0.219,+1.170,-04.0500,-04.7680,-10.3890,-00.660818,+03.497070,+00.044107
-116.712,-076.426,-032.314,+1.799,+0.144,+1.304,-03.4150,-04.2550,-08.3840,-00.310395,+04.272918,-00.348426
-127.660,-072.129,-021.751,+1.915,+0.144,+1.492,-04.2110,-03.6630,-07.6010,+00.228793,+04.618767,-00.766638
-135.890,-067.171,-013.422,+1.902,+0.116,+1.870,-05.6530,-04.0780,-08.0480,+00.662478,+05.025251,-01.254964
-142.235,-061.645,-006.774,+1.763,+0.159,+2.193,-05.8110,-02.8770,-06.5480,+00.911732,+05.170778,-01.641982
-146.898,-056.104,-001.375,+1.462,+0.287,+2.432,-07.6040,-00.7380,-06.7380,+01.435909,+04.836144,-01.792301
-150.144,-050.809,+003.247,+1.151,+0.365,+2.559,-08.2550,-00.2730,-06.3660,+01.876658,+04.389380,-01.668042
-152.028,-045.992,+006.883,+0.971,+0.411,+2.626,-13.7430,-01.5050,-12.1900,+01.997295,+04.057874,-01.375118
-153.177,-040.724,+010.066,+0.753,+0.503,+2.659,-14.4210,-01.4380,-11.4580,+02.141047,+04.576515,-01.429578
-154.005,-035.610,+013.116,+0.530,+0.619,+2.686,-16.0140,-02.3460,-09.9150,+02.224971,+04.061073,-01.489028
-154.983,-030.764,+016.015,+0.317,+0.690,+2.666,-18.6360,-05.3270,-09.8910,+01.905460,+03.853251,-01.976357
-156.528,-025.641,+018.573,+0.117,+0.771,+2.586,-18.6530,-03.5890,-09.7200,+01.468229,+03.938128,-02.749719
-158.390,-020.294,+020.944,-0.087,+0.822,+2.544,-17.6770,+00.0950,-07.5170,+01.416064,+03.819435,-03.059555
-160.116,-015.201,+022.752,-0.245,+0.849,+2.505,-18.2430,+00.4230,-04.2850,+00.837415,+03.426269,-02.906696
-161.576,-010.840,+023.405,-0.393,+0.875,+2.444,-18.8030,+02.6700,+01.1430,+00.020721,+02.700470,-02.433049
-162.665,-007.829,+023.872,-0.514,+0.836,+2.417,-20.7930,+10.2770,+06.8710,+00.658438,+01.607097,-01.521307
-163.173,-006.498,+025.999,-0.556,+0.886,+2.394,-21.9140,+13.6030,+09.8600,+02.353637,+00.404310,-00.550377
-163.242,-007.047,+027.928,-0.556,+0.955,+2.345,-09.8580,-00.6450,+10.4630,+00.692014,-01.169131,+00.665945
-161.729,-009.844,+026.548,-0.477,+0.944,+2.364,-05.8940,-04.8860,-19.7060,-00.848542,-00.963723,+02.153401
-160.240,-013.507,+024.843,-0.393,+0.909,+2.422,+03.6120,-07.7980,+06.0400,-01.498974,-03.395838,+02.667876
-160.606,-018.269,+024.007,-0.222,+0.893,+2.446,-12.5170,-10.0690,-14.3920,-00.753816,-03.823003,+01.048550
-161.040,-022.683,+023.244,-0.073,+0.877,+2.507,-10.1650,+06.6300,-14.6420,-00.642542,-03.476270,+01.430268
-160.795,-026.293,+022.028,+0.034,+0.806,+2.517,-12.8020,-10.5040,-11.0730,-01.323208,-02.520885,+01.169088
-160.616,-028.666,+019.603,+0.122,+0.736,+2.527,-14.7820,+02.3510,-15.5520,-01.983889,-01.260585,+00.745633
-160.376,-029.854,+017.657,+0.159,+0.662,+2.545,-07.1070,-02.9350,-09.3050,-01.322322,-00.747384,+00.385433
-160.186,-030.463,+016.396,+0.177,+0.632,+2.573,-05.5300,-00.4090,-08.4410,-00.784011,-00.277963,+00.264283
-160.023,-030.720,+015.711,+0.187,+0.637,+2.541,-05.3850,-01.6710,-08.5040,-00.423952,-00.161246,+00.149385
-159.958,-030.879,+015.377,+0.186,+0.582,+2.563,-05.2180,-01.8360,-08.2390,-00.191713,-00.114817,+00.046285
-160.008,-030.994,+015.327,+0.196,+0.582,+2.575,-04.9400,-01.8270,-08.1240,+00.001085,-00.109328,-00.041323
-160.170,-031.111,+015.484,+0.196,+0.602,+2.569,-05.1780,-01.8460,-08.0110,+00.105488,-00.138062,-00.115523
-160.391,-031.230,+015.742,+0.210,+0.597,+2.575,-05.1240,-02.2770,-07.8220,+00.129098,-00.144254,-00.130238
-160.595,-031.342,+016.001,+0.214,+0.597,+2.586,-04.8360,-02.5150,-07.6910,+00.127625,-00.136480,-00.110404
-160.759,-031.461,+016.203,+0.210,+0.617,+2.570,-05.0520,-02.3700,-07.7700,+00.095486,-00.138378,-00.077874
-160.883,-031.567,+016.357,+0.219,+0.622,+2.559,-05.0740,-02.2910,-07.7840,+00.071675,-00.109627,-00.058103
-160.984,-031.658,+016.480,+0.214,+0.607,+2.564,-04.9660,-02.2290,-07.8130,+00.051908,-00.089621,-00.041828
-161.034,-031.748,+016.543,+0.219,+0.621,+2.543,-04.9250,-02.4070,-07.6710,+00.022472,-00.091958,+00.004994
-161.033,-031.869,+016.551,+0.224,+0.627,+2.576,-04.9210,-02.2990,-07.6060,+00.002388,-00.101977,+00.043550
-161.010,-032.008,+016.550,+0.228,+0.602,+2.565,-05.0030,-02.3020,-07.7250,+00.003781,-00.112300,+00.060604
-160.950,-032.165,+016.501,+0.233,+0.631,+2.543,-05.0350,-02.3420,-07.6820,-00.015804,-00.129877,+00.088020
-160.884,-032.339,+016.459,+0.247,+0.621,+2.555,-05.0580,-02.3760,-07.6840,+00.000327,-00.141437,+00.088937
-160.812,-032.522,+016.418,+0.238,+0.597,+2.571,-05.1500,-02.2330,-07.7500,-00.006106,-00.126753,+00.102283
-160.722,-032.685,+016.359,+0.256,+0.606,+2.556,-05.1410,-02.2780,-07.6130,-00.010752,-00.102371,+00.106779
-160.605,-032.825,+016.289,+0.261,+0.611,+2.550,-05.1320,-02.1980,-07.6780,-00.013652,-00.078941,+00.126055
-160.416,-032.932,+016.138,+0.256,+0.591,+2.539,-05.2060,-02.2020,-07.6860,-00.059919,-00.026547,+00.183422
-160.109,-032.979,+015.859,+0.256,+0.636,+2.539,-05.1990,-02.4530,-07.4760,-00.107234,+00.038652,+00.248869
-159.760,-033.000,+015.538,+0.251,+0.592,+2.572,-05.1440,-02.1160,-07.6440,-00.129393,+00.050791,+00.252181
-159.372,-033.016,+015.114,+0.261,+0.611,+2.577,-05.0410,-02.3290,-07.5930,-00.218977,+00.064540,+00.303169
-158.872,-033.070,+014.545,+0.261,+0.586,+2.556,-04.9030,-02.3190,-07.7380,-00.277310,+00.031625,+00.405772
-158.259,-033.188,+013.889,+0.261,+0.557,+2.572,-05.1330,-02.0210,-07.6980,-00.284478,-00.025774,+00.477605
-157.603,-033.359,+013.163,+0.265,+0.542,+2.589,-05.5550,-01.9720,-07.5240,-00.316487,-00.058722,+00.515504
-156.992,-033.656,+012.578,+0.275,+0.552,+2.562,-05.0930,-01.7350,-07.7780,-00.160226,-00.209975,+00.470811
-156.503,-034.169,+012.209,+0.298,+0.542,+2.563,-04.8430,-00.8480,-08.0290,-00.066904,-00.457289,+00.407967
-156.299,-034.949,+012.073,+0.312,+0.517,+2.586,-05.0960,-01.0050,-08.0440,+00.024156,-00.731135,+00.232906
-156.295,-036.073,+012.070,+0.363,+0.526,+2.561,-05.2500,-01.2770,-07.9030,-00.005212,-01.102398,+00.196723
-156.381,-037.678,+012.117,+0.404,+0.536,+2.557,-05.1720,-01.7260,-07.6690,-00.006301,-01.562771,+00.268489
-156.426,-039.962,+012.135,+0.474,+0.515,+2.555,-05.2850,-01.8160,-07.6190,-00.021761,-02.215091,+00.470820
-156.403,-043.146,+012.102,+0.585,+0.524,+2.527,-05.3310,-01.2440,-07.5020,+00.044609,-03.029932,+00.701172
-156.217,-047.133,+012.201,+0.720,+0.542,+2.479,-05.7340,-01.3520,-08.2910,+00.269451,-03.493398,+00.930490
-155.753,-051.706,+012.080,+0.845,+0.545,+2.452,-06.4430,-01.7530,-07.9730,+00.165142,-04.084949,+01.204443
-154.865,-057.212,+011.454,+1.021,+0.523,+2.347,-07.6860,-02.2110,-07.7430,+00.068986,-04.952926,+01.540231
-153.524,-063.795,+010.233,+1.225,+0.481,+2.253,-10.6280,-02.7730,-12.6550,+00.005040,-05.878827,+01.685868
-151.130,-071.673,+007.928,+1.392,+0.439,+2.115,-12.0820,-02.8850,-11.7570,-00.041482,-07.135970,+01.949596
-144.711,-080.564,+001.506,+1.629,+0.396,+1.840,-13.3590,-03.2490,-12.0550,-00.271845,-07.762830,+01.955297
-082.251,-087.743,-060.911,+1.786,+0.339,+1.615,-19.4050,-05.5810,-15.3340,+00.318606,-06.812152,+01.839038
-002.229,-083.429,-140.570,+1.874,+0.307,+1.435,-05.6050,-04.4590,-09.6030,-00.654047,-04.283524,+02.325183
-012.931,-082.821,-131.273,+1.878,+0.233,+1.366,-12.1140,-06.1570,-28.3300,-01.070696,+02.610128,+00.657797
-043.211,-083.857,-102.141,+1.813,+0.214,+1.449,+03.8990,-02.0750,-05.8900,-00.819599,+02.874647,+00.695478
-069.977,-082.897,-076.534,+1.753,+0.185,+1.501,+00.0730,-03.0120,-05.5580,-00.871891,+02.621151,+00.742185
-090.706,-081.031,-057.029,+1.707,+0.171,+1.505,-02.9520,-04.8470,-09.2480,-00.919036,+03.216925,+00.289691
-109.394,-078.085,-039.645,+1.642,+0.132,+1.599,-04.0420,-04.4800,-09.6870,-00.795210,+04.309389,-00.270453
-124.134,-073.846,-025.889,+1.577,+0.134,+1.693,-03.6860,-03.7420,-06.9570,-00.262161,+04.951134,-00.838064
-134.650,-068.862,-015.841,+1.507,+0.209,+1.782,-06.1690,-04.6460,-07.4750,+00.219050,+05.206795,-01.415405
-142.612,-063.281,-008.184,+1.438,+0.235,+1.897,-06.5540,-04.4700,-06.0560,+00.379189,+05.337908,-01.911912
-148.450,-057.735,-002.551,+1.415,+0.315,+2.025,-08.1800,-03.4510,-05.8030,+00.552761,+04.846441,-02.090097
-152.815,-052.372,+001.896,+1.318,+0.440,+2.188,-10.7320,-03.7780,-07.4920,+00.857329,+04.599005,-02.165018
-156.129,-047.188,+005.394,+1.147,+0.522,+2.352,-13.3660,-05.3440,-09.3500,+00.798998,+04.288639,-02.157656
-158.874,-042.013,+008.419,+0.961,+0.579,+2.462,-15.9930,-02.1820,-10.7400,+01.164678,+04.296441,-02.273236
-161.031,-036.944,+011.534,+0.716,+0.725,+2.483,-16.9080,-02.8530,-08.5940,+01.651063,+03.944282,-02.105064
-162.656,-032.302,+014.387,+0.525,+0.771,+2.431,-19.0000,-04.5610,-08.5600,+01.674087,+03.598750,-02.048330
-164.022,-027.503,+016.813,+0.409,+0.846,+2.382,-19.3930,-03.9080,-09.3710,+01.428531,+03.902274,-02.168682
-165.112,-022.384,+018.966,+0.298,+0.921,+2.323,-17.0780,-00.2980,-07.4720,+01.539966,+03.991635,-02.194283
-165.904,-017.351,+021.019,+0.154,+0.997,+2.300,-16.5040,+01.2860,-05.6680,+01.529166,+03.828920,-02.030907
-166.243,-012.794,+022.751,+0.048,+0.998,+2.317,-17.0260,+03.2830,-01.5850,+01.386667,+03.406013,-01.529991
-166.011,-009.238,+024.429,-0.059,+1.093,+2.279,-18.2290,+07.2350,+04.4340,+01.672597,+02.565890,-00.758960
-165.490,-007.254,+026.894,-0.129,+1.158,+2.270,-18.0320,+09.9960,+08.6340,+02.514604,+01.233998,-00.110445
-165.072,-007.049,+029.499,-0.138,+1.217,+2.231,-17.0720,+03.5200,+07.2730,+01.885335,-00.188747,+00.450419
-164.783,-008.374,+030.003,-0.077,+1.291,+2.212,-14.9530,-00.8640,+02.8110,-00.355889,-01.220457,+00.969733
-164.046,-010.737,+028.405,+0.020,+1.251,+2.270,-01.4850,-10.8310,-13.7330,-01.319903,-01.563299,+01.624869
-162.946,-014.797,+025.598,+0.155,+1.200,+2.315,+00.9470,-00.9100,-02.0560,-02.319496,-03.432020,+02.626223
-162.979,-019.072,+024.424,+0.331,+1.164,+2.360,-11.5180,-00.3630,-14.1160,-00.811250,-03.185457,+01.389741
-162.534,-022.847,+023.518,+0.479,+1.133,+2.356,-09.5410,+02.4520,-13.0940,-00.471093,-02.678810,+01.760438
-161.839,-025.954,+022.114,+0.595,+1.122,+2.383,-11.5590,-12.0730,-10.1430,-01.384046,-02.036885,+01.254130
-161.361,-028.139,+019.440,+0.697,+1.046,+2.383,-14.3770,-02.3950,-16.1070,-02.943370,-01.175806,+01.018002
-160.896,-029.218,+017.085,+0.748,+0.942,+2.402,-07.9480,-01.1500,-11.9390,-01.597378,-00.661314,+00.482521
-160.607,-029.802,+015.571,+0.744,+0.908,+2.434,-06.3450,-00.9040,-09.1340,-00.941632,-00.251491,+00.280983
-160.349,-030.100,+014.579,+0.785,+0.927,+2.436,-04.9550,-02.3570,-08.2690,-00.673561,-00.179439,+00.258490
-160.070,-030.286,+013.818,+0.790,+0.853,+2.442,-04.9290,-01.9440,-08.2870,-00.436900,-00.080310,+00.225652
-159.876,-030.418,+013.302,+0.790,+0.838,+2.469,-05.2330,-00.9530,-08.6460,-00.290795,-00.057105,+00.128690
-159.759,-030.494,+013.002,+0.785,+0.838,+2.447,-04.9740,-01.5850,-08.2310,-00.183524,-00.050704,+00.094817
-159.619,-030.576,+012.729,+0.790,+0.828,+2.453,-05.0560,-02.0980,-08.1580,-00.186341,-00.064799,+00.145585
-159.385,-030.622,+012.377,+0.804,+0.803,+2.470,-05.0870,-02.2830,-07.8700,-00.217647,+00.044695,+00.198996
-159.089,-030.575,+011.966,+0.795,+0.823,+2.459,-04.9830,-01.5560,-07.9430,-00.221536,+00.114740,+00.203064
-158.845,-030.506,+011.625,+0.804,+0.818,+2.481,-04.7810,-01.4070,-08.0290,-00.176741,+00.058109,+00.144305
-158.672,-030.476,+011.344,+0.790,+0.794,+2.491,-05.0320,-01.4300,-08.1670,-00.173229,+00.100595,+00.121580
-158.535,-030.512,+011.085,+0.790,+0.779,+2.470,-04.9420,-01.6110,-08.1180,-00.171132,-00.008153,+00.108785
-158.362,-030.509,+010.795,+0.804,+0.774,+2.487,-04.8070,-01.5810,-07.9660,-00.174769,+00.016573,+00.139114
-158.162,-030.530,+010.489,+0.804,+0.754,+2.476,-04.7540,-01.5300,-08.0220,-00.179203,+00.025778,+00.166172
-157.938,-030.574,+010.185,+0.809,+0.783,+2.470,-04.7560,-01.4630,-07.9950,-00.157076,-00.029419,+00.172510
-157.717,-030.672,+009.911,+0.813,+0.749,+2.482,-04.7760,-01.2810,-07.9560,-00.135742,-00.073661,+00.179067
-157.489,-030.796,+009.631,+0.832,+0.729,+2.472,-04.9150,-01.2030,-08.0370,-00.139645,-00.075430,+00.186634
-157.273,-030.933,+009.385,+0.832,+0.763,+2.477,-04.8220,-01.3270,-08.0480,-00.104669,-00.102829,+00.175287
-157.069,-031.104,+009.169,+0.841,+0.719,+2.478,-04.8130,-01.4310,-08.0730,-00.100052,-00.132821,+00.185623
-156.829,-031.313,+008.946,+0.832,+0.734,+2.510,-04.9380,-01.2370,-07.9970,-00.076735,-00.159931,+00.217578
-156.553,-031.542,+008.740,+0.850,+0.724,+2.478,-04.9380,-01.1510,-07.9870,-00.039152,-00.177006,+00.239946
-156.274,-031.800,+008.560,+0.846,+0.714,+2.467,-04.9470,-01.2010,-08.0220,-00.025842,-00.194432,+00.247815
-155.958,-032.093,+008.346,+0.864,+0.714,+2.473,-04.8910,-01.1840,-07.9740,-00.045738,-00.241344,+00.287290
-155.601,-032.475,+008.123,+0.887,+0.704,+2.475,-05.2170,-01.0990,-07.9130,-00.024665,-00.317065,+00.318803
-155.230,-032.936,+007.920,+0.901,+0.708,+2.464,-05.1160,-01.2780,-07.8600,+00.018664,-00.384228,+00.335236
-154.821,-033.498,+007.724,+0.924,+0.693,+2.465,-05.2530,-00.9420,-07.9370,+00.042868,-00.486828,+00.388127
-154.410,-034.242,+007.513,+0.948,+0.703,+2.450,-05.2220,-00.7050,-07.9100,+00.000934,-00.691032,+00.340856
-154.215,-035.247,+007.401,+0.975,+0.668,+2.435,-05.1780,-00.6520,-08.0080,+00.007046,-00.943651,+00.218468
-154.143,-036.658,+007.380,+1.022,+0.667,+2.432,-05.1940,-01.0340,-07.9970,+00.021297,-01.393522,+00.217531
-154.073,-038.718,+007.356,+1.091,+0.691,+2.397,-05.0850,-00.9310,-07.5840,+00.022291,-02.044738,+00.312840
-153.919,-041.634,+007.177,+1.179,+0.665,+2.331,-04.7110,-01.2540,-07.5160,-00.144180,-02.829552,+00.549768
-153.366,-045.330,+006.762,+1.272,+0.649,+2.330,-05.0980,-01.3220,-08.0760,-00.007271,-03.282221,+00.863317
-152.230,-049.621,+005.794,+1.411,+0.662,+2.222,-05.7560,-00.9740,-07.9240,-00.155847,-03.917511,+01.197731
-150.307,-054.779,+004.067,+1.569,+0.581,+2.122,-07.7290,-02.0840,-08.5420,-00.193177,-04.699155,+01.543393
-147.328,-060.827,+001.180,+1.703,+0.520,+2.020,-08.7920,-02.4260,-09.6690,-00.310241,-05.607332,+01.711795
-141.848,-067.996,-004.044,+1.884,+0.482,+1.818,-10.3340,-01.5030,-08.5730,-00.148994,-06.759035,+01.966359
-130.164,-076.011,-015.089,+2.046,+0.420,+1.561,-11.5860,+01.3330,-10.1690,+00.186626,-07.736779,+01.868374
-094.779,-082.701,-049.669,+2.143,+0.359,+1.366,-17.5620,-06.4870,-15.7390,+00.286294,-07.443900,+01.781572
-035.296,-081.590,-108.898,+2.226,+0.282,+1.105,-03.2190,-08.7430,-13.8410,-01.154764,-05.878491,+02.473650
-024.793,-077.844,-122.298,+2.217,+0.183,+1.025,-29.0750,-08.1020,-43.1390,-02.279744,-00.036071,+01.198251
-036.987,-078.985,-111.387,+2.147,+0.210,+1.210,+02.3850,-04.1420,-11.1190,-00.200938,+02.688812,-00.316206
-050.990,-080.086,-097.585,+1.999,+0.221,+1.323,-00.0110,-04.4820,-07.1300,+00.035419,+02.346013,-00.365832
-068.934,-080.541,-080.023,+1.860,+0.228,+1.408,-03.7830,-05.0350,-09.9060,-00.187720,+02.863548,-00.539969
-093.047,-079.795,-056.514,+1.748,+0.244,+1.463,-04.4480,-03.9900,-10.7160,-00.206906,+03.974379,-00.827986
-115.485,-076.897,-034.470,+1.660,+0.270,+1.502,-04.4720,-02.1850,-09.2770,+00.261667,+04.841322,-01.071177
-130.275,-072.186,-019.355,+1.609,+0.281,+1.570,-05.6290,-01.1690,-08.6260,+01.025818,+05.387331,-01.295317
-139.308,-066.250,-009.269,+1.582,+0.346,+1.719,-06.8440,-00.9210,-09.0770,+01.621360,+05.879463,-01.502110
-144.796,-059.536,-002.143,+1.522,+0.422,+1.905,-06.8120,-00.3270,-06.9300,+02.139364,+06.050014,-01.627309
-148.098,-053.013,+003.338,+1.439,+0.577,+2.122,-07.6030,+00.3900,-05.9310,+02.479737,+05.374711,-01.664826
-150.178,-047.214,+007.793,+1.314,+0.753,+2.309,-10.7530,-00.8400,-08.6960,+02.454767,+04.685994,-01.621604
-151.569,-041.786,+011.669,+1.059,+1.018,+2.453,-16.1120,-01.8570,-14.0470,+02.622633,+04.564242,-01.719144
-152.714,-036.137,+015.388,+0.698,+1.195,+2.463,-16.3790,-03.1780,-10.8040,+02.574826,+04.493561,-02.033662
-154.272,-030.828,+019.003,+0.438,+1.257,+2.408,-20.7880,-05.6500,-09.5950,+02.272480,+03.883742,-02.776790
-156.623,-025.367,+022.361,+0.187,+1.343,+2.299,-22.7570,-05.2200,-08.9050,+01.760136,+03.814171,-03.699559
-159.229,-019.723,+025.120,-0.040,+1.320,+2.192,-20.6150,+00.3440,-04.8580,+01.477709,+03.500642,-03.927857
-161.534,-014.544,+027.397,-0.194,+1.331,+2.126,-21.8360,+02.1910,-03.0910,+01.233409,+03.073873,-03.535765
-163.019,-010.130,+028.486,-0.328,+1.303,+2.050,-21.2640,+06.3700,+02.8390,+00.377102,+02.590784,-02.474268
-163.493,-007.196,+029.215,-0.398,+1.293,+2.004,-22.6400,+13.9070,+08.9540,+00.910855,+01.675617,-01.083701
-163.445,-006.209,+030.634,-0.403,+1.293,+1.993,-20.2290,+09.7780,+11.7450,+01.138232,+00.143364,+00.026711
-162.896,-008.102,+030.088,-0.342,+1.302,+1.952,-03.2060,+09.4690,+14.1410,-02.180588,-02.129544,+02.722334
-161.003,-011.638,+027.861,-0.222,+1.277,+2.011,+01.5140,-14.2050,-12.5710,-02.269603,-01.849342,+03.131656
-158.946,-016.364,+024.829,-0.078,+1.181,+2.051,-01.9570,-04.4080,-05.6290,-01.502077,-03.434644,+02.733494
-158.434,-020.886,+023.496,+0.066,+1.150,+2.020,-12.5160,+01.2930,-13.3550,-01.244437,-03.245108,+02.172836
-157.440,-024.880,+021.455,+0.224,+1.089,+2.048,-12.6970,-07.6910,-12.9870,-01.832619,-02.739723,+01.888164
-156.669,-027.906,+017.991,+0.298,+0.990,+2.090,-16.8770,-05.8040,-17.0530,-03.518122,-01.763149,+01.320707
-155.868,-029.335,+014.846,+0.363,+0.915,+2.110,-08.9060,+01.2220,-14.4210,-01.837295,-00.772111,+00.698410
-155.547,-030.000,+013.414,+0.381,+0.870,+2.100,-05.9680,-01.7320,-09.9150,-00.904297,-00.466193,+00.268648
-155.391,-030.334,+012.751,+0.404,+0.855,+2.150,-05.1760,-01.9880,-08.0410,-00.371457,-00.172405,+00.141144
-155.219,-030.506,+012.330,+0.400,+0.845,+2.107,-05.1800,-01.2880,-08.2060,-00.237741,-00.069246,+00.164737
-155.028,-030.596,+012.017,+0.404,+0.825,+2.107,-05.5240,-01.2220,-08.2120,-00.173281,-00.021248,+00.143612
-154.883,-030.627,+011.789,+0.409,+0.860,+2.134,-04.9460,-01.2890,-08.2070,-00.107586,-00.004183,+00.097790
-154.765,-030.656,+011.631,+0.418,+0.825,+2.118,-04.9110,-01.7030,-08.0150,-00.080712,-00.002352,+00.096205
-154.614,-030.681,+011.442,+0.409,+0.791,+2.129,-04.9120,-01.7920,-07.9560,-00.116552,-00.003261,+00.128490
-154.452,-030.737,+011.235,+0.418,+0.815,+2.145,-04.9400,-01.3970,-08.0640,-00.092897,-00.013037,+00.122013
-154.324,-030.800,+011.101,+0.437,+0.820,+2.130,-04.8560,-01.0830,-08.0400,-00.027886,-00.059470,+00.086867
-154.277,-030.916,+011.096,+0.418,+0.810,+2.108,-04.8660,-01.2750,-08.0880,+00.036005,-00.100607,+00.042272
-154.289,-031.113,+011.175,+0.423,+0.810,+2.124,-05.0250,-01.4950,-08.0880,+00.073549,-00.177775,+00.017598
-154.308,-031.299,+011.270,+0.428,+0.830,+2.097,-04.9980,-01.6300,-07.9150,+00.068087,-00.139105,+00.022705
-154.312,-031.460,+011.348,+0.442,+0.820,+2.109,-04.9750,-01.7150,-07.9390,+00.063843,-00.143406,+00.027866
-154.294,-031.625,+011.398,+0.451,+0.805,+2.125,-04.9500,-01.6460,-07.8960,+00.050699,-00.127991,+00.050209
-154.246,-031.795,+011.426,+0.446,+0.855,+2.119,-04.8870,-01.5930,-07.8860,+00.045618,-00.157955,+00.066896
-154.183,-031.983,+011.446,+0.446,+0.825,+2.120,-05.0130,-01.6900,-07.9370,+00.047286,-00.163139,+00.085025
-154.114,-032.200,+011.480,+0.465,+0.810,+2.115,-05.1450,-01.6270,-07.8690,+00.063882,-00.167849,+00.091289
-154.035,-032.411,+011.504,+0.469,+0.810,+2.099,-05.0150,-01.5440,-07.8770,+00.058596,-00.162590,+00.093569
-153.945,-032.617,+011.535,+0.483,+0.844,+2.116,-05.1470,-01.5290,-07.8640,+00.078219,-00.172466,+00.105615
-153.851,-032.844,+011.578,+0.479,+0.825,+2.132,-05.1150,-01.6500,-07.7890,+00.081116,-00.177121,+00.109593
-153.756,-033.075,+011.627,+0.483,+0.824,+2.100,-05.1690,-01.5520,-07.8910,+00.092199,-00.182729,+00.104917
-153.671,-033.335,+011.690,+0.488,+0.815,+2.100,-05.2660,-01.5370,-07.8820,+00.094025,-00.215623,+00.106234
-153.575,-033.671,+011.688,+0.506,+0.824,+2.106,-05.0950,-01.7080,-07.7600,+00.029002,-00.311587,+00.145529
-153.461,-034.153,+011.634,+0.525,+0.834,+2.064,-05.2730,-01.5690,-07.8360,-00.001635,-00.446284,+00.169613
-153.396,-034.794,+011.623,+0.539,+0.834,+2.080,-05.2890,-01.5410,-07.7320,+00.041631,-00.600432,+00.153044
-153.348,-035.619,+011.659,+0.562,+0.814,+2.092,-04.9930,-01.3710,-07.5860,+00.032195,-00.784104,+00.187702
-153.377,-036.718,+011.688,+0.590,+0.828,+2.061,-05.4210,-01.3520,-07.6790,+00.013286,-01.054977,+00.161406
-153.502,-038.195,+011.775,+0.636,+0.852,+2.052,-05.2340,-01.6330,-07.4090,+00.001958,-01.449362,+00.213799
-153.564,-040.276,+011.873,+0.669,+0.808,+2.048,-05.5630,-01.7040,-07.4020,+00.081321,-01.989480,+00.407777
-153.464,-042.987,+011.944,+0.757,+0.806,+2.015,-05.4280,-01.4140,-07.3610,+00.196049,-02.471263,+00.623667
-153.192,-046.335,+012.043,+0.845,+0.805,+1.948,-05.6060,-01.4250,-07.6800,+00.259754,-03.025638,+00.840857
-152.737,-050.392,+011.923,+0.942,+0.794,+1.909,-06.3510,-01.7440,-07.9050,+00.171900,-03.634948,+01.069919
-151.958,-055.266,+011.390,+1.072,+0.793,+1.829,-07.1370,-01.9210,-07.5850,+00.038906,-04.388697,+01.371192
-151.058,-061.021,+010.558,+1.221,+0.731,+1.722,-08.8310,-03.3740,-10.0310,-00.094647,-05.157241,+01.407753
-149.446,-067.954,+009.086,+1.350,+0.749,+1.625,-09.1010,-02.7790,-09.1950,-00.016641,-06.310903,+01.775114
-146.123,-076.144,+005.852,+1.531,+0.667,+1.407,-13.6620,-02.9590,-11.5570,-00.052646,-07.247537,+01.796961
-131.529,-084.328,-009.161,+1.688,+0.590,+1.187,-16.6470,-03.7180,-14.5740,-00.643888,-06.905028,+02.027213
-023.486,-086.763,-117.030,+1.786,+0.544,+1.046,-07.8830,-07.1940,-14.2140,+00.097814,-05.634818,+01.644333
-002.760,-082.735,-139.450,+1.878,+0.512,+0.862,-31.3910,-14.8260,-39.0550,-02.255843,-01.193593,+01.175202
-014.129,-083.718,-130.436,+1.939,+0.487,+0.924,-00.9650,-03.2730,-14.2570,-01.615656,+02.170529,-00.054217
-034.075,-084.892,-112.023,+1.980,+0.468,+1.050,+00.6910,-02.2560,-06.1930,-01.104280,+01.932184,+00.136611
-062.012,-085.014,-085.508,+2.013,+0.493,+1.127,-03.0130,-04.4870,-08.6300,-01.204473,+02.308423,+00.228108
-094.353,-083.662,-054.790,+2.018,+0.469,+1.289,-04.5660,-04.6230,-10.8240,-01.290047,+03.426130,+00.065796
-117.949,-080.286,-032.638,+2.004,+0.445,+1.489,-03.8550,-03.8950,-08.9300,-00.892205,+04.381785,-00.149526
-131.099,-075.564,-020.382,+1.912,+0.477,+1.733,-04.5290,-04.1830,-07.5590,-00.309666,+04.901783,-00.425831
-139.434,-070.019,-012.361,+1.713,+0.545,+2.015,-06.2640,-04.6840,-07.8640,+00.233420,+05.447259,-00.877920
-145.450,-063.812,-006.286,+1.499,+0.533,+2.200,-06.8370,-04.2870,-06.8950,+00.600410,+05.753432,-01.300858
-149.726,-057.504,-001.491,+1.179,+0.615,+2.272,-06.6270,-02.2800,-04.5960,+01.164837,+05.421007,-01.498059
-152.704,-051.740,+002.723,+0.943,+0.598,+2.262,-09.2770,-02.3420,-05.9300,+01.755303,+04.801625,-01.570444
-154.762,-046.512,+006.306,+0.827,+0.609,+2.251,-11.8660,-04.0950,-08.7750,+01.734989,+04.262459,-01.531652
-156.530,-041.248,+009.767,+0.762,+0.644,+2.227,-16.1900,-03.2260,-12.4680,+02.119284,+04.555346,-01.898934
-158.165,-035.893,+013.412,+0.706,+0.764,+2.310,-15.9400,-03.9230,-09.2560,+02.320144,+04.129281,-02.082577
-159.781,-030.881,+016.748,+0.600,+0.884,+2.407,-20.2850,-05.5010,-10.6420,+01.981126,+03.865891,-02.419199
-161.444,-025.554,+019.459,+0.382,+1.065,+2.471,-19.7960,-02.7720,-10.1610,+01.549945,+04.121851,-02.778094
-162.865,-020.098,+021.832,+0.099,+1.172,+2.480,-17.4170,+01.8190,-07.6590,+01.669619,+03.962808,-02.665600
-163.727,-015.042,+024.166,-0.105,+1.198,+2.406,-17.6960,+03.8410,-06.1260,+01.851976,+03.670451,-02.182388
-163.878,-010.689,+026.181,-0.291,+1.274,+2.311,-18.1770,+05.0440,-01.3550,+01.608828,+03.165622,-01.413742
-163.316,-007.574,+027.978,-0.402,+1.299,+2.209,-21.2010,+10.7210,+05.9730,+01.812490,+02.274546,-00.449316
-162.602,-006.000,+030.558,-0.449,+1.344,+2.163,-23.3360,+12.3290,+11.0340,+02.484696,+00.987440,+00.031214
-161.945,-006.504,+032.161,-0.426,+1.418,+2.099,-17.4420,+05.3420,+08.7080,+00.488902,-00.704298,+01.308446
-160.259,-008.825,+030.665,-0.351,+1.422,+2.123,+02.4850,-04.2740,-22.6330,-02.344110,-00.337406,+02.808097
-157.926,-011.293,+028.506,-0.291,+1.367,+2.164,+06.8440,-11.9880,+04.7970,-02.166722,-01.937347,+03.480956
-156.001,-016.190,+025.367,-0.101,+1.326,+2.205,-04.3680,-08.0220,-11.2960,-01.450992,-03.236277,+02.346478
-156.083,-020.489,+024.271,+0.039,+1.295,+2.249,-09.3380,+01.9960,-09.7500,-01.259488,-03.432406,+01.700680
-155.522,-024.449,+022.652,+0.173,+1.224,+2.267,-13.3650,-02.9930,-13.9550,-01.419788,-02.717097,+01.794483
-155.015,-027.353,+020.112,+0.271,+1.139,+2.299,-11.4580,-03.8020,-12.2110,-02.160242,-01.928200,+00.991735
-154.375,-028.865,+017.020,+0.335,+1.040,+2.356,-06.4820,+01.9780,-10.0200,-02.012902,-00.853465,+00.734106
-153.986,-029.671,+015.204,+0.359,+0.990,+2.379,-07.4710,-00.9690,-09.9860,-01.069927,-00.428161,+00.388849
-153.674,-030.117,+014.114,+0.372,+0.966,+2.380,-06.1330,-02.1260,-08.6990,-00.630825,-00.243002,+00.291207
-153.417,-030.307,+013.530,+0.391,+0.950,+2.365,-04.8470,-01.5540,-07.8040,-00.281799,-00.067569,+00.184819
-153.274,-030.412,+013.280,+0.382,+0.936,+2.391,-05.0610,-01.3280,-08.2480,-00.089420,-00.070572,+00.089984
-153.237,-030.504,+013.197,+0.391,+0.951,+2.381,-05.3790,-01.3630,-08.2410,-00.025782,-00.068585,+00.019105
-153.282,-030.591,+013.242,+0.391,+0.946,+2.392,-05.0920,-01.8510,-08.0090,+00.030851,-00.095476,-00.024981
-153.350,-030.681,+013.322,+0.396,+0.936,+2.408,-04.9730,-02.0800,-07.8970,+00.040483,-00.081070,-00.031845
-153.376,-030.752,+013.384,+0.405,+0.960,+2.371,-04.7780,-02.0600,-07.7930,+00.038228,-00.051858,+00.012978
-153.373,-030.861,+013.413,+0.396,+0.936,+2.397,-04.9240,-01.8990,-07.9740,+00.015130,-00.070844,+00.029999
-153.368,-030.950,+013.433,+0.405,+0.916,+2.387,-04.9680,-01.8700,-07.9670,+00.022490,-00.070971,+00.016481
-153.367,-031.025,+013.453,+0.405,+0.955,+2.376,-04.9920,-01.8560,-07.9800,+00.014734,-00.056479,+00.017017
-153.355,-031.127,+013.458,+0.414,+0.975,+2.392,-04.9000,-02.0230,-07.9460,-00.006997,-00.088913,+00.041900
-153.266,-031.178,+013.367,+0.400,+0.931,+2.392,-04.8190,-02.0000,-07.8790,-00.062596,-00.012149,+00.093282
-153.093,-031.217,+013.151,+0.410,+0.940,+2.382,-04.8590,-02.1160,-07.8370,-00.144477,+00.029796,+00.168923
-152.786,-031.196,+012.786,+0.419,+0.921,+2.377,-04.9750,-02.0120,-07.7710,-00.192855,+00.085580,+00.236994
-152.421,-031.168,+012.375,+0.410,+0.906,+2.404,-04.9870,-01.8150,-07.9110,-00.194152,+00.087494,+00.265657
-152.075,-031.158,+011.999,+0.423,+0.926,+2.393,-04.9010,-01.5890,-07.9240,-00.160866,+00.053872,+00.241204
-151.797,-031.187,+011.708,+0.419,+0.926,+2.393,-04.8980,-01.4260,-07.8790,-00.107018,-00.007183,+00.179529
-151.613,-031.253,+011.522,+0.428,+0.926,+2.399,-04.8210,-01.4800,-07.9260,-00.061157,-00.045927,+00.129638
-151.503,-031.385,+011.434,+0.423,+0.916,+2.388,-04.8910,-01.5010,-08.0090,-00.011288,-00.118868,+00.090077
-151.432,-031.543,+011.390,+0.428,+0.901,+2.394,-04.9390,-01.5730,-07.8900,-00.003821,-00.131320,+00.073822
-151.362,-031.717,+011.367,+0.433,+0.901,+2.410,-04.8660,-01.5730,-07.9320,+00.027184,-00.147121,+00.086453
-151.265,-031.969,+011.359,+0.451,+0.900,+2.389,-04.8710,-01.6090,-07.9680,+00.033202,-00.228672,+00.132219
-151.123,-032.301,+011.299,+0.451,+0.901,+2.395,-04.6720,-01.5350,-08.1040,+00.002623,-00.281093,+00.185236
-150.922,-032.711,+011.221,+0.465,+0.920,+2.401,-04.9240,-01.5550,-07.9220,+00.038217,-00.346357,+00.228013
-150.714,-033.249,+011.179,+0.493,+0.930,+2.385,-04.9810,-01.6330,-07.7370,+00.063160,-00.499014,+00.244755
-150.600,-033.983,+011.192,+0.521,+0.910,+2.376,-05.0380,-01.0190,-08.0260,+00.074415,-00.680389,+00.175848
-150.611,-034.980,+011.277,+0.535,+0.934,+2.376,-05.0210,-01.1840,-07.9750,+00.072457,-00.973190,+00.150252
-150.774,-036.372,+011.508,+0.590,+0.919,+2.357,-05.2270,-01.2330,-07.7040,+00.152307,-01.361618,+00.103986
-151.067,-038.290,+011.890,+0.646,+0.948,+2.333,-05.1990,-01.4310,-07.5780,+00.204431,-01.894634,+00.164008
-151.394,-040.887,+012.403,+0.716,+0.907,+2.325,-05.3450,-01.5350,-07.6550,+00.279944,-02.485122,+00.340746
-151.686,-044.288,+013.075,+0.822,+0.946,+2.259,-05.1740,-01.4850,-07.6870,+00.510448,-03.222682,+00.552676
-152.021,-048.490,+013.931,+0.952,+0.924,+2.195,-05.8660,-01.7810,-07.7030,+00.506134,-03.834059,+00.737511
-152.294,-053.460,+014.645,+1.068,+0.923,+2.108,-06.6710,-02.4660,-07.5820,+00.364882,-04.513762,+01.075443
-152.440,-059.400,+014.967,+1.258,+0.905,+1.982,-08.9350,-03.5190,-09.1610,+00.022638,-05.328781,+01.310712
-152.567,-066.429,+015.161,+1.439,+0.853,+1.844,-08.7210,-03.4280,-09.7040,+00.123281,-06.331622,+01.731871
-152.137,-074.904,+014.545,+1.587,+0.801,+1.678,-14.8880,-05.0520,-13.0950,-00.304296,-07.429791,+02.116808
-146.065,-083.568,+007.749,+1.777,+0.764,+1.412,-18.6780,-05.6140,-14.9710,-01.027188,-06.831807,+02.674813
-031.120,-087.891,-108.088,+1.911,+0.632,+1.186,-07.0320,-09.6920,-14.5000,-01.026798,-05.680604,+02.400319
-008.304,-083.341,-133.202,+1.967,+0.532,+1.071,-29.3970,-11.4250,-36.8040,-02.454353,-00.867788,+02.152546
-029.717,-083.228,-113.893,+1.999,+0.473,+1.099,-01.8840,-03.7720,-14.6610,-01.314533,+02.549023,+01.042818
-053.788,-082.518,-091.303,+2.027,+0.423,+1.177,+01.4170,-04.7510,-04.9670,-01.159611,+02.254229,+01.250388
-071.270,-080.840,-075.541,+2.050,+0.364,+1.281,-02.5950,-06.0360,-07.7490,-01.383569,+02.510344,+01.055510
-088.148,-078.795,-060.381,+2.087,+0.290,+1.380,-04.7180,-06.2220,-10.0320,-01.144797,+03.487373,+00.413686
-105.359,-075.889,-044.460,+2.064,+0.292,+1.627,-04.3010,-05.5350,-08.5030,-00.515011,+04.473022,-00.253544
-119.510,-071.982,-030.974,+2.009,+0.323,+1.889,-03.8250,-05.0830,-05.9150,+00.124226,+04.856673,-00.832510
-130.143,-067.384,-020.454,+1.833,+0.415,+2.162,-06.5740,-04.6900,-07.6110,+00.663075,+05.133107,-01.355451
-138.386,-061.888,-011.911,+1.579,+0.577,+2.382,-07.1710,-03.5700,-06.9650,+01.124040,+05.598300,-01.748599
-144.219,-056.045,-005.172,+1.361,+0.655,+2.528,-06.6440,-01.0020,-04.2660,+01.745530,+05.205803,-01.841337
-148.173,-050.572,+000.435,+1.083,+0.821,+2.634,-09.7880,-00.0440,-05.6610,+02.334503,+04.674323,-01.857870
-150.743,-045.589,+005.176,+0.763,+0.914,+2.711,-11.1640,-01.9550,-07.9740,+02.399942,+04.038443,-01.577906
-152.399,-040.649,+008.929,+0.442,+0.971,+2.702,-16.5020,-02.6630,-13.1610,+02.263507,+04.331642,-01.652828
-153.818,-035.522,+012.580,+0.136,+0.939,+2.510,-15.6480,-01.5580,-09.6450,+02.528406,+04.013800,-01.845013
-155.148,-030.739,+016.228,+0.033,+0.800,+2.312,-19.8550,-02.3790,-10.3730,+02.510690,+03.728407,-02.079512
-156.478,-025.811,+019.587,+0.084,+0.755,+2.288,-20.2790,-00.3930,-09.7080,+02.328936,+03.831035,-02.417578
-157.641,-020.774,+022.778,+0.094,+0.914,+2.309,-18.5970,+02.9990,-07.5550,+02.428180,+03.682285,-02.420106
-158.287,-015.950,+025.643,-0.013,+1.073,+2.341,-19.1480,+04.0070,-05.6320,+02.161319,+03.593047,-02.060743
-158.289,-011.745,+027.549,-0.142,+1.208,+2.350,-17.9940,+05.5430,+00.4900,+01.349946,+02.999939,-01.365480
-157.901,-008.957,+028.864,-0.295,+1.328,+2.305,-19.1170,+10.4690,+05.8210,+01.288219,+01.845444,-00.540146
-157.357,-007.862,+030.712,-0.370,+1.433,+2.263,-19.9600,+11.6980,+08.3960,+01.832909,+00.581557,+00.190889
-156.939,-008.581,+031.950,-0.365,+1.497,+2.290,-07.9300,-02.5460,+05.8340,+00.338561,-00.951267,+00.856712
-155.509,-011.353,+029.414,-0.258,+1.476,+2.322,-07.5200,-03.2980,-18.4920,-01.604066,-00.998435,+02.030622
-153.503,-014.971,+026.297,-0.109,+1.451,+2.458,+01.8880,-01.1880,-01.2910,-02.729197,-02.730992,+03.638688
-152.436,-019.254,+024.456,+0.025,+1.435,+2.523,-07.8470,-09.4270,-09.5450,-00.781167,-03.110989,+01.697415
-152.150,-023.513,+023.216,+0.202,+1.438,+2.563,-09.4150,+00.6010,-12.7000,-00.910224,-03.214018,+01.650973
-151.563,-027.108,+020.916,+0.350,+1.393,+2.635,-14.7480,-10.8250,-12.4640,-02.504113,-02.342130,+01.433580
-150.934,-029.146,+017.164,+0.415,+1.308,+2.703,-07.3480,+06.2240,-10.1680,-02.693179,-01.136064,+00.855306
-150.473,-029.997,+015.129,+0.471,+1.224,+2.728,-08.3110,-02.5040,-08.8770,-01.096592,-00.434463,+00.350394
-150.285,-030.421,+014.237,+0.480,+1.199,+2.750,-06.1240,-01.4840,-09.1680,-00.362670,-00.130148,+00.183978
-150.095,-030.599,+013.737,+0.489,+1.169,+2.751,-05.1120,-01.7060,-08.1020,-00.323915,-00.107593,+00.187347
-149.926,-030.721,+013.434,+0.499,+1.179,+2.751,-04.7280,-01.4230,-08.1900,-00.136198,-00.084282,+00.123615
-149.829,-030.835,+013.289,+0.494,+1.179,+2.773,-05.0680,-01.5040,-08.0170,-00.057475,-00.060914,+00.076872
-149.787,-030.898,+013.244,+0.499,+1.179,+2.757,-05.1360,-01.6370,-08.0480,-00.005891,-00.050022,+00.030963
-149.777,-030.964,+013.256,+0.508,+1.179,+2.757,-04.8670,-02.0250,-07.8980,+00.020476,-00.057212,+00.024659
-149.721,-031.022,+013.231,+0.503,+1.169,+2.746,-04.9300,-01.9800,-07.9130,-00.011315,-00.021404,+00.068425
-149.620,-031.106,+013.136,+0.513,+1.184,+2.773,-04.8810,-01.8470,-08.0020,-00.050246,-00.052696,+00.101505
-149.468,-031.137,+012.965,+0.517,+1.189,+2.741,-04.9790,-01.8560,-07.9630,-00.104834,+00.028177,+00.125545
-149.270,-031.114,+012.721,+0.513,+1.174,+2.763,-04.5780,-01.6820,-07.5510,-00.105020,-00.017634,+00.129421
-149.081,-031.150,+012.459,+0.517,+1.164,+2.774,-05.0080,-01.8760,-07.9320,-00.162481,+00.058885,+00.170910
-148.767,-031.123,+012.076,+0.522,+1.189,+2.779,-04.8450,-01.6970,-07.8530,-00.187772,+00.014689,+00.232234
-148.473,-031.157,+011.723,+0.517,+1.149,+2.779,-04.9950,-01.6270,-07.9790,-00.172216,+00.067111,+00.237577
-148.166,-031.155,+011.392,+0.531,+1.154,+2.785,-04.9290,-01.6240,-07.9420,-00.139008,+00.039105,+00.217928
-147.886,-031.193,+011.088,+0.531,+1.139,+2.774,-04.8790,-01.6760,-07.9530,-00.143470,+00.006029,+00.218139
-147.607,-031.276,+010.790,+0.522,+1.129,+2.796,-04.9370,-01.5740,-07.9170,-00.124813,-00.044335,+00.220759
-147.348,-031.402,+010.528,+0.526,+1.134,+2.796,-04.9720,-01.3680,-07.9580,-00.100462,-00.081193,+00.197478
-147.138,-031.567,+010.330,+0.540,+1.134,+2.791,-04.8820,-01.3130,-07.9510,-00.066084,-00.134968,+00.169314
-146.977,-031.759,+010.181,+0.559,+1.114,+2.776,-05.0010,-01.3030,-07.9580,-00.057499,-00.147431,+00.140724
-146.832,-031.952,+010.044,+0.554,+1.119,+2.803,-04.9800,-01.4520,-07.9450,-00.051040,-00.154534,+00.136803
-146.673,-032.148,+009.904,+0.573,+1.104,+2.766,-04.8940,-01.4970,-07.9390,-00.048523,-00.152383,+00.159029
-146.447,-032.376,+009.720,+0.582,+1.114,+2.788,-04.8340,-01.5230,-07.9180,-00.058736,-00.181636,+00.223109
-146.137,-032.678,+009.500,+0.605,+1.104,+2.816,-04.9500,-01.3940,-07.9390,-00.039520,-00.253617,+00.294059
-145.787,-033.076,+009.288,+0.619,+1.099,+2.789,-05.2390,-01.4890,-07.7420,-00.012674,-00.326549,+00.314535
-145.446,-033.600,+009.098,+0.642,+1.089,+2.796,-05.0420,-00.6810,-08.0940,-00.009690,-00.478883,+00.305260
-145.175,-034.327,+008.927,+0.656,+1.093,+2.796,-05.0520,-01.1890,-07.9730,-00.018642,-00.681627,+00.292745
-144.964,-035.309,+008.789,+0.712,+1.088,+2.767,-05.1730,-00.9690,-07.8470,-00.011313,-00.930094,+00.269645
-144.880,-036.614,+008.719,+0.749,+1.112,+2.752,-05.2250,-00.9470,-07.8330,-00.023692,-01.254264,+00.221194
-144.891,-038.409,+008.691,+0.809,+1.077,+2.755,-05.2510,-01.1820,-07.6280,-00.015373,-01.755745,+00.260414
-144.852,-040.867,+008.732,+0.902,+1.105,+2.705,-05.3450,-00.9860,-07.6220,+00.104675,-02.323020,+00.403663
-144.589,-043.946,+008.701,+1.023,+1.079,+2.645,-05.1530,-01.2270,-07.7160,+00.112998,-02.835677,+00.673664
-144.009,-047.772,+008.336,+1.139,+1.103,+2.639,-05.6700,-01.0810,-08.2350,-00.000572,-03.500934,+00.954493
-142.854,-052.511,+007.342,+1.329,+1.066,+2.518,-06.5050,-01.7340,-07.7510,-00.144372,-04.298001,+01.383643
-140.738,-058.076,+005.249,+1.519,+1.019,+2.414,-08.3630,-02.8350,-09.2070,-00.393566,-04.970087,+01.696904
-136.714,-064.672,+001.209,+1.677,+0.972,+2.286,-09.8490,-03.1810,-09.9030,-00.467108,-06.117466,+02.225243
-128.166,-072.350,-007.000,+1.913,+0.899,+2.027,-13.1360,-02.3000,-10.3160,-00.015497,-07.124088,+02.392530
-107.512,-079.571,-027.240,+2.103,+0.817,+1.755,-18.4280,-04.1290,-12.8260,-00.253653,-07.017427,+02.282606
-062.348,-082.307,-072.382,+2.172,+0.746,+1.575,-11.0740,-09.2700,-15.9940,-00.819462,-05.350578,+02.305725
-041.076,-079.824,-095.266,+2.195,+0.641,+1.420,-25.4030,-07.2670,-39.1730,-01.437193,-00.130867,+01.821187
-053.432,-078.737,-083.580,+2.083,+0.608,+1.529,+00.9770,-05.2390,-10.4420,-00.142429,+02.338469,+00.716917
-063.520,-077.420,-074.101,+1.986,+0.574,+1.589,-00.1320,-05.3160,-06.1960,-00.491716,+01.964089,+00.725239
-073.728,-076.213,-064.799,+1.884,+0.546,+1.628,-02.7150,-06.4970,-08.4450,-00.578306,+02.474014,-00.060545
-086.740,-075.063,-052.918,+1.786,+0.527,+1.705,-03.0310,-06.1120,-08.9180,-00.656938,+03.210501,-00.898869
-101.515,-073.230,-039.307,+1.698,+0.533,+1.755,-03.0790,-03.9790,-07.8470,-00.385082,+03.853505,-01.487906
-115.221,-070.363,-026.272,+1.601,+0.545,+1.843,-03.7550,-03.2280,-06.9800,+00.239709,+04.232317,-01.969725
-126.703,-066.619,-015.112,+1.527,+0.536,+1.948,-04.9660,-03.6710,-06.3880,+00.453656,+04.367105,-02.458510
-135.792,-062.410,-006.384,+1.476,+0.602,+2.091,-06.9880,-02.2730,-06.1470,+00.448946,+04.134078,-02.758511
-142.818,-057.879,+000.304,+1.374,+0.703,+2.258,-09.9910,-02.1100,-07.9280,+00.541711,+04.128439,-02.863898
-148.184,-053.077,+005.361,+1.175,+0.849,+2.438,-10.0610,-01.6280,-06.5870,+00.553555,+03.923492,-02.845561
-152.284,-048.487,+009.059,+0.985,+0.985,+2.542,-12.4800,-02.9370,-07.8010,+00.310221,+03.581574,-02.650975
-155.319,-043.908,+011.322,+0.702,+1.097,+2.582,-15.3230,-03.7500,-09.7120,-00.024460,+03.667701,-02.491088
-158.177,-039.354,+013.350,+0.443,+1.114,+2.593,-15.1090,-05.7730,-06.2370,+00.207532,+03.257282,-02.856874
-161.932,-035.111,+015.511,+0.289,+1.081,+2.575,-16.0660,-11.9290,-03.8530,-00.390338,+02.697232,-03.885437
-167.209,-031.113,+017.338,+0.155,+1.043,+2.543,-16.4000,-10.2290,-02.6930,-01.173568,+01.993751,-05.138235
-173.376,-027.428,+018.452,+0.062,+0.945,+2.588,-17.6730,-08.9900,-01.9650,-01.997721,+01.399853,-05.509948
-179.385,-024.285,+018.167,-0.003,+0.857,+2.640,-18.1350,-07.3020,-00.6970,-02.772749,+00.962018,-05.189838
+175.328,-021.706,+017.015,-0.069,+0.759,+2.659,-18.2060,-03.8530,-00.4150,-02.657935,+00.842412,-04.399228
+171.282,-019.435,+016.223,-0.143,+0.670,+2.700,-17.7810,-00.9650,+00.3820,-01.414691,+01.047836,-03.314603
+168.594,-017.314,+016.652,-0.203,+0.651,+2.719,-15.4990,+00.8860,+02.4570,+00.236326,+01.140971,-02.297074
+166.719,-015.734,+018.221,-0.273,+0.687,+2.699,-14.0920,-01.1600,+04.5110,+01.127470,+00.612560,-01.731960
+165.010,-015.086,+019.570,-0.282,+0.716,+2.693,-13.4460,-04.8610,+05.9250,+00.425438,-00.307153,-01.455369
+163.141,-015.417,+019.688,-0.263,+0.721,+2.710,-12.9130,-05.0560,+04.1010,-00.707902,-01.046412,-01.359290
+160.979,-016.797,+020.430,-0.208,+0.725,+2.707,+07.5520,-05.1540,+04.6760,+00.849164,-02.545029,-01.368471
+159.398,-019.595,+021.040,-0.096,+0.734,+2.723,+01.1900,+03.4700,-06.1460,-00.358341,-03.313457,+00.725838
+159.195,-024.261,+020.993,+0.052,+0.778,+2.745,-12.0420,+05.7160,-13.0580,+00.142474,-03.816264,+01.352229
+160.014,-028.019,+018.562,+0.238,+0.741,+2.754,-28.1370,-23.6440,-33.6110,-04.200686,-01.488715,+01.853809
+160.868,-028.994,+016.135,+0.280,+0.652,+2.783,-10.1070,-03.9980,-13.4190,-01.776019,-00.768526,+00.795605
+161.207,-029.554,+015.181,+0.294,+0.627,+2.806,-06.4020,-02.8970,-09.9310,-00.514746,-00.454200,+00.295228
+161.191,-030.029,+015.039,+0.312,+0.617,+2.774,-04.8980,-02.5550,-08.0070,+00.025280,-00.353266,+00.019967
+161.131,-030.424,+015.101,+0.335,+0.631,+2.797,-05.8610,-01.9440,-08.0500,+00.051928,-00.287982,+00.035211
+161.111,-030.653,+015.139,+0.331,+0.612,+2.797,-05.0370,-02.3720,-07.9790,-00.005651,-00.177119,+00.054283
+161.161,-030.820,+015.088,+0.354,+0.616,+2.792,-04.9140,-02.4930,-07.5720,-00.039574,-00.107822,+00.092805
+161.265,-030.945,+014.969,+0.358,+0.606,+2.787,-05.1290,-01.9280,-07.8030,-00.053039,-00.077260,+00.095569
+161.330,-031.021,+014.892,+0.358,+0.601,+2.792,-05.2450,-01.7590,-07.9710,-00.035566,-00.028497,+00.047577
+161.345,-031.056,+014.876,+0.363,+0.611,+2.766,-04.8940,-01.7720,-07.9400,+00.019127,-00.040877,+00.003538
+161.342,-031.130,+014.918,+0.363,+0.626,+2.771,-04.8340,-01.9420,-07.8890,+00.043275,-00.063516,+00.020336
+161.348,-031.197,+014.972,+0.363,+0.597,+2.798,-05.0830,-02.0320,-07.8200,+00.044941,-00.048068,+00.020821
+161.357,-031.263,+015.018,+0.358,+0.626,+2.771,-05.0630,-02.0250,-07.8190,+00.042930,-00.057793,+00.021302
+161.379,-031.340,+015.051,+0.363,+0.616,+2.766,-05.0780,-02.0790,-07.7680,+00.035799,-00.063731,+00.042998
+161.427,-031.426,+015.058,+0.363,+0.626,+2.787,-05.1130,-02.0710,-07.8120,+00.022771,-00.063492,+00.060637
+161.496,-031.542,+015.035,+0.377,+0.626,+2.755,-05.1390,-01.9870,-07.8710,+00.008519,-00.091984,+00.078833
+161.561,-031.677,+015.001,+0.368,+0.601,+2.760,-05.1760,-01.9570,-07.8100,-00.005072,-00.109457,+00.074937
+161.608,-031.820,+014.967,+0.377,+0.611,+2.799,-05.2460,-01.9130,-07.8110,-00.008509,-00.106833,+00.060528
+161.647,-031.950,+014.939,+0.386,+0.651,+2.777,-05.0630,-01.9780,-07.7600,-00.008947,-00.103024,+00.058163
+161.717,-032.065,+014.862,+0.396,+0.655,+2.777,-05.1080,-02.1520,-07.7680,-00.064242,-00.063725,+00.092773
+161.862,-032.128,+014.651,+0.391,+0.596,+2.778,-05.2340,-01.9440,-07.6500,-00.137409,-00.005992,+00.126489
+162.029,-032.141,+014.396,+0.386,+0.631,+2.772,-05.2650,-01.8240,-07.6810,-00.138399,+00.020567,+00.117128
+162.181,-032.140,+014.156,+0.386,+0.606,+2.767,-05.3080,-01.8060,-07.7790,-00.141727,+00.036263,+00.102750
+162.342,-032.102,+013.889,+0.400,+0.596,+2.773,-05.2070,-01.8970,-07.7520,-00.172082,+00.075807,+00.113642
+162.547,-031.997,+013.551,+0.396,+0.586,+2.773,-05.2760,-01.9680,-07.7520,-00.218709,+00.154519,+00.135317
+162.827,-031.791,+013.129,+0.382,+0.576,+2.777,-05.2770,-01.9960,-07.7050,-00.245809,+00.263252,+00.176954
+163.143,-031.573,+012.678,+0.368,+0.552,+2.788,-05.1120,-01.3150,-07.7800,-00.224270,+00.203738,+00.170318
+163.353,-031.419,+012.360,+0.363,+0.567,+2.787,-04.9870,-01.4580,-07.9540,-00.160836,+00.126500,+00.105117
+163.497,-031.334,+012.137,+0.363,+0.552,+2.788,-04.7570,-01.5920,-07.8580,-00.113928,+00.064011,+00.086983
+163.600,-031.342,+011.986,+0.354,+0.562,+2.793,-05.0060,-01.6390,-07.9660,-00.077586,+00.022108,+00.083771
+163.728,-031.362,+011.839,+0.358,+0.547,+2.777,-04.9810,-01.4000,-07.9040,-00.065298,-00.024064,+00.091769
+163.800,-031.425,+011.743,+0.368,+0.552,+2.788,-04.8940,-01.4300,-07.9410,-00.038983,-00.059279,+00.055994
+163.824,-031.537,+011.694,+0.372,+0.562,+2.804,-04.9120,-01.4290,-07.9190,-00.028366,-00.107613,+00.030302
+163.823,-031.698,+011.663,+0.377,+0.547,+2.783,-05.1110,-01.6110,-07.9360,-00.026799,-00.166096,+00.028631
+163.824,-031.878,+011.610,+0.377,+0.527,+2.794,-05.0950,-01.5400,-07.8470,-00.054872,-00.154424,+00.035354
+163.815,-032.075,+011.549,+0.391,+0.532,+2.816,-05.1060,-01.3780,-07.9060,-00.057962,-00.176711,+00.024467
+163.774,-032.306,+011.539,+0.400,+0.561,+2.784,-05.1330,-01.2950,-07.8490,-00.029097,-00.217835,+00.001509
+163.689,-032.566,+011.541,+0.409,+0.532,+2.784,-05.1620,-01.4360,-07.8690,-00.032142,-00.260913,-00.019608
+163.586,-032.872,+011.580,+0.414,+0.517,+2.796,-05.2030,-01.4330,-07.8340,-00.014450,-00.291615,-00.018008
+163.481,-033.222,+011.607,+0.437,+0.556,+2.775,-05.2020,-01.4750,-07.8200,-00.024338,-00.330681,-00.006727
+163.397,-033.657,+011.649,+0.456,+0.521,+2.759,-05.2520,-01.3970,-07.7860,+00.014427,-00.420031,+00.024463
+163.314,-034.224,+011.719,+0.460,+0.516,+2.771,-05.2000,-01.5770,-07.8020,+00.019456,-00.542852,+00.050956
+163.228,-034.944,+011.764,+0.507,+0.550,+2.767,-05.2730,-01.4800,-07.7900,-00.019238,-00.686833,+00.082052
+163.125,-035.875,+011.802,+0.535,+0.520,+2.768,-05.3280,-01.4640,-07.6720,-00.022526,-00.902099,+00.111121
+163.021,-037.139,+011.837,+0.586,+0.560,+2.770,-05.4160,-01.5770,-07.6750,-00.027797,-01.222414,+00.191407
+162.987,-038.892,+011.836,+0.651,+0.564,+2.746,-05.3410,-01.6110,-07.4470,-00.006551,-01.687488,+00.360429
+163.073,-041.289,+011.828,+0.734,+0.513,+2.729,-05.4670,-01.6290,-07.5850,+00.066406,-02.259439,+00.572428
+163.443,-044.371,+011.654,+0.827,+0.507,+2.706,-05.4890,-02.4670,-08.1430,+00.023167,-02.741719,+00.922292
+164.392,-047.976,+010.789,+0.961,+0.486,+2.631,-06.2160,-02.3150,-08.0210,-00.268956,-03.109635,+01.316264
+166.020,-052.032,+008.944,+1.110,+0.449,+2.583,-07.9540,-02.6860,-08.1970,-00.694142,-03.481595,+01.615216
+168.764,-056.464,+005.208,+1.216,+0.374,+2.529,-10.4240,-03.8280,-08.8940,-01.667020,-03.794669,+02.046870
+173.336,-060.837,-000.986,+1.374,+0.238,+2.418,-10.9750,-05.5730,-09.5580,-02.299775,-03.649380,+02.440814
-179.306,-064.457,-010.549,+1.489,+0.038,+2.322,-11.8620,-06.2830,-10.3310,-02.852455,-03.270745,+02.696740
-168.856,-066.731,-024.941,+1.549,-0.151,+2.240,-10.1660,-11.6890,-08.3570,-05.433993,-02.863275,+03.115556
-157.148,-067.321,-044.662,+1.586,-0.439,+2.060,-11.4890,-12.6720,-06.6480,-09.033499,-02.699864,+02.415617
-156.374,-068.343,-052.856,+1.590,-0.668,+1.916,-08.0390,-05.0670,-13.4640,-04.993170,+00.203235,-01.898096
-162.883,-070.679,-050.768,+1.613,-0.673,+1.895,-02.9460,-07.0970,-05.3360,-03.171980,+00.190110,-03.018345
-170.321,-072.963,-047.509,+1.641,-0.664,+1.799,-05.7370,-04.8790,-08.0880,-03.447143,+00.391309,-02.681600
-179.873,-074.193,-042.200,+1.655,-0.723,+1.773,-05.6250,-02.2530,-09.5290,-03.227953,+01.220702,-02.255138
+169.174,-074.022,-034.805,+1.636,-0.728,+1.756,-04.7230,-01.6510,-09.4700,-02.432044,+02.061126,-01.749376
+159.102,-072.414,-027.432,+1.613,-0.777,+1.745,-05.0360,-02.8340,-09.5550,-01.737598,+02.787457,-01.280620
+150.558,-069.407,-020.932,+1.589,-0.836,+1.788,-06.4220,-04.4360,-09.9920,-01.191063,+03.742513,-01.105210
+143.485,-065.239,-015.513,+1.571,-0.880,+1.901,-06.7300,-05.7480,-08.5070,-00.859174,+04.416072,-01.158423
+137.666,-060.432,-011.134,+1.580,-0.885,+2.031,-07.3970,-06.3310,-07.3300,-00.578507,+04.667782,-01.382324
+132.702,-055.343,-007.187,+1.511,-0.843,+2.281,-07.4890,-05.4520,-05.6890,+00.036698,+04.737716,-01.661071
+128.559,-050.410,-003.334,+1.409,-0.762,+2.487,-08.0140,-05.6270,-04.7140,+00.716112,+04.290000,-01.840724
+124.912,-045.940,+000.527,+1.224,-0.542,+2.634,-09.8330,-06.0530,-06.2230,+01.143768,+03.758618,-02.158742
+121.260,-041.816,+004.655,+1.002,-0.406,+2.661,-11.3980,-05.9030,-08.9660,+01.524400,+03.365227,-02.625492
+117.596,-037.595,+008.875,+0.863,-0.295,+2.670,-14.1310,-04.7250,-11.8480,+01.712594,+03.431865,-03.024643
+114.200,-033.133,+012.996,+0.719,-0.210,+2.636,-12.9220,-00.1880,-09.6110,+02.022051,+03.241184,-03.093344
+111.445,-028.783,+017.177,+0.622,-0.179,+2.626,-15.2660,+01.2630,-11.2580,+02.624287,+03.133953,-02.905330
+109.420,-024.134,+021.160,+0.543,-0.114,+2.698,-16.2470,-01.9270,-11.6900,+02.575191,+03.449527,-02.799375
+108.076,-019.019,+023.909,+0.371,-0.008,+2.733,-15.2020,-03.1120,-10.3100,+01.549432,+03.823756,-02.660302
+107.215,-013.884,+025.422,+0.186,+0.053,+2.724,-13.5800,-00.6130,-07.4080,+00.952033,+03.685467,-02.465816
+106.470,-009.086,+026.498,+0.061,+0.060,+2.729,-14.1310,-01.5500,-04.6540,+00.695509,+03.333801,-02.383905
+105.557,-004.930,+027.158,-0.046,+0.041,+2.671,-14.3100,+00.2610,+00.4030,+00.408227,+02.544673,-02.309733
+104.386,-001.898,+028.039,-0.102,+0.081,+2.646,-16.8940,+06.5720,+03.9150,+01.021446,+01.483726,-01.950879
+103.181,-000.182,+029.724,-0.116,+0.086,+2.662,-17.3290,+07.4450,+06.3220,+01.498451,+00.336049,-01.467525
+101.937,-000.195,+030.358,-0.084,+0.110,+2.620,-14.3200,+03.1650,+03.7240,-00.212085,-01.066079,-00.541055
+101.024,-001.736,+029.137,-0.033,+0.055,+2.623,-12.6020,+03.1450,-01.8180,-01.335341,-01.731090,+00.227502
+101.465,-003.447,+029.378,+0.023,+0.030,+2.604,+05.3890,-12.6950,-08.3350,+00.454569,-01.145982,+01.065147
+103.120,-007.586,+027.415,+0.125,-0.041,+2.587,-00.1130,-04.9200,-05.1700,-01.967873,-03.017718,+03.417675
+103.964,-011.685,+025.660,+0.241,-0.106,+2.576,-04.2850,-08.6150,-04.3180,-01.406359,-03.016169,+01.742629
+104.137,-015.920,+023.950,+0.348,-0.182,+2.538,-08.5840,+02.3050,-13.6020,-01.479863,-03.207612,+01.761808
+104.962,-019.664,+022.302,+0.473,-0.258,+2.496,-09.8150,-01.2340,-12.8330,-00.999811,-02.494386,+01.838411
+105.436,-022.702,+020.971,+0.570,-0.333,+2.463,-10.5270,-07.5950,-11.4760,-01.094818,-02.199114,+00.986610
+105.508,-024.926,+019.688,+0.621,-0.388,+2.433,-10.1170,+01.4850,-13.4830,-00.975732,-01.441862,+00.619884
+105.618,-026.067,+018.168,+0.658,-0.448,+2.381,-03.6740,-03.4050,-05.1170,-01.217357,-00.926335,+00.241314
+105.560,-026.949,+017.044,+0.686,-0.448,+2.393,-05.5950,-03.5670,-08.0480,-00.955662,-00.652419,+00.175658
+105.551,-027.533,+016.197,+0.718,-0.513,+2.379,-05.0520,-01.1990,-08.9880,-00.616032,-00.392679,+00.130887
+105.585,-027.892,+015.683,+0.732,-0.528,+2.347,-05.1680,-02.1400,-08.6700,-00.297369,-00.228498,+00.102785
+105.540,-028.136,+015.493,+0.737,-0.543,+2.348,-04.9320,-01.3650,-08.5470,-00.082092,-00.194437,-00.036936
+105.360,-028.339,+015.581,+0.741,-0.548,+2.359,-05.0580,-01.4870,-08.3280,+00.038560,-00.206531,-00.113623
+105.107,-028.526,+015.785,+0.755,-0.528,+2.321,-04.7870,-02.0130,-08.0500,+00.089646,-00.221680,-00.152553
+104.853,-028.750,+016.026,+0.764,-0.529,+2.327,-04.7600,-02.3760,-07.7800,+00.118694,-00.243493,-00.116555
+104.678,-028.973,+016.223,+0.783,-0.544,+2.333,-05.0850,-02.6860,-07.6850,+00.083027,-00.205889,-00.054478
+104.575,-029.145,+016.348,+0.792,-0.519,+2.323,-04.9720,-02.3190,-07.7890,+00.050356,-00.149694,-00.027003
+104.508,-029.299,+016.410,+0.792,-0.534,+2.334,-05.0190,-02.2100,-07.8910,+00.006897,-00.127522,+00.001931
+104.521,-029.433,+016.362,+0.792,-0.544,+2.350,-04.9030,-02.4510,-07.6830,-00.052936,-00.113098,+00.061365
+104.556,-029.579,+016.299,+0.811,-0.509,+2.302,-05.0070,-02.0360,-07.9500,-00.020158,-00.113959,+00.052955
+104.552,-029.727,+016.319,+0.797,-0.534,+2.296,-04.9810,-02.0260,-07.9230,+00.036424,-00.127702,+00.018604
+104.510,-029.869,+016.393,+0.811,-0.534,+2.340,-05.0060,-02.0750,-07.8210,+00.044040,-00.120538,-00.004115
+104.454,-030.003,+016.473,+0.806,-0.539,+2.307,-05.0090,-02.2950,-07.7010,+00.041830,-00.126683,-00.005632
+104.424,-030.155,+016.539,+0.816,-0.529,+2.308,-04.9960,-02.3670,-07.6760,+00.040521,-00.136831,+00.030036
+104.441,-030.310,+016.551,+0.825,-0.519,+2.346,-05.0630,-02.3950,-07.7340,+00.012030,-00.134776,+00.058835
+104.512,-030.439,+016.502,+0.816,-0.494,+2.324,-05.0320,-02.3560,-07.6870,-00.037420,-00.056784,+00.100735
+104.701,-030.497,+016.267,+0.829,-0.539,+2.308,-04.9810,-02.3680,-07.7990,-00.172522,+00.026776,+00.184430
+105.111,-030.449,+015.748,+0.815,-0.564,+2.324,-05.0260,-02.6280,-07.5860,-00.319066,+00.173898,+00.346212
+105.657,-030.332,+015.128,+0.797,-0.549,+2.318,-05.1700,-02.0190,-07.7230,-00.268893,+00.214357,+00.362539
+106.124,-030.252,+014.631,+0.792,-0.579,+2.285,-05.1130,-01.6650,-08.0450,-00.209939,+00.137268,+00.301833
+106.465,-030.231,+014.241,+0.792,-0.588,+2.318,-04.9060,-01.8010,-07.9590,-00.189827,+00.058682,+00.222084
+106.719,-030.291,+013.938,+0.792,-0.578,+2.312,-04.9430,-01.8270,-07.8680,-00.131050,-00.044815,+00.182138
+106.935,-030.415,+013.679,+0.788,-0.608,+2.296,-04.9590,-01.8850,-07.8200,-00.140187,-00.081400,+00.190362
+107.169,-030.582,+013.418,+0.788,-0.618,+2.307,-05.0100,-01.9080,-07.8970,-00.110796,-00.105579,+00.222170
+107.456,-030.796,+013.177,+0.788,-0.623,+2.296,-05.0740,-01.8530,-07.7350,-00.053435,-00.161391,+00.263681
+107.734,-031.101,+012.990,+0.788,-0.623,+2.302,-05.1310,-01.7260,-07.8900,-00.046167,-00.237934,+00.274009
+108.051,-031.485,+012.789,+0.783,-0.638,+2.318,-05.1880,-01.7040,-07.8800,-00.013273,-00.295282,+00.317127
+108.330,-031.988,+012.645,+0.806,-0.628,+2.292,-05.2960,-01.2340,-07.8980,+00.010528,-00.438110,+00.266127
+108.461,-032.657,+012.623,+0.825,-0.618,+2.282,-05.1350,-01.4430,-07.8280,+00.064487,-00.613177,+00.218714
+108.562,-033.576,+012.613,+0.829,-0.643,+2.282,-05.2630,-01.4060,-07.7660,+00.025925,-00.860086,+00.264189
+108.543,-034.792,+012.677,+0.876,-0.619,+2.262,-05.4350,-01.3810,-07.6680,+00.064371,-01.157721,+00.195692
+108.376,-036.352,+012.855,+0.922,-0.639,+2.243,-05.4690,-01.6670,-07.5080,+00.057699,-01.482901,+00.198270
+108.221,-038.310,+013.014,+0.968,-0.655,+2.213,-05.7530,-01.7130,-07.5200,+00.054612,-01.801948,+00.349386
+108.188,-040.732,+013.097,+1.019,-0.596,+2.182,-05.7790,-01.5430,-07.2210,+00.076394,-02.221493,+00.519524
+108.248,-043.645,+013.242,+1.103,-0.627,+2.148,-05.8500,-01.6120,-07.6250,+00.182980,-02.615327,+00.671207
+108.426,-047.052,+013.334,+1.168,-0.662,+2.113,-06.3760,-01.7920,-07.7820,+00.182821,-03.021413,+00.854982
+108.711,-051.053,+013.320,+1.260,-0.664,+2.020,-06.5960,-01.8140,-07.4040,+00.176687,-03.582196,+01.029683
+109.061,-055.823,+013.246,+1.353,-0.705,+1.922,-08.3710,-02.7580,-07.9700,+00.170054,-04.261411,+01.175136
+109.248,-061.373,+013.504,+1.451,-0.701,+1.862,-09.9780,-02.1600,-09.4080,+00.583961,-04.969468,+01.212275
+109.288,-068.009,+014.161,+1.580,-0.698,+1.700,-10.6670,-02.8240,-08.8740,+00.621399,-06.005266,+01.491704
+108.979,-075.460,+015.245,+1.705,-0.760,+1.522,-12.2060,-01.5630,-09.7680,+00.780222,-06.406951,+01.545440
+105.259,-082.723,+020.310,+1.793,-0.776,+1.402,-16.7470,+00.8530,-09.7700,+01.719222,-06.021709,+01.200863
+055.730,-088.529,+073.030,+1.867,-0.738,+1.237,-07.5520,-04.1780,-09.8940,+03.297074,-05.160977,+01.176617
-057.351,-086.571,-171.144,+1.904,-0.773,+1.191,-34.3010,-15.1140,-41.4120,+01.212693,-01.099704,+01.670690
-102.870,-087.842,-125.310,+1.895,-0.773,+1.266,-02.0790,-07.1440,-15.3360,-00.093579,+02.743639,+00.925085
-169.713,-086.554,-059.052,+1.858,-0.802,+1.351,+01.0430,-02.2300,-06.3980,-00.547505,+02.555449,+01.094748
+170.928,-083.827,-040.318,+1.816,-0.835,+1.441,-02.3420,-04.0490,-08.5800,-00.433406,+02.714150,+00.680657
+156.882,-080.493,-026.953,+1.807,-0.820,+1.554,-04.5190,-05.5270,-11.2210,-00.551653,+03.767508,-00.076098
+145.265,-076.033,-016.224,+1.770,-0.765,+1.676,-03.0730,-04.1270,-07.9460,-00.527816,+04.608484,-00.721461
+136.854,-070.972,-008.449,+1.706,-0.699,+1.862,-04.1440,-03.4520,-06.1400,-00.082778,+04.804648,-01.310901
+130.326,-065.680,-002.305,+1.618,-0.608,+2.090,-04.6650,-03.5380,-04.3640,+00.112626,+04.701357,-01.855038
+125.009,-060.753,+002.500,+1.428,-0.456,+2.242,-07.0510,-02.8330,-05.1010,+00.016888,+04.061885,-02.211005
+120.851,-055.900,+006.111,+1.178,-0.320,+2.333,-10.6900,-02.0970,-08.4280,+00.095591,+04.165678,-02.178631
+118.048,-050.953,+008.459,+1.001,-0.338,+2.325,-10.1390,-02.8180,-05.7550,+00.048868,+03.958410,-01.858863
+116.071,-046.492,+010.004,+0.825,-0.371,+2.323,-14.5440,-05.2050,-09.2910,+00.131962,+03.567420,-01.769862
+113.996,-041.891,+011.742,+0.723,-0.459,+2.276,-14.8880,-05.3900,-06.9910,+00.338292,+03.659785,-02.171441
+111.713,-037.653,+013.669,+0.755,-0.598,+2.273,-15.8760,-05.9490,-05.0900,+00.400395,+03.029014,-02.386652
+109.121,-033.952,+015.504,+0.918,-0.649,+2.372,-15.8720,-07.3690,-04.1030,+00.199544,+02.441635,-02.742130
+105.873,-030.477,+017.323,+1.020,-0.614,+2.652,-16.4900,-08.6640,-05.1790,-00.019852,+02.165216,-03.442492
+101.948,-026.794,+018.861,+1.011,-0.548,+2.862,-15.5020,-07.3770,-05.4190,-00.482696,+02.096013,-04.068595
+097.773,-022.989,+019.667,+0.891,-0.457,+2.975,-14.0090,-05.4260,-04.9390,-01.063981,+01.996221,-04.225580
+093.910,-019.332,+019.391,+0.733,-0.490,+3.022,-12.5730,-03.9010,-04.0200,-01.643067,+01.917823,-03.883737
+090.340,-016.026,+018.510,+0.622,-0.514,+3.023,-11.3340,-04.6030,-02.5920,-01.697693,+01.640127,-03.697154
+086.659,-013.227,+017.658,+0.547,-0.548,+2.928,-10.8780,-04.7190,-01.2650,-01.427633,+01.160589,-03.745550
+082.787,-011.043,+017.168,+0.547,-0.593,+2.869,-10.9050,-03.2470,-00.2690,-00.937993,+00.638524,-03.655354
+079.088,-009.526,+017.155,+0.542,-0.618,+2.853,-11.3330,-01.6520,+00.8150,-00.370094,+00.142200,-03.245249
+075.619,-008.793,+017.642,+0.603,-0.569,+2.801,-12.1600,-02.3840,+02.1520,+00.096591,-00.545611,-02.971448
+072.124,-008.809,+018.285,+0.686,-0.560,+2.761,-12.6580,-02.6020,+02.4010,+00.030476,-01.173561,-02.760577
+068.921,-009.570,+018.472,+0.760,-0.556,+2.759,-12.0780,-01.8370,+01.8840,-00.470902,-01.691939,-02.156062
+066.378,-011.141,+018.870,+0.862,-0.523,+2.693,-07.2070,+01.7280,+00.6500,+01.016398,-02.266973,-01.554902
+063.913,-013.400,+020.377,+0.969,-0.499,+2.676,+00.1570,-06.5340,-09.2470,+00.337570,-02.827939,-00.910947
+062.609,-017.302,+020.582,+1.080,-0.515,+2.622,-01.6750,+03.4750,-06.7500,-00.270485,-04.036894,+00.753855
+061.933,-021.763,+020.755,+1.210,-0.537,+2.525,-11.0230,+01.5620,-12.5990,-00.172236,-03.658861,+01.044537
+062.300,-025.618,+019.595,+1.280,-0.642,+2.442,-18.9460,-07.1800,-18.3840,-01.532839,-02.424913,+01.492095
+063.132,-027.148,+017.117,+1.284,-0.682,+2.383,-04.5590,+01.3100,-06.7080,-01.299369,-00.662211,+00.750346
+063.741,-028.050,+015.583,+1.298,-0.791,+2.336,-05.4910,-03.4700,-06.7420,-00.923608,-00.624662,+00.578759
+064.005,-028.677,+014.757,+1.302,-0.826,+2.288,-05.7370,+00.2500,-09.7820,-00.369727,-00.341711,+00.223951
+064.068,-029.073,+014.491,+1.307,-0.831,+2.310,-05.8430,-02.0730,-08.2350,-00.174601,-00.276292,+00.114495
+064.116,-029.290,+014.338,+1.307,-0.821,+2.283,-04.9730,-02.6980,-07.6930,-00.101503,-00.167708,+00.084077
+064.199,-029.467,+014.192,+1.321,-0.846,+2.273,-04.9150,-02.5140,-07.6920,-00.098635,-00.114299,+00.106860
+064.299,-029.622,+014.022,+1.316,-0.846,+2.289,-05.4680,-02.0120,-07.9740,-00.097525,-00.107826,+00.095015
+064.345,-029.735,+013.951,+1.330,-0.861,+2.268,-05.2580,-01.7980,-07.9790,-00.015418,-00.079695,+00.037800
+064.344,-029.820,+013.978,+1.316,-0.866,+2.251,-04.9700,-02.0910,-07.7430,+00.035647,-00.072804,+00.014392
+064.336,-029.900,+014.034,+1.326,-0.836,+2.295,-05.0230,-01.9910,-07.8410,+00.049686,-00.067621,+00.008345
+064.325,-029.971,+014.097,+1.325,-0.846,+2.246,-05.0500,-02.0180,-07.8390,+00.047140,-00.059151,+00.008701
+064.327,-030.041,+014.142,+1.321,-0.856,+2.251,-05.2340,-01.9210,-07.8230,+00.040658,-00.055287,+00.016858
+064.323,-030.075,+014.189,+1.325,-0.861,+2.284,-05.3480,-01.9380,-07.8310,+00.037793,-00.010273,-00.005002
+064.317,-030.076,+014.224,+1.325,-0.861,+2.262,-04.9820,-02.1810,-07.7460,+00.019565,-00.008193,+00.007966
+064.363,-030.103,+014.196,+1.330,-0.841,+2.246,-05.0900,-02.1330,-07.7510,-00.017800,-00.015034,+00.056392
+064.450,-030.135,+014.120,+1.330,-0.851,+2.279,-05.1410,-02.0160,-07.8370,-00.033764,-00.009899,+00.075712
+064.545,-030.164,+014.024,+1.330,-0.841,+2.268,-05.2020,-01.9310,-07.8400,-00.047844,-00.010085,+00.072275
+064.619,-030.177,+013.941,+1.321,-0.871,+2.235,-05.1110,-01.9260,-07.7870,-00.028887,+00.001602,+00.044652
+064.657,-030.197,+013.899,+1.316,-0.866,+2.257,-05.1610,-01.8980,-07.8050,-00.013443,-00.016257,+00.022346
+064.673,-030.212,+013.877,+1.330,-0.841,+2.252,-05.1340,-01.9170,-07.8180,-00.014541,-00.003354,+00.012110
+064.688,-030.208,+013.849,+1.321,-0.866,+2.241,-05.1200,-01.9750,-07.7450,-00.023608,+00.015623,+00.011243
+064.728,-030.158,+013.772,+1.325,-0.886,+2.257,-05.1440,-02.0470,-07.7780,-00.068349,+00.070728,+00.026926
+064.830,-030.037,+013.586,+1.321,-0.861,+2.257,-05.0820,-02.0760,-07.8020,-00.154375,+00.152461,+00.065911
+065.021,-029.826,+013.235,+1.312,-0.866,+2.262,-05.0210,-02.1570,-07.8010,-00.262133,+00.245831,+00.120571
+065.316,-029.533,+012.715,+1.293,-0.871,+2.272,-05.0140,-02.0300,-07.7860,-00.358137,+00.331099,+00.181605
+065.687,-029.161,+012.103,+1.274,-0.890,+2.239,-05.0800,-01.8320,-07.8900,-00.358870,+00.406619,+00.208926
+066.037,-028.796,+011.522,+1.256,-0.940,+2.265,-04.7990,-01.6100,-07.8740,-00.353753,+00.342572,+00.194746
+066.312,-028.506,+011.051,+1.251,-0.925,+2.281,-04.8380,-01.3120,-08.0840,-00.263553,+00.259383,+00.140670
+066.462,-028.307,+010.757,+1.242,-0.949,+2.254,-04.8030,-01.3140,-08.1860,-00.163564,+00.171372,+00.055924
+066.553,-028.139,+010.581,+1.242,-0.969,+2.254,-04.5730,-01.4240,-08.0430,-00.089275,+00.109818,+00.027977
+066.591,-028.071,+010.487,+1.237,-0.954,+2.270,-04.6880,-01.4230,-08.0370,-00.057558,+00.047660,+00.013500
+066.602,-028.041,+010.431,+1.242,-0.940,+2.254,-04.7460,-01.4320,-08.1100,-00.036081,+00.024929,-00.002175
+066.605,-028.021,+010.390,+1.237,-0.964,+2.248,-04.6410,-01.5080,-08.0560,-00.040930,+00.016214,+00.005139
+066.625,-028.015,+010.317,+1.223,-0.979,+2.280,-04.6240,-01.6460,-08.0120,-00.060845,-00.001489,+00.021301
+066.676,-028.019,+010.202,+1.233,-0.930,+2.259,-04.7530,-01.4910,-08.0310,-00.084329,+00.004470,+00.044586
+066.743,-028.019,+010.069,+1.219,-0.969,+2.248,-04.7530,-01.4200,-08.1110,-00.094284,+00.017257,+00.054688
+066.811,-028.031,+009.942,+1.232,-0.979,+2.259,-04.6620,-01.4520,-07.9800,-00.080406,-00.024168,+00.051824
+066.877,-028.103,+009.846,+1.228,-0.949,+2.253,-04.5090,-01.2320,-08.0100,-00.043086,-00.087212,+00.070782
+066.966,-028.291,+009.768,+1.223,-0.979,+2.248,-04.5450,-01.5620,-08.1050,-00.042379,-00.176009,+00.124085
+067.125,-028.562,+009.634,+1.223,-1.004,+2.248,-04.6600,-01.3930,-08.2630,-00.058746,-00.239138,+00.179313
+067.323,-028.911,+009.456,+1.237,-0.979,+2.232,-04.6630,-01.4930,-08.2080,-00.077759,-00.307531,+00.207155
+067.515,-029.376,+009.244,+1.246,-0.974,+2.233,-04.8360,-01.5080,-08.2020,-00.120097,-00.437577,+00.217917
+067.659,-030.093,+009.019,+1.251,-1.019,+2.222,-04.1220,-02.0870,-08.3700,-00.121197,-00.703937,+00.204510
+067.849,-031.243,+008.840,+1.279,-1.010,+2.169,-04.3560,-01.7360,-08.4430,-00.049733,-01.146461,+00.371995
+068.121,-033.028,+008.587,+1.306,-1.045,+2.149,-04.4940,-01.7820,-08.6300,-00.148395,-01.747287,+00.471411
+068.535,-035.669,+008.125,+1.348,-1.065,+2.103,-04.6980,-01.9770,-08.1010,-00.242764,-02.540866,+00.751810
+069.375,-039.270,+007.155,+1.427,-1.071,+1.998,-04.7220,-01.9080,-08.6130,-00.491091,-03.294819,+01.157028
+071.020,-043.495,+005.218,+1.478,-1.127,+1.893,-05.7640,-01.3000,-08.4230,-00.903553,-03.709866,+01.656681
+073.596,-048.106,+002.049,+1.519,-1.232,+1.771,-08.3060,-02.9720,-09.0990,-01.331658,-03.994980,+01.867200
+077.347,-052.608,-002.976,+1.556,-1.288,+1.568,-11.5420,-04.2670,-11.4360,-02.080747,-03.882330,+02.140158
+082.959,-056.588,-010.458,+1.560,-1.427,+1.359,-10.8460,-05.5100,-10.1060,-02.803363,-03.703670,+02.582169
+090.869,-059.462,-021.819,+1.527,-1.532,+1.169,-10.3050,-09.0150,-09.3640,-04.898606,-03.267849,+02.943929
+100.244,-060.997,-037.105,+1.490,-1.612,+0.833,-00.7160,-06.8810,-08.0550,-06.960412,-02.960195,+02.695638
+102.905,-062.040,-044.985,+1.480,-1.638,+0.601,-09.6240,-04.2170,-18.1430,-03.230320,-00.234925,-01.100994
+098.923,-063.461,-043.864,+1.563,-1.570,+0.544,-01.4960,-07.7160,-06.5730,-02.008498,+00.196900,-02.188794
+094.646,-064.914,-042.730,+1.675,-1.443,+0.419,-03.9080,-04.2260,-08.3710,-02.522334,+00.313085,-01.949871
+089.469,-065.719,-040.549,+1.754,-1.360,+0.351,-04.5990,-01.2510,-10.3030,-01.883682,+01.037123,-01.832673
+082.956,-065.528,-036.076,+1.838,-1.296,+0.382,-04.4610,-01.7600,-10.3370,-00.965140,+01.902072,-01.649471
+076.060,-064.180,-030.624,+1.935,-1.213,+0.407,-04.4450,-03.1850,-09.5370,-00.587178,+02.658701,-01.401085
+069.450,-061.826,-025.244,+2.042,-1.144,+0.487,-04.3030,-03.6340,-08.2860,-00.342243,+03.230794,-01.354028
+063.252,-058.818,-019.995,+2.126,-1.085,+0.625,-04.9120,-04.1900,-07.5190,+00.012491,+03.552393,-01.548618
+057.430,-055.408,-014.878,+2.261,-1.036,+0.798,-06.2030,-04.5100,-07.4840,+00.306487,+03.731850,-01.856297
+052.105,-051.774,-009.940,+2.363,-0.912,+1.061,-06.5340,-02.9970,-06.3850,+00.742664,+03.594208,-02.080179
+047.474,-048.166,-005.262,+2.420,-0.812,+1.322,-09.0260,-03.3960,-08.0060,+01.090290,+03.418579,-02.197904
+043.434,-044.494,-001.090,+2.402,-0.568,+1.621,-09.5670,-03.3270,-07.9660,+01.064972,+03.244888,-02.281486
+039.895,-040.967,+002.481,+2.258,-0.407,+1.835,-10.6590,-02.9450,-09.5000,+01.022964,+02.951996,-02.318352
+036.669,-037.297,+005.804,+2.134,-0.287,+1.986,-12.6270,-02.3880,-11.2410,+01.190282,+03.121984,-02.476070
+033.726,-033.385,+008.947,+1.995,-0.131,+2.070,-12.2140,-02.0070,-09.5630,+01.281601,+03.080559,-02.525389
+031.087,-029.717,+011.865,+1.874,-0.026,+2.134,-11.3900,-00.7720,-07.6340,+01.396893,+02.581005,-02.490399
+028.646,-026.443,+014.725,+1.833,+0.074,+2.180,-12.0300,-01.3550,-08.0330,+01.528945,+02.235121,-02.480596
+026.375,-023.270,+017.452,+1.796,+0.243,+2.210,-12.2250,-01.9230,-08.6290,+01.552133,+02.144142,-02.512376
+024.309,-019.931,+019.925,+1.717,+0.338,+2.265,-12.1140,-01.9400,-09.0250,+01.442748,+02.292882,-02.514332
+022.609,-016.348,+021.953,+1.653,+0.443,+2.343,-11.4950,-01.1430,-08.6870,+01.204632,+02.487665,-02.378426
+021.297,-012.637,+023.327,+1.565,+0.627,+2.408,-10.3050,-01.0570,-06.9710,+00.696131,+02.557920,-02.195573
+020.212,-009.157,+023.900,+1.435,+0.683,+2.483,-09.9490,-01.0350,-04.9010,+00.117704,+02.294608,-02.002108
+019.130,-006.098,+023.964,+1.338,+0.734,+2.521,-10.2360,-00.3930,-03.0260,-00.116891,+01.907395,-01.910032
+017.951,-003.588,+024.138,+1.240,+0.804,+2.543,-11.4310,+01.4110,-01.6030,+00.245258,+01.400934,-01.752753
+016.934,-001.726,+024.983,+1.180,+0.864,+2.562,-11.6720,+04.4560,+00.3650,+00.979483,+00.917218,-01.273010
+016.293,-000.759,+026.349,+1.124,+0.899,+2.538,-12.4030,+03.6300,+02.2620,+01.121957,+00.248221,-00.621277
+015.951,-001.381,+026.790,+1.138,+0.973,+2.522,-14.0180,+06.1060,+10.5640,-00.651506,-01.594278,+00.697867
+016.715,-005.137,+026.017,+1.245,+0.858,+2.489,-06.4190,-03.6210,-20.9330,-00.721141,-02.207061,+02.394118
+018.403,-009.031,+024.333,+1.356,+0.778,+2.468,+01.0180,-02.7760,+00.9500,-01.290991,-03.122547,+02.870241
+019.174,-014.163,+022.776,+1.523,+0.692,+2.368,-07.7520,-07.6250,-11.7280,-01.369388,-03.924792,+02.306930
+019.959,-018.851,+020.928,+1.648,+0.561,+2.261,-11.4670,-00.0370,-13.8630,-01.399108,-03.255170,+02.022593
+020.802,-022.594,+019.049,+1.736,+0.501,+2.195,-12.9130,-08.3560,-12.9080,-01.497567,-02.580722,+01.487799
+021.224,-025.302,+016.825,+1.819,+0.410,+2.096,-12.9800,-00.9080,-15.2480,-01.938636,-01.746287,+00.938055
+021.750,-026.512,+014.396,+1.842,+0.316,+2.098,-06.2210,-01.1350,-09.3490,-01.687512,-00.792450,+00.516579
+021.999,-027.101,+013.102,+1.861,+0.271,+2.094,-07.4530,-01.3400,-10.1710,-00.822581,-00.277090,+00.252435
+022.179,-027.336,+012.358,+1.861,+0.296,+2.072,-05.5700,-01.2360,-08.7200,-00.472456,-00.102415,+00.166637
+022.350,-027.419,+011.833,+1.870,+0.226,+2.073,-04.8530,-01.6810,-08.5600,-00.342420,-00.012717,+00.151808
+022.536,-027.439,+011.431,+1.865,+0.256,+2.094,-05.0050,-01.7540,-08.2550,-00.262445,+00.029714,+00.137982
+022.695,-027.425,+011.099,+1.865,+0.212,+2.073,-04.7930,-01.3050,-08.3200,-00.195742,+00.030952,+00.101178
+022.829,-027.396,+010.812,+1.861,+0.207,+2.073,-04.6700,-01.6860,-08.2430,-00.205727,+00.069446,+00.106427
+022.991,-027.380,+010.490,+1.865,+0.197,+2.078,-04.7090,-01.8480,-08.0890,-00.217478,+00.065758,+00.130526
+023.187,-027.322,+010.169,+1.861,+0.202,+2.078,-04.7270,-01.8420,-07.9500,-00.202047,+00.076934,+00.149674
+023.395,-027.245,+009.865,+1.851,+0.177,+2.094,-04.7630,-01.5790,-08.0790,-00.169515,+00.103942,+00.145867
+023.575,-027.161,+009.628,+1.842,+0.158,+2.115,-04.6600,-01.2110,-08.1440,-00.114846,+00.073215,+00.107954
+023.702,-027.118,+009.441,+1.856,+0.172,+2.089,-04.5200,-01.3220,-08.1240,-00.108945,+00.039937,+00.082984
+023.798,-027.111,+009.293,+1.851,+0.133,+2.100,-04.4710,-01.4470,-08.1480,-00.078690,-00.006758,+00.065820
+023.886,-027.154,+009.169,+1.861,+0.157,+2.105,-04.5270,-01.4680,-08.0830,-00.070853,-00.032280,+00.080648
+024.012,-027.197,+009.024,+1.856,+0.177,+2.094,-04.6580,-01.4750,-08.0600,-00.083534,+00.022716,+00.132777
+024.120,-027.308,+008.898,+1.861,+0.152,+2.062,-04.6850,-01.5150,-08.1110,-00.076343,-00.024176,+00.118344
+024.277,-027.357,+008.753,+1.847,+0.158,+2.110,-04.4760,-01.4040,-08.1400,-00.051281,-00.052585,+00.125010
+024.411,-027.447,+008.633,+1.856,+0.138,+2.084,-04.5310,-01.3900,-08.1090,-00.050035,-00.070923,+00.114461
+024.547,-027.569,+008.517,+1.847,+0.153,+2.089,-04.6850,-01.3360,-08.1630,-00.044929,-00.089106,+00.125549
+024.686,-027.716,+008.404,+1.865,+0.123,+2.079,-04.7370,-01.2830,-08.1940,-00.038139,-00.117608,+00.120792
+024.826,-027.865,+008.303,+1.860,+0.123,+2.063,-04.6300,-01.3620,-08.1090,-00.026372,-00.121397,+00.129150
+024.953,-028.064,+008.221,+1.860,+0.098,+2.068,-04.7240,-01.3480,-08.1430,-00.016497,-00.153270,+00.124952
+025.100,-028.283,+008.127,+1.865,+0.123,+2.079,-04.7740,-01.3470,-08.1700,-00.026900,-00.175160,+00.149469
+025.268,-028.527,+008.022,+1.870,+0.142,+2.057,-04.7540,-01.3590,-08.1200,-00.018955,-00.205845,+00.161962
+025.449,-028.830,+007.922,+1.884,+0.098,+2.053,-04.7160,-01.2870,-08.1520,-00.003816,-00.262763,+00.178841
+025.663,-029.223,+007.817,+1.893,+0.083,+2.053,-04.7240,-01.2860,-08.1570,-00.001901,-00.346561,+00.224291
+025.932,-029.697,+007.697,+1.893,+0.097,+2.032,-04.8790,-01.4810,-07.9780,+00.024677,-00.401572,+00.286780
+026.286,-030.269,+007.564,+1.916,+0.077,+2.006,-05.0890,-01.1220,-08.0870,+00.044212,-00.487780,+00.349034
+026.623,-030.981,+007.410,+1.916,+0.043,+2.001,-05.1110,-00.9040,-08.1730,+00.002247,-00.658396,+00.308318
+026.874,-031.940,+007.246,+1.939,+0.047,+1.958,-05.1190,-01.0660,-08.0720,-00.033679,-00.898702,+00.304662
+027.140,-033.245,+007.066,+1.972,+0.037,+1.906,-04.9950,-01.3600,-07.9740,-00.037131,-01.243821,+00.367040
+027.414,-035.042,+006.891,+2.009,+0.001,+1.859,-05.0090,-00.9920,-07.7280,+00.008272,-01.723951,+00.382875
+027.571,-037.463,+006.927,+2.050,+0.015,+1.780,-05.1190,-01.1440,-07.7540,+00.124867,-02.300569,+00.396992
+027.818,-040.637,+007.000,+2.110,-0.016,+1.659,-04.8870,-00.6560,-07.9670,+00.273747,-02.978943,+00.565973
+028.302,-044.542,+006.853,+2.157,-0.031,+1.558,-05.6210,-00.8140,-08.2740,+00.050488,-03.569192,+00.847453
+029.222,-049.241,+006.196,+2.221,-0.068,+1.394,-06.5280,-01.4810,-07.7940,+00.020825,-04.272069,+01.122255
+030.817,-054.699,+004.805,+2.277,-0.109,+1.175,-08.8350,-02.4160,-08.7560,-00.189219,-04.880475,+01.365390
+033.485,-060.958,+002.297,+2.299,-0.204,+0.988,-10.2560,-03.0560,-09.9150,-00.204403,-05.728262,+01.736700
+038.593,-068.117,-002.369,+2.299,-0.275,+0.686,-12.3600,-02.5640,-10.0940,+00.095231,-06.459017,+01.975157
+049.231,-075.241,-012.754,+2.252,-0.355,+0.382,-13.9240,-00.8430,-10.0480,-00.459864,-06.465538,+02.104198
+073.298,-080.693,-036.791,+2.177,-0.464,+0.169,-14.4580,-04.9960,-11.9420,-00.467510,-05.709371,+02.019126
+109.720,-081.260,-073.979,+2.089,-0.504,-0.067,-25.9600,-00.1830,-24.5500,-00.944411,-02.830215,+02.719442
+107.235,-079.327,-071.416,+2.052,-0.622,-0.057,-06.1100,-04.3140,-18.6330,+00.617748,+02.167047,+01.222673
+098.663,-076.992,-062.561,+2.038,-0.686,+0.040,+01.1080,-05.0170,-05.6290,+00.139586,+02.092499,+01.350765
+092.859,-074.631,-057.122,+2.038,-0.721,+0.078,-01.4060,-05.4190,-06.7370,-00.242383,+02.164480,+00.945758
+085.647,-072.510,-050.479,+2.047,-0.770,+0.187,-04.0130,-05.9500,-10.0110,-00.213217,+02.854738,+00.123998
+076.056,-070.075,-041.506,+2.070,-0.769,+0.269,-02.8710,-04.7900,-08.4810,+00.000432,+03.663335,-00.588911
+066.337,-067.124,-032.147,+2.122,-0.740,+0.406,-02.8180,-03.4700,-06.9080,+00.459249,+04.007436,-01.127024
+057.477,-063.634,-023.209,+2.173,-0.675,+0.624,-04.8640,-03.1160,-08.2650,+00.927923,+04.321224,-01.625748
+049.591,-059.452,-015.049,+2.215,-0.600,+0.798,-05.3000,-02.8290,-07.4970,+01.115204,+04.580370,-02.054009
+043.025,-055.010,-008.130,+2.253,-0.476,+1.004,-06.7000,-00.2080,-07.3280,+01.335359,+04.328724,-02.360122
+037.912,-050.463,-002.187,+2.216,-0.316,+1.250,-08.0670,+01.5840,-08.1390,+01.801073,+04.119770,-02.245024
+034.545,-045.957,+002.531,+2.156,-0.191,+1.414,-09.9520,+00.3520,-09.4130,+01.876178,+03.820076,-01.784572
+032.519,-041.437,+005.843,+2.087,-0.061,+1.523,-14.1640,-01.3750,-13.5550,+01.582862,+03.948318,-01.507889
+030.896,-036.579,+008.735,+1.985,+0.075,+1.706,-14.0660,-01.8100,-10.5590,+01.700620,+04.010501,-01.729110
+029.168,-031.809,+011.625,+1.907,+0.116,+1.859,-17.5110,-04.7250,-10.9330,+01.594846,+03.862249,-02.136653
+027.118,-026.813,+014.268,+1.777,+0.237,+1.999,-16.5730,-04.3790,-09.9250,+01.355658,+03.914178,-02.714725
+024.814,-021.668,+016.644,+1.634,+0.353,+2.143,-14.3320,-03.2490,-08.5750,+01.198140,+03.752253,-03.073521
+022.460,-016.687,+018.654,+1.522,+0.444,+2.234,-13.2400,-03.1540,-07.6600,+00.996014,+03.418417,-03.213940
+020.005,-012.074,+020.327,+1.402,+0.559,+2.293,-12.2610,-02.0960,-06.0400,+00.939868,+02.889535,-03.355037
+017.321,-008.042,+022.017,+1.291,+0.704,+2.352,-13.4590,-00.8710,-04.1750,+01.145460,+02.175632,-03.406220
+014.962,-004.733,+023.785,+1.203,+0.764,+2.391,-17.4080,+04.8020,-01.5380,+01.507092,+01.727300,-02.624938
+013.706,-002.240,+026.358,+1.134,+0.909,+2.392,-18.7330,+10.6270,+03.9760,+02.559390,+01.306769,-01.517714
+013.270,-001.191,+028.852,+1.097,+0.998,+2.379,-15.8950,+04.5290,+06.1760,+01.492281,+00.173646,-00.212053
+013.777,-002.108,+028.606,+1.115,+1.023,+2.380,-13.0700,+02.1690,+01.0300,-01.032800,-00.780290,+01.282940
+015.024,-003.995,+027.057,+1.180,+0.903,+2.373,-11.2930,+01.4910,-02.0170,-01.177236,-00.992888,+01.883393
+016.403,-005.793,+025.938,+1.235,+0.823,+2.365,+01.2750,-10.9870,-15.5960,-00.742081,-00.880875,+01.722845
+017.553,-009.370,+024.235,+1.337,+0.733,+2.359,+02.7020,-02.6720,-00.5480,-01.208866,-03.349035,+02.276294
+017.578,-013.901,+023.425,+1.490,+0.672,+2.253,-07.0680,-03.6580,-10.3520,-01.059691,-03.690557,+01.718374
+018.064,-018.496,+022.261,+1.639,+0.571,+2.147,-09.8590,-00.2510,-12.0830,-00.687039,-03.410690,+01.854592
+018.712,-022.394,+021.084,+1.727,+0.510,+2.097,-12.6560,-07.5160,-13.0750,-01.084615,-02.732443,+01.575554
+019.140,-025.291,+019.083,+1.814,+0.425,+2.015,-12.1570,-02.7950,-12.1830,-01.778389,-01.948064,+01.058481
+019.714,-026.754,+016.517,+1.865,+0.315,+1.986,-04.8930,+00.2610,-07.0280,-01.797660,-00.884520,+00.657197
+020.144,-027.651,+014.600,+1.875,+0.271,+1.986,-07.4990,-04.5520,-09.6630,-01.450003,-00.520923,+00.490415
+020.546,-028.069,+013.300,+1.893,+0.265,+1.971,-05.5470,-01.7440,-09.2020,-00.838830,-00.216123,+00.368493
+020.895,-028.370,+012.404,+1.888,+0.201,+1.939,-05.0690,-00.6960,-08.1460,-00.525330,-00.138481,+00.295096
+021.143,-028.529,+011.850,+1.893,+0.191,+1.950,-05.4310,-00.4300,-08.5860,-00.279342,-00.053204,+00.166670
+021.267,-028.598,+011.564,+1.907,+0.196,+1.940,-04.9260,-01.4310,-08.2500,-00.174642,-00.036221,+00.088607
+021.361,-028.648,+011.317,+1.907,+0.201,+1.945,-04.8380,-01.8540,-08.1450,-00.175422,-00.020798,+00.086279
+021.510,-028.710,+011.045,+1.902,+0.181,+1.967,-04.9120,-02.1670,-07.8840,-00.176533,-00.042200,+00.141143
+021.737,-028.735,+010.745,+1.907,+0.176,+1.935,-04.8960,-01.9320,-07.8660,-00.159834,+00.016804,+00.187092
+021.978,-028.719,+010.470,+1.911,+0.166,+1.946,-05.0840,-01.2650,-08.0830,-00.129704,+00.066569,+00.163400
+022.147,-028.683,+010.273,+1.907,+0.132,+1.967,-04.9270,-01.2400,-08.0350,-00.079784,+00.028106,+00.095929
+022.243,-028.702,+010.175,+1.902,+0.151,+1.956,-04.6780,-01.5620,-07.9720,-00.023658,-00.029660,+00.069157
+022.315,-028.779,+010.119,+1.907,+0.136,+1.956,-04.8130,-01.5690,-08.0170,-00.026327,-00.062892,+00.068833
+022.397,-028.878,+010.040,+1.897,+0.107,+1.972,-04.7980,-01.5760,-07.9590,-00.038201,-00.167992,+00.065356
+022.526,-028.960,+009.904,+1.907,+0.161,+1.940,-04.8280,-01.6120,-07.9870,-00.066361,-00.027729,+00.126006
+022.699,-029.036,+009.744,+1.902,+0.122,+1.951,-04.8760,-01.6230,-07.9580,-00.065610,-00.054886,+00.145572
+022.900,-029.123,+009.567,+1.907,+0.097,+1.935,-04.8930,-01.5990,-07.9750,-00.073762,-00.059477,+00.173861
+023.128,-029.219,+009.362,+1.911,+0.107,+1.935,-04.9960,-01.6100,-07.9520,-00.083578,-00.042275,+00.193121
+023.365,-029.313,+009.152,+1.907,+0.092,+1.935,-05.0400,-01.3840,-07.9870,-00.082189,-00.048411,+00.185570
+023.586,-029.389,+008.958,+1.911,+0.087,+1.957,-04.9470,-01.2330,-08.0310,-00.068090,-00.046513,+00.168858
+023.757,-029.500,+008.813,+1.911,+0.077,+1.919,-04.9490,-01.2040,-07.9660,-00.044463,-00.085130,+00.137831
+023.896,-029.627,+008.710,+1.916,+0.092,+1.936,-04.8910,-01.2230,-07.9430,-00.019633,-00.101164,+00.112995
+023.988,-029.789,+008.661,+1.916,+0.072,+1.930,-04.8600,-01.2760,-07.9820,+00.004362,-00.136662,+00.082697
+024.067,-029.995,+008.634,+1.916,+0.067,+1.925,-04.9220,-01.3220,-07.9890,+00.006524,-00.177897,+00.095008
+024.178,-030.255,+008.589,+1.921,+0.087,+1.925,-04.8780,-01.3210,-07.9760,+00.011545,-00.233276,+00.130299
+024.333,-030.574,+008.542,+1.930,+0.042,+1.915,-04.9830,-01.3900,-07.9480,+00.032641,-00.285018,+00.176082
+024.539,-030.974,+008.486,+1.944,+0.096,+1.894,-05.1230,-01.4070,-07.8910,+00.047801,-00.346926,+00.226040
+024.777,-031.490,+008.395,+1.958,+0.032,+1.900,-05.2920,-00.9510,-08.0340,+00.022511,-00.467474,+00.234952
+024.939,-032.165,+008.324,+1.958,+0.017,+1.884,-05.1420,-00.9550,-07.9950,+00.006466,-00.637350,+00.193039
+025.051,-033.066,+008.267,+1.981,+0.036,+1.831,-05.0680,-01.3160,-07.7560,+00.007662,-00.866731,+00.211573
+025.233,-034.311,+008.190,+2.004,+0.041,+1.794,-05.3050,-01.4750,-07.8420,+00.035046,-01.181834,+00.335859
+025.534,-036.048,+008.052,+2.027,-0.014,+1.768,-05.2140,-01.2080,-07.5150,+00.024816,-01.668979,+00.487415
+025.840,-038.470,+007.933,+2.069,-0.010,+1.651,-05.2470,-00.8180,-07.4710,+00.082984,-02.296714,+00.512868
+026.148,-041.477,+007.963,+2.124,-0.041,+1.546,-05.1350,-00.4830,-07.7290,+00.262619,-02.755822,+00.592562
+026.474,-045.095,+008.016,+2.166,-0.037,+1.467,-05.6390,-00.4970,-07.7750,+00.225460,-03.320232,+00.670364
+026.872,-049.479,+007.924,+2.217,-0.073,+1.286,-06.4990,-01.0010,-07.5870,+00.174846,-04.005446,+00.831280
+027.403,-054.622,+007.835,+2.267,-0.139,+1.116,-08.8450,-02.0740,-07.8000,+00.311681,-04.649468,+00.883603
