Yaw,Pitch,Roll,MagX,MagY,MagZ,AccelX,AccelY,AccelZ,GyroX,GyroY,GyroZ
-053.166,-019.802,+008.522,-0.102,+0.758,+2.459,-03.1900,-01.3000,-08.8050,-00.001176,-00.001447,+00.000432
-053.167,-019.803,+008.522,-0.111,+0.758,+2.437,-03.1880,-01.2890,-08.7760,-00.000212,-00.000819,+00.000252
-053.169,-019.803,+008.521,-0.116,+0.738,+2.443,-03.1750,-01.3310,-08.7880,-00.001504,-00.000695,-00.000152
-053.168,-019.803,+008.520,-0.111,+0.748,+2.454,-03.1560,-01.2790,-08.7710,+00.000493,-00.001128,+00.002580
-053.167,-019.803,+008.519,-0.111,+0.763,+2.426,-03.1960,-01.3080,-08.7770,-00.000691,+00.001721,+00.001516
-053.165,-019.802,+008.516,-0.121,+0.793,+2.420,-03.2250,-01.3130,-08.7800,-00.000501,+00.002254,+00.001878
-053.164,-019.800,+008.515,-0.116,+0.758,+2.459,-03.1750,-01.3170,-08.7900,-00.001800,+00.001369,+00.000235
-053.163,-019.797,+008.513,-0.116,+0.753,+2.443,-03.1830,-01.3220,-08.7900,-00.000913,+00.001329,+00.001306
-053.163,-019.798,+008.512,-0.107,+0.748,+2.432,-03.2080,-01.3100,-08.7750,-00.001169,+00.000724,+00.002277
-053.162,-019.799,+008.511,-0.121,+0.738,+2.453,-03.1960,-01.2880,-08.7950,+00.000324,+00.000713,+00.000028
-053.163,-019.800,+008.511,-0.097,+0.753,+2.433,-03.1830,-01.3160,-08.7940,-00.000794,-00.001311,-00.000229
-053.163,-019.800,+008.511,-0.111,+0.738,+2.437,-03.1820,-01.3340,-08.8100,+00.000098,+00.000625,+00.000081
-053.166,-019.800,+008.512,-0.102,+0.743,+2.438,-03.1950,-01.3370,-08.7850,+00.000184,+00.000458,-00.001334
-053.169,-019.799,+008.513,-0.107,+0.768,+2.427,-03.1830,-01.3470,-08.7970,-00.000426,+00.001031,-00.001670
-053.169,-019.796,+008.514,-0.116,+0.758,+2.437,-03.1820,-01.3310,-08.8410,-00.000228,+00.001500,+00.000824
-053.168,-019.794,+008.515,-0.111,+0.738,+2.448,-03.1860,-01.3040,-08.7620,-00.000195,+00.002934,+00.001302
-053.166,-019.793,+008.515,-0.111,+0.783,+2.437,-03.1810,-01.3000,-08.7670,+00.000899,+00.000238,+00.001508
-053.166,-019.790,+008.514,-0.130,+0.773,+2.431,-03.1900,-01.3370,-08.7790,-00.001059,+00.000957,-00.000686
-053.167,-019.791,+008.512,-0.111,+0.743,+2.437,-03.1800,-01.2920,-08.7810,+00.000017,-00.001603,+00.000882
-053.167,-019.791,+008.511,-0.116,+0.753,+2.432,-03.1830,-01.3220,-08.7640,+00.000193,-00.000956,+00.001909
-053.167,-019.793,+008.511,-0.107,+0.748,+2.443,-03.1770,-01.3140,-08.7920,+00.000321,-00.002443,+00.000732
-053.165,-019.796,+008.509,-0.116,+0.778,+2.442,-03.2210,-01.3010,-08.7780,-00.001591,+00.000503,+00.000882
-053.165,-019.795,+008.509,-0.111,+0.753,+2.437,-03.1930,-01.3030,-08.8140,-00.000417,-00.000266,-00.001601
-053.166,-019.796,+008.509,-0.111,+0.758,+2.410,-03.1940,-01.3090,-08.7780,+00.001454,-00.000351,+00.000092
-053.168,-019.798,+008.512,-0.121,+0.733,+2.448,-03.2120,-01.3150,-08.7940,-00.000234,-00.000191,+00.000183
-053.167,-019.798,+008.511,-0.111,+0.743,+2.432,-03.1830,-01.3180,-08.7860,+00.000547,-00.001578,+00.001136
-053.167,-019.799,+008.512,-0.107,+0.753,+2.421,-03.1880,-01.3120,-08.7710,+00.000974,-00.003578,+00.001673
-053.168,-019.802,+008.514,-0.121,+0.738,+2.442,-03.1810,-01.3340,-08.7750,+00.002063,-00.002313,+00.000316
-053.169,-019.804,+008.515,-0.107,+0.778,+2.427,-03.1770,-01.3210,-08.7560,-00.000714,-00.001158,-00.000112
-053.169,-019.807,+008.516,-0.107,+0.763,+2.437,-03.2070,-01.3140,-08.7650,+00.001105,-00.001191,+00.001737
-053.165,-019.807,+008.514,-0.116,+0.768,+2.448,-03.1820,-01.2830,-08.8100,-00.000590,+00.000286,+00.002159
-053.166,-019.808,+008.515,-0.121,+0.763,+2.426,-03.1890,-01.3180,-08.7940,-00.000007,-00.002577,+00.000396
-053.167,-019.809,+008.517,-0.121,+0.733,+2.437,-03.2060,-01.3500,-08.7900,+00.001554,-00.001291,+00.001089
-053.166,-019.811,+008.517,-0.111,+0.738,+2.448,-03.1770,-01.3040,-08.7710,+00.000204,-00.001862,+00.000298
-053.166,-019.812,+008.518,-0.107,+0.758,+2.421,-03.1780,-01.3270,-08.7920,+00.000634,+00.001707,+00.000561
-053.166,-019.811,+008.519,-0.111,+0.738,+2.448,-03.1830,-01.3040,-08.7750,+00.000238,-00.000933,+00.001704
-053.166,-019.813,+008.521,-0.116,+0.753,+2.448,-03.1910,-01.3400,-08.7670,+00.001356,-00.002187,+00.000401
-053.164,-019.817,+008.521,-0.121,+0.768,+2.415,-03.1910,-01.3170,-08.7760,+00.001806,-00.004199,+00.002102
-053.164,-019.822,+008.522,-0.102,+0.738,+2.432,-03.1850,-01.3270,-08.8100,+00.001363,-00.003203,+00.001870
-053.167,-019.825,+008.523,-0.111,+0.728,+2.448,-03.2020,-01.3200,-08.7700,+00.001217,-00.001344,-00.001324
-053.169,-019.828,+008.525,-0.116,+0.793,+2.437,-03.2040,-01.3260,-08.7780,+00.001888,-00.004229,+00.000774
-053.166,-019.833,+008.527,-0.116,+0.733,+2.443,-03.2700,-01.3960,-08.7570,+00.007662,-00.003482,+00.006807
-053.164,-019.836,+008.527,-0.116,+0.743,+2.437,-03.2450,-01.3380,-08.7950,+00.000177,-00.000801,+00.001259
-053.165,-019.836,+008.527,-0.116,+0.758,+2.443,-03.2350,-01.2920,-08.7550,-00.001138,+00.000287,+00.000791
-053.165,-019.835,+008.527,-0.111,+0.753,+2.432,-03.2050,-01.3260,-08.7790,-00.000159,+00.001401,+00.001233
-053.163,-019.834,+008.526,-0.107,+0.758,+2.443,-03.1900,-01.3460,-08.7810,-00.001206,+00.000837,+00.002244
-053.161,-019.837,+008.525,-0.107,+0.768,+2.432,-03.1910,-01.3190,-08.7780,+00.000485,-00.004497,+00.002056
-053.160,-019.841,+008.525,-0.107,+0.783,+2.443,-03.2060,-01.2940,-08.7870,+00.000914,-00.003818,+00.001251
-053.158,-019.844,+008.524,-0.107,+0.753,+2.443,-03.2260,-01.3260,-08.8090,-00.001277,+00.000070,+00.001539
-053.158,-019.844,+008.522,-0.116,+0.768,+2.437,-03.2190,-01.2940,-08.7770,-00.000818,+00.000725,-00.000187
-053.159,-019.844,+008.522,-0.116,+0.753,+2.437,-03.2210,-01.3360,-08.7990,+00.001624,-00.001845,+00.000155
-053.159,-019.847,+008.523,-0.107,+0.763,+2.465,-03.2210,-01.3420,-08.8070,+00.001072,-00.003409,+00.002229
-053.159,-019.850,+008.523,-0.116,+0.753,+2.443,-03.1990,-01.3200,-08.7650,+00.000154,-00.001912,+00.001816
-053.162,-019.851,+008.524,-0.111,+0.743,+2.448,-03.1690,-01.3290,-08.7730,+00.000075,-00.000108,-00.001032
-053.162,-019.851,+008.524,-0.111,+0.763,+2.448,-03.2230,-01.3190,-08.7780,+00.000237,+00.001285,+00.001468
-053.160,-019.852,+008.524,-0.107,+0.768,+2.410,-03.1980,-01.3090,-08.7880,+00.000428,-00.002604,+00.002466
-053.159,-019.855,+008.525,-0.116,+0.768,+2.426,-03.2270,-01.2960,-08.7760,+00.002011,-00.003304,+00.001526
-053.160,-019.857,+008.526,-0.107,+0.733,+2.438,-03.1960,-01.3270,-08.8010,+00.001651,-00.001765,-00.000020
-053.160,-019.859,+008.525,-0.102,+0.753,+2.432,-03.2430,-01.2950,-08.7900,-00.000613,-00.000684,+00.000419
-053.161,-019.857,+008.525,-0.121,+0.763,+2.432,-03.1990,-01.3360,-08.7930,-00.000794,+00.003320,+00.000186
-053.160,-019.857,+008.525,-0.111,+0.748,+2.432,-03.1860,-01.3190,-08.7780,+00.001267,-00.003900,+00.001072
-053.159,-019.857,+008.525,-0.111,+0.778,+2.437,-03.1920,-01.3460,-08.7980,+00.001238,+00.001014,+00.001391
-053.158,-019.859,+008.526,-0.102,+0.733,+2.454,-03.2300,-01.3240,-08.7720,+00.002448,+00.000107,+00.002905
-053.159,-019.859,+008.528,-0.107,+0.738,+2.432,-03.1920,-01.3230,-08.7800,-00.000194,-00.001115,+00.000144
-053.160,-019.861,+008.529,-0.111,+0.768,+2.421,-03.2080,-01.2940,-08.8110,+00.001035,-00.001233,-00.000350
-053.161,-019.862,+008.529,-0.111,+0.763,+2.432,-03.2040,-01.3060,-08.7690,+00.001170,-00.000138,-00.000599
-053.162,-019.864,+008.530,-0.107,+0.768,+2.437,-03.2160,-01.3090,-08.8030,+00.000108,-00.001206,+00.001439
-053.163,-019.865,+008.532,-0.116,+0.768,+2.437,-03.1910,-01.3470,-08.7930,-00.000012,-00.001888,-00.000251
-053.164,-019.866,+008.533,-0.111,+0.748,+2.437,-03.1980,-01.3220,-08.7950,+00.001863,-00.003675,+00.001091
-053.165,-019.869,+008.535,-0.116,+0.743,+2.454,-03.2110,-01.3230,-08.7760,+00.001546,-00.001204,+00.000316
-053.167,-019.871,+008.536,-0.107,+0.763,+2.448,-03.2090,-01.3200,-08.7710,+00.001232,-00.001565,+00.001431
-053.167,-019.872,+008.539,-0.107,+0.758,+2.416,-03.2060,-01.3430,-08.8120,+00.002882,-00.002077,+00.000456
-053.166,-019.877,+008.542,-0.116,+0.763,+2.453,-03.2410,-01.3170,-08.7720,+00.001132,-00.000958,+00.000627
-053.167,-019.881,+008.542,-0.111,+0.778,+2.416,-03.2170,-01.3270,-08.7820,+00.000699,-00.002824,-00.000411
-053.168,-019.883,+008.544,-0.102,+0.778,+2.416,-03.2330,-01.3210,-08.7710,-00.000184,-00.000197,-00.001868
-053.169,-019.884,+008.544,-0.116,+0.753,+2.459,-03.2530,-01.3180,-08.7420,-00.000647,+00.001662,-00.001851
-053.169,-019.882,+008.542,-0.102,+0.773,+2.421,-03.2320,-01.3220,-08.7700,-00.002129,+00.001881,+00.000130
-053.170,-019.881,+008.540,-0.116,+0.753,+2.437,-03.2100,-01.3250,-08.7680,-00.001317,+00.000520,-00.000230
-053.171,-019.882,+008.539,-0.116,+0.748,+2.437,-03.2120,-01.3360,-08.7600,-00.001648,-00.002786,-00.000392
-053.172,-019.881,+008.539,-0.111,+0.758,+2.432,-03.2350,-01.3390,-08.8100,-00.001456,+00.001224,-00.000159
-053.174,-019.880,+008.538,-0.107,+0.783,+2.421,-03.1990,-01.3120,-08.7790,-00.002474,+00.000754,-00.001106
-053.173,-019.878,+008.535,-0.116,+0.778,+2.453,-03.2040,-01.3130,-08.7930,-00.001528,+00.001770,+00.000208
-053.173,-019.877,+008.535,-0.116,+0.753,+2.437,-03.1660,-01.3160,-08.7470,-00.000349,-00.000771,+00.000184
-053.173,-019.880,+008.535,-0.121,+0.743,+2.442,-03.2150,-01.3260,-08.7880,+00.001195,-00.003615,+00.003291
-053.172,-019.884,+008.534,-0.107,+0.753,+2.448,-03.2260,-01.3100,-08.7710,+00.000771,-00.004104,+00.001699
-053.170,-019.887,+008.533,-0.125,+0.763,+2.420,-03.2160,-01.3000,-08.8080,-00.001513,-00.001788,+00.001904
-053.169,-019.888,+008.534,-0.107,+0.768,+2.416,-03.2300,-01.3260,-08.7630,+00.000251,+00.000184,+00.001524
-053.168,-019.888,+008.534,-0.111,+0.743,+2.454,-03.2290,-01.3160,-08.7790,-00.000173,-00.000675,+00.001509
-053.167,-019.889,+008.532,-0.102,+0.768,+2.432,-03.2020,-01.3040,-08.8090,+00.000451,-00.002085,+00.001510
-053.167,-019.892,+008.532,-0.121,+0.758,+2.437,-03.2300,-01.3380,-08.8020,-00.000264,-00.002986,+00.000988
-053.168,-019.895,+008.533,-0.107,+0.748,+2.459,-03.2210,-01.3170,-08.7740,+00.000861,-00.002263,+00.000260
-053.167,-019.898,+008.533,-0.102,+0.773,+2.427,-03.2190,-01.3340,-08.7480,+00.000019,-00.003779,+00.001533
-053.166,-019.900,+008.533,-0.125,+0.758,+2.448,-03.2010,-01.3210,-08.7820,-00.000079,-00.002531,+00.001525
-053.165,-019.904,+008.532,-0.125,+0.748,+2.442,-03.2220,-01.2930,-08.7940,-00.000857,-00.003535,-00.000941
-053.164,-019.905,+008.530,-0.107,+0.763,+2.448,-03.2220,-01.3070,-08.8070,+00.000167,-00.000999,+00.000198
-053.166,-019.907,+008.530,-0.116,+0.738,+2.437,-03.2130,-01.3480,-08.7550,-00.002170,-00.004155,-00.000130
-053.162,-019.910,+008.530,-0.116,+0.768,+2.448,-03.2000,-01.3060,-08.7630,+00.002233,-00.004122,+00.004422
-053.159,-019.917,+008.531,-0.111,+0.783,+2.426,-03.2240,-01.2970,-08.8020,+00.001670,-00.006092,+00.003088
-053.157,-019.922,+008.531,-0.102,+0.753,+2.422,-03.1640,-01.2580,-08.7470,-00.000581,-00.004141,+00.002177
-053.156,-019.926,+008.531,-0.116,+0.768,+2.443,-03.1800,-01.3670,-08.8140,-00.000384,-00.002402,+00.002024
-053.152,-019.931,+008.530,-0.111,+0.788,+2.410,-03.1890,-01.3000,-08.7840,+00.000092,-00.004372,+00.002935
-053.152,-019.936,+008.530,-0.125,+0.763,+2.420,-03.2120,-01.3230,-08.7980,+00.001490,-00.005062,+00.002544
-053.150,-019.942,+008.530,-0.116,+0.753,+2.448,-03.2140,-01.3170,-08.7920,-00.000631,-00.004405,+00.002015
-053.149,-019.947,+008.529,-0.102,+0.788,+2.438,-03.2160,-01.3120,-08.8070,-00.001182,-00.003827,+00.003335
-053.147,-019.953,+008.528,-0.111,+0.753,+2.427,-03.2300,-01.3170,-08.7580,-00.000746,-00.003524,+00.002476
-053.145,-019.957,+008.525,-0.097,+0.743,+2.444,-03.2140,-01.3030,-08.7820,-00.001759,-00.002652,+00.002675
-053.145,-019.960,+008.524,-0.111,+0.758,+2.437,-03.2110,-01.3320,-08.7640,-00.000585,-00.004036,-00.000386
-053.145,-019.964,+008.524,-0.111,+0.748,+2.448,-03.2230,-01.3010,-08.7770,+00.000563,-00.003439,+00.002664
-053.145,-019.970,+008.525,-0.107,+0.753,+2.459,-03.2620,-01.3000,-08.7680,+00.001525,-00.003901,+00.002241
-053.143,-019.975,+008.525,-0.107,+0.778,+2.454,-03.2030,-01.2870,-08.7590,+00.001585,-00.004168,+00.003125
-053.143,-019.980,+008.527,-0.116,+0.743,+2.416,-03.2210,-01.3330,-08.7670,+00.001741,-00.004442,+00.003577
-053.141,-019.987,+008.529,-0.111,+0.748,+2.448,-03.2240,-01.3410,-08.7750,+00.001357,-00.007227,+00.005271
-053.139,-019.995,+008.528,-0.102,+0.753,+2.416,-03.2430,-01.3060,-08.8280,+00.000570,-00.007997,+00.001755
-053.138,-020.000,+008.527,-0.111,+0.758,+2.421,-03.1960,-01.3150,-08.7800,-00.000317,-00.002677,+00.000153
-053.136,-020.004,+008.527,-0.111,+0.763,+2.454,-03.2360,-01.3420,-08.7800,+00.000651,-00.004279,+00.002149
-053.134,-020.009,+008.526,-0.107,+0.748,+2.432,-03.2430,-01.3000,-08.8120,-00.000552,-00.004504,+00.003687
-053.132,-020.013,+008.524,-0.111,+0.768,+2.443,-03.2290,-01.3440,-08.7630,-00.001414,-00.002213,+00.002979
-053.130,-020.014,+008.521,-0.102,+0.748,+2.454,-03.2150,-01.3110,-08.7780,-00.003343,-00.000260,+00.002976
-053.130,-020.016,+008.518,-0.107,+0.753,+2.448,-03.2050,-01.2920,-08.8050,-00.001676,-00.002394,+00.001921
-053.127,-020.019,+008.517,-0.116,+0.758,+2.443,-03.2290,-01.3320,-08.7870,-00.000400,-00.003245,+00.002390
-053.124,-020.023,+008.515,-0.107,+0.758,+2.454,-03.2260,-01.3090,-08.7510,-00.000576,-00.003933,+00.001503
-053.122,-020.025,+008.513,-0.107,+0.763,+2.438,-03.2290,-01.3180,-08.7540,-00.000458,-00.001417,+00.002333
-053.123,-020.026,+008.510,-0.088,+0.743,+2.449,-03.2480,-01.3170,-08.8070,-00.002922,+00.000886,-00.000735
-053.123,-020.024,+008.506,-0.102,+0.743,+2.454,-03.2210,-01.3240,-08.7800,-00.002557,+00.003447,+00.000630
-053.121,-020.019,+008.503,-0.097,+0.768,+2.427,-03.2330,-01.3220,-08.7740,-00.003313,+00.002613,+00.000310
-053.119,-020.017,+008.499,-0.107,+0.753,+2.411,-03.2070,-01.3240,-08.7540,-00.003318,+00.000095,+00.003865
-053.115,-020.018,+008.494,-0.107,+0.763,+2.443,-03.2490,-01.3040,-08.7750,-00.003357,+00.001546,+00.001900
-053.114,-020.015,+008.489,-0.102,+0.763,+2.432,-03.2310,-01.2890,-08.7610,-00.004564,+00.003013,-00.000162
-053.114,-020.010,+008.485,-0.116,+0.748,+2.432,-03.2190,-01.3300,-08.7600,-00.002502,+00.003317,-00.001436
-053.115,-020.007,+008.481,-0.102,+0.733,+2.449,-03.2260,-01.3100,-08.7630,-00.003385,+00.001741,+00.001566
-053.113,-020.003,+008.476,-0.102,+0.758,+2.459,-03.2090,-01.3010,-08.7390,-00.003542,+00.002857,+00.002193
-053.113,-020.000,+008.472,-0.111,+0.743,+2.432,-03.2100,-01.2990,-08.7710,-00.002339,+00.001992,+00.000927
-053.114,-019.996,+008.468,-0.107,+0.743,+2.449,-03.2070,-01.3010,-08.7640,-00.004265,+00.004489,-00.001015
-053.115,-019.989,+008.465,-0.116,+0.753,+2.437,-03.2280,-01.3320,-08.7930,-00.003444,+00.007554,-00.000364
-053.115,-019.982,+008.460,-0.107,+0.773,+2.432,-03.2210,-01.3160,-08.7890,-00.004301,+00.004703,-00.000880
-053.115,-019.978,+008.457,-0.107,+0.743,+2.449,-03.2260,-01.3260,-08.7570,-00.001617,+00.003717,+00.000369
-053.115,-019.976,+008.455,-0.102,+0.768,+2.405,-03.2290,-01.2720,-08.7690,-00.003091,+00.000957,-00.001472
-053.117,-019.975,+008.454,-0.102,+0.773,+2.432,-03.1950,-01.2980,-08.7600,-00.001125,-00.000902,-00.000572
-053.118,-019.973,+008.453,-0.107,+0.738,+2.454,-03.2200,-01.3100,-08.8050,-00.001500,-00.000058,-00.000390
-053.118,-019.970,+008.450,-0.116,+0.758,+2.437,-03.2310,-01.2740,-08.7870,-00.002316,+00.003662,-00.000258
-053.121,-019.966,+008.449,-0.111,+0.748,+2.432,-03.2300,-01.2950,-08.7770,-00.002535,+00.004813,-00.002597
-053.121,-019.960,+008.445,-0.116,+0.753,+2.453,-03.2160,-01.3210,-08.8010,-00.004316,+00.004820,-00.000062
-053.120,-019.956,+008.440,-0.107,+0.778,+2.427,-03.2380,-01.3240,-08.7990,-00.003846,+00.003222,-00.000331
-053.120,-019.950,+008.435,-0.107,+0.758,+2.411,-03.2350,-01.2480,-08.7910,-00.003763,+00.006661,-00.000794
-053.121,-019.943,+008.431,-0.111,+0.753,+2.459,-03.2250,-01.2590,-08.7960,-00.004746,+00.005697,-00.001088
-053.122,-019.932,+008.425,-0.102,+0.763,+2.454,-03.2040,-01.3220,-08.7890,-00.004671,+00.008433,+00.000294
-053.123,-019.923,+008.419,-0.111,+0.758,+2.432,-03.2110,-01.3500,-08.7460,-00.004601,+00.005968,-00.001744
-053.123,-019.916,+008.414,-0.111,+0.738,+2.448,-03.1840,-01.2870,-08.7680,-00.003635,+00.004561,-00.000030
-053.123,-019.910,+008.411,-0.111,+0.768,+2.432,-03.2260,-01.3090,-08.7770,-00.002122,+00.007239,-00.001804
-053.124,-019.902,+008.408,-0.097,+0.748,+2.443,-03.2230,-01.3110,-08.8110,-00.003820,+00.005746,-00.002423
-053.128,-019.893,+008.406,-0.111,+0.743,+2.448,-03.1930,-01.3130,-08.7980,-00.004043,+00.008594,-00.004044
-053.132,-019.880,+008.404,-0.111,+0.788,+2.453,-03.1770,-01.3340,-08.7780,-00.002860,+00.010461,-00.004671
-053.133,-019.866,+008.402,-0.107,+0.768,+2.416,-03.1910,-01.3290,-08.7730,-00.003639,+00.008208,+00.000460
-053.130,-019.861,+008.399,-0.121,+0.768,+2.459,-03.1950,-01.2820,-08.7500,-00.000709,+00.001870,+00.001001
-053.129,-019.860,+008.398,-0.107,+0.793,+2.448,-03.2130,-01.3110,-08.7800,-00.001507,+00.001368,-00.001189
-053.130,-019.860,+008.396,-0.107,+0.738,+2.438,-03.2250,-01.3080,-08.8130,-00.002208,+00.000596,-00.000719
-053.129,-019.857,+008.394,-0.116,+0.763,+2.443,-03.1830,-01.2950,-08.7820,-00.001692,+00.002336,+00.000988
-053.129,-019.857,+008.392,-0.111,+0.748,+2.448,-03.1910,-01.2840,-08.7750,-00.000006,-00.000826,+00.001778
-053.130,-019.857,+008.390,-0.102,+0.743,+2.443,-03.1980,-01.2390,-08.7880,+00.000205,-00.001119,+00.001548
-053.129,-019.858,+008.390,-0.116,+0.743,+2.459,-03.1970,-01.3220,-08.7820,-00.000254,-00.000678,+00.000357
-053.128,-019.859,+008.389,-0.116,+0.778,+2.421,-03.2070,-01.3060,-08.7930,-00.000505,-00.002983,+00.001621
-053.129,-019.859,+008.389,-0.102,+0.753,+2.454,-03.2240,-01.3200,-08.7730,-00.000579,+00.000027,+00.000430
-053.128,-019.860,+008.389,-0.111,+0.768,+2.459,-03.2130,-01.3070,-08.7570,+00.001147,-00.002563,+00.001208
-053.127,-019.860,+008.391,-0.111,+0.748,+2.443,-03.1860,-01.3070,-08.7820,+00.001261,-00.002512,+00.000813
-053.127,-019.865,+008.392,-0.111,+0.758,+2.448,-03.2100,-01.2890,-08.7730,+00.001339,-00.003759,+00.002328
-053.126,-019.870,+008.392,-0.102,+0.728,+2.449,-03.2350,-01.2760,-08.7740,+00.002451,-00.004071,+00.001056
-053.126,-019.872,+008.393,-0.116,+0.748,+2.437,-03.2240,-01.2980,-08.7830,+00.000887,-00.002052,+00.001426
-053.125,-019.874,+008.394,-0.116,+0.758,+2.410,-03.2140,-01.2810,-08.7800,+00.000413,-00.002218,+00.001884
-053.125,-019.874,+008.394,-0.111,+0.723,+2.448,-03.1810,-01.3190,-08.8110,+00.000418,-00.001380,+00.000695
-053.125,-019.874,+008.395,-0.116,+0.763,+2.443,-03.2020,-01.3030,-08.7670,+00.000259,-00.001230,+00.001007
-053.125,-019.875,+008.397,-0.116,+0.738,+2.427,-03.2040,-01.3010,-08.7960,+00.001682,-00.001199,+00.001959
-053.125,-019.878,+008.398,-0.107,+0.743,+2.454,-03.1940,-01.3020,-08.8070,+00.000712,-00.003346,+00.000480
-053.126,-019.880,+008.402,-0.107,+0.748,+2.432,-03.2070,-01.2900,-08.7960,+00.001472,-00.002391,-00.000139
-053.128,-019.883,+008.404,-0.102,+0.738,+2.427,-03.2200,-01.3090,-08.7740,+00.003309,-00.003440,+00.001242
-053.124,-019.889,+008.405,-0.107,+0.748,+2.459,-03.2110,-01.2870,-08.7900,+00.002111,-00.005650,+00.002779
-053.122,-019.897,+008.409,-0.107,+0.763,+2.448,-03.2010,-01.2920,-08.8030,+00.004311,-00.006303,+00.001577
-053.123,-019.905,+008.414,-0.107,+0.743,+2.438,-03.2120,-01.2940,-08.8000,+00.002994,-00.006240,+00.000777
-053.127,-019.912,+008.419,-0.111,+0.748,+2.465,-03.2490,-01.2960,-08.8010,+00.004226,-00.004153,-00.002918
-053.128,-019.914,+008.425,-0.107,+0.783,+2.432,-03.2040,-01.3170,-08.7260,+00.002288,-00.001576,+00.000933
-053.125,-019.916,+008.427,-0.116,+0.773,+2.432,-03.2100,-01.3290,-08.7950,+00.001477,-00.002989,+00.001883
-053.121,-019.917,+008.428,-0.107,+0.753,+2.432,-03.2070,-01.2710,-08.7940,+00.002583,-00.000853,+00.002504
-053.120,-019.919,+008.430,-0.111,+0.768,+2.443,-03.2060,-01.2860,-08.7660,+00.003177,-00.001531,+00.001610
-053.120,-019.922,+008.434,-0.102,+0.753,+2.427,-03.2100,-01.2840,-08.7630,+00.001624,-00.003368,+00.001453
-053.118,-019.928,+008.434,-0.111,+0.748,+2.454,-03.2350,-01.2960,-08.7630,+00.000916,-00.002840,+00.000924
-053.117,-019.931,+008.433,-0.107,+0.763,+2.432,-03.2420,-01.2980,-08.7940,+00.000596,-00.001196,+00.000371
-053.117,-019.933,+008.432,-0.111,+0.743,+2.443,-03.2220,-01.2900,-08.7960,+00.000662,-00.001183,-00.000596
-053.117,-019.931,+008.433,-0.111,+0.763,+2.448,-03.2340,-01.2850,-08.7690,-00.000083,+00.002842,-00.000648
-053.117,-019.931,+008.433,-0.111,+0.753,+2.432,-03.2440,-01.3200,-08.7570,-00.000268,+00.001055,+00.000831
-053.118,-019.930,+008.433,-0.121,+0.743,+2.432,-03.2410,-01.2860,-08.7690,+00.000770,+00.001043,+00.000152
-053.119,-019.933,+008.434,-0.107,+0.748,+2.454,-03.2250,-01.3130,-08.7760,+00.001110,-00.002776,-00.001242
-053.120,-019.935,+008.435,-0.102,+0.778,+2.443,-03.2040,-01.2840,-08.7850,+00.002219,-00.002865,+00.000551
-053.121,-019.937,+008.439,-0.111,+0.748,+2.427,-03.2390,-01.2990,-08.7480,+00.002295,-00.001062,-00.000325
-053.123,-019.938,+008.442,-0.107,+0.733,+2.465,-03.2140,-01.3120,-08.7840,+00.001249,-00.001593,+00.001020
-053.123,-019.942,+008.445,-0.107,+0.753,+2.427,-03.1950,-01.2960,-08.8170,+00.003611,-00.004618,+00.000048
-053.123,-019.948,+008.450,-0.107,+0.763,+2.427,-03.2120,-01.3390,-08.7840,+00.004552,-00.003594,+00.000917
-053.124,-019.950,+008.453,-0.102,+0.753,+2.465,-03.2370,-01.2830,-08.7760,+00.002079,-00.002293,-00.000518
-053.125,-019.951,+008.458,-0.116,+0.768,+2.432,-03.2230,-01.3360,-08.8050,+00.003072,-00.001796,-00.000577
-053.127,-019.955,+008.461,-0.111,+0.738,+2.443,-03.2080,-01.3440,-08.7830,+00.002241,-00.004744,-00.001500
-053.128,-019.959,+008.465,-0.093,+0.733,+2.455,-03.2420,-01.3110,-08.7830,+00.004808,-00.002483,+00.001778
-053.127,-019.964,+008.470,-0.107,+0.758,+2.448,-03.2470,-01.3040,-08.7840,+00.003582,-00.005996,+00.000090
-053.130,-019.969,+008.474,-0.097,+0.758,+2.411,-03.2540,-01.2980,-08.7720,+00.003638,-00.004553,-00.000020
-053.131,-019.974,+008.478,-0.093,+0.743,+2.444,-03.2240,-01.3380,-08.7310,+00.002980,-00.003633,+00.000138
-053.131,-019.978,+008.482,-0.111,+0.758,+2.427,-03.2480,-01.3000,-08.7630,+00.004487,-00.005558,+00.002089
-053.132,-019.985,+008.487,-0.107,+0.748,+2.449,-03.2570,-01.3160,-08.8140,+00.002653,-00.006465,-00.000853
-053.135,-019.989,+008.490,-0.107,+0.748,+2.454,-03.2500,-01.3220,-08.7510,+00.002119,-00.002015,-00.001418
-053.137,-019.993,+008.496,-0.111,+0.778,+2.448,-03.2130,-01.3290,-08.7120,+00.002660,-00.003379,+00.000304
-053.138,-019.997,+008.500,-0.116,+0.768,+2.443,-03.2130,-01.3190,-08.7430,+00.002600,-00.005254,+00.000749
-053.138,-020.003,+008.502,-0.111,+0.743,+2.443,-03.2070,-01.3150,-08.8060,+00.002450,-00.004393,-00.000506
-053.140,-020.007,+008.506,-0.107,+0.763,+2.427,-03.2410,-01.3670,-08.7640,+00.003275,-00.005252,+00.000245
-053.139,-020.014,+008.509,-0.111,+0.748,+2.427,-03.2500,-01.3240,-08.7970,+00.003268,-00.006792,+00.003469
-053.138,-020.023,+008.512,-0.097,+0.748,+2.454,-03.2400,-01.2930,-08.7540,+00.003279,-00.007882,+00.001171
-053.140,-020.029,+008.515,-0.107,+0.758,+2.432,-03.2290,-01.3430,-08.7900,+00.003266,-00.005081,-00.000129
-053.142,-020.033,+008.517,-0.107,+0.753,+2.454,-03.2400,-01.3260,-08.7840,+00.001249,-00.001498,+00.000293
-053.141,-020.033,+008.517,-0.102,+0.758,+2.427,-03.2570,-01.3190,-08.7860,-00.000276,-00.000691,+00.001353
-053.140,-020.034,+008.518,-0.102,+0.763,+2.427,-03.2320,-01.3210,-08.7880,+00.001308,+00.000338,+00.001092
-053.140,-020.035,+008.518,-0.116,+0.748,+2.443,-03.2460,-01.3100,-08.7690,+00.000225,-00.000932,+00.001373
-053.139,-020.037,+008.519,-0.102,+0.773,+2.454,-03.2570,-01.3080,-08.7720,+00.000912,-00.001036,-00.000295
-053.139,-020.039,+008.519,-0.107,+0.763,+2.421,-03.2450,-01.3330,-08.7900,-00.000746,-00.001990,+00.002179
-053.139,-020.041,+008.519,-0.102,+0.788,+2.427,-03.2320,-01.2910,-08.7990,-00.001826,+00.000070,-00.000390
-053.137,-020.041,+008.519,-0.116,+0.743,+2.443,-03.2130,-01.3040,-08.7710,-00.000773,+00.000425,+00.001337
-053.137,-020.042,+008.515,-0.102,+0.788,+2.432,-03.2520,-01.2880,-08.7950,-00.000548,-00.000840,-00.002560
-053.137,-020.041,+008.515,-0.111,+0.758,+2.410,-03.2320,-01.3530,-08.8090,-00.001469,+00.001185,+00.000943
-053.136,-020.040,+008.514,-0.107,+0.758,+2.443,-03.2270,-01.3040,-08.7840,-00.001479,+00.001092,-00.000038
-053.137,-020.039,+008.512,-0.097,+0.763,+2.422,-03.2510,-01.2930,-08.7830,-00.000339,-00.000194,+00.000579
-053.138,-020.040,+008.512,-0.102,+0.743,+2.443,-03.2360,-01.3190,-08.7740,-00.002529,+00.000104,+00.000007
-053.137,-020.039,+008.510,-0.102,+0.723,+2.465,-03.2550,-01.3140,-08.7560,-00.001724,+00.000414,+00.001972
-053.137,-020.034,+008.509,-0.102,+0.758,+2.427,-03.2370,-01.3160,-08.7920,-00.000785,+00.002601,-00.000391
-053.137,-020.034,+008.509,-0.111,+0.748,+2.443,-03.2180,-01.3100,-08.7650,-00.000448,-00.001085,+00.000386
-053.137,-020.035,+008.509,-0.102,+0.743,+2.438,-03.2300,-01.3330,-08.7950,+00.000292,-00.002729,+00.003067
-053.135,-020.037,+008.506,-0.097,+0.763,+2.443,-03.2450,-01.2800,-08.7820,-00.000398,-00.001507,+00.001576
-053.137,-020.037,+008.504,-0.102,+0.748,+2.432,-03.2220,-01.3120,-08.7780,-00.000872,+00.001104,-00.001380
-053.138,-020.035,+008.502,-0.093,+0.753,+2.455,-03.2260,-01.3270,-08.8040,-00.001551,+00.002359,-00.000916
-053.138,-020.034,+008.500,-0.102,+0.748,+2.432,-03.2560,-01.3040,-08.7380,-00.001959,+00.000719,+00.001828
-053.139,-020.033,+008.498,-0.111,+0.748,+2.432,-03.2020,-01.3030,-08.7480,-00.002198,+00.000982,+00.001414
-053.138,-020.032,+008.496,-0.102,+0.743,+2.454,-03.2230,-01.3190,-08.7730,-00.001092,-00.002029,+00.003024
-053.137,-020.036,+008.494,-0.102,+0.748,+2.443,-03.2660,-01.2920,-08.7930,-00.001278,-00.000982,+00.000807
-053.140,-020.037,+008.494,-0.102,+0.753,+2.427,-03.2390,-01.3110,-08.7250,-00.000632,-00.001198,-00.000380
-053.139,-020.038,+008.492,-0.102,+0.753,+2.454,-03.2210,-01.3090,-08.7880,-00.000898,-00.001392,+00.000855
-053.137,-020.039,+008.490,-0.107,+0.748,+2.427,-03.2290,-01.2510,-08.7790,+00.000393,+00.002276,+00.004683
-053.137,-020.040,+008.488,-0.111,+0.758,+2.421,-03.2480,-01.2350,-08.7930,-00.002036,+00.000161,+00.000533
-053.136,-020.036,+008.485,-0.107,+0.753,+2.443,-03.2420,-01.3240,-08.7640,-00.002147,+00.004854,+00.000008
-053.136,-020.032,+008.482,-0.102,+0.763,+2.438,-03.2300,-01.3170,-08.7750,-00.002838,+00.004093,-00.000097
-053.137,-020.032,+008.480,-0.102,+0.753,+2.432,-03.2340,-01.3040,-08.7700,-00.001792,-00.000798,+00.000216
-053.137,-020.033,+008.480,-0.102,+0.738,+2.449,-03.2460,-01.3270,-08.7710,+00.000171,-00.001274,+00.000279
-053.137,-020.036,+008.478,-0.111,+0.768,+2.427,-03.2610,-01.2930,-08.7890,-00.000450,+00.000734,+00.000347
-053.138,-020.034,+008.477,-0.102,+0.748,+2.438,-03.2910,-01.3390,-08.7360,-00.000343,+00.005589,-00.002846
-053.139,-020.029,+008.475,-0.111,+0.788,+2.437,-03.1970,-01.2950,-08.7530,-00.001866,+00.005076,-00.003452
-053.141,-020.023,+008.472,-0.111,+0.758,+2.443,-03.2180,-01.3670,-08.7690,-00.003840,+00.003872,-00.001058
-053.142,-020.017,+008.468,-0.102,+0.743,+2.438,-03.2540,-01.3380,-08.7730,-00.005386,+00.005355,+00.000801
-053.141,-020.011,+008.463,-0.116,+0.733,+2.443,-03.2680,-01.3160,-08.7970,-00.004819,+00.005630,+00.000058
-053.141,-020.004,+008.457,-0.107,+0.758,+2.432,-03.2350,-01.3360,-08.7710,-00.004922,+00.003817,-00.000730
-053.143,-019.997,+008.452,-0.097,+0.738,+2.427,-03.2470,-01.3320,-08.7920,-00.004059,+00.007045,-00.002115
-053.146,-019.987,+008.447,-0.107,+0.768,+2.470,-03.2440,-01.3570,-08.7810,-00.006238,+00.010723,-00.004164
-053.150,-019.972,+008.441,-0.102,+0.778,+2.449,-03.2460,-01.2880,-08.7940,-00.005249,+00.013262,-00.005493
-053.154,-019.954,+008.434,-0.107,+0.773,+2.421,-03.1920,-01.3070,-08.7640,-00.005791,+00.014573,-00.003792
-053.155,-019.939,+008.429,-0.111,+0.793,+2.448,-03.1960,-01.3220,-08.7650,-00.005633,+00.009716,-00.001432
-053.155,-019.930,+008.425,-0.116,+0.743,+2.448,-03.2140,-01.3070,-08.7600,-00.001948,+00.004883,-00.000934
-053.155,-019.925,+008.423,-0.102,+0.768,+2.416,-03.1970,-01.3140,-08.7460,-00.002120,+00.002038,-00.000426
-053.155,-019.921,+008.420,-0.111,+0.778,+2.443,-03.1920,-01.3160,-08.8180,-00.002159,+00.002322,-00.001171
-053.156,-019.918,+008.419,-0.107,+0.758,+2.448,-03.2190,-01.3330,-08.7540,-00.002284,+00.003278,+00.000026
-053.154,-019.914,+008.415,-0.116,+0.753,+2.454,-03.1870,-01.3210,-08.7840,-00.003177,+00.004320,+00.001121
-053.153,-019.911,+008.411,-0.111,+0.743,+2.448,-03.2200,-01.2980,-08.7880,-00.002775,+00.002962,+00.001033
-053.154,-019.908,+008.408,-0.107,+0.778,+2.454,-03.2030,-01.2570,-08.8050,-00.003644,+00.001916,-00.000067
-053.153,-019.905,+008.405,-0.107,+0.733,+2.438,-03.2090,-01.3280,-08.7760,-00.003692,+00.001817,+00.001126
-053.149,-019.903,+008.400,-0.097,+0.778,+2.460,-03.2080,-01.3100,-08.7940,-00.003588,+00.001867,+00.004223
-053.146,-019.904,+008.395,-0.102,+0.748,+2.422,-03.2090,-01.3100,-08.7820,-00.002830,-00.000241,+00.001486
-053.146,-019.901,+008.392,-0.107,+0.748,+2.438,-03.2050,-01.3170,-08.7880,-00.003162,+00.002256,+00.001593
-053.145,-019.900,+008.388,-0.111,+0.768,+2.464,-03.2220,-01.3030,-08.7800,-00.003109,+00.000704,+00.000797
-053.145,-019.897,+008.385,-0.107,+0.743,+2.432,-03.2120,-01.2980,-08.7860,-00.003614,+00.003236,-00.001134
-053.144,-019.895,+008.378,-0.121,+0.748,+2.437,-03.2460,-01.2530,-08.8040,-00.004344,+00.005420,+00.000520
-053.146,-019.889,+008.375,-0.111,+0.728,+2.438,-03.2090,-01.3240,-08.7970,-00.004154,+00.003565,-00.001665
-053.146,-019.884,+008.371,-0.107,+0.763,+2.416,-03.1770,-01.2860,-08.8010,-00.003341,+00.004677,-00.000391
-053.146,-019.880,+008.368,-0.116,+0.738,+2.421,-03.2030,-01.2620,-08.7650,-00.003390,+00.003583,+00.000476
-053.147,-019.876,+008.364,-0.107,+0.738,+2.454,-03.2090,-01.3010,-08.8200,-00.003777,+00.004643,-00.001233
-053.150,-019.870,+008.360,-0.116,+0.773,+2.437,-03.2290,-01.3110,-08.8050,-00.004040,+00.004431,-00.002506
-053.151,-019.862,+008.355,-0.111,+0.748,+2.432,-03.2200,-01.2130,-08.7890,-00.003280,+00.006608,-00.001709
-053.154,-019.852,+008.350,-0.107,+0.793,+2.454,-03.1940,-01.2620,-08.7660,-00.006198,+00.008545,-00.003702
-053.161,-019.839,+008.347,-0.111,+0.753,+2.448,-03.2050,-01.2790,-08.8010,-00.004260,+00.012412,-00.006619
-053.169,-019.820,+008.344,-0.116,+0.753,+2.421,-03.1720,-01.3290,-08.7840,-00.007094,+00.016722,-00.006121
-053.173,-019.801,+008.338,-0.116,+0.728,+2.437,-03.1900,-01.2710,-08.7590,-00.007465,+00.014038,-00.004307
-053.173,-019.787,+008.331,-0.116,+0.763,+2.437,-03.1620,-01.3010,-08.7930,-00.005779,+00.008969,-00.001478
-053.172,-019.781,+008.324,-0.111,+0.738,+2.438,-03.1940,-01.3250,-08.7800,-00.006932,+00.003222,+00.001825
-053.168,-019.774,+008.315,-0.121,+0.763,+2.459,-03.1970,-01.3400,-08.8250,-00.009249,+00.006119,+00.001027
-053.166,-019.767,+008.307,-0.111,+0.743,+2.438,-03.2010,-01.3070,-08.7690,-00.008122,+00.007333,+00.000313
-053.163,-019.759,+008.298,-0.111,+0.748,+2.410,-03.1960,-01.2350,-08.7750,-00.005813,+00.007614,+00.001906
-053.160,-019.754,+008.293,-0.125,+0.748,+2.459,-03.1610,-01.2750,-08.7850,-00.002072,+00.003923,+00.001510
-053.159,-019.751,+008.289,-0.116,+0.763,+2.437,-03.1810,-01.2570,-08.8180,-00.000990,+00.000480,+00.000223
-053.158,-019.748,+008.289,-0.116,+0.738,+2.421,-03.1810,-01.3160,-08.8140,-00.002218,+00.000696,+00.002004
-053.157,-019.747,+008.288,-0.111,+0.728,+2.465,-03.2060,-01.2830,-08.7960,-00.001511,+00.001694,+00.000610
-053.158,-019.746,+008.286,-0.121,+0.738,+2.443,-03.1940,-01.3150,-08.8100,-00.000676,+00.002240,+00.000056
-053.157,-019.745,+008.284,-0.121,+0.748,+2.448,-03.1930,-01.2410,-08.8030,-00.000779,-00.000406,-00.001661
-053.158,-019.745,+008.284,-0.116,+0.753,+2.443,-03.1750,-01.2820,-08.7750,-00.001631,+00.001398,-00.001027
-053.159,-019.743,+008.283,-0.111,+0.788,+2.443,-03.1780,-01.2670,-08.7940,-00.000169,+00.003415,-00.001201
-053.160,-019.742,+008.281,-0.125,+0.738,+2.426,-03.1930,-01.2700,-08.7980,-00.001088,+00.001102,-00.002212
-053.162,-019.739,+008.281,-0.125,+0.748,+2.459,-03.2000,-01.2820,-08.7920,-00.000118,+00.002587,-00.002723
-053.164,-019.735,+008.281,-0.116,+0.748,+2.432,-03.1850,-01.2590,-08.8120,-00.000632,+00.002865,-00.001952
-053.166,-019.732,+008.283,-0.116,+0.753,+2.426,-03.1860,-01.2900,-08.7690,+00.000449,+00.001273,+00.000873
-053.166,-019.729,+008.283,-0.116,+0.753,+2.426,-03.1960,-01.2550,-08.8290,-00.001130,+00.002952,-00.001815
-053.166,-019.726,+008.282,-0.102,+0.748,+2.422,-03.1850,-01.2830,-08.7910,-00.000002,+00.002788,-00.000457
-053.168,-019.723,+008.284,-0.111,+0.753,+2.416,-03.2020,-01.2800,-08.7620,+00.000008,+00.001704,-00.001172
-053.169,-019.722,+008.286,-0.111,+0.743,+2.454,-03.1810,-01.2780,-08.7850,+00.002366,+00.000904,-00.001435
-053.170,-019.724,+008.290,-0.111,+0.753,+2.438,-03.2030,-01.2900,-08.7850,+00.001549,+00.000870,+00.000018
-053.171,-019.724,+008.291,-0.121,+0.763,+2.437,-03.1700,-01.2940,-08.8060,+00.001588,+00.000758,-00.001779
-053.173,-019.722,+008.296,-0.107,+0.738,+2.443,-03.1780,-01.3000,-08.7810,+00.001428,+00.000033,-00.001421
-053.175,-019.722,+008.301,-0.116,+0.743,+2.427,-03.1710,-01.2940,-08.7890,+00.003388,-00.002629,-00.001872
-053.176,-019.727,+008.305,-0.107,+0.738,+2.443,-03.1970,-01.2770,-08.7950,+00.004739,-00.002462,+00.000499
-053.176,-019.732,+008.309,-0.107,+0.768,+2.448,-03.1930,-01.2700,-08.8090,+00.004577,-00.004038,-00.000620
-053.178,-019.735,+008.313,-0.116,+0.743,+2.437,-03.1710,-01.2810,-08.7990,+00.003076,-00.003108,-00.000914
-053.181,-019.738,+008.317,-0.116,+0.733,+2.437,-03.1890,-01.2620,-08.7910,+00.003728,-00.003557,-00.002301
-053.184,-019.737,+008.322,-0.121,+0.763,+2.448,-03.1880,-01.2850,-08.7690,+00.002558,+00.001589,-00.001501
-053.187,-019.735,+008.326,-0.116,+0.748,+2.416,-03.1740,-01.2830,-08.7990,+00.001155,+00.003360,-00.002032
-053.189,-019.733,+008.329,-0.111,+0.753,+2.427,-03.1840,-01.2700,-08.8190,+00.003281,+00.000776,-00.001511
-053.192,-019.734,+008.333,-0.116,+0.753,+2.459,-03.2020,-01.2760,-08.8160,+00.002474,+00.002458,-00.003469
-053.196,-019.731,+008.338,-0.121,+0.753,+2.437,-03.1660,-01.3080,-08.7750,+00.002218,+00.002254,-00.002836
-053.198,-019.726,+008.340,-0.116,+0.758,+2.432,-03.1930,-01.3060,-08.7810,+00.000710,+00.003685,-00.002818
-053.201,-019.720,+008.342,-0.121,+0.763,+2.448,-03.1800,-01.3060,-08.8050,+00.000247,+00.003684,-00.002144
-053.203,-019.717,+008.346,-0.111,+0.738,+2.448,-03.1750,-01.2980,-08.7790,+00.000807,+00.002639,-00.001539
-053.207,-019.716,+008.347,-0.116,+0.743,+2.432,-03.1890,-01.2720,-08.7920,-00.000092,+00.001347,-00.002892
-053.212,-019.716,+008.350,-0.116,+0.738,+2.448,-03.1830,-01.2840,-08.7930,+00.000377,+00.002683,-00.003640
-053.216,-019.714,+008.351,-0.116,+0.743,+2.437,-03.1910,-01.2700,-08.7870,+00.000201,+00.002295,-00.004442
-053.221,-019.710,+008.352,-0.111,+0.733,+2.443,-03.1800,-01.2990,-08.8030,+00.000467,+00.002459,-00.002248
-053.224,-019.708,+008.352,-0.111,+0.738,+2.454,-03.1770,-01.2900,-08.8230,-00.001349,+00.000360,-00.002461
-053.228,-019.704,+008.352,-0.111,+0.743,+2.438,-03.1730,-01.2920,-08.7970,-00.001085,+00.003408,-00.002528
-053.231,-019.699,+008.351,-0.121,+0.733,+2.432,-03.1580,-01.3260,-08.7990,-00.002601,+00.004570,-00.000486
-053.230,-019.695,+008.346,-0.111,+0.728,+2.454,-03.2120,-01.2820,-08.8270,-00.002969,+00.004032,-00.000190
-053.230,-019.690,+008.345,-0.111,+0.748,+2.416,-03.1880,-01.2940,-08.7970,-00.002335,+00.005264,+00.001234
-053.229,-019.686,+008.343,-0.116,+0.753,+2.421,-03.1850,-01.2910,-08.8190,-00.001130,+00.002588,-00.000105
-053.230,-019.683,+008.343,-0.116,+0.733,+2.454,-03.1800,-01.3150,-08.8420,+00.001299,+00.000104,-00.000176
-053.230,-019.682,+008.343,-0.116,+0.793,+2.437,-03.1760,-01.2860,-08.7950,-00.000783,+00.001253,-00.000542
-053.232,-019.679,+008.345,-0.111,+0.743,+2.421,-03.1820,-01.3040,-08.8240,+00.000281,+00.005012,-00.001861
-053.233,-019.674,+008.345,-0.107,+0.768,+2.448,-03.1650,-01.2670,-08.8020,-00.000330,+00.005775,-00.001355
-053.234,-019.669,+008.345,-0.125,+0.748,+2.421,-03.1870,-01.2920,-08.8080,+00.000338,+00.003790,+00.000359
-053.234,-019.664,+008.345,-0.125,+0.753,+2.437,-03.1720,-01.2970,-08.8190,-00.001170,+00.005439,-00.001312
-053.237,-019.658,+008.345,-0.121,+0.743,+2.448,-03.1800,-01.2950,-08.7690,-00.001162,+00.003693,-00.003089
-053.239,-019.654,+008.344,-0.125,+0.758,+2.437,-03.1690,-01.2940,-08.7910,-00.001258,+00.003277,-00.001214
-053.240,-019.649,+008.343,-0.102,+0.733,+2.438,-03.1550,-01.3040,-08.7890,-00.002355,+00.003060,-00.002187
-053.241,-019.649,+008.341,-0.121,+0.748,+2.432,-03.1770,-01.3090,-08.7910,-00.001742,+00.001356,-00.001273
-053.243,-019.646,+008.341,-0.116,+0.748,+2.410,-03.1850,-01.2660,-08.8170,+00.000160,+00.003929,-00.002523
-053.246,-019.641,+008.341,-0.121,+0.768,+2.415,-03.1630,-01.3300,-08.8160,-00.001129,+00.005176,-00.002130
-053.248,-019.635,+008.341,-0.130,+0.768,+2.447,-03.1640,-01.2770,-08.8340,-00.000764,+00.004189,-00.002395
-053.250,-019.629,+008.341,-0.121,+0.778,+2.432,-03.1920,-01.2710,-08.7740,-00.000654,+00.007324,-00.003225
-053.252,-019.621,+008.340,-0.116,+0.753,+2.426,-03.1720,-01.3310,-08.8040,-00.002357,+00.007390,-00.002969
-053.255,-019.613,+008.340,-0.121,+0.748,+2.464,-03.2010,-01.3480,-08.7940,-00.000661,+00.005645,-00.003796
-053.260,-019.605,+008.337,-0.121,+0.743,+2.432,-03.1840,-01.2800,-08.7930,-00.005090,+00.006523,-00.004909
-053.266,-019.596,+008.334,-0.130,+0.743,+2.431,-03.1280,-01.2980,-08.7730,-00.005764,+00.007320,-00.004028
-053.266,-019.587,+008.331,-0.121,+0.733,+2.459,-03.1560,-01.3110,-08.8010,-00.004498,+00.005254,+00.000960
-053.265,-019.586,+008.327,-0.125,+0.753,+2.432,-03.1940,-01.2880,-08.7460,-00.001667,+00.001089,+00.000923
-053.265,-019.585,+008.326,-0.121,+0.728,+2.437,-03.1830,-01.2980,-08.8640,-00.000487,+00.001774,+00.001050
-053.265,-019.584,+008.325,-0.116,+0.728,+2.448,-03.1690,-01.2750,-08.7910,+00.000802,+00.001691,+00.000597
-053.268,-019.582,+008.326,-0.121,+0.763,+2.442,-03.1560,-01.3000,-08.8020,-00.000056,+00.001048,-00.001825
-053.271,-019.580,+008.329,-0.125,+0.738,+2.442,-03.1500,-01.3080,-08.8460,+00.001325,-00.000400,-00.002356
-053.274,-019.578,+008.333,-0.125,+0.763,+2.453,-03.1280,-01.2900,-08.7880,+00.002144,+00.000714,-00.001699
-053.276,-019.578,+008.337,-0.130,+0.763,+2.431,-03.1600,-01.3010,-08.8220,+00.002448,-00.002633,-00.000967
-053.276,-019.581,+008.340,-0.121,+0.763,+2.432,-03.1460,-01.2940,-08.7890,+00.003057,-00.002141,+00.000431
-053.276,-019.583,+008.344,-0.125,+0.733,+2.442,-03.1720,-01.3000,-08.8180,+00.004607,-00.003402,+00.000273
-053.277,-019.587,+008.349,-0.125,+0.763,+2.426,-03.1870,-01.2880,-08.8130,+00.003252,-00.003175,-00.000239
-053.278,-019.589,+008.351,-0.121,+0.748,+2.432,-03.1470,-01.2980,-08.8010,+00.002946,-00.001923,+00.002237
-053.278,-019.591,+008.353,-0.116,+0.728,+2.454,-03.1600,-01.2750,-08.8040,+00.001581,-00.001807,-00.001171
-053.280,-019.592,+008.356,-0.121,+0.763,+2.415,-03.1630,-01.2910,-08.7900,+00.001610,-00.001676,-00.002269
-053.281,-019.594,+008.359,-0.116,+0.748,+2.443,-03.2000,-01.3090,-08.8330,+00.002237,+00.000106,-00.000617
-053.282,-019.592,+008.361,-0.130,+0.734,+2.459,-03.1270,-01.3080,-08.8160,+00.001602,+00.000277,-00.000985
-053.282,-019.593,+008.363,-0.116,+0.783,+2.432,-03.1560,-01.3010,-08.8180,+00.001083,-00.000756,-00.000048
-053.281,-019.595,+008.365,-0.125,+0.758,+2.448,-03.1640,-01.2840,-08.7970,+00.002699,-00.001901,+00.000629
-053.281,-019.597,+008.367,-0.116,+0.733,+2.443,-03.1580,-01.3030,-08.7990,+00.001812,-00.002973,+00.000323
-053.281,-019.599,+008.366,-0.121,+0.753,+2.437,-03.1640,-01.2110,-08.8480,+00.002266,-00.001711,+00.001695
-053.284,-019.600,+008.368,-0.121,+0.738,+2.443,-03.1890,-01.3510,-08.8250,-00.000255,+00.000663,-00.001105
-053.286,-019.598,+008.369,-0.116,+0.743,+2.454,-03.1880,-01.2750,-08.8020,-00.000483,+00.000767,-00.000222
-053.289,-019.594,+008.370,-0.125,+0.743,+2.437,-03.1560,-01.3220,-08.7650,+00.001442,+00.002519,-00.001040
-053.289,-019.594,+008.370,-0.125,+0.738,+2.442,-03.1880,-01.2810,-08.8080,+00.000451,+00.000224,+00.001622
-053.289,-019.595,+008.370,-0.116,+0.733,+2.448,-03.1690,-01.2970,-08.7680,-00.000042,-00.001107,+00.000077
-053.291,-019.595,+008.370,-0.125,+0.748,+2.437,-03.1890,-01.3000,-08.8140,-00.001387,+00.000976,-00.002048
-053.294,-019.590,+008.370,-0.116,+0.733,+2.427,-03.1280,-01.3110,-08.8200,-00.001592,+00.002632,-00.001273
-053.295,-019.591,+008.369,-0.125,+0.719,+2.453,-03.1410,-01.2740,-08.8120,-00.001381,-00.002630,-00.000564
-053.298,-019.591,+008.369,-0.121,+0.783,+2.448,-03.1570,-01.3160,-08.8090,-00.000851,+00.000104,-00.002675
-053.299,-019.590,+008.367,-0.121,+0.733,+2.410,-03.2000,-01.3210,-08.8200,-00.002450,+00.001982,-00.000642
-053.300,-019.587,+008.362,-0.121,+0.738,+2.448,-03.1690,-01.2880,-08.8040,-00.004546,+00.002788,-00.002097
-053.302,-019.584,+008.357,-0.125,+0.768,+2.431,-03.1600,-01.2800,-08.7860,-00.005099,+00.003168,-00.001224
-053.304,-019.579,+008.352,-0.130,+0.748,+2.421,-03.1650,-01.2940,-08.8100,-00.006387,+00.004695,-00.001001
-053.305,-019.573,+008.347,-0.125,+0.738,+2.453,-03.1660,-01.3120,-08.8040,-00.005430,+00.003202,-00.000130
-053.305,-019.568,+008.340,-0.121,+0.743,+2.421,-03.1700,-01.2920,-08.8080,-00.004707,+00.003046,+00.001646
-053.305,-019.563,+008.334,-0.121,+0.743,+2.437,-03.1520,-01.2860,-08.8170,-00.005429,+00.003596,+00.000743
-053.304,-019.559,+008.327,-0.116,+0.748,+2.459,-03.1590,-01.2780,-08.8170,-00.005439,+00.004557,+00.001164
-053.302,-019.554,+008.322,-0.116,+0.748,+2.437,-03.1340,-01.2980,-08.7710,-00.005583,+00.002569,+00.001303
-053.299,-019.552,+008.316,-0.130,+0.753,+2.442,-03.1290,-01.2690,-08.8110,-00.002532,+00.000484,+00.002889
-053.296,-019.552,+008.312,-0.116,+0.748,+2.432,-03.1470,-01.2750,-08.8320,-00.002442,-00.000115,+00.002644
-053.296,-019.551,+008.308,-0.121,+0.783,+2.421,-03.1190,-01.2490,-08.8070,-00.004693,+00.000665,-00.000136
-053.293,-019.549,+008.306,-0.125,+0.738,+2.432,-03.1610,-01.2720,-08.8140,+00.000448,+00.002077,+00.001779
-053.292,-019.548,+008.302,-0.121,+0.728,+2.454,-03.1780,-01.2490,-08.8250,-00.002177,+00.001563,-00.001358
-053.293,-019.545,+008.302,-0.121,+0.748,+2.443,-03.1550,-01.2950,-08.8320,-00.002074,+00.000875,-00.001323
-053.294,-019.542,+008.299,-0.116,+0.723,+2.443,-03.1470,-01.1940,-08.8440,-00.001785,+00.003556,+00.000102
-053.295,-019.538,+008.297,-0.125,+0.738,+2.442,-03.1370,-01.2220,-08.8180,-00.000445,+00.003553,+00.001897
-053.293,-019.535,+008.297,-0.125,+0.768,+2.426,-03.1350,-01.2500,-08.8450,+00.000577,+00.000908,-00.000324
-053.293,-019.535,+008.297,-0.116,+0.733,+2.448,-03.1850,-01.2340,-08.8210,+00.002400,-00.001038,+00.002201
-053.293,-019.536,+008.300,-0.125,+0.778,+2.448,-03.2050,-01.3100,-08.8110,+00.002860,+00.000976,+00.000023
-053.297,-019.536,+008.302,-0.121,+0.773,+2.421,-03.1660,-01.3410,-08.7650,+00.000528,-00.001124,-00.002627
-053.300,-019.536,+008.305,-0.125,+0.733,+2.453,-03.1560,-01.2800,-08.7800,+00.001297,-00.000845,-00.002229
-053.302,-019.536,+008.307,-0.135,+0.729,+2.475,-03.1750,-01.2700,-08.8380,+00.001897,+00.000457,-00.000778
-053.305,-019.535,+008.311,-0.116,+0.738,+2.432,-03.1850,-01.3290,-08.7760,+00.001853,+00.004237,-00.002934
-053.310,-019.533,+008.312,-0.121,+0.723,+2.437,-03.1680,-01.2840,-08.7670,+00.001107,+00.000313,-00.004124
-053.316,-019.532,+008.316,-0.121,+0.719,+2.454,-03.1550,-01.2770,-08.8130,-00.000216,-00.000161,-00.002618
-053.323,-019.529,+008.315,-0.121,+0.763,+2.426,-03.1500,-01.2460,-08.7980,-00.001561,+00.005461,-00.004643
-053.328,-019.522,+008.312,-0.130,+0.743,+2.437,-03.1570,-01.3050,-08.8020,-00.003460,+00.006404,-00.002238
-053.331,-019.516,+008.309,-0.121,+0.738,+2.459,-03.1600,-01.2740,-08.8220,-00.002215,+00.004254,-00.002619
-053.339,-019.511,+008.310,-0.121,+0.743,+2.421,-03.1570,-01.3000,-08.7840,+00.000529,+00.005562,-00.007354
-053.350,-019.505,+008.312,-0.125,+0.719,+2.448,-03.1670,-01.3010,-08.7880,-00.001117,+00.004409,-00.012603
-053.362,-019.498,+008.316,-0.116,+0.743,+2.459,-03.1160,-01.3210,-08.7710,-00.001562,+00.004255,-00.010267
-053.372,-019.490,+008.319,-0.121,+0.753,+2.453,-03.1410,-01.2930,-08.8080,-00.001185,+00.005085,-00.009571
-053.383,-019.485,+008.322,-0.135,+0.739,+2.447,-03.1220,-01.2690,-08.7860,+00.001024,+00.001367,-00.008467
-053.394,-019.484,+008.328,-0.121,+0.758,+2.459,-03.1870,-01.2970,-08.8090,+00.002056,+00.000889,-00.012444
-053.412,-019.482,+008.340,-0.125,+0.743,+2.442,-03.1780,-01.3240,-08.8370,+00.006894,+00.003090,-00.015610
-053.428,-019.478,+008.350,-0.125,+0.733,+2.453,-03.1460,-01.3250,-08.8260,+00.004431,+00.003085,-00.010535
-053.440,-019.474,+008.360,-0.121,+0.753,+2.443,-03.2020,-01.3730,-08.8030,+00.004243,+00.004295,-00.011561
-053.451,-019.467,+008.366,-0.135,+0.748,+2.437,-03.1350,-01.3240,-08.8230,+00.002135,+00.002522,-00.008182
-053.460,-019.461,+008.371,-0.111,+0.773,+2.421,-03.1130,-01.2280,-08.7860,+00.001574,+00.003586,-00.005414
-053.468,-019.455,+008.374,-0.125,+0.743,+2.442,-03.1170,-01.2560,-08.8550,+00.000115,+00.004376,-00.005775
-053.475,-019.444,+008.376,-0.125,+0.748,+2.442,-03.1290,-01.2710,-08.8090,-00.001472,+00.011469,-00.006988
-053.479,-019.433,+008.374,-0.125,+0.758,+2.442,-03.1090,-01.2940,-08.8100,-00.005256,+00.007819,-00.003747
-053.479,-019.426,+008.370,-0.130,+0.724,+2.459,-03.0990,-01.2840,-08.7920,-00.004501,+00.004398,+00.000348
-053.479,-019.424,+008.367,-0.121,+0.773,+2.448,-03.1560,-01.2790,-08.8140,-00.001696,-00.000900,-00.002101
-053.481,-019.424,+008.365,-0.121,+0.768,+2.448,-03.1420,-01.2790,-08.8120,-00.000874,-00.000329,-00.002640
-053.487,-019.420,+008.366,-0.130,+0.729,+2.464,-03.1270,-01.2880,-08.8180,-00.000762,+00.003175,-00.006017
-053.493,-019.417,+008.368,-0.135,+0.733,+2.437,-03.1460,-01.3550,-08.7990,-00.001040,+00.003658,-00.004591
-053.497,-019.413,+008.367,-0.121,+0.738,+2.416,-03.1300,-01.2730,-08.8130,-00.001101,+00.002326,-00.002600
-053.501,-019.408,+008.366,-0.121,+0.743,+2.459,-03.1230,-01.3350,-08.8200,-00.004253,+00.006440,-00.002070
-053.503,-019.400,+008.360,-0.135,+0.773,+2.415,-03.1530,-01.3050,-08.8010,-00.007069,+00.008224,-00.001799
-053.504,-019.393,+008.352,-0.130,+0.768,+2.442,-03.1530,-01.3260,-08.8050,-00.003680,+00.009204,-00.002559
-053.507,-019.385,+008.346,-0.130,+0.743,+2.458,-03.1380,-01.3880,-08.8250,-00.007084,+00.004541,-00.000706
-053.508,-019.379,+008.337,-0.135,+0.748,+2.447,-03.1260,-01.3330,-08.8110,-00.007664,+00.004442,-00.001440
-053.510,-019.372,+008.328,-0.125,+0.728,+2.443,-03.1300,-01.3090,-08.8230,-00.006875,+00.006105,-00.002686
-053.513,-019.363,+008.320,-0.125,+0.719,+2.453,-03.1450,-01.2360,-08.8190,-00.005614,+00.006757,-00.003977
-053.519,-019.355,+008.314,-0.130,+0.778,+2.447,-03.1120,-01.2810,-08.7730,-00.006119,+00.006214,-00.005345
-053.521,-019.348,+008.309,-0.130,+0.728,+2.432,-03.1230,-01.2970,-08.8130,-00.004992,+00.005164,-00.003817
-053.526,-019.343,+008.304,-0.116,+0.763,+2.459,-03.1370,-01.2950,-08.8640,-00.003544,+00.000945,-00.004253
-053.532,-019.340,+008.302,-0.130,+0.743,+2.431,-03.1500,-01.2670,-08.8360,-00.003104,+00.000869,-00.006119
-053.541,-019.336,+008.300,-0.135,+0.758,+2.437,-03.1680,-01.2550,-08.7770,-00.004007,+00.003893,-00.011124
-053.556,-019.329,+008.303,-0.121,+0.733,+2.454,-03.1100,-01.2850,-08.7910,-00.001138,+00.006559,-00.011275
-053.567,-019.322,+008.308,-0.135,+0.738,+2.442,-03.0810,-01.3000,-08.7750,-00.000403,+00.003463,-00.008338
-053.576,-019.320,+008.313,-0.135,+0.758,+2.442,-03.1080,-01.3310,-08.8530,+00.003057,+00.001111,-00.008071
-053.586,-019.317,+008.320,-0.135,+0.734,+2.448,-03.1300,-01.2620,-08.8240,+00.003507,+00.000497,-00.010222
-053.599,-019.313,+008.328,-0.130,+0.758,+2.437,-03.1890,-01.2470,-08.8210,+00.004452,+00.003801,-00.011888
-053.618,-019.307,+008.340,-0.125,+0.728,+2.437,-03.1720,-01.2790,-08.8730,+00.010199,+00.004087,-00.015925
-053.642,-019.298,+008.360,-0.139,+0.753,+2.447,-03.1570,-01.3240,-08.8630,+00.012373,+00.006257,-00.024392
-053.671,-019.284,+008.383,-0.139,+0.758,+2.447,-03.1310,-01.2890,-08.7940,+00.015174,+00.012772,-00.025825
-053.700,-019.263,+008.409,-0.130,+0.753,+2.431,-03.1100,-01.3260,-08.7950,+00.014619,+00.016420,-00.024987
-053.727,-019.238,+008.432,-0.130,+0.724,+2.437,-03.0630,-01.2970,-08.8110,+00.012411,+00.018291,-00.025187
-053.751,-019.214,+008.455,-0.135,+0.748,+2.447,-03.0780,-01.2710,-08.8250,+00.011434,+00.019425,-00.020696
-053.770,-019.191,+008.474,-0.135,+0.723,+2.421,-03.0500,-01.3390,-08.7900,+00.009382,+00.015719,-00.014316
-053.782,-019.175,+008.488,-0.130,+0.729,+2.459,-03.0500,-01.3580,-08.7740,+00.002990,+00.011020,-00.006892
-053.785,-019.163,+008.491,-0.135,+0.758,+2.437,-03.0890,-01.3100,-08.8430,+00.000380,+00.010079,-00.000235
-053.785,-019.155,+008.490,-0.135,+0.753,+2.437,-03.0700,-01.3330,-08.7880,+00.000317,+00.002352,-00.000961
-053.785,-019.155,+008.492,-0.144,+0.739,+2.458,-03.1080,-01.3580,-08.8210,+00.002209,-00.002796,-00.000187
-053.788,-019.159,+008.496,-0.149,+0.749,+2.441,-03.0800,-01.3580,-08.7950,+00.002796,-00.003802,-00.001912
-053.792,-019.160,+008.499,-0.135,+0.733,+2.426,-03.0770,-01.3000,-08.8050,+00.002924,-00.001466,-00.000532
-053.792,-019.160,+008.502,-0.139,+0.724,+2.453,-03.0520,-01.3500,-08.7910,+00.003250,-00.000781,+00.002620
-053.791,-019.162,+008.503,-0.139,+0.739,+2.458,-03.1060,-01.3150,-08.8120,+00.000770,-00.001566,+00.000916
-053.794,-019.165,+008.508,-0.144,+0.744,+2.447,-03.0690,-01.3050,-08.8040,+00.003540,-00.001681,+00.000827
-053.796,-019.166,+008.513,-0.135,+0.748,+2.453,-03.0980,-01.3710,-08.7940,+00.003655,-00.001666,-00.002364
-053.801,-019.166,+008.519,-0.130,+0.738,+2.442,-03.1040,-01.2220,-08.8710,+00.006200,-00.000483,-00.004174
-053.810,-019.165,+008.529,-0.139,+0.724,+2.437,-03.0890,-01.2740,-08.8240,+00.006519,+00.001578,-00.006428
-053.821,-019.162,+008.540,-0.130,+0.724,+2.448,-03.0820,-01.3710,-08.8030,+00.006750,+00.001083,-00.008274
-053.830,-019.158,+008.548,-0.135,+0.738,+2.437,-03.0830,-01.3090,-08.8360,+00.005626,+00.001074,-00.005179
-053.839,-019.156,+008.556,-0.130,+0.733,+2.426,-03.1120,-01.2750,-08.8320,+00.008592,+00.000263,-00.004714
-053.851,-019.153,+008.568,-0.135,+0.744,+2.464,-03.0990,-01.3270,-08.8360,+00.008196,+00.000800,-00.012579
-053.870,-019.146,+008.584,-0.135,+0.758,+2.426,-03.1580,-01.4660,-08.9160,+00.003696,+00.008313,-00.020970
-053.887,-019.145,+008.596,-0.144,+0.734,+2.431,-03.1100,-01.3550,-08.7780,+00.008801,+00.001109,-00.014299
-053.901,-019.139,+008.615,-0.139,+0.729,+2.469,-03.0580,-01.3170,-08.7890,+00.015069,+00.003188,-00.005966
-053.910,-019.135,+008.632,-0.130,+0.753,+2.431,-03.1100,-01.3160,-08.7680,+00.011316,+00.001519,-00.005762
-053.919,-019.132,+008.651,-0.135,+0.753,+2.426,-03.1220,-01.3810,-08.8290,+00.015232,+00.002670,-00.007424
-053.928,-019.127,+008.670,-0.135,+0.724,+2.448,-03.0740,-01.3880,-08.8220,+00.013402,+00.001372,-00.008193
-053.938,-019.120,+008.689,-0.139,+0.753,+2.426,-03.0690,-01.3920,-08.8370,+00.012985,+00.004693,-00.009260
-053.947,-019.114,+008.705,-0.139,+0.739,+2.442,-03.0910,-01.3720,-08.8080,+00.010498,+00.004364,-00.006821
-053.954,-019.109,+008.717,-0.135,+0.768,+2.458,-03.0830,-01.4290,-08.7840,+00.006444,+00.002852,-00.004547
-053.959,-019.105,+008.724,-0.130,+0.783,+2.431,-03.0540,-01.3450,-08.8140,+00.001126,+00.001272,-00.006077
-053.963,-019.104,+008.731,-0.139,+0.733,+2.420,-03.0770,-01.3360,-08.8300,+00.005955,-00.000340,-00.000370
-053.967,-019.103,+008.735,-0.139,+0.753,+2.447,-03.0890,-01.3850,-08.7840,+00.002986,+00.001367,-00.004671
-053.974,-019.102,+008.742,-0.130,+0.753,+2.448,-03.0820,-01.3660,-08.8080,+00.000664,-00.000898,-00.006217
-053.979,-019.101,+008.751,-0.135,+0.778,+2.426,-03.0750,-01.3560,-08.8200,+00.006466,+00.001210,-00.002727
-053.984,-019.098,+008.758,-0.144,+0.729,+2.458,-03.0830,-01.3250,-08.8150,+00.006067,+00.002201,-00.004087
-053.990,-019.095,+008.766,-0.139,+0.768,+2.436,-03.0770,-01.3640,-08.8050,+00.005413,+00.003405,-00.004867
-053.995,-019.090,+008.774,-0.149,+0.744,+2.436,-03.0750,-01.2880,-08.8080,+00.008346,+00.003788,-00.001501
-054.001,-019.086,+008.781,-0.130,+0.743,+2.448,-03.0350,-01.4550,-08.7430,-00.001264,+00.000755,-00.007298
-054.004,-019.083,+008.786,-0.135,+0.778,+2.442,-03.0090,-01.3600,-08.8230,-00.000673,+00.000668,-00.004258
-054.005,-019.081,+008.787,-0.135,+0.768,+2.426,-03.0570,-01.2620,-08.8520,-00.000240,+00.000653,-00.000736
-054.003,-019.080,+008.786,-0.135,+0.729,+2.469,-03.0880,-01.3310,-08.8030,+00.000778,+00.002419,+00.003462
-054.001,-019.077,+008.783,-0.139,+0.753,+2.431,-03.0830,-01.3330,-08.8560,-00.001437,+00.004634,+00.001408
-053.997,-019.074,+008.782,-0.149,+0.773,+2.430,-03.0770,-01.3570,-08.8320,+00.000319,+00.003577,+00.004437
-053.991,-019.073,+008.778,-0.139,+0.753,+2.458,-03.1080,-01.3370,-08.8410,+00.003614,+00.001656,+00.004436
-053.986,-019.074,+008.780,-0.139,+0.743,+2.436,-03.0810,-01.3630,-08.8100,+00.004175,-00.000787,+00.005766
-053.982,-019.075,+008.784,-0.139,+0.729,+2.437,-03.0620,-01.3620,-08.8020,+00.005313,-00.000366,+00.004820
-053.978,-019.077,+008.787,-0.135,+0.743,+2.448,-03.0860,-01.3910,-08.8240,+00.002608,-00.000229,+00.005955
-053.975,-019.077,+008.789,-0.139,+0.783,+2.442,-03.0880,-01.3820,-08.8050,+00.003785,-00.001193,+00.002441
-053.972,-019.076,+008.791,-0.135,+0.738,+2.442,-03.1010,-01.3720,-08.8210,+00.003334,+00.000844,+00.002857
-053.971,-019.077,+008.794,-0.135,+0.744,+2.458,-03.0640,-01.3560,-08.7980,+00.002586,-00.000605,+00.002224
-053.972,-019.077,+008.796,-0.135,+0.743,+2.426,-03.1100,-01.3650,-08.9160,+00.004031,+00.004399,+00.000722
-053.973,-019.078,+008.800,-0.139,+0.763,+2.442,-03.0530,-01.3580,-08.8450,+00.000477,-00.006015,-00.000927
-053.973,-019.077,+008.806,-0.135,+0.739,+2.464,-03.0480,-01.3490,-08.8310,+00.008764,+00.001464,-00.000146
-053.975,-019.078,+008.812,-0.139,+0.738,+2.437,-03.0390,-01.2990,-08.8270,+00.006575,-00.003125,+00.000961
-053.979,-019.081,+008.819,-0.139,+0.753,+2.431,-03.0930,-01.3770,-08.8510,+00.004794,-00.001879,-00.001490
-053.981,-019.082,+008.826,-0.139,+0.734,+2.447,-03.0720,-01.3800,-08.8200,+00.004018,-00.002628,+00.001155
-053.981,-019.085,+008.830,-0.135,+0.763,+2.442,-03.0130,-01.2800,-08.8100,+00.003177,-00.003984,+00.002803
-053.979,-019.088,+008.832,-0.135,+0.758,+2.426,-03.1190,-01.4790,-08.8250,-00.000868,-00.000518,+00.001604
-053.976,-019.090,+008.832,-0.149,+0.754,+2.441,-03.0950,-01.3790,-08.7790,-00.001859,-00.003563,+00.001812
-053.972,-019.093,+008.832,-0.135,+0.753,+2.437,-03.0880,-01.4000,-08.8130,+00.000439,-00.004662,+00.005501
-053.970,-019.097,+008.834,-0.139,+0.738,+2.437,-03.0670,-01.3550,-08.8230,+00.000412,-00.003101,+00.002855
-053.966,-019.100,+008.833,-0.135,+0.743,+2.442,-03.0960,-01.3530,-08.8200,-00.003302,-00.001498,+00.003790
-053.962,-019.104,+008.819,-0.139,+0.758,+2.442,-03.0960,-01.3300,-08.8000,-00.003034,-00.002755,+00.005497
-053.953,-019.107,+008.816,-0.139,+0.748,+2.431,-03.0500,-01.3470,-08.8430,-00.002319,-00.003841,+00.008139
-053.947,-019.112,+008.813,-0.135,+0.734,+2.453,-03.1080,-01.3670,-08.7710,-00.001215,-00.003424,+00.003870
-053.942,-019.116,+008.813,-0.139,+0.758,+2.442,-03.0620,-01.3630,-08.8260,+00.006631,-00.004263,+00.004597
-053.934,-019.118,+008.808,-0.135,+0.773,+2.431,-03.0610,-01.2090,-08.9000,+00.007383,-00.001298,+00.007891
-053.926,-019.115,+008.802,-0.139,+0.729,+2.447,-03.0750,-01.4160,-08.7860,-00.011179,+00.004406,+00.002697
-053.918,-019.113,+008.799,-0.130,+0.748,+2.442,-03.0970,-01.2440,-08.8380,+00.002462,+00.003951,+00.005863
-053.911,-019.109,+008.803,-0.135,+0.734,+2.442,-03.1260,-01.4120,-08.8010,+00.005545,+00.003264,+00.005448
-053.910,-019.104,+008.807,-0.149,+0.744,+2.441,-03.0540,-01.3350,-08.8090,+00.003207,+00.004094,-00.000014
-053.909,-019.099,+008.812,-0.139,+0.753,+2.447,-03.1020,-01.3480,-08.8340,+00.007423,+00.003091,+00.002870
-053.907,-019.093,+008.820,-0.144,+0.749,+2.447,-03.0510,-01.3340,-08.7270,+00.010435,+00.005344,+00.003598
-053.906,-019.090,+008.823,-0.139,+0.748,+2.442,-03.0600,-01.3020,-08.8070,+00.004966,+00.000576,+00.004163
-053.903,-019.087,+008.823,-0.139,+0.768,+2.436,-03.1020,-01.3620,-08.8140,+00.002004,+00.003777,+00.001707
-053.904,-019.084,+008.823,-0.135,+0.788,+2.431,-03.0840,-01.3040,-08.7890,+00.002321,+00.000966,+00.001076
-053.904,-019.082,+008.826,-0.144,+0.739,+2.447,-03.1100,-01.3590,-08.7990,+00.002644,+00.003709,-00.001583
-053.905,-019.079,+008.832,-0.139,+0.753,+2.436,-03.1030,-01.3300,-08.8590,+00.006981,+00.003454,+00.000743
-053.907,-019.076,+008.838,-0.135,+0.758,+2.420,-03.0480,-01.3020,-08.8660,+00.001877,+00.001212,-00.001041
-053.912,-019.073,+008.853,-0.130,+0.733,+2.448,-03.1620,-01.4090,-08.8710,+00.006299,+00.006439,-00.007859
-053.915,-019.067,+008.860,-0.130,+0.768,+2.426,-03.0480,-01.4380,-08.8030,+00.003706,+00.001153,-00.000600
-053.916,-019.064,+008.865,-0.139,+0.753,+2.415,-03.0810,-01.4740,-08.8190,-00.002996,+00.003257,-00.001691
-053.915,-019.060,+008.861,-0.144,+0.749,+2.447,-03.1510,-01.4350,-08.8140,-00.003113,+00.005553,-00.001572
-053.916,-019.054,+008.857,-0.130,+0.763,+2.421,-03.1020,-01.4360,-08.8000,-00.000238,+00.007829,-00.003688
-053.921,-019.046,+008.859,-0.149,+0.739,+2.436,-03.0360,-01.2510,-08.8320,-00.004105,+00.005230,-00.003471
-053.922,-019.038,+008.862,-0.139,+0.753,+2.453,-03.0920,-01.4230,-08.8430,+00.000155,+00.006838,-00.004379
-053.922,-019.034,+008.860,-0.149,+0.758,+2.436,-03.0970,-01.3720,-08.8380,-00.000795,+00.003749,+00.003309
-053.922,-019.028,+008.857,-0.149,+0.748,+2.431,-03.0770,-01.3950,-08.8470,+00.000928,+00.004746,+00.000859
-053.925,-019.023,+008.857,-0.144,+0.738,+2.420,-03.0760,-01.3390,-08.7360,-00.001943,+00.003031,-00.001741
-053.928,-019.017,+008.864,-0.144,+0.768,+2.442,-03.1060,-01.4120,-08.7970,+00.001652,+00.006102,-00.002732
-053.930,-019.013,+008.864,-0.139,+0.768,+2.409,-03.0620,-01.3070,-08.7950,-00.000637,+00.000325,+00.000030
-053.928,-019.010,+008.864,-0.139,+0.739,+2.474,-03.0870,-01.3860,-08.8030,+00.000090,+00.003745,+00.001114
-053.928,-019.006,+008.862,-0.144,+0.773,+2.441,-03.0770,-01.4000,-08.7910,-00.002247,+00.001219,+00.001696
-053.927,-019.001,+008.857,-0.144,+0.739,+2.442,-03.0610,-01.3730,-08.8310,-00.003482,+00.005163,+00.002354
-053.926,-018.995,+008.851,-0.153,+0.744,+2.441,-03.0900,-01.4300,-08.8100,-00.003615,+00.005940,-00.001743
-053.928,-018.989,+008.845,-0.135,+0.768,+2.431,-03.0880,-01.4430,-08.8250,-00.005825,+00.002696,-00.002391
-053.929,-018.984,+008.841,-0.130,+0.743,+2.415,-03.0980,-01.3620,-08.8280,-00.001849,+00.002539,-00.001117
-053.929,-018.980,+008.839,-0.144,+0.734,+2.453,-03.0830,-01.3760,-08.8430,-00.002444,+00.002551,-00.000471
-053.933,-018.978,+008.838,-0.153,+0.758,+2.436,-03.0680,-01.3210,-08.8460,-00.000639,+00.001776,-00.002069
-053.936,-018.972,+008.837,-0.144,+0.753,+2.447,-03.0910,-01.3730,-08.8470,-00.001876,+00.006492,-00.003263
-053.937,-018.966,+008.839,-0.139,+0.768,+2.447,-03.0720,-01.3910,-08.8230,+00.002363,+00.005060,-00.001896
-053.938,-018.960,+008.842,-0.139,+0.758,+2.426,-03.0680,-01.3850,-08.8200,+00.001538,+00.002690,+00.000291
-053.939,-018.955,+008.843,-0.144,+0.739,+2.442,-03.0630,-01.3460,-08.7990,+00.000674,+00.003752,-00.001239
-053.941,-018.949,+008.846,-0.130,+0.734,+2.453,-03.0580,-01.3800,-08.7810,+00.003033,+00.005271,-00.002844
-053.945,-018.942,+008.852,-0.144,+0.773,+2.436,-03.0530,-01.3710,-08.8360,+00.004026,+00.005349,-00.003481
-053.949,-018.934,+008.857,-0.135,+0.763,+2.447,-03.0290,-01.3770,-08.8100,+00.001576,+00.006868,-00.003349
-053.953,-018.927,+008.857,-0.135,+0.738,+2.442,-03.0680,-01.3970,-08.8320,-00.001410,+00.005631,-00.003214
-053.956,-018.921,+008.857,-0.130,+0.788,+2.431,-03.0560,-01.4050,-08.8520,-00.003051,+00.001846,-00.002269
-053.959,-018.915,+008.854,-0.144,+0.739,+2.436,-03.0860,-01.3700,-08.8080,-00.001801,+00.005843,-00.003397
-053.964,-018.909,+008.854,-0.139,+0.734,+2.464,-03.0860,-01.3610,-08.8420,-00.001851,+00.005719,-00.004900
-053.972,-018.901,+008.852,-0.135,+0.738,+2.442,-03.0900,-01.3950,-08.8160,-00.005962,+00.006930,-00.008364
-053.979,-018.890,+008.850,-0.144,+0.753,+2.436,-03.0170,-01.3590,-08.8040,-00.004192,+00.007929,-00.005527
-053.984,-018.879,+008.846,-0.135,+0.724,+2.459,-03.0460,-01.3470,-08.8100,-00.003468,+00.009707,-00.005261
-053.987,-018.867,+008.842,-0.144,+0.753,+2.420,-03.0690,-01.3910,-08.8400,-00.006280,+00.012767,-00.003904
-053.989,-018.852,+008.840,-0.149,+0.749,+2.436,-03.0350,-01.3320,-08.8040,+00.002136,+00.010638,-00.002692
-053.991,-018.840,+008.846,-0.144,+0.748,+2.436,-03.0720,-01.3590,-08.8480,+00.014495,+00.011365,-00.003961
-053.999,-018.826,+008.860,-0.149,+0.748,+2.431,-02.9730,-01.1990,-08.8570,-00.002686,+00.011341,-00.005373
-054.000,-018.814,+008.871,-0.153,+0.744,+2.441,-03.0220,-01.3720,-08.8130,+00.003611,+00.011502,-00.000579
-054.001,-018.800,+008.872,-0.135,+0.753,+2.431,-03.0670,-01.3790,-08.8410,+00.004379,+00.013454,-00.002266
-054.001,-018.787,+008.879,-0.153,+0.759,+2.447,-03.0060,-01.3590,-08.8290,+00.005897,+00.008923,-00.000999
-054.001,-018.776,+008.888,-0.139,+0.748,+2.431,-03.0530,-01.3980,-08.8210,+00.008743,+00.008332,-00.000113
-054.002,-018.766,+008.896,-0.153,+0.739,+2.463,-03.0340,-01.4230,-08.8480,+00.003134,+00.010367,-00.002484
-054.004,-018.751,+008.903,-0.144,+0.744,+2.442,-03.0610,-01.3870,-08.8670,+00.007274,+00.013879,-00.004151
-054.010,-018.736,+008.911,-0.144,+0.734,+2.442,-02.9660,-01.1700,-08.8210,+00.008578,+00.009463,-00.000735
-054.010,-018.725,+008.923,-0.144,+0.739,+2.453,-02.9870,-01.4020,-08.7950,+00.007786,+00.006923,-00.000799
-054.009,-018.719,+008.933,-0.149,+0.753,+2.436,-03.0440,-01.4320,-08.8150,+00.008374,+00.004764,-00.001391
-054.015,-018.709,+008.944,-0.153,+0.744,+2.430,-03.0090,-01.4640,-08.7830,+00.001428,+00.010143,-00.008405
-054.016,-018.698,+008.955,-0.144,+0.734,+2.453,-03.0380,-01.4420,-08.7720,+00.010572,+00.011306,-00.004472
-054.020,-018.687,+008.968,-0.149,+0.763,+2.441,-02.9860,-01.4020,-08.7820,+00.010990,+00.006336,-00.001445
-054.023,-018.684,+008.979,-0.144,+0.729,+2.431,-03.0060,-01.4090,-08.8290,+00.009434,+00.000714,-00.001153
-054.027,-018.682,+008.990,-0.144,+0.734,+2.453,-02.9820,-01.3960,-08.8060,+00.007928,+00.000499,-00.001210
-054.028,-018.679,+009.003,-0.144,+0.763,+2.436,-03.0740,-01.4780,-08.8070,+00.011790,+00.003350,-00.003706
-054.034,-018.674,+009.021,-0.139,+0.753,+2.447,-02.9940,-01.4100,-08.8560,+00.015967,+00.002690,-00.003112
-054.039,-018.670,+009.039,-0.139,+0.758,+2.447,-02.9820,-01.4080,-08.8010,+00.013916,+00.004515,-00.003581
-054.040,-018.668,+009.052,-0.153,+0.749,+2.436,-03.0020,-01.4180,-08.8090,+00.004433,-00.001933,-00.000167
-054.043,-018.665,+009.060,-0.153,+0.734,+2.436,-03.0330,-01.3830,-08.8470,+00.008512,+00.005613,-00.001285
-054.045,-018.658,+009.071,-0.144,+0.734,+2.436,-02.9910,-01.4060,-08.8140,+00.008362,+00.005505,-00.004466
-054.048,-018.653,+009.080,-0.149,+0.744,+2.447,-03.0040,-01.4390,-08.7900,+00.006957,+00.001362,-00.001697
-054.049,-018.650,+009.086,-0.153,+0.744,+2.430,-03.0700,-01.4240,-08.8490,+00.004820,+00.005298,-00.003296
-054.053,-018.641,+009.094,-0.144,+0.744,+2.447,-03.0120,-01.4170,-08.8230,+00.006231,+00.008707,-00.002445
-054.056,-018.632,+009.099,-0.149,+0.749,+2.436,-03.0000,-01.4490,-08.8450,+00.003317,+00.004151,-00.002543
-054.058,-018.627,+009.103,-0.153,+0.768,+2.430,-02.9790,-01.4080,-08.8430,+00.003755,+00.002646,+00.000653
-054.059,-018.623,+009.107,-0.153,+0.729,+2.452,-03.0420,-01.4070,-08.8690,+00.004924,+00.005607,-00.001956
-054.060,-018.617,+009.116,-0.149,+0.788,+2.425,-02.9930,-01.4550,-08.8150,+00.006987,+00.005009,-00.000742
-054.063,-018.613,+009.124,-0.149,+0.729,+2.436,-02.9860,-01.4130,-08.8190,+00.005944,+00.001911,-00.001742
-054.064,-018.612,+009.128,-0.144,+0.763,+2.458,-02.9970,-01.4130,-08.8630,+00.001647,+00.000400,+00.000131
-054.065,-018.609,+009.130,-0.158,+0.758,+2.419,-03.0190,-01.3960,-08.8740,+00.000491,+00.005906,-00.000486
-054.068,-018.601,+009.132,-0.149,+0.753,+2.420,-02.9880,-01.4480,-08.8590,-00.000598,+00.004877,-00.001719
-054.070,-018.594,+009.131,-0.153,+0.759,+2.447,-02.9920,-01.4360,-08.8170,-00.002425,+00.006045,-00.002732
-054.073,-018.588,+009.127,-0.158,+0.759,+2.430,-02.9810,-01.4490,-08.8330,-00.005127,+00.002292,+00.000271
-054.074,-018.583,+009.121,-0.158,+0.734,+2.420,-03.0300,-01.4480,-08.8690,-00.004011,+00.003364,+00.000549
-054.076,-018.579,+009.121,-0.167,+0.744,+2.462,-03.0040,-01.4440,-08.7970,-00.001458,+00.004215,-00.001315
-054.079,-018.572,+009.119,-0.153,+0.788,+2.419,-03.0290,-01.3860,-08.8650,-00.000878,+00.005425,-00.004158
-054.082,-018.563,+009.122,-0.149,+0.744,+2.447,-03.0060,-01.4290,-08.8490,+00.002722,+00.008096,-00.003850
-054.084,-018.550,+009.124,-0.153,+0.729,+2.447,-02.9560,-01.4170,-08.8300,+00.000329,+00.008608,-00.001253
-054.085,-018.542,+009.123,-0.158,+0.763,+2.414,-03.0320,-01.4950,-08.8700,-00.001907,+00.006078,-00.002310
-054.085,-018.520,+009.134,-0.153,+0.749,+2.452,-03.1050,-01.3580,-08.8250,+00.022783,+00.041087,-00.004807
-054.091,-018.492,+009.134,-0.158,+0.729,+2.452,-02.9940,-01.4870,-08.8870,+00.000046,+00.028733,-00.001470
-054.093,-018.463,+009.130,-0.149,+0.758,+2.425,-02.9670,-01.3160,-08.7060,-00.004319,+00.022204,-00.001242
-054.092,-018.439,+009.121,-0.153,+0.754,+2.436,-02.9800,-01.3800,-08.8770,-00.011168,+00.021985,+00.001122
-054.092,-018.413,+009.110,-0.153,+0.734,+2.431,-02.9700,-01.2780,-08.8560,-00.001587,+00.022265,+00.001982
-054.092,-018.392,+009.096,-0.149,+0.783,+2.414,-02.9960,-01.4030,-08.8420,-00.015117,+00.020121,-00.002206
-054.094,-018.378,+009.080,-0.158,+0.744,+2.425,-03.0170,-01.4230,-08.8990,-00.011499,+00.007690,-00.001734
-054.098,-018.360,+009.069,-0.158,+0.739,+2.452,-02.9220,-01.3730,-08.8890,-00.017557,+00.016745,-00.005533
-054.101,-018.339,+009.065,-0.158,+0.758,+2.419,-02.9330,-01.4130,-08.8080,-00.003872,+00.015323,-00.004435
-054.104,-018.325,+009.054,-0.153,+0.763,+2.414,-02.9370,-01.4380,-08.8040,-00.014253,+00.008195,-00.002920
-054.108,-018.315,+009.046,-0.163,+0.744,+2.457,-02.9830,-01.4680,-08.9180,-00.008136,+00.008061,-00.005555
-054.114,-018.303,+009.043,-0.149,+0.763,+2.441,-03.0080,-01.4250,-08.9150,-00.001426,+00.009193,-00.004446
-054.120,-018.286,+009.042,-0.153,+0.724,+2.452,-02.8840,-01.4370,-08.8130,-00.004690,+00.012855,-00.006105
-054.125,-018.270,+009.038,-0.158,+0.724,+2.458,-02.9780,-01.3900,-08.9400,+00.004020,+00.014570,-00.005737
-054.129,-018.251,+009.041,-0.158,+0.763,+2.436,-03.0300,-01.4260,-08.8960,-00.006749,+00.018872,-00.005631
-054.136,-018.227,+009.032,-0.167,+0.739,+2.419,-02.9680,-01.4540,-08.8560,-00.022321,+00.022946,-00.011247
-054.139,-018.208,+009.018,-0.163,+0.744,+2.436,-02.9810,-01.4100,-08.8970,-00.012833,+00.014160,-00.003640
-054.142,-018.191,+008.999,-0.167,+0.744,+2.430,-02.9070,-01.3770,-08.8410,-00.014880,+00.011342,-00.005711
-054.143,-018.172,+008.986,-0.167,+0.734,+2.441,-02.9660,-01.3820,-08.9150,-00.009853,+00.019790,-00.002586
-054.144,-018.153,+008.969,-0.163,+0.729,+2.452,-02.9180,-01.3610,-08.8130,-00.012241,+00.012897,+00.000158
-054.143,-018.142,+008.956,-0.167,+0.759,+2.424,-02.9550,-01.3470,-08.9150,-00.009354,+00.011245,-00.000263
-054.139,-018.132,+008.949,-0.163,+0.739,+2.425,-02.9560,-01.4400,-08.8540,-00.002989,+00.007707,+00.000571
-054.135,-018.121,+008.950,-0.176,+0.774,+2.435,-03.0200,-01.6330,-08.9240,-00.001613,+00.009632,-00.001457
-054.129,-018.110,+008.943,-0.163,+0.739,+2.436,-02.9470,-01.4780,-08.8450,+00.002521,+00.011086,+00.005534
-054.127,-018.100,+008.940,-0.167,+0.734,+2.435,-02.8960,-01.3970,-08.8830,-00.002696,+00.007111,+00.005284
-054.124,-018.094,+008.929,-0.167,+0.744,+2.457,-02.9020,-01.3990,-08.8820,-00.016110,+00.006449,-00.000386
-054.119,-018.092,+008.913,-0.167,+0.754,+2.419,-02.9910,-01.3970,-08.8990,-00.009485,+00.004727,+00.002964
-054.115,-018.087,+008.900,-0.167,+0.749,+2.441,-02.9050,-01.3890,-08.8470,-00.007921,+00.006716,+00.003767
-054.110,-018.081,+008.887,-0.163,+0.749,+2.430,-02.8800,-01.3750,-08.8560,-00.013257,+00.003677,+00.004970
-054.105,-018.078,+008.869,-0.167,+0.749,+2.430,-03.0430,-01.5590,-08.9100,-00.015597,+00.005378,+00.001092
-054.101,-018.075,+008.845,-0.163,+0.724,+2.441,-02.9090,-01.4850,-08.8120,-00.015623,+00.001126,+00.007791
-054.098,-018.075,+008.821,-0.153,+0.739,+2.436,-02.9160,-01.4920,-08.8120,-00.019385,+00.002848,+00.005280
-054.091,-018.081,+008.794,-0.163,+0.744,+2.446,-02.9810,-01.5130,-08.7450,-00.019050,-00.003952,+00.008355
-054.085,-018.085,+008.771,-0.158,+0.759,+2.436,-02.8590,-01.4840,-08.8470,-00.019839,+00.001371,+00.003411
-054.079,-018.088,+008.751,-0.167,+0.724,+2.446,-02.9580,-01.2910,-08.9760,-00.008914,-00.000568,+00.004874
-054.073,-018.088,+008.736,-0.167,+0.744,+2.441,-02.8980,-01.3120,-08.8670,-00.011451,-00.004490,+00.007676
-054.068,-018.096,+008.721,-0.172,+0.734,+2.424,-02.9410,-01.3570,-08.9300,-00.010350,-00.005419,+00.004457
-054.064,-018.104,+008.713,-0.163,+0.739,+2.452,-02.8730,-01.3800,-08.8870,-00.012052,-00.010451,+00.002176
-054.061,-018.109,+008.707,-0.172,+0.734,+2.430,-02.9980,-01.4810,-08.8670,+00.000196,+00.000346,+00.002005
-054.058,-018.109,+008.698,-0.172,+0.734,+2.441,-02.9180,-01.4360,-08.8500,-00.008027,+00.001781,+00.003795
-054.054,-018.113,+008.684,-0.163,+0.724,+2.447,-02.9400,-01.2710,-08.8600,-00.002599,-00.001781,+00.010492
-054.051,-018.119,+008.673,-0.167,+0.769,+2.430,-02.9150,-01.2580,-08.9010,-00.018071,-00.005512,+00.004514
-054.046,-018.124,+008.663,-0.163,+0.739,+2.414,-03.0440,-01.5130,-08.8970,-00.009897,-00.000602,-00.000015
-054.044,-018.114,+008.660,-0.172,+0.734,+2.441,-02.9510,-01.4390,-08.8900,-00.000704,+00.007743,-00.003717
-054.044,-018.105,+008.655,-0.153,+0.759,+2.452,-02.9530,-01.2420,-08.9480,-00.000367,+00.006750,+00.003707
-054.043,-018.103,+008.647,-0.167,+0.729,+2.430,-02.9680,-01.1960,-08.8890,-00.006404,+00.002051,+00.003393
-054.041,-018.105,+008.640,-0.167,+0.734,+2.457,-02.9320,-01.2060,-08.9220,-00.002196,-00.000271,+00.004743
-054.040,-018.103,+008.635,-0.163,+0.729,+2.425,-02.8800,-01.1880,-08.8630,-00.000285,-00.004386,+00.006759
-054.039,-018.100,+008.639,-0.172,+0.729,+2.419,-02.9740,-01.4340,-08.8590,+00.010051,+00.005711,+00.001354
-054.040,-018.096,+008.648,-0.163,+0.719,+2.436,-02.9830,-01.4260,-08.8810,+00.012059,+00.005257,-00.001396
-054.044,-018.088,+008.662,-0.163,+0.749,+2.446,-02.9350,-01.3840,-08.8830,+00.013934,+00.005382,-00.000915
-054.049,-018.082,+008.672,-0.172,+0.724,+2.441,-02.8750,-01.3760,-08.8590,+00.008261,+00.003982,-00.001190
-054.049,-018.079,+008.673,-0.163,+0.749,+2.425,-02.8760,-01.3600,-08.8330,-00.002482,+00.000954,+00.000351
-054.052,-018.075,+008.673,-0.153,+0.734,+2.431,-02.9320,-01.3620,-08.8730,-00.000092,+00.004203,-00.005403
-054.058,-018.073,+008.676,-0.177,+0.734,+2.440,-02.8570,-01.3120,-08.8330,-00.000870,-00.005064,-00.002816
-054.062,-018.079,+008.678,-0.172,+0.724,+2.457,-02.8810,-01.3400,-08.8690,+00.001471,-00.009051,-00.001112
-054.065,-018.089,+008.692,-0.167,+0.739,+2.441,-02.9650,-01.4390,-08.8350,+00.007232,-00.012053,-00.004068
-054.067,-018.097,+008.704,-0.172,+0.734,+2.419,-02.9630,-01.3790,-08.9010,+00.027899,-00.006382,-00.002812
-054.067,-018.105,+008.705,-0.167,+0.729,+2.446,-02.9250,-01.3920,-08.9160,+00.000054,-00.006790,+00.004996
-054.066,-018.109,+008.709,-0.172,+0.744,+2.430,-02.8920,-01.4730,-08.7190,-00.002522,-00.003754,+00.001656
-054.067,-018.110,+008.707,-0.167,+0.734,+2.441,-02.9630,-01.3810,-08.8650,-00.000639,+00.000379,-00.002644
-054.063,-018.117,+008.706,-0.163,+0.729,+2.463,-02.9390,-01.4440,-08.7790,-00.020313,-00.009201,+00.006386
-054.056,-018.130,+008.701,-0.163,+0.744,+2.436,-02.9180,-01.3100,-08.9200,+00.005138,-00.006312,+00.012751
-054.048,-018.146,+008.688,-0.172,+0.739,+2.435,-02.9420,-01.4200,-08.7930,-00.021730,-00.008578,+00.013464
-054.039,-018.165,+008.671,-0.172,+0.734,+2.441,-02.8910,-01.3440,-08.7600,-00.012121,-00.019033,+00.011193
-054.026,-018.187,+008.664,-0.163,+0.749,+2.436,-02.8710,-01.3480,-08.8250,-00.010164,-00.022192,+00.016365
-054.011,-018.223,+008.647,-0.163,+0.739,+2.409,-02.9080,-01.3440,-08.8000,-00.013944,-00.031918,+00.018366
-053.993,-018.265,+008.635,-0.163,+0.754,+2.457,-02.9580,-01.3450,-08.7830,-00.007880,-00.032882,+00.020140
-053.971,-018.311,+008.632,-0.163,+0.729,+2.414,-03.0720,-01.3710,-08.7830,+00.012849,-00.038065,+00.024478
-053.955,-018.354,+008.636,-0.153,+0.729,+2.436,-03.0300,-01.2110,-09.0060,+00.032180,-00.031969,+00.031320
-053.938,-018.386,+008.647,-0.153,+0.734,+2.447,-02.8510,-01.2020,-08.8810,+00.012949,-00.022615,+00.020572
-053.918,-018.417,+008.662,-0.158,+0.739,+2.441,-02.9980,-01.2810,-08.8880,+00.013029,-00.021264,+00.020454
-053.899,-018.446,+008.676,-0.153,+0.768,+2.436,-03.0350,-01.4560,-08.8830,+00.013975,-00.023614,+00.017347
-053.886,-018.468,+008.680,-0.149,+0.729,+2.447,-03.0360,-01.3430,-08.8470,+00.009408,-00.015137,+00.009115
-053.883,-018.489,+008.688,-0.149,+0.773,+2.441,-03.0270,-01.3850,-08.8230,+00.001186,-00.014782,+00.000582
-053.879,-018.509,+008.689,-0.149,+0.749,+2.436,-02.9930,-01.2710,-08.9000,+00.004276,-00.019946,+00.010134
-053.878,-018.527,+008.686,-0.149,+0.734,+2.447,-02.9980,-01.3210,-08.8670,+00.001007,-00.012729,+00.003544
-053.878,-018.542,+008.683,-0.153,+0.744,+2.431,-02.9980,-01.4940,-08.8620,-00.006770,-00.011294,+00.001142
-053.876,-018.555,+008.678,-0.149,+0.739,+2.436,-02.9900,-01.3730,-08.8460,-00.004897,-00.010605,+00.004725
-053.872,-018.565,+008.670,-0.144,+0.739,+2.469,-03.0090,-01.3690,-08.8330,-00.004727,-00.007810,+00.004699
-053.867,-018.574,+008.667,-0.153,+0.743,+2.414,-03.0390,-01.3580,-08.8240,-00.000909,-00.008029,+00.004013
-053.863,-018.586,+008.667,-0.149,+0.734,+2.442,-02.9830,-01.3720,-08.8500,+00.001141,-00.011407,+00.006700
-053.857,-018.599,+008.664,-0.149,+0.729,+2.453,-03.0010,-01.3130,-08.8430,-00.000555,-00.009723,+00.008988
-053.848,-018.612,+008.656,-0.153,+0.734,+2.425,-02.9790,-01.3650,-08.7330,-00.006478,-00.007863,+00.010747
-053.837,-018.627,+008.643,-0.139,+0.729,+2.442,-03.1200,-01.3400,-08.9440,-00.007024,-00.002747,+00.011132
-053.823,-018.636,+008.627,-0.144,+0.734,+2.453,-03.0070,-01.4880,-08.9090,-00.018161,-00.005664,+00.009186
-053.808,-018.646,+008.610,-0.149,+0.744,+2.447,-03.0440,-01.3190,-08.7770,-00.013361,-00.006667,+00.013581
-053.792,-018.659,+008.595,-0.158,+0.729,+2.452,-02.9780,-01.3300,-08.8330,-00.008156,-00.013458,+00.018733
-053.772,-018.676,+008.581,-0.153,+0.724,+2.452,-03.0420,-01.4280,-08.8260,-00.009268,-00.013768,+00.016473
-053.757,-018.692,+008.568,-0.158,+0.749,+2.436,-03.0340,-01.3260,-08.9790,-00.009641,-00.013114,+00.014053
-053.745,-018.703,+008.559,-0.144,+0.729,+2.447,-02.9970,-01.3420,-08.7560,-00.007391,-00.005986,+00.010480
-053.730,-018.713,+008.546,-0.153,+0.749,+2.458,-03.0120,-01.3140,-08.8630,-00.007131,-00.008914,+00.015275
-053.717,-018.726,+008.540,-0.144,+0.748,+2.431,-02.9920,-01.2850,-08.8340,-00.000527,-00.010693,+00.012121
-053.706,-018.735,+008.535,-0.144,+0.753,+2.420,-02.9980,-01.3000,-08.8520,-00.002223,-00.007184,+00.010528
-053.695,-018.744,+008.529,-0.144,+0.724,+2.447,-03.0110,-01.3280,-08.8080,-00.003296,-00.005709,+00.010075
-053.681,-018.754,+008.517,-0.135,+0.763,+2.442,-03.0250,-01.3230,-08.8120,-00.006036,-00.010747,+00.010838
-053.667,-018.766,+008.512,-0.149,+0.729,+2.453,-03.0540,-01.4620,-08.8250,-00.004250,-00.008707,+00.011674
-053.654,-018.778,+008.505,-0.135,+0.744,+2.459,-03.0970,-01.1890,-08.8930,-00.000522,-00.009455,+00.011347
-053.646,-018.785,+008.502,-0.153,+0.768,+2.430,-03.0310,-01.3120,-08.8570,+00.000191,-00.004841,+00.008446
-053.640,-018.790,+008.501,-0.149,+0.753,+2.431,-03.0100,-01.2120,-08.8500,-00.000297,-00.004713,+00.004171
-053.632,-018.794,+008.497,-0.149,+0.754,+2.458,-03.0440,-01.3970,-08.8720,-00.004391,-00.002457,+00.004801
-053.623,-018.801,+008.489,-0.149,+0.739,+2.442,-03.0750,-01.3090,-08.8320,-00.003887,-00.000837,+00.007757
-053.612,-018.804,+008.482,-0.149,+0.758,+2.436,-03.0480,-01.3350,-08.8380,-00.003679,-00.001286,+00.007901
-053.600,-018.810,+008.473,-0.149,+0.729,+2.453,-03.0320,-01.3370,-08.8510,-00.003964,-00.001206,+00.012448
-053.589,-018.816,+008.465,-0.144,+0.743,+2.431,-02.9990,-01.3190,-08.8560,-00.003026,-00.004064,+00.011354
-053.577,-018.820,+008.457,-0.139,+0.729,+2.442,-03.0450,-01.3060,-08.8670,-00.002571,-00.000838,+00.009489
-053.566,-018.828,+008.453,-0.158,+0.734,+2.447,-03.0800,-01.4770,-08.8130,-00.006893,-00.003157,+00.003769
-053.556,-018.832,+008.450,-0.139,+0.763,+2.431,-03.0600,-01.3630,-08.8160,-00.000155,-00.002991,+00.009553
-053.546,-018.841,+008.447,-0.139,+0.763,+2.442,-03.0760,-01.2020,-08.9240,+00.008782,-00.000630,+00.011917
-053.540,-018.846,+008.446,-0.144,+0.724,+2.442,-03.0870,-01.3890,-08.8350,-00.001111,-00.003004,+00.006610
-053.534,-018.851,+008.446,-0.130,+0.778,+2.431,-03.0220,-01.2420,-08.8610,+00.000703,-00.004570,+00.005529
-053.528,-018.859,+008.446,-0.139,+0.733,+2.420,-03.0590,-01.1720,-08.8630,+00.004870,-00.004912,+00.008366
-053.523,-018.862,+008.445,-0.158,+0.739,+2.463,-03.0720,-01.4050,-08.7990,-00.000982,-00.003447,+00.006165
-053.516,-018.865,+008.443,-0.149,+0.768,+2.441,-03.0380,-01.2540,-08.8100,-00.000468,-00.003507,+00.006256
-053.509,-018.873,+008.437,-0.144,+0.734,+2.431,-02.9770,-01.2760,-08.8820,-00.003280,-00.005612,+00.009322
-053.499,-018.877,+008.429,-0.144,+0.729,+2.442,-03.0200,-01.2580,-08.8710,-00.003342,-00.001795,+00.011259
-053.489,-018.883,+008.422,-0.139,+0.758,+2.437,-03.0640,-01.4050,-08.8440,-00.001587,-00.004629,+00.010387
-053.478,-018.888,+008.413,-0.149,+0.753,+2.436,-03.0440,-01.2800,-08.8290,-00.001624,-00.003750,+00.012029
-053.466,-018.894,+008.403,-0.139,+0.758,+2.458,-03.0830,-01.2960,-08.7840,-00.005804,-00.002377,+00.013622
-053.447,-018.899,+008.390,-0.139,+0.743,+2.426,-03.0200,-01.2950,-08.7790,-00.008694,-00.003145,+00.018858
-053.424,-018.909,+008.375,-0.135,+0.738,+2.442,-03.0800,-01.2740,-08.8260,-00.001788,-00.007635,+00.022135
-053.401,-018.918,+008.351,-0.135,+0.739,+2.464,-03.0820,-01.2910,-08.7580,-00.009900,-00.004569,+00.022679
-053.374,-018.928,+008.331,-0.139,+0.734,+2.442,-03.1370,-01.2200,-08.9320,-00.013353,-00.004094,+00.023067
-053.348,-018.939,+008.309,-0.135,+0.753,+2.442,-03.0240,-01.2670,-08.8240,-00.007827,-00.010989,+00.023461
-053.324,-018.953,+008.295,-0.139,+0.739,+2.448,-03.0670,-01.3100,-08.8120,-00.008155,-00.005890,+00.021291
-053.304,-018.970,+008.284,-0.135,+0.753,+2.448,-03.0730,-01.3100,-08.8620,-00.003673,-00.011115,+00.018185
-053.287,-018.982,+008.276,-0.130,+0.778,+2.453,-03.1120,-01.2190,-08.8830,-00.001982,-00.005133,+00.012518
-053.273,-018.990,+008.271,-0.135,+0.773,+2.453,-03.0800,-01.2810,-08.8560,+00.000301,-00.005073,+00.009727
-053.257,-018.994,+008.265,-0.139,+0.753,+2.431,-03.0830,-01.2910,-08.7990,-00.001785,-00.000609,+00.015089
-053.243,-018.998,+008.256,-0.135,+0.738,+2.431,-03.1080,-01.3000,-08.8860,-00.004304,-00.002679,+00.009866
-053.238,-018.999,+008.252,-0.130,+0.734,+2.459,-03.0390,-01.3050,-08.8150,-00.001411,-00.001411,+00.000934
-053.240,-018.997,+008.246,-0.135,+0.753,+2.431,-03.0460,-01.3870,-08.7850,-00.013933,+00.001675,+00.001111
-053.228,-018.998,+008.215,-0.149,+0.724,+2.431,-03.0140,-01.2690,-08.7930,-00.028755,+00.006581,+00.017568
-053.205,-019.003,+008.176,-0.130,+0.743,+2.453,-03.0740,-01.1840,-08.8080,-00.025708,+00.005369,+00.017927
-053.186,-019.008,+008.146,-0.130,+0.738,+2.448,-03.0760,-01.2230,-08.8690,-00.015688,-00.006437,+00.014332
-053.173,-019.015,+008.129,-0.149,+0.768,+2.447,-03.0180,-01.2750,-08.8530,-00.006834,-00.006811,+00.009179
-053.160,-019.031,+008.121,-0.149,+0.724,+2.453,-03.0740,-01.2400,-08.9110,+00.001313,-00.016518,+00.013908
-053.149,-019.056,+008.125,-0.139,+0.739,+2.442,-03.1100,-01.2740,-08.8360,+00.008163,-00.019665,+00.011001
-053.141,-019.079,+008.134,-0.139,+0.734,+2.437,-03.0800,-01.2570,-08.8220,+00.011144,-00.018221,+00.008195
-053.134,-019.097,+008.143,-0.125,+0.728,+2.443,-03.0760,-01.3200,-08.8410,+00.009826,-00.016996,+00.010879
-053.124,-019.115,+008.151,-0.135,+0.768,+2.442,-03.1020,-01.2480,-08.8170,+00.010219,-00.013433,+00.008738
-053.117,-019.133,+008.165,-0.135,+0.734,+2.459,-03.0740,-01.2370,-08.7860,+00.015717,-00.014542,+00.005552
-053.112,-019.150,+008.181,-0.130,+0.748,+2.437,-03.0190,-01.2200,-08.8040,+00.017149,-00.017634,+00.007403
-053.103,-019.172,+008.198,-0.135,+0.758,+2.426,-03.0880,-01.2550,-08.8270,+00.014146,-00.019490,+00.010111
-053.095,-019.192,+008.211,-0.121,+0.733,+2.438,-03.1210,-01.2470,-08.8120,+00.012044,-00.014653,+00.009643
-053.087,-019.208,+008.223,-0.130,+0.743,+2.459,-03.0930,-01.2960,-08.7890,+00.012756,-00.012495,+00.007475
-053.081,-019.226,+008.238,-0.125,+0.753,+2.432,-03.1010,-01.3000,-08.8720,+00.014325,-00.018956,+00.008152
-053.074,-019.250,+008.253,-0.125,+0.748,+2.443,-03.0650,-01.3020,-08.8220,+00.013432,-00.022028,+00.010398
-053.065,-019.276,+008.265,-0.125,+0.743,+2.459,-03.1400,-01.2490,-08.8180,+00.014543,-00.019845,+00.010669
-053.061,-019.299,+008.279,-0.121,+0.743,+2.432,-03.1180,-01.2330,-08.8620,+00.015786,-00.018968,+00.002322
-053.066,-019.316,+008.297,-0.130,+0.738,+2.437,-03.0980,-01.3250,-08.8150,+00.015378,-00.015039,-00.004613
-053.068,-019.332,+008.315,-0.139,+0.739,+2.442,-03.1040,-01.3520,-08.8340,+00.012469,-00.014993,+00.006711
-053.062,-019.352,+008.325,-0.130,+0.773,+2.437,-03.1350,-01.2280,-08.8190,+00.012618,-00.020281,+00.008627
-053.064,-019.377,+008.342,-0.121,+0.758,+2.427,-03.1890,-01.1880,-08.8050,+00.014196,-00.021710,-00.008354
-053.083,-019.396,+008.363,-0.130,+0.763,+2.448,-03.1230,-01.3630,-08.8350,+00.009472,-00.016291,-00.011938
-053.092,-019.412,+008.380,-0.121,+0.753,+2.410,-03.1410,-01.3090,-08.7870,+00.011764,-00.013435,-00.001010
-053.093,-019.432,+008.396,-0.125,+0.763,+2.432,-03.1300,-01.2680,-08.8260,+00.016447,-00.018631,+00.002132
-053.093,-019.456,+008.418,-0.125,+0.768,+2.432,-03.1400,-01.2430,-08.8310,+00.023507,-00.024454,+00.001921
-053.097,-019.483,+008.447,-0.121,+0.763,+2.432,-03.1480,-01.2740,-08.7640,+00.027922,-00.022891,-00.002363
-053.101,-019.509,+008.481,-0.116,+0.738,+2.443,-03.1490,-01.3490,-08.7850,+00.026849,-00.022583,+00.002384
-053.099,-019.536,+008.512,-0.135,+0.753,+2.453,-03.1840,-01.3520,-08.7700,+00.024621,-00.020504,+00.008861
-053.094,-019.562,+008.536,-0.116,+0.758,+2.432,-03.1550,-01.3490,-08.8040,+00.022655,-00.021446,+00.006549
-053.089,-019.589,+008.560,-0.121,+0.743,+2.437,-03.1350,-01.3890,-08.7870,+00.018442,-00.025420,+00.009750
-053.079,-019.620,+008.576,-0.125,+0.758,+2.459,-03.1590,-01.3290,-08.7690,+00.016212,-00.024900,+00.015055
-053.066,-019.649,+008.585,-0.111,+0.768,+2.421,-03.2000,-01.2550,-08.7870,+00.012017,-00.020943,+00.011942
-053.061,-019.666,+008.596,-0.116,+0.753,+2.411,-03.1490,-01.2820,-08.8070,+00.012163,-00.011238,+00.003529
-053.060,-019.679,+008.610,-0.121,+0.753,+2.443,-03.1680,-01.3620,-08.7730,+00.011935,-00.009928,+00.001713
-053.059,-019.690,+008.624,-0.116,+0.768,+2.443,-03.1750,-01.3180,-08.7790,+00.012063,-00.007571,+00.003749
-053.058,-019.700,+008.636,-0.125,+0.783,+2.432,-03.2100,-01.2960,-08.7730,+00.009743,-00.008456,+00.001930
-053.058,-019.710,+008.649,-0.116,+0.748,+2.448,-03.1880,-01.3230,-08.7910,+00.012741,-00.010207,+00.002216
-053.059,-019.723,+008.661,-0.107,+0.768,+2.443,-03.2140,-01.3600,-08.8020,+00.008704,-00.012671,+00.003479
-053.055,-019.737,+008.668,-0.116,+0.758,+2.427,-03.1860,-01.3440,-08.7760,+00.008529,-00.011193,+00.007419
-053.052,-019.750,+008.677,-0.121,+0.773,+2.454,-03.1820,-01.3950,-08.7730,+00.007328,-00.011957,+00.006069
-053.047,-019.765,+008.685,-0.121,+0.773,+2.443,-03.2020,-01.3490,-08.7550,+00.008590,-00.012570,+00.004400
-053.046,-019.776,+008.695,-0.107,+0.763,+2.411,-03.2060,-01.3840,-08.7800,+00.007231,-00.008028,+00.004050
-053.042,-019.786,+008.701,-0.107,+0.788,+2.438,-03.2620,-01.3080,-08.7790,+00.005552,-00.004425,+00.003922
-053.041,-019.792,+008.706,-0.107,+0.778,+2.438,-03.2200,-01.3270,-08.8080,+00.004322,-00.005816,+00.000892
-053.041,-019.797,+008.709,-0.116,+0.758,+2.443,-03.2180,-01.3230,-08.8120,+00.004217,-00.005013,+00.001654
-053.039,-019.802,+008.712,-0.116,+0.768,+2.459,-03.2130,-01.3180,-08.8040,+00.001086,-00.002453,+00.003105
-053.038,-019.807,+008.715,-0.116,+0.768,+2.438,-03.1810,-01.3770,-08.8010,+00.001830,-00.004152,+00.002367
-053.037,-019.814,+008.718,-0.111,+0.773,+2.443,-03.1990,-01.3550,-08.7730,+00.002999,-00.006020,+00.002203
-053.035,-019.822,+008.720,-0.102,+0.748,+2.460,-03.2300,-01.3300,-08.7530,+00.002846,-00.004474,+00.001663
-053.035,-019.826,+008.722,-0.107,+0.758,+2.411,-03.2070,-01.3620,-08.7970,+00.001869,-00.001730,+00.001896
-053.034,-019.826,+008.724,-0.116,+0.763,+2.432,-03.1830,-01.3620,-08.7790,+00.000093,-00.000526,+00.001756
-053.032,-019.828,+008.725,-0.107,+0.758,+2.454,-03.1940,-01.3570,-08.8120,-00.000457,-00.001602,+00.001943
-053.031,-019.830,+008.724,-0.121,+0.763,+2.443,-03.2100,-01.3630,-08.8010,-00.000490,-00.001492,+00.002584
-053.028,-019.833,+008.723,-0.121,+0.778,+2.426,-03.1900,-01.3580,-08.8050,+00.001044,-00.003053,+00.003813
-053.025,-019.840,+008.725,-0.107,+0.793,+2.443,-03.2090,-01.3540,-08.7840,+00.001515,-00.006698,+00.003187
-053.020,-019.848,+008.726,-0.102,+0.783,+2.438,-03.2130,-01.3680,-08.7800,+00.001907,-00.006679,+00.006215
-053.014,-019.858,+008.727,-0.102,+0.778,+2.433,-03.2280,-01.3550,-08.7850,+00.000900,-00.007725,+00.005748
-053.011,-019.867,+008.727,-0.107,+0.758,+2.449,-03.2180,-01.3730,-08.7810,+00.000528,-00.006063,+00.003759
-053.010,-019.874,+008.728,-0.102,+0.793,+2.427,-03.2070,-01.3930,-08.7570,+00.001315,-00.007582,+00.001254
-053.006,-019.882,+008.729,-0.097,+0.758,+2.438,-03.1990,-01.3060,-08.7840,+00.001248,-00.008598,+00.003702
-053.001,-019.893,+008.730,-0.111,+0.748,+2.460,-03.2360,-01.3070,-08.7530,+00.002207,-00.009325,+00.009605
-052.994,-019.905,+008.731,-0.107,+0.758,+2.443,-03.2130,-01.2820,-08.7720,+00.004580,-00.010059,+00.008175
-052.991,-019.917,+008.733,-0.116,+0.753,+2.443,-03.2480,-01.3600,-08.7370,+00.001371,-00.009111,+00.004689
-052.985,-019.927,+008.731,-0.111,+0.783,+2.448,-03.2220,-01.3770,-08.7480,+00.001203,-00.007695,+00.006561
-052.981,-019.938,+008.732,-0.116,+0.763,+2.432,-03.2140,-01.4310,-08.7310,-00.000220,-00.008073,+00.002602
-052.980,-019.945,+008.733,-0.097,+0.753,+2.428,-03.2260,-01.3550,-08.8100,+00.002438,-00.008010,+00.001654
-052.978,-019.953,+008.735,-0.107,+0.753,+2.454,-03.2660,-01.3480,-08.7920,+00.003439,-00.006039,+00.001872
-052.977,-019.959,+008.736,-0.111,+0.768,+2.432,-03.2160,-01.3760,-08.7950,+00.000412,-00.001064,+00.001062
-052.974,-019.960,+008.735,-0.107,+0.758,+2.427,-03.2280,-01.3550,-08.7760,+00.000859,-00.002672,+00.005758
-052.969,-019.965,+008.732,-0.107,+0.763,+2.438,-03.2520,-01.3500,-08.7390,-00.001369,-00.002529,+00.005494
-052.966,-019.971,+008.730,-0.093,+0.773,+2.411,-03.2620,-01.3240,-08.7880,-00.000058,-00.004961,+00.003297
-052.964,-019.975,+008.728,-0.111,+0.758,+2.432,-03.2240,-01.3360,-08.7900,-00.001041,-00.001686,+00.000561
-052.966,-019.975,+008.726,-0.102,+0.743,+2.449,-03.2290,-01.3470,-08.7560,-00.001638,-00.000472,-00.001320
-052.965,-019.977,+008.725,-0.107,+0.793,+2.432,-03.2310,-01.3370,-08.7400,-00.000674,-00.002046,+00.000892
-052.966,-019.980,+008.725,-0.102,+0.748,+2.444,-03.2280,-01.3670,-08.8000,-00.000355,-00.001782,+00.000727
-052.966,-019.981,+008.725,-0.102,+0.758,+2.438,-03.2120,-01.3650,-08.7500,-00.001065,-00.001271,-00.000284
-052.966,-019.981,+008.725,-0.107,+0.773,+2.438,-03.2510,-01.3350,-08.7650,-00.000560,-00.000412,+00.000923
-052.964,-019.981,+008.724,-0.093,+0.748,+2.439,-03.2250,-01.3550,-08.7490,-00.000786,-00.000331,+00.002094
-052.962,-019.982,+008.723,-0.107,+0.788,+2.449,-03.2080,-01.3540,-08.7800,-00.000740,-00.001027,+00.003790
-052.960,-019.984,+008.721,-0.102,+0.768,+2.433,-03.2340,-01.3290,-08.7740,-00.000439,-00.002586,+00.001112
-052.962,-019.984,+008.720,-0.107,+0.753,+2.438,-03.2270,-01.3430,-08.7780,-00.000755,-00.000295,-00.001690
-052.965,-019.984,+008.721,-0.102,+0.743,+2.455,-03.2360,-01.3370,-08.7650,-00.000175,-00.000524,-00.000341
-052.965,-019.985,+008.721,-0.121,+0.793,+2.421,-03.2260,-01.3780,-08.7460,-00.001540,-00.001302,+00.001624
-052.965,-019.986,+008.720,-0.107,+0.763,+2.449,-03.2660,-01.3780,-08.7720,-00.001394,-00.000859,+00.000965
-052.965,-019.983,+008.717,-0.111,+0.758,+2.443,-03.2320,-01.3370,-08.7580,-00.002396,+00.001273,+00.000140
-052.963,-019.981,+008.714,-0.102,+0.778,+2.427,-03.2410,-01.3230,-08.7840,-00.001139,+00.001314,+00.000801
-052.965,-019.977,+008.713,-0.107,+0.763,+2.422,-03.1970,-01.3340,-08.7940,-00.000559,+00.001771,-00.001721
-052.965,-019.977,+008.712,-0.102,+0.743,+2.455,-03.2600,-01.3250,-08.7880,+00.000420,-00.000218,+00.001049
-052.965,-019.978,+008.711,-0.107,+0.773,+2.438,-03.2240,-01.3480,-08.7460,-00.000083,-00.000645,-00.000396
-052.968,-019.978,+008.712,-0.097,+0.758,+2.433,-03.2510,-01.3490,-08.7240,+00.000090,+00.001458,-00.001876
-052.971,-019.976,+008.714,-0.102,+0.738,+2.455,-03.2330,-01.3560,-08.7610,+00.000671,+00.002096,-00.000752
-052.972,-019.975,+008.714,-0.107,+0.768,+2.443,-03.2080,-01.3580,-08.7540,-00.000320,-00.000128,+00.001364
-052.970,-019.977,+008.714,-0.107,+0.753,+2.422,-03.2360,-01.3750,-08.7730,-00.001010,-00.003099,+00.004423
-052.968,-019.979,+008.711,-0.111,+0.758,+2.449,-03.2050,-01.3260,-08.7580,-00.000385,-00.002611,+00.002669
-052.966,-019.979,+008.709,-0.097,+0.778,+2.422,-03.2180,-01.3560,-08.7530,-00.002821,+00.001555,+00.003226
-052.963,-019.980,+008.707,-0.116,+0.753,+2.427,-03.2420,-01.3440,-08.7480,-00.002016,-00.001456,+00.002762
-052.959,-019.982,+008.702,-0.111,+0.763,+2.459,-03.1950,-01.3390,-08.7730,-00.001437,-00.003721,+00.003282
-052.957,-019.986,+008.698,-0.111,+0.768,+2.438,-03.2150,-01.3200,-08.7590,-00.000689,-00.005353,+00.001484
-052.956,-019.989,+008.697,-0.107,+0.763,+2.422,-03.2370,-01.3550,-08.7810,-00.001447,-00.003508,+00.002034
-052.953,-019.991,+008.696,-0.107,+0.788,+2.443,-03.2390,-01.3500,-08.7930,-00.000960,-00.003742,+00.003733
-052.949,-019.992,+008.695,-0.102,+0.758,+2.427,-03.2080,-01.3660,-08.7790,+00.000379,-00.004768,+00.004039
-052.946,-020.000,+008.690,-0.097,+0.773,+2.417,-03.2670,-01.3160,-08.7920,-00.001403,-00.007829,+00.004626
-052.943,-020.006,+008.688,-0.107,+0.748,+2.465,-03.2330,-01.3470,-08.7890,-00.001131,-00.003615,+00.003092
-052.941,-020.009,+008.686,-0.102,+0.763,+2.438,-03.2160,-01.3660,-08.7980,-00.000052,-00.002802,+00.002736
-052.940,-020.014,+008.684,-0.097,+0.753,+2.444,-03.2300,-01.3510,-08.7670,+00.001489,-00.004893,+00.002138
-052.939,-020.023,+008.685,-0.107,+0.783,+2.454,-03.2480,-01.3440,-08.7500,-00.000534,-00.005159,+00.003239
-052.937,-020.027,+008.685,-0.097,+0.758,+2.422,-03.2430,-01.3480,-08.7820,-00.000360,-00.001424,+00.002438
-052.936,-020.029,+008.687,-0.111,+0.763,+2.416,-03.2170,-01.3680,-08.7860,+00.000061,-00.004522,+00.003512
-052.933,-020.035,+008.689,-0.107,+0.743,+2.449,-03.2210,-01.3730,-08.7720,+00.002005,-00.007178,+00.004308
-052.930,-020.045,+008.688,-0.097,+0.758,+2.433,-03.2170,-01.3170,-08.7920,+00.001924,-00.007331,+00.004749
-052.929,-020.050,+008.687,-0.102,+0.753,+2.438,-03.2240,-01.3290,-08.7750,+00.000274,-00.002821,+00.000401
-052.930,-020.052,+008.690,-0.111,+0.758,+2.432,-03.2200,-01.3760,-08.7690,-00.000578,+00.000855,+00.001135
-052.929,-020.052,+008.688,-0.107,+0.763,+2.427,-03.2300,-01.3650,-08.7620,-00.002201,+00.001586,+00.002788
-052.927,-020.055,+008.686,-0.102,+0.753,+2.438,-03.2420,-01.3360,-08.7460,+00.000887,-00.003877,+00.003767
-052.925,-020.062,+008.685,-0.088,+0.768,+2.439,-03.2350,-01.3370,-08.7700,+00.000525,-00.005136,+00.002517
-052.926,-020.065,+008.687,-0.097,+0.798,+2.427,-03.2350,-01.3430,-08.7950,+00.002573,-00.003209,+00.000299
-052.928,-020.066,+008.687,-0.097,+0.773,+2.433,-03.2360,-01.3600,-08.7620,+00.000651,+00.000357,-00.002082
-052.931,-020.060,+008.689,-0.107,+0.743,+2.449,-03.2170,-01.3680,-08.7500,-00.000214,+00.007429,-00.001181
-052.931,-020.055,+008.690,-0.111,+0.788,+2.438,-03.2340,-01.3360,-08.7870,-00.001406,+00.004331,+00.001023
-052.929,-020.054,+008.687,-0.111,+0.768,+2.438,-03.2350,-01.3230,-08.7830,-00.002365,+00.001786,+00.001942
-052.932,-020.051,+008.686,-0.102,+0.743,+2.449,-03.2320,-01.3290,-08.7690,-00.002224,+00.002887,-00.002880
-052.934,-020.048,+008.684,-0.107,+0.788,+2.443,-03.2670,-01.3260,-08.7520,-00.002181,+00.003622,-00.003212
-052.936,-020.040,+008.682,-0.107,+0.778,+2.422,-03.2250,-01.3550,-08.7480,-00.001515,+00.003508,-00.000427
-052.937,-020.038,+008.681,-0.116,+0.748,+2.470,-03.2630,-01.2470,-08.7890,-00.001226,+00.001426,-00.000066
-052.941,-020.037,+008.684,-0.097,+0.768,+2.433,-03.2660,-01.4280,-08.7530,-00.004597,+00.001352,-00.003026
-052.944,-020.034,+008.684,-0.107,+0.763,+2.433,-03.2530,-01.4360,-08.7480,-00.002408,+00.002220,-00.003300
-052.946,-020.031,+008.683,-0.111,+0.783,+2.449,-03.2010,-01.3670,-08.7360,+00.001600,+00.003074,-00.000387
-052.949,-020.029,+008.682,-0.107,+0.778,+2.443,-03.2340,-01.3270,-08.7770,-00.001635,+00.001655,-00.001030
-052.951,-020.031,+008.682,-0.102,+0.758,+2.438,-03.2320,-01.3350,-08.7650,+00.000281,-00.002728,-00.000341
-052.951,-020.035,+008.683,-0.111,+0.763,+2.449,-03.2450,-01.3390,-08.7640,+00.001123,-00.003371,+00.001233
-052.951,-020.039,+008.683,-0.102,+0.803,+2.427,-03.2580,-01.2940,-08.7520,-00.000411,-00.001601,+00.000313
-052.952,-020.038,+008.681,-0.093,+0.768,+2.444,-03.2640,-01.2860,-08.7760,-00.001300,+00.002650,+00.000274
-052.956,-020.032,+008.681,-0.116,+0.758,+2.443,-03.2340,-01.4670,-08.7550,-00.002519,+00.004130,-00.004538
-052.959,-020.029,+008.680,-0.102,+0.773,+2.427,-03.2140,-01.2800,-08.7750,-00.003270,+00.001237,-00.002616
-052.961,-020.027,+008.679,-0.102,+0.748,+2.422,-03.2270,-01.3010,-08.7770,-00.000253,+00.000736,-00.001636
-052.963,-020.026,+008.680,-0.097,+0.753,+2.438,-03.2370,-01.3460,-08.7560,-00.000071,+00.001355,+00.001531
-052.963,-020.027,+008.680,-0.093,+0.758,+2.428,-03.2300,-01.3480,-08.7620,+00.000149,-00.000174,+00.000166
-052.965,-020.027,+008.680,-0.102,+0.748,+2.433,-03.2460,-01.3440,-08.7570,-00.000777,-00.000257,+00.001541
-052.964,-020.028,+008.680,-0.102,+0.753,+2.455,-03.2290,-01.3440,-08.7720,-00.000005,-00.001510,+00.001620
-052.965,-020.031,+008.680,-0.097,+0.773,+2.428,-03.2300,-01.3370,-08.7810,+00.001077,-00.004311,+00.000915
-052.965,-020.035,+008.681,-0.093,+0.753,+2.417,-03.2420,-01.3210,-08.7480,+00.002051,-00.002800,-00.000749
-052.965,-020.036,+008.683,-0.107,+0.763,+2.449,-03.2030,-01.3430,-08.7600,+00.002273,-00.004117,+00.003399
-052.964,-020.040,+008.684,-0.111,+0.768,+2.427,-03.2240,-01.3380,-08.7590,+00.001504,-00.003973,+00.003721
-052.961,-020.046,+008.684,-0.102,+0.788,+2.433,-03.2220,-01.3330,-08.7550,+00.000962,-00.005438,+00.003080
-052.959,-020.053,+008.685,-0.102,+0.753,+2.438,-03.2410,-01.3290,-08.7570,+00.002068,-00.003642,+00.002036
-052.957,-020.058,+008.685,-0.107,+0.783,+2.438,-03.2610,-01.3450,-08.7720,+00.000693,-00.004260,+00.002781
-052.956,-020.063,+008.686,-0.102,+0.748,+2.444,-03.2310,-01.3390,-08.7600,+00.001658,-00.002928,+00.003867
-052.954,-020.066,+008.687,-0.107,+0.748,+2.427,-03.2370,-01.3190,-08.7470,+00.001490,-00.002667,+00.003210
-052.953,-020.067,+008.687,-0.107,+0.768,+2.427,-03.2160,-01.3110,-08.7540,+00.000113,-00.000961,+00.001983
-052.951,-020.067,+008.686,-0.102,+0.753,+2.438,-03.2170,-01.3290,-08.7770,+00.000790,-00.000690,+00.000331
-052.953,-020.066,+008.687,-0.102,+0.778,+2.438,-03.2320,-01.3730,-08.8000,-00.001112,+00.001430,+00.000031
-052.952,-020.064,+008.687,-0.107,+0.783,+2.427,-03.2230,-01.3460,-08.7670,+00.001152,+00.003495,+00.001020
-052.952,-020.062,+008.688,-0.107,+0.758,+2.433,-03.2360,-01.3520,-08.7600,-00.000319,-00.000765,+00.001517
-052.952,-020.063,+008.688,-0.093,+0.748,+2.455,-03.2270,-01.3460,-08.7750,+00.000881,-00.000493,+00.001494
-052.951,-020.066,+008.687,-0.097,+0.778,+2.422,-03.2280,-01.3060,-08.7840,+00.000260,-00.003941,+00.001280
-052.952,-020.067,+008.687,-0.102,+0.758,+2.433,-03.2480,-01.3250,-08.7650,-00.000952,+00.002850,-00.000927
-052.955,-020.061,+008.686,-0.107,+0.743,+2.465,-03.2280,-01.3420,-08.7760,-00.001520,+00.004413,-00.001251
-052.956,-020.054,+008.686,-0.102,+0.788,+2.427,-03.2000,-01.3440,-08.7780,-00.001763,+00.003406,-00.000411
-052.956,-020.052,+008.686,-0.111,+0.783,+2.432,-03.2350,-01.3380,-08.7790,-00.000486,+00.000222,+00.001481
-052.954,-020.050,+008.683,-0.107,+0.788,+2.460,-03.2270,-01.3060,-08.7650,+00.000570,+00.000434,+00.000883
-052.954,-020.048,+008.681,-0.093,+0.778,+2.417,-03.2340,-01.3330,-08.7650,-00.000418,+00.003066,-00.001482
-052.957,-020.045,+008.682,-0.111,+0.763,+2.427,-03.2420,-01.3210,-08.7730,+00.000666,+00.002480,-00.003236
-052.960,-020.042,+008.683,-0.107,+0.768,+2.443,-03.2290,-01.3490,-08.7560,+00.001162,+00.002218,-00.002638
-052.964,-020.039,+008.686,-0.111,+0.778,+2.427,-03.1840,-01.3070,-08.7940,-00.003530,+00.002282,-00.004721
-052.966,-020.038,+008.691,-0.102,+0.758,+2.411,-03.2190,-01.3630,-08.7750,+00.003478,+00.001036,-00.001589
-052.969,-020.034,+008.693,-0.093,+0.743,+2.455,-03.2540,-01.3290,-08.7870,+00.001805,+00.006455,-00.002085
-052.971,-020.027,+008.696,-0.111,+0.783,+2.443,-03.2290,-01.3350,-08.7430,+00.003296,+00.006475,-00.001015
-052.974,-020.020,+008.701,-0.111,+0.758,+2.422,-03.2410,-01.3460,-08.7930,+00.003024,+00.004804,-00.002947
-052.976,-020.015,+008.706,-0.111,+0.743,+2.454,-03.2160,-01.3340,-08.7500,+00.004033,+00.001452,-00.000748
-052.978,-020.013,+008.712,-0.116,+0.773,+2.427,-03.2280,-01.3590,-08.7980,+00.004626,+00.000813,-00.000902
-052.981,-020.013,+008.718,-0.107,+0.753,+2.444,-03.2460,-01.3320,-08.7330,+00.004339,+00.000235,-00.002028
-052.986,-020.014,+008.725,-0.102,+0.773,+2.449,-03.2210,-01.3140,-08.7550,+00.003448,-00.000739,-00.003664
-052.992,-020.013,+008.731,-0.097,+0.763,+2.411,-03.2400,-01.3330,-08.7790,+00.003639,+00.000069,-00.004709
-052.999,-020.013,+008.737,-0.111,+0.763,+2.438,-03.2180,-01.3520,-08.7820,+00.005067,-00.001481,-00.003910
-053.003,-020.015,+008.745,-0.102,+0.768,+2.438,-03.2170,-01.3340,-08.7720,+00.005848,-00.003514,-00.003510
-053.008,-020.019,+008.753,-0.102,+0.763,+2.427,-03.2140,-01.3810,-08.7470,+00.005379,-00.004121,-00.001337
-053.013,-020.023,+008.759,-0.116,+0.758,+2.432,-03.2330,-01.3380,-08.7530,+00.004044,-00.004684,-00.001291
-053.017,-020.026,+008.764,-0.111,+0.768,+2.443,-03.2350,-01.3400,-08.7730,+00.003429,-00.002107,-00.003687
-053.021,-020.027,+008.769,-0.111,+0.773,+2.449,-03.2250,-01.3710,-08.7660,+00.002280,+00.001135,-00.001743
-053.023,-020.026,+008.772,-0.107,+0.783,+2.422,-03.2540,-01.3580,-08.7560,+00.000626,+00.001307,+00.000709
-053.024,-020.027,+008.772,-0.107,+0.768,+2.427,-03.2260,-01.3760,-08.7800,-00.002194,-00.001400,-00.001067
-053.025,-020.025,+008.769,-0.093,+0.768,+2.439,-03.2350,-01.3320,-08.7840,-00.003523,+00.003611,-00.000321
-053.024,-020.021,+008.764,-0.116,+0.753,+2.416,-03.2260,-01.3930,-08.7240,-00.000851,+00.006337,+00.005881
-053.028,-020.018,+008.761,-0.107,+0.758,+2.449,-03.2360,-01.3630,-08.7600,-00.004064,+00.001196,-00.003443
-053.029,-020.016,+008.758,-0.111,+0.768,+2.432,-03.2300,-01.3300,-08.7650,-00.001305,+00.002460,-00.000317
-053.031,-020.013,+008.755,-0.107,+0.758,+2.427,-03.2440,-01.2470,-08.7740,-00.003441,+00.002315,-00.001525
-053.034,-020.009,+008.751,-0.107,+0.748,+2.449,-03.2100,-01.3160,-08.7570,-00.004696,+00.002707,-00.001609
-053.034,-020.006,+008.747,-0.102,+0.768,+2.438,-03.2160,-01.3880,-08.7670,-00.002356,+00.002002,+00.002875
-053.033,-020.005,+008.742,-0.107,+0.753,+2.444,-03.2370,-01.3690,-08.7850,-00.005379,+00.001658,-00.001346
-053.032,-020.004,+008.738,-0.102,+0.768,+2.444,-03.2240,-01.3840,-08.7730,-00.003710,-00.000653,-00.000387
-053.034,-020.003,+008.736,-0.097,+0.778,+2.444,-03.2290,-01.2770,-08.7760,-00.002552,+00.000578,-00.001640
-053.038,-020.000,+008.736,-0.097,+0.768,+2.433,-03.2330,-01.3840,-08.7680,-00.001895,+00.002505,-00.003725
-053.040,-019.995,+008.736,-0.111,+0.758,+2.449,-03.2060,-01.3870,-08.7900,+00.001129,+00.003872,-00.001872
-053.044,-019.992,+008.736,-0.107,+0.773,+2.416,-03.2060,-01.3620,-08.7270,+00.000092,+00.001928,-00.003058
-053.046,-019.989,+008.737,-0.102,+0.753,+2.411,-03.2020,-01.3520,-08.7850,+00.000750,+00.001799,-00.001307
-053.048,-019.988,+008.739,-0.102,+0.758,+2.455,-03.2230,-01.3690,-08.7810,+00.001945,+00.001321,+00.000519
-053.049,-019.987,+008.741,-0.102,+0.798,+2.433,-03.2200,-01.3580,-08.7600,+00.001495,+00.000894,-00.000058
-053.048,-019.987,+008.742,-0.102,+0.748,+2.428,-03.2150,-01.3320,-08.7550,+00.000580,+00.000411,+00.001450
-053.047,-019.988,+008.742,-0.107,+0.773,+2.443,-03.2290,-01.3600,-08.7540,+00.000800,-00.000793,+00.001656
-053.045,-019.989,+008.743,-0.111,+0.793,+2.438,-03.2120,-01.3270,-08.7720,+00.001100,+00.000518,+00.000493
-053.046,-019.992,+008.745,-0.107,+0.763,+2.427,-03.2360,-01.3500,-08.7870,+00.001695,-00.002397,+00.000071
-053.046,-019.993,+008.747,-0.107,+0.788,+2.460,-03.2400,-01.3400,-08.7700,+00.001125,-00.001234,+00.000914
-053.045,-019.995,+008.748,-0.107,+0.763,+2.433,-03.2160,-01.3720,-08.7490,+00.000295,-00.001447,+00.002084
-053.043,-019.995,+008.749,-0.107,+0.748,+2.438,-03.2550,-01.3330,-08.7730,+00.001147,-00.000134,+00.002606
-053.042,-019.997,+008.750,-0.097,+0.768,+2.444,-03.2300,-01.3730,-08.7590,+00.000885,-00.002373,+00.002423
-053.039,-020.001,+008.750,-0.097,+0.773,+2.433,-03.2210,-01.2710,-08.7670,+00.003899,-00.001127,+00.004284
-053.035,-020.005,+008.751,-0.107,+0.753,+2.427,-03.2320,-01.3760,-08.7790,+00.001121,-00.004738,+00.004434
-053.033,-020.011,+008.752,-0.093,+0.743,+2.460,-03.2240,-01.3750,-08.7540,+00.000973,-00.005578,+00.002548
-053.032,-020.016,+008.752,-0.107,+0.783,+2.411,-03.2410,-01.3320,-08.7630,+00.000478,-00.004974,+00.002158
-053.031,-020.018,+008.751,-0.107,+0.763,+2.438,-03.2270,-01.3450,-08.7460,-00.000146,+00.000025,+00.001811
-053.029,-020.017,+008.750,-0.111,+0.753,+2.443,-03.1890,-01.3510,-08.7900,-00.000095,-00.000311,+00.001233
-053.027,-020.019,+008.750,-0.102,+0.763,+2.427,-03.2300,-01.3670,-08.7730,+00.000672,-00.000397,+00.002126
-053.027,-020.022,+008.748,-0.111,+0.753,+2.433,-03.2510,-01.3280,-08.7610,-00.000958,+00.001006,+00.001059
-053.027,-020.021,+008.746,-0.102,+0.768,+2.438,-03.2330,-01.3460,-08.7790,-00.000007,+00.000530,+00.001216
-053.025,-020.021,+008.746,-0.097,+0.793,+2.422,-03.2290,-01.3530,-08.7840,+00.000618,-00.000938,+00.001262
-053.022,-020.025,+008.746,-0.111,+0.793,+2.432,-03.2380,-01.3210,-08.7470,+00.001341,-00.003636,+00.003618
-053.018,-020.030,+008.745,-0.102,+0.768,+2.444,-03.2610,-01.3340,-08.7800,+00.000940,-00.002850,+00.001306
-053.019,-020.033,+008.747,-0.093,+0.798,+2.433,-03.2100,-01.3530,-08.7780,+00.001734,-00.002216,+00.000350
-053.021,-020.034,+008.750,-0.111,+0.743,+2.443,-03.2070,-01.2740,-08.8240,+00.002309,-00.001467,-00.000039
-053.020,-020.036,+008.751,-0.102,+0.768,+2.449,-03.2370,-01.3690,-08.7480,+00.001155,-00.001299,+00.002370
-053.019,-020.038,+008.751,-0.102,+0.783,+2.422,-03.2120,-01.3240,-08.7610,+00.001538,-00.001436,+00.001107
-053.017,-020.043,+008.752,-0.097,+0.788,+2.422,-03.2220,-01.3590,-08.7780,+00.000025,-00.006138,+00.001937
-053.016,-020.051,+008.752,-0.102,+0.753,+2.444,-03.2430,-01.3190,-08.7960,-00.000645,-00.006060,+00.001299
-053.017,-020.056,+008.752,-0.097,+0.758,+2.433,-03.2320,-01.3400,-08.7870,-00.000044,-00.004763,+00.000307
-053.018,-020.061,+008.752,-0.111,+0.758,+2.427,-03.2490,-01.3520,-08.7590,+00.000370,-00.002757,+00.001261
-053.017,-020.065,+008.750,-0.107,+0.763,+2.438,-03.2580,-01.3310,-08.7800,-00.001263,-00.002894,+00.001627
-053.017,-020.070,+008.748,-0.097,+0.758,+2.428,-03.2630,-01.2640,-08.7810,-00.000579,-00.003948,-00.000568
-053.018,-020.072,+008.748,-0.102,+0.783,+2.433,-03.2220,-01.3860,-08.7730,-00.003921,-00.001395,-00.001067
-053.018,-020.074,+008.746,-0.107,+0.783,+2.433,-03.2310,-01.3510,-08.7440,-00.001505,-00.001013,+00.000270
-053.018,-020.075,+008.745,-0.093,+0.773,+2.417,-03.2440,-01.3550,-08.7640,-00.001796,-00.000693,+00.001455
-053.017,-020.076,+008.741,-0.107,+0.758,+2.449,-03.2420,-01.3380,-08.7370,-00.001240,-00.000524,+00.001438
-053.016,-020.078,+008.739,-0.107,+0.758,+2.433,-03.2500,-01.3260,-08.7660,-00.001761,-00.001678,+00.001139
-053.015,-020.079,+008.737,-0.097,+0.773,+2.422,-03.2470,-01.3510,-08.7540,-00.002532,-00.000385,-00.000027
-053.015,-020.078,+008.733,-0.107,+0.758,+2.416,-03.2460,-01.3280,-08.7640,-00.002252,+00.002832,-00.000228
-053.016,-020.075,+008.729,-0.102,+0.763,+2.460,-03.2480,-01.3290,-08.7900,-00.003385,+00.003457,+00.000252
-053.016,-020.074,+008.727,-0.107,+0.773,+2.422,-03.2240,-01.3180,-08.7480,-00.001745,+00.001574,-00.000828
-053.016,-020.074,+008.725,-0.107,+0.768,+2.422,-03.2630,-01.3430,-08.7810,-00.001841,+00.000080,-00.000380
-053.016,-020.072,+008.723,-0.107,+0.768,+2.443,-03.2380,-01.3370,-08.7490,-00.001580,-00.002051,+00.002362
-053.015,-020.072,+008.722,-0.102,+0.768,+2.411,-03.2720,-01.3590,-08.7560,-00.000534,+00.001212,+00.001695
-053.016,-020.071,+008.720,-0.097,+0.753,+2.444,-03.2510,-01.3050,-08.7820,+00.000143,+00.001655,+00.001476
-053.017,-020.068,+008.719,-0.093,+0.773,+2.460,-03.2320,-01.3650,-08.7500,-00.002299,+00.003877,-00.001632
-053.018,-020.065,+008.716,-0.102,+0.793,+2.422,-03.2280,-01.3550,-08.7740,-00.002636,+00.000383,+00.001154
-053.017,-020.064,+008.715,-0.102,+0.773,+2.438,-03.2640,-01.3880,-08.7630,-00.002103,+00.001396,+00.001815
-053.016,-020.061,+008.712,-0.107,+0.763,+2.444,-03.2270,-01.2290,-08.8010,-00.000686,+00.002474,+00.001768
-053.017,-020.059,+008.713,-0.093,+0.773,+2.422,-03.2400,-01.3670,-08.7550,-00.000466,+00.000832,-00.001327
-053.016,-020.055,+008.712,-0.107,+0.778,+2.433,-03.2510,-01.3910,-08.7420,-00.000832,+00.002057,+00.001123
-053.016,-020.052,+008.710,-0.107,+0.753,+2.438,-03.2310,-01.2540,-08.7660,-00.000733,+00.003674,+00.001413
-053.016,-020.049,+008.710,-0.102,+0.783,+2.433,-03.2140,-01.3470,-08.7650,-00.000320,+00.001994,+00.001722
-053.016,-020.047,+008.709,-0.107,+0.758,+2.433,-03.2020,-01.3420,-08.7950,-00.000856,-00.000878,+00.001981
-053.013,-020.049,+008.708,-0.093,+0.758,+2.444,-03.2260,-01.3590,-08.7580,+00.001165,-00.001881,+00.002467
-053.010,-020.052,+008.707,-0.102,+0.788,+2.427,-03.2410,-01.3000,-08.7700,-00.000449,-00.002745,+00.000726
-053.011,-020.054,+008.708,-0.107,+0.743,+2.427,-03.2270,-01.3730,-08.8000,+00.000585,-00.002795,-00.000256
-053.011,-020.057,+008.709,-0.107,+0.783,+2.443,-03.2620,-01.3470,-08.7630,+00.001436,-00.002084,-00.000042
-053.011,-020.058,+008.710,-0.116,+0.778,+2.438,-03.2330,-01.3380,-08.7710,+00.000651,-00.000364,+00.000280
-053.012,-020.059,+008.711,-0.097,+0.763,+2.439,-03.2340,-01.3220,-08.7610,+00.001295,-00.000522,+00.000850
-053.014,-020.060,+008.711,-0.111,+0.758,+2.438,-03.2360,-01.3180,-08.7590,+00.000495,-00.000121,-00.001634
-053.015,-020.060,+008.714,-0.102,+0.783,+2.417,-03.2380,-01.3460,-08.7440,+00.000940,-00.000687,+00.000008
-053.017,-020.060,+008.716,-0.107,+0.783,+2.422,-03.2100,-01.3210,-08.7760,+00.001398,-00.001493,+00.000522
-053.017,-020.061,+008.719,-0.102,+0.793,+2.449,-03.2420,-01.3550,-08.7610,+00.002550,-00.003534,+00.000142
-053.019,-020.065,+008.722,-0.102,+0.763,+2.444,-03.2110,-01.3370,-08.7890,+00.002878,-00.005109,-00.000517
-053.021,-020.071,+008.725,-0.107,+0.758,+2.427,-03.2400,-01.3230,-08.7900,+00.003636,-00.002763,-00.000963
-053.025,-020.075,+008.730,-0.088,+0.743,+2.439,-03.2380,-01.3510,-08.7620,+00.003354,-00.003974,-00.001007
-053.029,-020.076,+008.737,-0.097,+0.773,+2.433,-03.2180,-01.3580,-08.7700,+00.004661,-00.004022,-00.002104
-053.032,-020.078,+008.741,-0.107,+0.758,+2.416,-03.2350,-01.3240,-08.7570,+00.003688,-00.002821,-00.003367
-053.037,-020.082,+008.746,-0.097,+0.758,+2.444,-03.2290,-01.3440,-08.7600,+00.003607,-00.003541,-00.002404
-053.041,-020.083,+008.753,-0.097,+0.768,+2.422,-03.2300,-01.3670,-08.7610,+00.004026,-00.001395,-00.001363
-053.044,-020.082,+008.759,-0.093,+0.773,+2.433,-03.2220,-01.3580,-08.7600,+00.004307,-00.001120,-00.002786
-053.048,-020.083,+008.765,-0.102,+0.763,+2.460,-03.2460,-01.3640,-08.7680,+00.003781,-00.001367,-00.003709
-053.055,-020.087,+008.774,-0.111,+0.768,+2.422,-03.2270,-01.3870,-08.7650,+00.005757,-00.004013,-00.003096
-053.059,-020.091,+008.782,-0.107,+0.758,+2.422,-03.2570,-01.3490,-08.7830,+00.005999,-00.003834,-00.002304
-053.064,-020.093,+008.786,-0.102,+0.768,+2.449,-03.2370,-01.3540,-08.7560,+00.004198,-00.002702,-00.004088
-053.067,-020.093,+008.790,-0.102,+0.763,+2.438,-03.2230,-01.1550,-08.7320,+00.008688,-00.000049,+00.000056
-053.072,-020.096,+008.797,-0.093,+0.758,+2.433,-03.2170,-01.3360,-08.7200,+00.004357,-00.003810,-00.002170
-053.075,-020.100,+008.804,-0.093,+0.763,+2.455,-03.2730,-01.3940,-08.7780,+00.004776,-00.003107,-00.000668
-053.078,-020.101,+008.810,-0.097,+0.778,+2.428,-03.2410,-01.3810,-08.7610,+00.003268,+00.000223,-00.002975
-053.082,-020.099,+008.814,-0.107,+0.778,+2.416,-03.2540,-01.3810,-08.7420,+00.001862,+00.003958,-00.003118
-053.084,-020.096,+008.817,-0.107,+0.743,+2.438,-03.2080,-01.3800,-08.7550,+00.001584,+00.002704,+00.000537
-053.085,-020.096,+008.821,-0.102,+0.778,+2.433,-03.2660,-01.3520,-08.8020,+00.003627,-00.001947,-00.000199
-053.087,-020.099,+008.825,-0.088,+0.768,+2.428,-03.2200,-01.4100,-08.7360,+00.003819,-00.002080,-00.000056
-053.089,-020.100,+008.830,-0.107,+0.773,+2.443,-03.2590,-01.3510,-08.7740,+00.003641,+00.000901,-00.001459
-053.090,-020.097,+008.833,-0.107,+0.778,+2.438,-03.2340,-01.3300,-08.7650,+00.001563,+00.003018,-00.000895
-053.090,-020.094,+008.836,-0.097,+0.773,+2.428,-03.2610,-01.3540,-08.7360,+00.002655,+00.002720,+00.001414
-053.090,-020.093,+008.839,-0.107,+0.763,+2.444,-03.2360,-01.3540,-08.7980,+00.003124,+00.001021,+00.000408
-053.092,-020.093,+008.844,-0.097,+0.768,+2.428,-03.2590,-01.3650,-08.7620,+00.004652,+00.000178,-00.001485
-053.094,-020.094,+008.848,-0.116,+0.773,+2.432,-03.2310,-01.3380,-08.7520,+00.004303,-00.001213,-00.001450
-053.095,-020.095,+008.853,-0.097,+0.758,+2.439,-03.2300,-01.3710,-08.7460,+00.003572,-00.001984,+00.000694
-053.097,-020.096,+008.857,-0.097,+0.773,+2.438,-03.2310,-01.3480,-08.7580,+00.002890,-00.000985,-00.000970
-053.099,-020.096,+008.862,-0.111,+0.773,+2.432,-03.2190,-01.3820,-08.7350,+00.002986,-00.000592,-00.002511
-053.101,-020.096,+008.866,-0.107,+0.763,+2.433,-03.2280,-01.3700,-08.7920,+00.003629,-00.000628,+00.000352
-053.102,-020.098,+008.870,-0.107,+0.773,+2.433,-03.2220,-01.4210,-08.7570,+00.004402,-00.001342,-00.000046
-053.102,-020.100,+008.875,-0.102,+0.743,+2.439,-03.2470,-01.3300,-08.8130,+00.004217,+00.000996,+00.001283
-053.104,-020.103,+008.880,-0.107,+0.753,+2.444,-03.2500,-01.3630,-08.7550,+00.004313,-00.001551,-00.002016
-053.106,-020.099,+008.883,-0.097,+0.788,+2.428,-03.2470,-01.3810,-08.7560,+00.001581,+00.004113,-00.001419
-053.108,-020.094,+008.885,-0.111,+0.768,+2.427,-03.2120,-01.3670,-08.7270,+00.001056,+00.002778,-00.000226
-053.108,-020.095,+008.888,-0.102,+0.778,+2.455,-03.2280,-01.4280,-08.8170,+00.003373,-00.003505,+00.002348
-053.107,-020.102,+008.890,-0.102,+0.788,+2.422,-03.2480,-01.3160,-08.7750,+00.002106,-00.004475,+00.001873
-053.110,-020.103,+008.893,-0.102,+0.773,+2.433,-03.2650,-01.3550,-08.7630,+00.002712,-00.000149,-00.002199
-053.115,-020.101,+008.898,-0.097,+0.763,+2.460,-03.2480,-01.3670,-08.7520,+00.002553,+00.004598,-00.004763
-053.120,-020.096,+008.904,-0.093,+0.793,+2.411,-03.2320,-01.3930,-08.7640,+00.003185,+00.002498,-00.002514
-053.123,-020.094,+008.908,-0.111,+0.768,+2.427,-03.2290,-01.3580,-08.7560,+00.001817,+00.000707,-00.001158
-053.126,-020.093,+008.912,-0.111,+0.768,+2.449,-03.2470,-01.3950,-08.7770,+00.002114,+00.001465,-00.001976
-053.130,-020.091,+008.914,-0.102,+0.778,+2.417,-03.2310,-01.3520,-08.7360,+00.001040,+00.003186,-00.003956
-053.135,-020.087,+008.918,-0.111,+0.773,+2.432,-03.2470,-01.3930,-08.7530,+00.000763,+00.002583,-00.003513
-053.138,-020.085,+008.920,-0.102,+0.743,+2.460,-03.1830,-01.2540,-08.7870,+00.004024,+00.004089,-00.002002
-053.143,-020.085,+008.926,-0.097,+0.793,+2.417,-03.2500,-01.4320,-08.7800,+00.004702,+00.001334,-00.003994
-053.151,-020.083,+008.933,-0.097,+0.768,+2.428,-03.2570,-01.4180,-08.7520,+00.004117,+00.002232,-00.006840
-053.157,-020.080,+008.939,-0.111,+0.763,+2.443,-03.2710,-01.4230,-08.7330,+00.004617,+00.002958,-00.004708
-053.162,-020.074,+008.943,-0.102,+0.798,+2.416,-03.2690,-01.3730,-08.7140,+00.003249,+00.004453,-00.002315
-053.167,-020.070,+008.946,-0.097,+0.788,+2.428,-03.2620,-01.3200,-08.7630,+00.001545,+00.002942,-00.004202
-053.172,-020.067,+008.951,-0.102,+0.773,+2.455,-03.2210,-01.4170,-08.7790,+00.003365,+00.002306,-00.003119
-053.177,-020.065,+008.956,-0.107,+0.773,+2.427,-03.2440,-01.4590,-08.7630,+00.001397,+00.000155,-00.004619
-053.180,-020.066,+008.963,-0.097,+0.753,+2.444,-03.2590,-01.4010,-08.6890,+00.007723,-00.002856,-00.000018
-053.185,-020.070,+008.973,-0.097,+0.763,+2.449,-03.2240,-01.3170,-08.7480,+00.008061,-00.004621,-00.002897
-053.193,-020.075,+008.986,-0.093,+0.793,+2.428,-03.2830,-01.4400,-08.7480,+00.008558,-00.004947,-00.007974
-053.202,-020.077,+009.000,-0.111,+0.773,+2.432,-03.1860,-01.3980,-08.7090,+00.008642,-00.002418,-00.007022
-053.212,-020.079,+009.016,-0.097,+0.793,+2.438,-03.1970,-01.4610,-08.7380,+00.008431,-00.000306,-00.009438
-053.221,-020.083,+009.033,-0.111,+0.773,+2.443,-03.1990,-01.3220,-08.7640,+00.009692,-00.003869,-00.005711
-053.229,-020.089,+009.052,-0.102,+0.773,+2.427,-03.2210,-01.4170,-08.7600,+00.016370,-00.005594,-00.004391
-053.237,-020.094,+009.074,-0.097,+0.753,+2.444,-03.1920,-01.4180,-08.7860,+00.015797,-00.005009,-00.005885
-053.246,-020.105,+009.101,-0.107,+0.788,+2.422,-03.2260,-01.3740,-08.7650,+00.024897,-00.012376,-00.004444
-053.258,-020.115,+009.130,-0.102,+0.763,+2.428,-03.2220,-01.4360,-08.7700,+00.020184,-00.009488,-00.006344
-053.269,-020.126,+009.159,-0.097,+0.763,+2.449,-03.2390,-01.3270,-08.7710,+00.024998,-00.008483,-00.005420
-053.281,-020.139,+009.188,-0.093,+0.778,+2.444,-03.2810,-01.3990,-08.7410,+00.024019,-00.012709,-00.005536
-053.295,-020.150,+009.221,-0.107,+0.768,+2.427,-03.2850,-01.4300,-08.7650,+00.023491,-00.009797,-00.010585
-053.313,-020.157,+009.252,-0.093,+0.783,+2.455,-03.2560,-01.4530,-08.7580,+00.023519,-00.006758,-00.011601
-053.328,-020.163,+009.284,-0.097,+0.783,+2.422,-03.2390,-01.4220,-08.7540,+00.024004,-00.007400,-00.010684
-053.344,-020.168,+009.315,-0.102,+0.768,+2.433,-03.2580,-01.4460,-08.7310,+00.023288,-00.005546,-00.011770
-053.361,-020.170,+009.346,-0.107,+0.773,+2.433,-03.2790,-01.4550,-08.7810,+00.020770,-00.003053,-00.012865
-053.379,-020.171,+009.376,-0.097,+0.778,+2.422,-03.2640,-01.4320,-08.7650,+00.022401,-00.004137,-00.013822
-053.399,-020.173,+009.407,-0.093,+0.783,+2.412,-03.2580,-01.4370,-08.7560,+00.021705,-00.003580,-00.014336
-053.420,-020.173,+009.439,-0.102,+0.788,+2.444,-03.2340,-01.4850,-08.7660,+00.020907,-00.002239,-00.016039
-053.441,-020.174,+009.471,-0.102,+0.813,+2.427,-03.2610,-01.4460,-08.7520,+00.023300,-00.004181,-00.014927
-053.461,-020.177,+009.502,-0.093,+0.817,+2.438,-03.2740,-01.4540,-08.7550,+00.022144,-00.004866,-00.015800
-053.483,-020.178,+009.534,-0.097,+0.763,+2.433,-03.2110,-01.4610,-08.7670,+00.020612,-00.003698,-00.017106
-053.503,-020.178,+009.566,-0.102,+0.817,+2.411,-03.2360,-01.4830,-08.7200,+00.018787,-00.003679,-00.015536
-053.523,-020.178,+009.594,-0.102,+0.793,+2.417,-03.2730,-01.4810,-08.7550,+00.019055,-00.000719,-00.016368
-053.544,-020.175,+009.623,-0.111,+0.773,+2.438,-03.2360,-01.5180,-08.7340,+00.016671,-00.000032,-00.016936
-053.562,-020.169,+009.647,-0.093,+0.783,+2.433,-03.2350,-01.5130,-08.7210,+00.013363,+00.002670,-00.012246
-053.574,-020.166,+009.668,-0.102,+0.778,+2.438,-03.2320,-01.5340,-08.7160,+00.012360,-00.003128,-00.005054
-053.581,-020.170,+009.685,-0.102,+0.788,+2.438,-03.2220,-01.4890,-08.7200,+00.012238,-00.006269,-00.003516
-053.589,-020.174,+009.700,-0.097,+0.817,+2.422,-03.2230,-01.5410,-08.7430,+00.010976,-00.004927,-00.002160
-053.594,-020.179,+009.715,-0.107,+0.768,+2.449,-03.2480,-01.5480,-08.6890,+00.007727,-00.005158,-00.001050
-053.597,-020.184,+009.720,-0.107,+0.778,+2.449,-03.2180,-01.5310,-08.7370,+00.001977,-00.004771,+00.000243
-053.599,-020.189,+009.718,-0.111,+0.842,+2.416,-03.2490,-01.4500,-08.7440,-00.004139,-00.003462,-00.000040
-053.597,-020.192,+009.711,-0.102,+0.768,+2.422,-03.2400,-01.5070,-08.7390,-00.006705,-00.002996,+00.004205
-053.594,-020.196,+009.700,-0.093,+0.773,+2.433,-03.2630,-01.4620,-08.7320,-00.008292,-00.001709,+00.004483
-053.592,-020.202,+009.688,-0.097,+0.793,+2.422,-03.2590,-01.4780,-08.7440,-00.008915,-00.005558,+00.002811
-053.591,-020.209,+009.678,-0.097,+0.778,+2.411,-03.2850,-01.4700,-08.7220,-00.008230,-00.006424,+00.001795
-053.588,-020.215,+009.671,-0.088,+0.768,+2.444,-03.2720,-01.4880,-08.7540,-00.003320,-00.003644,+00.002853
-053.586,-020.222,+009.664,-0.107,+0.798,+2.433,-03.2780,-01.4840,-08.7540,-00.003288,-00.006781,+00.004761
-053.587,-020.231,+009.661,-0.097,+0.778,+2.411,-03.2780,-01.4740,-08.7540,-00.000450,-00.008384,-00.001384
-053.590,-020.238,+009.661,-0.102,+0.783,+2.438,-03.2580,-01.4540,-08.7150,+00.001181,-00.003426,-00.000766
-053.593,-020.244,+009.667,-0.097,+0.807,+2.417,-03.2760,-01.5070,-08.7800,+00.004613,-00.006745,-00.001576
-053.598,-020.249,+009.674,-0.093,+0.768,+2.433,-03.2920,-01.4800,-08.7540,+00.005807,-00.003305,-00.003659
-053.603,-020.249,+009.680,-0.097,+0.783,+2.422,-03.2760,-01.4850,-08.7390,+00.004540,+00.003543,-00.002072
-053.606,-020.244,+009.686,-0.102,+0.813,+2.427,-03.2260,-01.5350,-08.7310,+00.002372,+00.001756,-00.001418
-053.607,-020.245,+009.693,-0.097,+0.798,+2.428,-03.2510,-01.4990,-08.7340,+00.005491,-00.002908,+00.002621
-053.608,-020.251,+009.701,-0.107,+0.788,+2.422,-03.2620,-01.4880,-08.7280,+00.005360,-00.006466,+00.000095
-053.612,-020.255,+009.712,-0.097,+0.783,+2.411,-03.2830,-01.5210,-08.7150,+00.005678,-00.001603,-00.001196
-053.611,-020.253,+009.715,-0.102,+0.798,+2.417,-03.2720,-01.4880,-08.7560,+00.001518,+00.004179,+00.001761
-053.610,-020.246,+009.716,-0.111,+0.788,+2.438,-03.2670,-01.5170,-08.7360,+00.000009,+00.003759,+00.003485
-053.605,-020.244,+009.715,-0.097,+0.812,+2.411,-03.2290,-01.5030,-08.7250,-00.000904,+00.000674,+00.003677
-053.604,-020.245,+009.711,-0.107,+0.798,+2.416,-03.2810,-01.4600,-08.7510,-00.000895,-00.000740,+00.002797
-053.602,-020.248,+009.710,-0.107,+0.788,+2.433,-03.2710,-01.5370,-08.7080,-00.001654,-00.001754,+00.004301
-053.599,-020.252,+009.709,-0.097,+0.832,+2.406,-03.2590,-01.5470,-08.7150,-00.001847,-00.005313,+00.006093
-053.593,-020.261,+009.704,-0.111,+0.793,+2.432,-03.2930,-01.4740,-08.7460,-00.002016,-00.005874,+00.005499
-053.588,-020.267,+009.698,-0.093,+0.758,+2.444,-03.2980,-01.4800,-08.7290,-00.003963,+00.000196,+00.002919
-053.587,-020.266,+009.692,-0.111,+0.783,+2.422,-03.3020,-01.4860,-08.7240,-00.005322,+00.002267,+00.001330
-053.587,-020.265,+009.685,-0.102,+0.783,+2.422,-03.2660,-01.5230,-08.7500,-00.005373,+00.000462,+00.001158
-053.586,-020.266,+009.680,-0.097,+0.793,+2.438,-03.2400,-01.4900,-08.7270,-00.003617,-00.002090,+00.001750
-053.586,-020.268,+009.675,-0.088,+0.797,+2.406,-03.2810,-01.5130,-08.7570,-00.004225,-00.000392,+00.000178
-053.588,-020.269,+009.670,-0.097,+0.793,+2.422,-03.2920,-01.4990,-08.7200,-00.006130,+00.002044,+00.002138
-053.585,-020.268,+009.663,-0.116,+0.773,+2.443,-03.2570,-01.4780,-08.7050,-00.006892,+00.000816,+00.003437
-053.580,-020.270,+009.654,-0.107,+0.783,+2.416,-03.2280,-01.4940,-08.7330,-00.005493,-00.003931,+00.005292
-053.577,-020.278,+009.649,-0.102,+0.773,+2.417,-03.2630,-01.4820,-08.7420,-00.003572,-00.007976,+00.005538
-053.576,-020.288,+009.644,-0.102,+0.783,+2.438,-03.2760,-01.5160,-08.7380,-00.004197,-00.007323,+00.003118
-053.574,-020.291,+009.636,-0.097,+0.793,+2.422,-03.2900,-01.4640,-08.7490,-00.005388,+00.002891,+00.003702
-053.571,-020.289,+009.625,-0.102,+0.768,+2.428,-03.2690,-01.5020,-08.7440,-00.008531,+00.002595,+00.002558
