sep=,
DeviceTag:,B,,,,,,,,,,,,,,,,,
FirmwareVersion:,2.2.1,,,,,,,,,,,,,,,,,
AppVersion:,2022.0.1,,,,,,,,,,,,,,,,,
SyncStatus:,Un-synced,,,,,,,,,,,,,,,,,
OutputRate:,60Hz,,,,,,,,,,,,,,,,,
FilterProfile:,General,,,,,,,,,,,,,,,,,
Measurement Mode:,Inertial Mode - Rate quantities (with mag),,,,,,,,,,,,,,,,,
StartTime:,2022-08-03 16:16:54.436 +0300,,,,,,,,,,,,,,,,,
© Xsens Technologies B. V. 2005-2022,,,,,,,,,,,,,,,,,,,

PacketCounter,SampleTimeFine,Acc_X,Acc_Y,Acc_Z,Gyr_X,Gyr_Y,Gyr_Z,Mag_X,Mag_Y,Mag_Z
1, 176270754, 1.6759928464889526, 0.41912680864334106, 9.495262145996094, 0.717520534992218, -2.273729085922241, -1.490095615386963, -0.710693359375, 0.1826171875, -1.469970703125
2, 176287421, 1.6443110704421997, 0.36965012550354004, 9.562972068786621, 0.9512619972229004, -2.3517708778381348, -0.934901773929596, -0.714599609375, 0.18359375, -1.467529296875
3, 176304088, 1.5436220169067383, 0.37011778354644775, 9.60451889038086, 0.9267122745513916, -0.3906448781490326, -0.8180311918258667, -0.715087890625, 0.18310546875, -1.467529296875
4, 176320755, 1.4690033197402954, 0.3731851875782013, 9.578388214111328, 1.468946099281311, 2.3808093070983887, -0.25169602036476135, -0.712646484375, 0.181640625, -1.468994140625
5, 176337422, 1.436726689338684, 0.3822944164276123, 9.549856185913086, 1.425199270248413, 1.7989140748977661, -1.2946833372116089, -0.708740234375, 0.18359375, -1.4677734375
6, 176354089, 1.324994444847107, 0.4091790020465851, 9.478559494018555, 1.6128766536712646, 2.0691282749176025, -2.6701879501342773, -0.710205078125, 0.1826171875, -1.468505859375
7, 176370756, 1.4461586475372314, 0.44938531517982483, 9.452524185180664, 2.7462258338928223, 4.069851875305176, -3.325066566467285, -0.70849609375, 0.179931640625, -1.468994140625
8, 176387423, 1.6183096170425415, 0.47623348236083984, 9.67712116241455, 2.10595965385437, 1.7837390899658203, -2.8964765071868896, -0.7060546875, 0.18408203125, -1.46826171875
9, 176404090, 1.6104521751403809, 0.4539529085159302, 9.731230735778809, 0.311533659696579, -1.5445482730865479, -1.124666452407837, -0.70849609375, 0.179443359375, -1.46826171875
10, 176420757, 1.3899787664413452, 0.40593528747558594, 9.606966018676758, -0.3916949927806854, 0.10101008415222168, -0.14139491319656372, -0.70703125, 0.1796875, -1.46826171875
11, 176437424, 1.4042878150939941, 0.39477527141571045, 9.472284317016602, 0.38536232709884644, 2.315035820007324, -0.34318459033966064, -0.70751953125, 0.178466796875, -1.4677734375
12, 176454091, 1.479350209236145, 0.3872487246990204, 9.518136978149414, 0.7018839716911316, -2.2977280616760254, -1.701054573059082, -0.7060546875, 0.178466796875, -1.46875
13, 176470758, 1.4750251770019531, 0.4064122438430786, 9.659008026123047, 0.3763337731361389, -3.5483832359313965, -2.539870500564575, -0.70947265625, 0.180419921875, -1.46728515625
14, 176487425, 1.5964369773864746, 0.4446491599082947, 9.677538871765137, 0.611804187297821, -0.8341415524482727, -1.2782402038574219, -0.7099609375, 0.177490234375, -1.469482421875
15, 176504092, 1.4852815866470337, 0.45491909980773926, 9.691266059875488, 0.05383148789405823, -0.8626740574836731, -0.5842640399932861, -0.70849609375, 0.177490234375, -1.46728515625
16, 176520759, 1.520499587059021, 0.469155490398407, 9.826859474182129, -0.6815282702445984, 0.06067007780075073, -0.41938236355781555, -0.70947265625, 0.178955078125, -1.466796875
17, 176537426, 1.5668176412582397, 0.4925953149795532, 9.667847633361816, -1.977838158607483, -1.3841229677200317, -1.0001118183135986, -0.70947265625, 0.181640625, -1.46728515625
18, 176554093, 1.4922209978103638, 0.4752007722854614, 9.479835510253906, -1.6174802780151367, -1.0141091346740723, -0.5765802264213562, -0.70947265625, 0.178955078125, -1.4677734375
19, 176570760, 1.503963589668274, 0.4362075626850128, 9.424883842468262, -0.4068577289581299, -0.8580766320228577, -0.760837972164154, -0.71044921875, 0.180908203125, -1.4658203125
20, 176587427, 1.6264361143112183, 0.43577340245246887, 9.428773880004883, 0.2640477120876312, -1.19013249874115, -0.5984023213386536, -0.7109375, 0.180419921875, -1.467041015625
21, 176604094, 1.6660410165786743, 0.4584720730781555, 9.54638385772705, -0.24957013130187988, -1.5279383659362793, -0.3548383116722107, -0.7099609375, 0.179931640625, -1.468505859375
22, 176620761, 1.6809372901916504, 0.4339730143547058, 9.63442325592041, -1.101717472076416, -0.7810208797454834, 0.8952855467796326, -0.708984375, 0.1826171875, -1.4677734375
23, 176637428, 1.55214524269104, 0.4464394152164459, 9.435286521911621, -1.5140306949615479, -1.167490839958191, 0.6328705549240112, -0.7099609375, 0.178466796875, -1.468017578125
24, 176654095, 1.4677612781524658, 0.3934987187385559, 9.456868171691895, -0.1212761327624321, -0.3908497989177704, 0.8010563254356384, -0.71044921875, 0.180419921875, -1.468017578125
25, 176670762, 1.4755995273590088, 0.38488584756851196, 9.464238166809082, 0.4460643529891968, -1.345345377922058, -0.2584449350833893, -0.70751953125, 0.179443359375, -1.46875
26, 176687429, 1.4567489624023438, 0.38506215810775757, 9.580949783325195, 0.8763064742088318, -0.5333588123321533, 0.0299348384141922, -0.710205078125, 0.18115234375, -1.468017578125
27, 176704096, 1.5303735733032227, 0.40816327929496765, 9.683103561401367, 0.06000414490699768, -0.4635002315044403, 0.3017752468585968, -0.70947265625, 0.178466796875, -1.468017578125
28, 176720763, 1.4751873016357422, 0.41656413674354553, 9.589481353759766, -1.157886028289795, -2.3234689235687256, -0.22080707550048828, -0.710205078125, 0.18115234375, -1.468505859375
29, 176737430, 1.387946605682373, 0.40263035893440247, 9.501225471496582, -0.28095850348472595, -1.0203458070755005, 0.1443851888179779, -0.711181640625, 0.180419921875, -1.467041015625
30, 176754097, 1.4679410457611084, 0.42599305510520935, 9.548845291137695, 0.41503462195396423, -0.5820485949516296, -0.4826969504356384, -0.70947265625, 0.179443359375, -1.468994140625
31, 176770764, 1.4422379732131958, 0.4179845452308655, 9.589146614074707, -0.0029710731469094753, -0.8763512969017029, -0.7436519265174866, -0.70947265625, 0.18115234375, -1.4677734375
32, 176787431, 1.4625385999679565, 0.4697144329547882, 9.49605941772461, 0.03294433653354645, -2.2118101119995117, -1.264755129814148, -0.710693359375, 0.181396484375, -1.4658203125
33, 176804098, 1.459903359413147, 0.44308456778526306, 9.601200103759766, 0.24360878765583038, -1.548223614692688, -0.9129263162612915, -0.7109375, 0.180419921875, -1.46533203125
34, 176820765, 1.5347942113876343, 0.4374046325683594, 9.597487449645996, -0.3941282331943512, -1.7566087245941162, -1.1163039207458496, -0.7119140625, 0.178955078125, -1.467529296875
35, 176837432, 1.5089142322540283, 0.4376146197319031, 9.518566131591797, -0.40926530957221985, -0.8226414322853088, -0.696319580078125, -0.713623046875, 0.178466796875, -1.467041015625
36, 176854099, 1.4641813039779663, 0.40958163142204285, 9.561202049255371, 0.21498657763004303, -0.48434895277023315, -0.6598983407020569, -0.711669921875, 0.181396484375, -1.46484375
37, 176870766, 1.4779951572418213, 0.3940623700618744, 9.594621658325195, 0.10585087537765503, -1.2501558065414429, -1.4018213748931885, -0.7119140625, 0.178955078125, -1.466064453125
38, 176887433, 1.4786232709884644, 0.39925071597099304, 9.593838691711426, 0.11499461531639099, -1.145707368850708, -1.709237813949585, -0.71044921875, 0.180419921875, -1.46630859375
39, 176904100, 1.5204226970672607, 0.41771772503852844, 9.545355796813965, 0.32984673976898193, -0.1271030157804489, -1.664966344833374, -0.71044921875, 0.179931640625, -1.468017578125
40, 176920767, 1.595482587814331, 0.43493929505348206, 9.602989196777344, 0.03414813429117203, -0.4112630784511566, -1.2250041961669922, -0.713623046875, 0.177978515625, -1.466552734375
41, 176937434, 1.558481216430664, 0.43440383672714233, 9.611838340759277, -0.3672220706939697, 0.737293541431427, -0.390350341796875, -0.71142578125, 0.179443359375, -1.46533203125
42, 176954101, 1.516797423362732, 0.45186203718185425, 9.522979736328125, -0.21682432293891907, -0.7940962314605713, -0.3264338970184326, -0.71044921875, 0.179931640625, -1.467041015625
43, 176970768, 1.448299527168274, 0.4079248607158661, 9.556879043579102, 0.10884756594896317, -0.6650848984718323, -0.9342871904373169, -0.7099609375, 0.179931640625, -1.468017578125
44, 176987435, 1.5030901432037354, 0.46123170852661133, 9.515650749206543, 0.26436787843704224, -0.9212247729301453, -1.6472039222717285, -0.712158203125, 0.179443359375, -1.467529296875
45, 177004102, 1.4850410223007202, 0.44628840684890747, 9.57420539855957, 0.2295345962047577, -1.4730503559112549, -1.7648048400878906, -0.71044921875, 0.180419921875, -1.468017578125
46, 177020769, 1.523255705833435, 0.4822266697883606, 9.52388858795166, -0.022718463093042374, -3.6357736587524414, -2.0106992721557617, -0.7109375, 0.178466796875, -1.467041015625
47, 177037436, 1.553450584411621, 0.4582504332065582, 9.544564247131348, -0.18245205283164978, -4.0022149085998535, -1.9673113822937012, -0.70849609375, 0.178466796875, -1.4677734375
48, 177054103, 1.5587729215621948, 0.4491652846336365, 9.522869110107422, -0.1817348748445511, -0.9683775901794434, -1.547916054725647, -0.714599609375, 0.180908203125, -1.467529296875
49, 177070770, 1.5595487356185913, 0.4312136173248291, 9.55448055267334, 0.2994956970214844, 2.503404378890991, -0.3089659810066223, -0.7138671875, 0.177001953125, -1.466552734375
50, 177087437, 1.6058992147445679, 0.40320301055908203, 9.58908748626709, 0.1254061758518219, -0.507605254650116, 0.012633463367819786, -0.711669921875, 0.179443359375, -1.467041015625
51, 177104104, 1.4095377922058105, 0.4402158856391907, 9.509212493896484, -0.06929516047239304, -1.257557988166809, -0.7186411023139954, -0.7119140625, 0.178955078125, -1.46533203125
52, 177120771, 1.5548511743545532, 0.3939807713031769, 9.603432655334473, 0.6719299554824829, -1.2068575620651245, 0.1282491832971573, -0.714111328125, 0.178955078125, -1.466552734375
53, 177137438, 1.6097408533096313, 0.41504204273223877, 9.675882339477539, 0.036786243319511414, -1.5346745252609253, 0.29477012157440186, -0.7099609375, 0.178955078125, -1.46728515625
54, 177154105, 1.509468674659729, 0.4063987731933594, 9.641860961914062, -0.46954476833343506, -0.97184818983078, -0.04019912704825401, -0.712890625, 0.177978515625, -1.468505859375
55, 177170772, 1.4345455169677734, 0.434455543756485, 9.556026458740234, 0.029870811849832535, 0.49753308296203613, 0.2307768315076828, -0.713134765625, 0.179443359375, -1.467041015625
56, 177187439, 1.4160542488098145, 0.43289658427238464, 9.593005180358887, -0.08610989153385162, -0.22357326745986938, -1.4510235786437988, -0.7119140625, 0.177978515625, -1.468505859375
57, 177204106, 1.494329571723938, 0.5239868760108948, 9.631136894226074, 0.044239532202482224, -0.4106868505477905, -1.8900506496429443, -0.7119140625, 0.179443359375, -1.466552734375
58, 177220773, 1.4680373668670654, 0.4609658420085907, 9.595473289489746, -0.39070895314216614, 0.8272966146469116, -1.5507978200912476, -0.7099609375, 0.178955078125, -1.468017578125
59, 177237440, 1.547189712524414, 0.5022055506706238, 9.427641868591309, -0.11769033968448639, 0.6450877785682678, -0.9532918334007263, -0.7119140625, 0.178466796875, -1.468017578125
60, 177254107, 1.485482096672058, 0.4503585398197174, 9.382227897644043, 0.2880852222442627, 0.2356560379266739, -1.034791350364685, -0.712158203125, 0.178955078125, -1.468017578125
61, 177270774, 1.5414049625396729, 0.4480096101760864, 9.352607727050781, 1.106411099433899, 2.2861833572387695, -1.7717329263687134, -0.71142578125, 0.177978515625, -1.46630859375
62, 177287441, 1.644601821899414, 0.4314115047454834, 9.492230415344238, 1.512205958366394, 7.0999627113342285, -0.718948483467102, -0.70849609375, 0.177490234375, -1.46826171875
63, 177304108, 1.6481386423110962, 0.4462946653366089, 9.452696800231934, 0.7519954442977905, 9.266979217529297, -0.5842002630233765, -0.7080078125, 0.177001953125, -1.46875
64, 177320775, 1.3964632749557495, 0.435343861579895, 9.5260009765625, 1.1894350051879883, 11.378605842590332, 0.014195844531059265, -0.7021484375, 0.177001953125, -1.46728515625
65, 177337442, 1.4885116815567017, 0.44038787484169006, 9.680903434753418, 0.6038516163825989, 8.503693580627441, -0.9238503575325012, -0.6982421875, 0.1796875, -1.466796875
66, 177354109, 1.5591663122177124, 0.4580534100532532, 9.783734321594238, -0.9802748560905457, 0.8392064571380615, -0.7545244693756104, -0.697509765625, 0.176513671875, -1.46875
67, 177370776, 1.4106703996658325, 0.42097556591033936, 9.745567321777344, -3.2589223384857178, -6.567751407623291, -1.4187262058258057, -0.697998046875, 0.177734375, -1.46875
68, 177387443, 1.3465684652328491, 0.41979658603668213, 9.445068359375, -2.599612236022949, -3.909970760345459, -1.4115543365478516, -0.697998046875, 0.177490234375, -1.466796875
69, 177404110, 1.3972835540771484, 0.41828930377960205, 9.395561218261719, 0.4936271011829376, 1.2389565706253052, 1.0414443016052246, -0.70068359375, 0.177490234375, -1.46630859375
70, 177420777, 1.2575279474258423, 0.41910064220428467, 9.660420417785645, 1.1332019567489624, -1.1302756071090698, -0.34685999155044556, -0.7001953125, 0.176513671875, -1.4677734375
71, 177437444, 1.3129489421844482, 0.4419412612915039, 9.762207984924316, 0.5892265439033508, -2.517587184906006, -1.1621506214141846, -0.70068359375, 0.177001953125, -1.46826171875
72, 177454111, 1.325233817100525, 0.45923176407814026, 9.762089729309082, -0.3033696413040161, -1.3599575757980347, -1.0300660133361816, -0.703125, 0.175537109375, -1.46923828125
73, 177470778, 1.3148655891418457, 0.4719780385494232, 9.609048843383789, -1.1750723123550415, -1.8498899936676025, -1.4487183094024658, -0.701171875, 0.177001953125, -1.4697265625
74, 177487445, 1.3617669343948364, 0.46429887413978577, 9.498873710632324, -1.1148442029953003, -4.604280471801758, -2.627249002456665, -0.70361328125, 0.178955078125, -1.4677734375
75, 177504112, 1.3531042337417603, 0.45249032974243164, 9.501880645751953, -0.39909711480140686, -2.9141488075256348, -1.980450987815857, -0.70361328125, 0.178466796875, -1.46875
76, 177520779, 1.5287317037582397, 0.48620763421058655, 9.387655258178711, 0.16605354845523834, -2.483215570449829, -1.7844499349594116, -0.70263671875, 0.177490234375, -1.4677734375
77, 177537446, 1.4554494619369507, 0.4562579393386841, 9.464701652526855, 1.2743663787841797, 0.4014342725276947, -0.08468839526176453, -0.70068359375, 0.175537109375, -1.47021484375
78, 177554113, 1.4435484409332275, 0.4647798240184784, 9.56025218963623, 1.3742172718048096, -0.9023097157478333, -1.0879249572753906, -0.70361328125, 0.17919921875, -1.46923828125
79, 177570780, 1.4852792024612427, 0.46767571568489075, 9.708813667297363, 0.9452942609786987, -0.8209638595581055, -0.7579053640365601, -0.70263671875, 0.177490234375, -1.46826171875
80, 177587447, 1.4588708877563477, 0.4563644826412201, 9.616833686828613, 0.10248280316591263, -0.732484757900238, -1.101294755935669, -0.70068359375, 0.178466796875, -1.46533203125
81, 177604114, 1.524277925491333, 0.48487037420272827, 9.489029884338379, 0.8860521912574768, 0.8969247937202454, -0.202481210231781, -0.7021484375, 0.176513671875, -1.4677734375
82, 177620781, 1.4493558406829834, 0.43899428844451904, 9.611298561096191, 1.1147093772888184, 0.8150409460067749, -0.06996109336614609, -0.70166015625, 0.176513671875, -1.4677734375
83, 177637448, 1.4665296077728271, 0.4450991451740265, 9.622931480407715, 0.8567126989364624, 0.14037679135799408, -0.42638739943504333, -0.701171875, 0.176513671875, -1.466796875
84, 177654115, 1.446096658706665, 0.46834009885787964, 9.649855613708496, 0.5269620418548584, 0.4383293092250824, -0.11528275161981583, -0.70166015625, 0.175048828125, -1.46728515625
85, 177670782, 1.3840088844299316, 0.44487252831459045, 9.559882164001465, 0.09793655574321747, -0.8404038548469543, -0.48373422026634216, -0.70361328125, 0.175537109375, -1.46630859375
86, 177687449, 1.3718509674072266, 0.474591463804245, 9.615870475769043, 0.48558473587036133, -0.4533574879169464, -0.25628066062927246, -0.70458984375, 0.176513671875, -1.46337890625
87, 177704116, 1.4415669441223145, 0.48548489809036255, 9.641674995422363, -0.5493026971817017, -0.7154778242111206, -0.9884452223777771, -0.70068359375, 0.175537109375, -1.46533203125
88, 177720783, 1.440741777420044, 0.5248007774353027, 9.52035903930664, -0.23310120403766632, -0.779548168182373, -0.9286012649536133, -0.703125, 0.176025390625, -1.466796875
89, 177737450, 1.4782860279083252, 0.48347464203834534, 9.5631685256958, 0.340847373008728, 0.022993799299001694, 0.02588803507387638, -0.70263671875, 0.176025390625, -1.46875
90, 177754117, 1.400071144104004, 0.43870487809181213, 9.506850242614746, -0.1971537470817566, -1.748732566833496, -0.9886501431465149, -0.70263671875, 0.174560546875, -1.46728515625
91, 177770784, 1.3799116611480713, 0.4541568160057068, 9.546648025512695, 0.6730056405067444, 0.1932285875082016, -0.1291264146566391, -0.7041015625, 0.176025390625, -1.46826171875
92, 177787451, 1.4307764768600464, 0.43439504504203796, 9.566672325134277, 0.3358273208141327, 0.33741533756256104, -0.6554930210113525, -0.70166015625, 0.174560546875, -1.46630859375
93, 177804118, 1.4584766626358032, 0.4704359173774719, 9.62401294708252, 0.3862203061580658, -0.6719363331794739, -0.5759271383285522, -0.701171875, 0.176025390625, -1.46630859375
94, 177820785, 1.3573405742645264, 0.4195408523082733, 9.736759185791016, 0.18951477110385895, 1.281281590461731, 0.14823991060256958, -0.700439453125, 0.175537109375, -1.46533203125
95, 177837452, 1.3597019910812378, 0.4656597971916199, 9.613351821899414, -0.19669272005558014, 0.05416445434093475, -0.9760486483573914, -0.701171875, 0.174560546875, -1.47021484375
96, 177854119, 1.308680772781372, 0.4979664087295532, 9.596793174743652, 0.1646704524755478, -0.21334096789360046, -1.086272954940796, -0.698486328125, 0.175048828125, -1.46826171875
97, 177870786, 1.4383183717727661, 0.5288124084472656, 9.613654136657715, -0.27679643034935, -1.93744695186615, -1.640723705291748, -0.699462890625, 0.174560546875, -1.46728515625
98, 177887453, 1.452515721321106, 0.5281888246536255, 9.669448852539062, -0.592536985874176, -0.5790903568267822, -0.4413836896419525, -0.699951171875, 0.175537109375, -1.46630859375
99, 177904120, 1.4553956985473633, 0.5000569820404053, 9.585103988647461, -0.9208534955978394, -0.4293200969696045, -0.05413244664669037, -0.70263671875, 0.174072265625, -1.4697265625
100, 177920787, 1.358109712600708, 0.479265421628952, 9.494284629821777, -0.6527908444404602, -1.0066559314727783, -0.4103282392024994, -0.701171875, 0.176025390625, -1.46875
101, 177937454, 1.4009711742401123, 0.4743054509162903, 9.467894554138184, -0.1064719706773758, -1.3963401317596436, -1.2431762218475342, -0.699951171875, 0.175537109375, -1.466796875
102, 177954121, 1.4959050416946411, 0.4828589856624603, 9.53856372833252, 0.6744912266731262, 1.1901260614395142, -0.6513437628746033, -0.70166015625, 0.176025390625, -1.46728515625
103, 177970788, 1.5603020191192627, 0.49705949425697327, 9.544455528259277, 0.39983341097831726, 1.0498325824737549, -0.15006478130817413, -0.7021484375, 0.173583984375, -1.46630859375
104, 177987455, 1.5077743530273438, 0.4904857873916626, 9.539909362792969, -0.16602151095867157, -1.7140787839889526, 0.192024827003479, -0.698486328125, 0.175048828125, -1.465576171875
105, 178004122, 1.4107311964035034, 0.44830867648124695, 9.607950210571289, -0.4690966010093689, -2.672813653945923, -0.12232626229524612, -0.70068359375, 0.175048828125, -1.46728515625
106, 178020789, 1.414908528327942, 0.44880685210227966, 9.649712562561035, -0.19040481746196747, 0.2866509258747101, 0.4361138343811035, -0.70361328125, 0.174072265625, -1.46826171875
107, 178037456, 1.4599758386611938, 0.4537205696105957, 9.576736450195312, -0.5310152769088745, -0.29758113622665405, -0.22119125723838806, -0.7001953125, 0.175537109375, -1.466796875
108, 178054123, 1.3859015703201294, 0.4630921185016632, 9.480924606323242, -0.7298339009284973, -1.3756710290908813, -0.8973281979560852, -0.7001953125, 0.175537109375, -1.4697265625
109, 178070790, 1.4582698345184326, 0.47858262062072754, 9.548274993896484, 0.47695329785346985, 1.5504329204559326, 0.6166449785232544, -0.702392578125, 0.172119140625, -1.4677734375
110, 178087457, 1.438807487487793, 0.4701637923717499, 9.620936393737793, 0.3099200427532196, 1.2139075994491577, 0.981984555721283, -0.70166015625, 0.175048828125, -1.46630859375
111, 178104124, 1.3312289714813232, 0.4520414471626282, 9.59306812286377, -0.7362754940986633, -1.5411802530288696, 0.021649137139320374, -0.698486328125, 0.175048828125, -1.46875
112, 178120791, 1.2933480739593506, 0.44612058997154236, 9.563874244689941, -0.950295090675354, -2.1136112213134766, -0.509974479675293, -0.69921875, 0.177001953125, -1.466796875
113, 178137458, 1.3058202266693115, 0.4525132179260254, 9.475829124450684, -0.374944269657135, -1.5208690166473389, -1.1579627990722656, -0.7041015625, 0.173583984375, -1.466796875
114, 178154125, 1.3438076972961426, 0.4618417024612427, 9.452573776245117, 0.6517855525016785, 1.3226591348648071, -0.9262704849243164, -0.699951171875, 0.174072265625, -1.4658203125
115, 178170792, 1.359581708908081, 0.47629857063293457, 9.513498306274414, 1.2108595371246338, 3.408275842666626, -0.38407525420188904, -0.701904296875, 0.172607421875, -1.46484375
116, 178187459, 1.3965052366256714, 0.4991839826107025, 9.635660171508789, 0.9044291973114014, 1.675601840019226, -0.04182553291320801, -0.697998046875, 0.176025390625, -1.465087890625
117, 178204126, 1.343143343925476, 0.4959592819213867, 9.61189079284668, -0.21108707785606384, -1.6164944171905518, -0.7578670382499695, -0.698974609375, 0.173095703125, -1.46923828125
118, 178220793, 1.2732425928115845, 0.5110832452774048, 9.592497825622559, 0.39903944730758667, -0.9634602069854736, -0.8154699802398682, -0.699951171875, 0.176025390625, -1.464599609375
119, 178237460, 1.3212227821350098, 0.47355687618255615, 9.611913681030273, 0.7383949756622314, -0.2769117057323456, -1.1317483186721802, -0.697021484375, 0.174560546875, -1.467041015625
120, 178254127, 1.3531882762908936, 0.46935272216796875, 9.60006332397461, 0.57399982213974, -0.9945283532142639, -2.0432915687561035, -0.699462890625, 0.172119140625, -1.46826171875
121, 178270794, 1.434297800064087, 0.5138108730316162, 9.605817794799805, 0.8485423922538757, 0.8197152614593506, -0.9541370868682861, -0.699462890625, 0.175048828125, -1.4658203125
122, 178287461, 1.3785896301269531, 0.48332175612449646, 9.691243171691895, 0.3362498879432678, -0.27139216661453247, -0.8040081858634949, -0.698974609375, 0.174560546875, -1.466064453125
123, 178304128, 1.3635969161987305, 0.48371773958206177, 9.592093467712402, -0.24424268305301666, -1.3059018850326538, -1.3387501239776611, -0.698974609375, 0.172607421875, -1.46826171875
124, 178320795, 1.367387056350708, 0.4720309376716614, 9.613663673400879, -0.2039027214050293, -0.6127966642379761, -1.101461410522461, -0.699951171875, 0.175048828125, -1.465087890625
125, 178337462, 1.4465045928955078, 0.4947996139526367, 9.608841896057129, -0.5984919667243958, -0.09175749868154526, -1.4664808511734009, -0.696533203125, 0.175048828125, -1.466064453125
126, 178354129, 1.4437772035598755, 0.5319840312004089, 9.47704029083252, -0.3510732650756836, 0.6380059123039246, -1.2720674276351929, -0.697021484375, 0.172119140625, -1.466552734375
127, 178370796, 1.5164238214492798, 0.5428184270858765, 9.478781700134277, 0.4417229890823364, 2.79988431930542, -0.33318278193473816, -0.697998046875, 0.173583984375, -1.467041015625
128, 178387463, 1.53055739402771, 0.5517823696136475, 9.562832832336426, 1.147340178489685, 4.798174858093262, 1.1329971551895142, -0.698486328125, 0.173095703125, -1.466064453125
129, 178404130, 1.4253019094467163, 0.5041220784187317, 9.718072891235352, 0.679421603679657, 4.426738739013672, 1.7992088794708252, -0.694580078125, 0.172607421875, -1.465087890625
130, 178420797, 1.3473485708236694, 0.4657207131385803, 9.619203567504883, -0.7323439121246338, -1.3757221698760986, 0.0777793601155281, -0.693115234375, 0.172607421875, -1.465087890625
131, 178437464, 1.1993861198425293, 0.4421633183956146, 9.627311706542969, -0.4443291127681732, -4.06056022644043, -0.66646808385849, -0.696533203125, 0.175537109375, -1.467041015625
132, 178454131, 1.2672255039215088, 0.4301033020019531, 9.637803077697754, 0.03941154107451439, 0.25467345118522644, -0.5163519978523254, -0.695068359375, 0.173583984375, -1.465576171875
133, 178470798, 1.3212757110595703, 0.4786459803581238, 9.56209945678711, 0.34138527512550354, 1.479408621788025, 0.4713056683540344, -0.696044921875, 0.172119140625, -1.465087890625
134, 178487465, 1.166300654411316, 0.45842665433883667, 9.691967964172363, -0.3152795433998108, -2.2505366802215576, -0.7098432183265686, -0.693603515625, 0.174072265625, -1.465576171875
135, 178504132, 1.1237682104110718, 0.4918825924396515, 9.678241729736328, -0.5974289774894714, -2.612149477005005, -1.1898506879806519, -0.694580078125, 0.175537109375, -1.466552734375
136, 178520799, 1.2432044744491577, 0.5173802375793457, 9.59205150604248, -1.0147111415863037, -3.2620978355407715, -1.9088120460510254, -0.695068359375, 0.174560546875, -1.466552734375
137, 178537466, 1.2529937028884888, 0.533710241317749, 9.538860321044922, -0.7309352159500122, -1.3377383947372437, -1.346088171005249, -0.697021484375, 0.171142578125, -1.466552734375
138, 178554133, 1.278658390045166, 0.5246677398681641, 9.467230796813965, -0.4586082100868225, -2.275573253631592, -2.0837597846984863, -0.698486328125, 0.174072265625, -1.465576171875
139, 178570800, 1.3853840827941895, 0.5282253623008728, 9.403560638427734, -0.07165153324604034, -3.1061551570892334, -2.369495153427124, -0.697998046875, 0.172607421875, -1.464599609375
140, 178587467, 1.44012451171875, 0.5235368609428406, 9.468066215515137, 0.7843761444091797, -1.4895449876785278, -1.5355325937271118, -0.697998046875, 0.173095703125, -1.463134765625
141, 178604134, 1.4951614141464233, 0.5218992233276367, 9.521668434143066, 1.113121509552002, -0.32551178336143494, -0.9941697120666504, -0.698486328125, 0.172119140625, -1.464599609375
142, 178620801, 1.4415724277496338, 0.49826520681381226, 9.56509780883789, 0.5943490862846375, -2.1156857013702393, -1.496524453163147, -0.698974609375, 0.173583984375, -1.466064453125
143, 178637468, 1.448974609375, 0.47882091999053955, 9.520103454589844, 0.8654467463493347, -2.2944111824035645, -1.6438102722167969, -0.699462890625, 0.173095703125, -1.4658203125
144, 178654135, 1.3998761177062988, 0.46652811765670776, 9.501052856445312, 1.563187599182129, 0.3649744987487793, -1.066756010055542, -0.697998046875, 0.171630859375, -1.467041015625
145, 178670802, 1.509468674659729, 0.4717937409877777, 9.535615921020508, 1.648388385772705, -0.22395741939544678, -0.911133348941803, -0.698974609375, 0.173095703125, -1.466064453125
146, 178687469, 1.3874527215957642, 0.47574830055236816, 9.615083694458008, 1.1490305662155151, -2.7211573123931885, -0.7691109776496887, -0.698974609375, 0.172119140625, -1.466064453125
147, 178704136, 1.395509958267212, 0.47904229164123535, 9.664766311645508, 0.30501529574394226, -4.6700663566589355, -2.0396804809570312, -0.697998046875, 0.170166015625, -1.467041015625
148, 178720803, 1.4226093292236328, 0.5169838666915894, 9.69190788269043, -0.42412069439888, -3.749814510345459, -1.8343429565429688, -0.700439453125, 0.171630859375, -1.46533203125
149, 178737470, 1.3108388185501099, 0.5052560567855835, 9.687515258789062, -0.984898030757904, -2.0799944400787354, -1.2430355548858643, -0.699951171875, 0.170654296875, -1.4697265625
150, 178754137, 1.3022761344909668, 0.5342344641685486, 9.588833808898926, -0.7306150197982788, -0.6381659507751465, -1.1488064527511597, -0.700439453125, 0.170166015625, -1.465087890625
151, 178770804, 1.293522834777832, 0.5104420781135559, 9.545854568481445, -0.2254301756620407, -0.9371687769889832, -1.116034984588623, -0.699951171875, 0.172119140625, -1.465087890625
152, 178787471, 1.299525499343872, 0.4984658658504486, 9.510367393493652, -0.05951111391186714, -1.819103479385376, -1.8419502973556519, -0.699951171875, 0.170166015625, -1.4658203125
153, 178804138, 1.3341132402420044, 0.5179592967033386, 9.472975730895996, 1.08846914768219, -0.5372518301010132, -1.6320281028747559, -0.701416015625, 0.170654296875, -1.466796875
154, 178820805, 1.3534204959869385, 0.5243963003158569, 9.489435195922852, 1.582807183265686, -0.07606972008943558, -1.8529891967773438, -0.700439453125, 0.169677734375, -1.4658203125
155, 178837472, 1.4223685264587402, 0.5684695839881897, 9.52099609375, 1.926196575164795, 0.4381372034549713, -1.636484980583191, -0.700927734375, 0.169677734375, -1.46826171875
156, 178854139, 1.519951581954956, 0.5372084975242615, 9.713852882385254, 1.157623529434204, -0.16608554124832153, -1.0507737398147583, -0.699462890625, 0.170654296875, -1.46630859375
157, 178870806, 1.4482346773147583, 0.5464715361595154, 9.607279777526855, -0.003188780974596739, -2.120910882949829, -1.4401636123657227, -0.699951171875, 0.169677734375, -1.465576171875
158, 178887473, 1.374160647392273, 0.5271979570388794, 9.625292778015137, 0.8903423547744751, -0.18019814789295197, -0.5465621948242188, -0.700927734375, 0.16748046875, -1.464111328125
159, 178904140, 1.413283348083496, 0.5102491974830627, 9.640655517578125, 0.6881684064865112, -1.1670811176300049, -1.6404037475585938, -0.700439453125, 0.16845703125, -1.464599609375
160, 178920807, 1.4703850746154785, 0.5612033605575562, 9.589972496032715, 0.7974066734313965, -2.166450023651123, -1.7203539609909058, -0.699951171875, 0.169189453125, -1.465087890625
161, 178937474, 1.4651439189910889, 0.5599331855773926, 9.705580711364746, 0.7828585505485535, -1.2496436834335327, -0.9631912708282471, -0.702392578125, 0.16943359375, -1.466796875
162, 178954141, 1.4679697751998901, 0.5583598017692566, 9.694430351257324, -0.36692750453948975, -0.773618757724762, -0.41650089621543884, -0.700927734375, 0.16552734375, -1.464599609375
163, 178970808, 1.3993340730667114, 0.5590468645095825, 9.569246292114258, -0.5833675861358643, -0.4657157063484192, -0.1893162578344345, -0.699951171875, 0.170654296875, -1.464599609375
164, 178987475, 1.398540735244751, 0.5712451338768005, 9.565828323364258, 0.03440425544977188, -0.9141685366630554, -0.4541003406047821, -0.699462890625, 0.16796875, -1.464111328125
165, 179004142, 1.3943078517913818, 0.5791398882865906, 9.568357467651367, 0.21971215307712555, -0.9978196024894714, -0.405756413936615, -0.700927734375, 0.16845703125, -1.466796875
166, 179020809, 1.4154165983200073, 0.5769133567810059, 9.577786445617676, 0.24414663016796112, -0.5153658986091614, -0.5004593133926392, -0.698974609375, 0.170166015625, -1.465576171875
167, 179037476, 1.4669315814971924, 0.5634528994560242, 9.58188247680664, 0.38186612725257874, 0.48836371302604675, -0.25117093324661255, -0.698974609375, 0.1669921875, -1.463623046875
168, 179054143, 1.4493365287780762, 0.5419862866401672, 9.605345726013184, -0.13938431441783905, 1.135443091392517, -0.10371863096952438, -0.698974609375, 0.16796875, -1.462158203125
169, 179070810, 1.3349190950393677, 0.5216933488845825, 9.567296981811523, 0.05816003680229187, 1.6443160772323608, 0.5369766354560852, -0.699951171875, 0.1689453125, -1.464599609375
170, 179087477, 1.3466622829437256, 0.5080313682556152, 9.543461799621582, 0.22265762090682983, 1.6715041399002075, 0.08708959072828293, -0.697998046875, 0.16796875, -1.464111328125
171, 179104144, 1.3912769556045532, 0.4915675222873688, 9.550263404846191, 0.3316524624824524, 2.2752466201782227, -0.2804206609725952, -0.699951171875, 0.16748046875, -1.461669921875
172, 179120811, 1.4624736309051514, 0.4698607325553894, 9.69090461730957, -0.4807632565498352, 7.941827297210693, 0.03466038778424263, -0.698486328125, 0.16748046875, -1.464111328125
173, 179137478, 1.6732468605041504, 0.45162516832351685, 9.599835395812988, -0.6048586368560791, 29.65452003479004, 3.936652183532715, -0.689453125, 0.169189453125, -1.466064453125
174, 179154145, 1.9402012825012207, 0.4367142617702484, 9.532938957214355, -0.22921153903007507, 64.91881561279297, 11.823213577270508, -0.67822265625, 0.169189453125, -1.46484375
175, 179170812, 2.3655965328216553, 0.5375094413757324, 9.520590782165527, 1.6174702644348145, 120.4898910522461, 23.858285903930664, -0.650390625, 0.1689453125, -1.46630859375
176, 179187479, 2.1234278678894043, 0.7449858784675598, 9.395112991333008, 6.75059700012207, 192.35140991210938, 43.634788513183594, -0.612548828125, 0.167236328125, -1.462158203125
177, 179204146, 0.9955418705940247, 0.5932376980781555, 9.692598342895508, 7.590914249420166, 236.7250213623047, 46.15525436401367, -0.554443359375, 0.1640625, -1.45849609375
178, 179220813, 0.3352563679218292, 0.34122055768966675, 9.906399726867676, 3.3072757720947266, 278.13458251953125, 31.311677932739258, -0.48681640625, 0.160888671875, -1.44677734375
179, 179237480, -1.286947250366211, 0.5216493606567383, 9.730635643005371, -27.1800479888916, 312.0870361328125, 0.6988857984542847, -0.406005859375, 0.16357421875, -1.43115234375
180, 179254147, -3.443662405014038, 0.6325075030326843, 7.064552307128906, -32.631492614746094, 285.46368408203125, -29.167251586914062, -0.32958984375, 0.175537109375, -1.407958984375
181, 179270814, -3.7966856956481934, 0.7386879324913025, 6.9584245681762695, -11.590733528137207, 309.16259765625, -22.430465698242188, -0.254150390625, 0.182373046875, -1.3759765625
182, 179287481, -5.312317371368408, 0.5703740119934082, 6.92840576171875, 10.491406440734863, 347.57049560546875, -5.020628452301025, -0.172119140625, 0.18408203125, -1.33349609375
183, 179304148, -5.962605953216553, 0.8307072520256042, 7.294551372528076, 26.70954132080078, 356.2902526855469, 14.409455299377441, -0.090576171875, 0.17724609375, -1.2744140625
184, 179320815, -6.700354099273682, 0.5884768962860107, 8.308219909667969, 29.272357940673828, 347.2434997558594, 27.44134521484375, -0.021728515625, 0.166259765625, -1.211669921875
185, 179337482, -6.266746997833252, 0.8210648894309998, 7.825872898101807, 22.417356491088867, 330.2027587890625, 31.988210678100586, 0.0361328125, 0.15576171875, -1.1435546875
186, 179354149, -5.753528594970703, 0.6999523043632507, 7.669846057891846, 3.71634578704834, 321.62664794921875, 34.94748306274414, 0.086181640625, 0.1474609375, -1.07275390625
187, 179370816, -7.240539073944092, 1.15701162815094, 2.9960968494415283, 28.74150848388672, 247.2316436767578, 11.79133129119873, 0.12646484375, 0.140380859375, -1.011474609375
188, 179387483, -10.170815467834473, 0.1924324929714203, 5.234703540802002, 24.46198081970215, 177.55860900878906, 17.168766021728516, 0.14599609375, 0.1337890625, -0.968017578125
189, 179404150, -8.916358947753906, 2.2583236694335938, 1.8471336364746094, 16.520503997802734, 224.1720733642578, 42.57052230834961, 0.166748046875, 0.1220703125, -0.916259765625
190, 179420817, -9.266036987304688, 0.6694902181625366, 2.323563575744629, 16.657052993774414, 267.41766357421875, 42.557315826416016, 0.1904296875, 0.109130859375, -0.851806640625
191, 179437484, -9.28042984008789, 1.0557512044906616, 1.5939134359359741, 39.336483001708984, 291.421142578125, 43.72193908691406, 0.20849609375, 0.095703125, -0.77490234375
192, 179454151, -9.62060832977295, 1.3329830169677734, 1.1557934284210205, 67.23473358154297, 308.0194091796875, 35.01457595825195, 0.218505859375, 0.082275390625, -0.689697265625
193, 179470818, -9.678621292114258, 1.608446717262268, 1.4103925228118896, 96.11198425292969, 319.3963317871094, 27.112943649291992, 0.22509765625, 0.073486328125, -0.595947265625
194, 179487485, -10.313344955444336, 2.1171774864196777, 1.1746925115585327, 102.55863952636719, 318.4429931640625, 11.277852058410645, 0.223876953125, 0.068359375, -0.501708984375
195, 179504152, -10.88815975189209, 2.144052505493164, 0.023434847593307495, 83.22230529785156, 287.2839660644531, -4.120910167694092, 0.21923828125, 0.0693359375, -0.414794921875
196, 179520819, -9.926774024963379, 2.150017738342285, -1.443253755569458, 65.91930389404297, 264.5230407714844, -14.894139289855957, 0.205322265625, 0.07958984375, -0.338623046875
197, 179537486, -9.784591674804688, 1.8323291540145874, -2.401761770248413, 94.77073669433594, 285.3507080078125, -12.057965278625488, 0.189453125, 0.088623046875, -0.25732421875
198, 179554153, -9.61707592010498, 1.751896858215332, -2.1243174076080322, 74.28679656982422, 316.5306396484375, -20.171463012695312, 0.163818359375, 0.09619140625, -0.175048828125
199, 179570820, -8.657363891601562, 1.7506271600723267, -3.3152761459350586, -0.2870267331600189, 382.8978271484375, -57.460853576660156, 0.1220703125, 0.11279296875, -0.087890625
200, 179587487, -9.056577682495117, 1.6349012851715088, -5.3115010261535645, 7.911741256713867, 419.3544921875, -55.41443634033203, 0.07177734375, 0.125, 7.32421875E-4
201, 179604154, -8.725747108459473, 1.4795169830322266, -6.14679479598999, -7.12448263168335, 400.1316833496094, -40.5103874206543, 0.0048828125, 0.1328125, 0.08251953125
202, 179620821, -7.8396406173706055, 1.021513819694519, -7.309893608093262, -35.59810256958008, 361.90777587890625, -33.60843276977539, -0.0615234375, 0.133056640625, 0.148193359375
203, 179637488, -7.136098384857178, 1.1404285430908203, -7.434146881103516, -10.89024829864502, 307.7695617675781, -13.189066886901855, -0.12548828125, 0.132568359375, 0.198486328125
204, 179654155, -5.857123374938965, 1.7060401439666748, -7.3837080001831055, -15.134203910827637, 311.9339904785156, -16.838035583496094, -0.193359375, 0.130859375, 0.23876953125
205, 179670822, -5.049346923828125, 0.8855830430984497, -8.288649559020996, 1.736814260482788, 283.1435852050781, -4.381445407867432, -0.26220703125, 0.131103515625, 0.2744140625
206, 179687489, -4.9840826988220215, 0.8831719756126404, -8.752904891967773, -4.174624919891357, 231.92897033691406, 4.10702657699585, -0.32080078125, 0.1298828125, 0.30029296875
207, 179704156, -4.624294281005859, 0.9910390377044678, -9.18769359588623, 0.5795023441314697, 219.33644104003906, -0.9937620162963867, -0.37841796875, 0.1279296875, 0.317626953125
208, 179720823, -3.9571216106414795, 1.4434362649917603, -9.776931762695312, -6.979857921600342, 220.87225341796875, 7.408873558044434, -0.432861328125, 0.12890625, 0.333251953125
209, 179737490, -2.2656776905059814, 1.4678325653076172, -10.67191219329834, -12.902521133422852, 271.5828552246094, 5.330169200897217, -0.5009765625, 0.124267578125, 0.346435546875
210, 179754157, -0.4110010862350464, 0.8307057023048401, -11.989603996276855, -18.628881454467773, 330.67584228515625, 15.711817741394043, -0.583740234375, 0.1181640625, 0.35302734375
211, 179770824, -1.390139102935791, -0.36119595170021057, -8.244268417358398, -22.279407501220703, 326.1214294433594, 8.75334644317627, -0.674560546875, 0.111572265625, 0.352294921875
212, 179787491, -4.38999605178833, 1.8432825803756714, -7.893138885498047, -0.268025666475296, 235.2642364501953, -23.85235023498535, -0.741455078125, 0.110595703125, 0.345458984375
213, 179804158, -0.29361143708229065, 1.994260549545288, -9.916109085083008, -55.02828598022461, 158.57424926757812, 5.9141950607299805, -0.787109375, 0.100830078125, 0.338134765625
214, 179820825, 0.9105183482170105, 2.051420211791992, -9.352256774902344, -86.06990814208984, 145.43788146972656, 24.895366668701172, -0.828125, 0.08203125, 0.320068359375
215, 179837492, 1.3799821138381958, 1.9475220441818237, -8.858429908752441, -101.4453353881836, 109.7601547241211, 43.37400817871094, -0.864013671875, 0.057373046875, 0.30126953125
216, 179854159, 1.8753292560577393, 1.9926186800003052, -10.265608787536621, -101.96351623535156, 75.24864196777344, 48.16499710083008, -0.888427734375, 0.03857421875, 0.281494140625
217, 179870826, 1.0692994594573975, 1.7055799961090088, -9.985847473144531, -84.89332580566406, 93.94310760498047, 54.6513786315918, -0.920166015625, 0.01953125, 0.260498046875
218, 179887493, 0.39069658517837524, 3.011314868927002, -10.005420684814453, -43.400108337402344, 47.55343246459961, 46.246055603027344, -0.93798828125, 0.010498046875, 0.250244140625
219, 179904160, 4.159716606140137, 4.571744441986084, -7.429019927978516, -125.73854064941406, 69.09852600097656, 101.60071563720703, -0.966064453125, 0.0, 0.229736328125
220, 179920827, 3.9489715099334717, 4.726922988891602, -7.222919464111328, -296.6609802246094, 66.91911315917969, 168.55718994140625, -1.00537109375, -0.042724609375, 0.181640625
221, 179937494, 3.322566032409668, 4.074195861816406, -9.325981140136719, -359.39007568359375, 64.65388488769531, 177.08091735839844, -1.0458984375, -0.0947265625, 0.117919921875
222, 179954161, 2.4649605751037598, 3.529754161834717, -10.80490493774414, -338.4128723144531, 119.2823715209961, 179.59031677246094, -1.099609375, -0.13525390625, 0.03759765625
223, 179970828, 2.825413465499878, 4.239452838897705, -9.825055122375488, -313.6961364746094, 152.868896484375, 156.4415740966797, -1.155029296875, -0.16455078125, -0.039306640625
224, 179987495, 4.630164623260498, 4.9534502029418945, -8.32543659210205, -296.5341491699219, 189.1407928466797, 154.34512329101562, -1.2060546875, -0.179931640625, -0.130126953125
225, 180004162, 4.999399662017822, 4.960936546325684, -6.71698522567749, -273.8668212890625, 204.26968383789062, 130.69512939453125, -1.261474609375, -0.18505859375, -0.220703125
226, 180020829, 5.266988277435303, 5.401200294494629, -5.858132362365723, -301.70916748046875, 209.35549926757812, 107.73211669921875, -1.30126953125, -0.189697265625, -0.31591796875
227, 180037496, 6.332097053527832, 6.482987880706787, -7.682216167449951, -415.1611633300781, 263.469482421875, 98.97544860839844, -1.330810546875, -0.187255859375, -0.4404296875
228, 180054163, 7.531759262084961, 6.1998291015625, -7.3062591552734375, -487.2338562011719, 444.1717224121094, 118.6357421875, -1.35986328125, -0.16845703125, -0.621337890625
229, 180070830, 5.098507881164551, 5.9510722160339355, 2.690619468688965, -461.3242492675781, 481.48626708984375, 57.11155319213867, -1.351318359375, -0.1279296875, -0.815673828125
230, 180087497, 6.991097450256348, 5.624518394470215, 0.5240083932876587, -350.2888488769531, 250.41946411132812, 2.2416863441467285, -1.32470703125, -0.09033203125, -0.940673828125
231, 180104164, 6.294916152954102, 7.160951137542725, 2.570878267288208, -254.81851196289062, 186.77732849121094, -3.666288137435913, -1.300048828125, -0.054443359375, -1.02392578125
232, 180120831, 6.245120525360107, 7.046173095703125, 2.8306994438171387, -239.8792266845703, 134.60617065429688, -29.655841827392578, -1.2744140625, -0.021728515625, -1.089599609375
233, 180137498, 7.173029899597168, 7.280313014984131, 3.416311264038086, -276.3056640625, 114.55093383789062, -38.10837936401367, -1.248291015625, 0.013916015625, -1.148193359375
234, 180154165, 9.58758544921875, 5.0161967277526855, 3.0270416736602783, -325.20233154296875, 184.3870086669922, -26.49977684020996, -1.217041015625, 0.07177734375, -1.220703125
235, 180170832, 6.971771717071533, 6.723232269287109, 6.280241966247559, -315.9167785644531, 310.3308410644531, -21.1619815826416, -1.15283203125, 0.1259765625, -1.301513671875
236, 180187499, 5.90090799331665, 4.78188419342041, 5.607551574707031, -389.7231140136719, 330.6318359375, -36.98664474487305, -1.075439453125, 0.219482421875, -1.38330078125
237, 180204166, 3.4041147232055664, 3.8217263221740723, 7.667497158050537, -331.3393859863281, 267.9303283691406, -50.412113189697266, -0.99658203125, 0.29541015625, -1.43701171875
238, 180220833, 4.002329349517822, 6.287208080291748, 9.819129943847656, -429.5929260253906, 191.22584533691406, -89.68277740478516, -0.93994140625, 0.3935546875, -1.475341796875
239, 180237500, 2.108187675476074, 2.160006523132324, 4.798549175262451, -366.50634765625, 219.94992065429688, -84.36686706542969, -0.87939453125, 0.50341796875, -1.4990234375
240, 180254167, 2.324431896209717, 3.120208978652954, 8.559176445007324, -253.48501586914062, 114.59296417236328, -62.025657653808594, -0.838623046875, 0.572021484375, -1.50439453125
241, 180270834, 3.134253978729248, 1.8360583782196045, 8.380257606506348, -307.0660400390625, 34.32396697998047, -59.7168083190918, -0.823974609375, 0.652587890625, -1.499267578125
242, 180287501, 3.1248745918273926, -0.1392366588115692, 8.356767654418945, -249.88031005859375, 48.511512756347656, -26.060712814331055, -0.81689453125, 0.725830078125, -1.4873046875
243, 180304168, 2.26226806640625, 0.10776686668395996, 8.924186706542969, -187.16531372070312, 64.3900146484375, -22.270463943481445, -0.802734375, 0.778564453125, -1.477783203125
244, 180320835, 2.463930606842041, 0.3820541501045227, 8.93568229675293, -162.2932891845703, 67.79366302490234, -43.08096694946289, -0.78662109375, 0.8212890625, -1.468017578125
245, 180337502, 2.6377179622650146, -0.7866238951683044, 11.131487846374512, -167.4798126220703, 66.87250518798828, -51.421024322509766, -0.772216796875, 0.86083984375, -1.453369140625
246, 180354169, 2.367009162902832, -1.8008208274841309, 9.999815940856934, -246.01744079589844, 47.67891311645508, -37.819828033447266, -0.762939453125, 0.919921875, -1.427978515625
247, 180370836, 1.89832603931427, -2.88104248046875, 8.056570053100586, -182.11041259765625, 76.4432144165039, -38.577476501464844, -0.752685546875, 0.973876953125, -1.40380859375
248, 180387503, 1.761778712272644, -4.043918132781982, 8.770954132080078, -151.02857971191406, 88.91614532470703, -48.694664001464844, -0.73388671875, 1.008544921875, -1.383056640625
249, 180404170, 1.4584654569625854, -5.080463409423828, 7.0876641273498535, -119.98169708251953, 80.24571228027344, -27.5090274810791, -0.720947265625, 1.04345703125, -1.364013671875
250, 180420837, 0.9702503085136414, -5.213399887084961, 8.354860305786133, -77.07926940917969, 67.32186126708984, 9.038501739501953, -0.705810546875, 1.06005859375, -1.355224609375
251, 180437504, 0.4663834571838379, -4.069568157196045, 8.668190956115723, -107.07872772216797, 15.623581886291504, 34.52031326293945, -0.692138671875, 1.085205078125, -1.335693359375
252, 180454171, 0.8128489851951599, -3.9627668857574463, 7.913366317749023, -61.43352127075195, 7.18056583404541, 41.730228424072266, -0.682373046875, 1.102783203125, -1.322998046875
253, 180470838, 0.8675411343574524, -4.515450477600098, 8.053373336791992, 13.429272651672363, 10.594517707824707, 63.81766128540039, -0.67138671875, 1.103271484375, -1.3232421875
254, 180487505, 1.1607589721679688, -4.010037422180176, 6.997887134552002, 37.18855667114258, -0.2785441279411316, 69.10578155517578, -0.659912109375, 1.096435546875, -1.33154296875
255, 180504172, 0.21590575575828552, -2.6320292949676514, 8.700533866882324, 54.049137115478516, 22.537715911865234, 63.366214752197266, -0.6435546875, 1.08349609375, -1.340087890625
256, 180520839, 0.6497039198875427, -4.592911720275879, 10.345152854919434, 65.53231811523438, 2.427795886993408, 56.555702209472656, -0.626953125, 1.0693359375, -1.351806640625
257, 180537506, -1.097846508026123, -2.6929798126220703, 11.459752082824707, 21.017881393432617, -91.52085876464844, 67.55464172363281, -0.634765625, 1.060791015625, -1.35400390625
258, 180554173, 3.4362566471099854, -4.835229396820068, 14.739215850830078, -125.88485717773438, -72.48111724853516, 80.4078598022461, -0.642333984375, 1.078125, -1.340576171875
259, 180570840, 3.3200013637542725, -5.970309257507324, 10.413516998291016, -234.834228515625, -96.43632507324219, 164.50279235839844, -0.635009765625, 1.12890625, -1.30078125
260, 180587507, 0.4301413893699646, -0.7525926232337952, 9.378849983215332, -164.20489501953125, -49.15871810913086, 117.3615951538086, -0.62451171875, 1.16552734375, -1.272216796875
261, 180604174, 0.771865725517273, -6.751132965087891, 9.724614143371582, -243.7165069580078, -115.66637420654297, 83.3707275390625, -0.6240234375, 1.210205078125, -1.225830078125
262, 180620841, 1.1262893676757812, -2.9159364700317383, 4.826174736022949, -73.11726379394531, -76.35476684570312, 83.00814056396484, -0.62744140625, 1.236083984375, -1.201904296875
263, 180637508, -0.8809466361999512, -2.926074504852295, 9.241718292236328, 5.556330680847168, -63.41178512573242, 15.974966049194336, -0.625244140625, 1.231689453125, -1.203857421875
264, 180654175, 3.208890199661255, -3.486292600631714, 6.105098247528076, -69.09532928466797, -145.3670196533203, -34.297664642333984, -0.661865234375, 1.245361328125, -1.190673828125
265, 180670842, 2.05112886428833, -5.6923508644104, 8.588790893554688, -9.896677017211914, -33.9708366394043, -8.173715591430664, -0.671630859375, 1.245849609375, -1.188232421875
266, 180687509, 0.2410276234149933, -4.712267875671387, 11.677813529968262, -184.49754333496094, -116.97581481933594, -61.73968505859375, -0.697265625, 1.27001953125, -1.1533203125
267, 180704176, 3.7456610202789307, -5.86844539642334, 7.203719139099121, -291.09173583984375, -169.30233764648438, -80.56532287597656, -0.742431640625, 1.316650390625, -1.08837890625
268, 180720843, 3.3416357040405273, -6.470808982849121, 5.135690212249756, -296.23333740234375, -119.77108764648438, -52.32432174682617, -0.778564453125, 1.359619140625, -1.010009765625
269, 180737510, 2.6641769409179688, -5.995404243469238, 6.495075225830078, -224.75714111328125, -202.59213256835938, -43.05119323730469, -0.80810546875, 1.388916015625, -0.94287109375
270, 180754177, 3.3753864765167236, -6.408510208129883, 7.859198093414307, -240.7560272216797, -248.45384216308594, -76.37689971923828, -0.8544921875, 1.408203125, -0.8701171875
271, 180770844, 3.271625518798828, -6.83627462387085, 5.79384708404541, -271.60577392578125, -307.9756164550781, -94.9504623413086, -0.900146484375, 1.423583984375, -0.776611328125
272, 180787511, 2.968350887298584, -6.006198883056641, 4.87717342376709, -282.99395751953125, -396.8710021972656, -150.4855499267578, -0.9541015625, 1.4287109375, -0.674072265625
273, 180804178, 2.5161678791046143, -6.093797206878662, 2.7083487510681152, -327.0860595703125, -432.0803527832031, -226.56900024414062, -1.019287109375, 1.415283203125, -0.5458984375
274, 180820845, 4.883310794830322, -7.532032489776611, -0.445140540599823, -328.96197509765625, -433.8604431152344, -279.4949645996094, -1.08251953125, 1.379638671875, -0.404052734375
275, 180837512, 6.911093711853027, -7.544203758239746, -3.2083027362823486, -269.1107177734375, -418.87451171875, -283.91229248046875, -1.12744140625, 1.3212890625, -0.279296875
276, 180854179, 6.387204647064209, -6.4393463134765625, -3.233289957046509, -216.90476989746094, -410.1248474121094, -284.7687072753906, -1.154296875, 1.26416015625, -0.169677734375
277, 180870846, 7.269922256469727, -4.438777446746826, -4.615126132965088, -251.23435974121094, -401.3511962890625, -271.9278564453125, -1.16552734375, 1.191162109375, -0.056640625
278, 180887513, 7.46510648727417, -0.20362183451652527, -4.334791660308838, -477.7728271484375, -388.4396667480469, -108.34127807617188, -1.13720703125, 1.106689453125, 0.071044921875
279, 180904180, 3.5731842517852783, -5.2973127365112305, -10.897193908691406, -404.89959716796875, -472.2498779296875, -46.12200927734375, -1.051513671875, 1.001220703125, 0.206787109375
280, 180920847, 5.305659770965576, -1.919159173965454, -8.592557907104492, -146.7751007080078, -404.3679504394531, -74.00112915039062, -0.96142578125, 0.956298828125, 0.273193359375
281, 180937514, 4.154789447784424, -1.4505733251571655, -9.25769329071045, -160.3310089111328, -339.2323913574219, -65.25709533691406, -0.88427734375, 0.911376953125, 0.320556640625
282, 180954181, 3.1054859161376953, -1.150387167930603, -9.666548728942871, -127.58496856689453, -367.9123229980469, -55.99806213378906, -0.79736328125, 0.87353515625, 0.353759765625
283, 180970848, 2.300354480743408, -0.4085812270641327, -9.346976280212402, -96.52742004394531, -372.8797302246094, -28.027908325195312, -0.704833984375, 0.843994140625, 0.377685546875
284, 180987515, 0.8430774211883545, 0.27416664361953735, -10.423449516296387, -76.79048156738281, -339.5034484863281, -7.764017105102539, -0.607421875, 0.82421875, 0.383544921875
285, 181004182, 1.0579867362976074, 0.23508907854557037, -10.602807998657227, -91.17535400390625, -220.84915161132812, -7.369554042816162, -0.53955078125, 0.800537109375, 0.384765625
286, 181020849, 0.31541216373443604, -0.1778537482023239, -9.15588092803955, -123.38050842285156, -156.15895080566406, -13.099991798400879, -0.494873046875, 0.769287109375, 0.38720703125
287, 181037516, -0.1550368070602417, -0.0763799250125885, -9.794622421264648, -89.10255432128906, -148.6798095703125, -4.8722052574157715, -0.453369140625, 0.7431640625, 0.385009765625
288, 181054183, 0.1425532102584839, -0.3330167531967163, -10.64184284210205, -44.84571838378906, -108.99158477783203, 9.65931224822998, -0.42041015625, 0.726806640625, 0.379638671875
289, 181070850, -0.16976282000541687, -1.0576930046081543, -10.72143268585205, -43.76228713989258, -74.188232421875, -5.18187952041626, -0.396728515625, 0.716552734375, 0.378662109375
290, 181087517, 0.6389999985694885, -2.505465269088745, -11.10244083404541, -101.14689636230469, 63.89955520629883, -171.00680541992188, -0.410400390625, 0.70166015625, 0.387451171875
291, 181104184, -0.14148187637329102, 0.3250409960746765, -9.481431007385254, -113.04438781738281, 33.70170593261719, -225.7376708984375, -0.435546875, 0.68408203125, 0.396484375
292, 181120851, -0.2752293348312378, -0.03863396495580673, -10.355118751525879, -71.60064697265625, 27.67450523376465, -249.9868621826172, -0.455810546875, 0.67431640625, 0.4033203125
293, 181137518, 0.4265872538089752, 0.9868414402008057, -9.577651977539062, -9.8412504196167, -11.333499908447266, -197.7516326904297, -0.4697265625, 0.67919921875, 0.403076171875
294, 181154185, 0.6990543603897095, 1.3290345668792725, -9.619401931762695, 26.186458587646484, -58.26298141479492, -106.32860565185547, -0.46337890625, 0.6923828125, 0.399169921875
295, 181170852, 0.6046785116195679, 0.5788587331771851, -10.22209644317627, 72.09197998046875, -72.43867492675781, -23.632408142089844, -0.443359375, 0.70849609375, 0.392333984375
296, 181187519, 0.5442367196083069, -0.17397835850715637, -10.36009407043457, 113.97745513916016, -55.95446014404297, 15.500231742858887, -0.427001953125, 0.73779296875, 0.382568359375
297, 181204186, -0.5215952396392822, -0.0846560150384903, -9.411012649536133, 121.47864532470703, -64.41120147705078, 22.246540069580078, -0.411865234375, 0.76806640625, 0.368896484375
298, 181220853, -0.8895319700241089, 0.2880871295928955, -10.703109741210938, 110.6416244506836, -65.05697631835938, 25.149234771728516, -0.39306640625, 0.79736328125, 0.35546875
299, 181237520, -1.167919635772705, -0.3597683608531952, -9.596573829650879, 94.65991973876953, -74.62496185302734, 42.13203811645508, -0.37060546875, 0.818115234375, 0.33935546875
300, 181254187, -2.393019914627075, -1.4983713626861572, -9.497750282287598, 127.3044662475586, -78.4300765991211, 37.89143753051758, -0.34814453125, 0.84765625, 0.32275390625
301, 181270854, -3.024174928665161, -1.5509133338928223, -8.926907539367676, 204.42796325683594, -94.06378173828125, 68.97080993652344, -0.319580078125, 0.88720703125, 0.292724609375
302, 181287521, -3.1794519424438477, -1.7327224016189575, -9.096184730529785, 264.01470947265625, -107.40312194824219, 112.2962417602539, -0.282470703125, 0.937255859375, 0.251708984375
303, 181304188, -2.7490100860595703, -2.273739814758301, -9.560436248779297, 224.50439453125, -83.27478790283203, 99.04932403564453, -0.24755859375, 0.9814453125, 0.21044921875
304, 181320855, -2.306422710418701, -2.1600303649902344, -9.63521957397461, 145.98779296875, -36.57681655883789, 82.5606689453125, -0.22412109375, 1.00439453125, 0.18212890625
305, 181337522, -2.482358694076538, -3.3032870292663574, -8.676264762878418, 96.83013153076172, -39.312435150146484, 84.32804870605469, -0.205810546875, 1.0166015625, 0.162109375
306, 181354189, -2.652963161468506, -3.4098968505859375, -8.560110092163086, 77.8004150390625, -43.40420150756836, 74.52021789550781, -0.1845703125, 1.02099609375, 0.142333984375
307, 181370856, -2.99743914604187, -3.488377571105957, -8.300485610961914, 89.48399353027344, -23.05746841430664, 67.96183013916016, -0.1708984375, 1.03076171875, 0.128662109375
308, 181387523, -3.372177839279175, -3.364537000656128, -8.228384971618652, 99.5909194946289, -7.874332427978516, 62.663818359375, -0.15625, 1.04248046875, 0.10986328125
309, 181404190, -3.412869691848755, -3.474762439727783, -7.870742321014404, 95.58683776855469, -5.865655422210693, 67.11653900146484, -0.146484375, 1.05078125, 0.093994140625
310, 181420857, -2.3142197132110596, -4.222860336303711, -8.20654010772705, 99.3282241821289, -38.56511306762695, 112.110595703125, -0.125732421875, 1.054931640625, 0.073974609375
311, 181437524, -2.999950647354126, -5.370889186859131, -7.676177501678467, 102.37017822265625, -38.16887664794922, 139.14813232421875, -0.094970703125, 1.048828125, 0.051025390625
312, 181454191, -4.144393444061279, -4.28928279876709, -8.246710777282715, 133.3521728515625, -23.643156051635742, 104.67459106445312, -0.071533203125, 1.0517578125, 0.027099609375
313, 181470858, -3.9944348335266113, -4.621211051940918, -8.764100074768066, 145.80267333984375, -9.485735893249512, 87.39927673339844, -0.055908203125, 1.06005859375, 2.44140625E-4
314, 181487525, -4.1306962966918945, -4.606383800506592, -8.417787551879883, 132.3635711669922, 3.32413387298584, 78.56802368164062, -0.041748046875, 1.06884765625, -0.0234375
315, 181504192, -4.035585880279541, -4.581582069396973, -8.369867324829102, 105.816650390625, 4.745601177215576, 96.38200378417969, -0.02783203125, 1.067626953125, -0.037841796875
316, 181520859, -3.726165771484375, -4.489882469177246, -8.662615776062012, 92.43297576904297, -6.863362789154053, 89.53655242919922, -0.013916015625, 1.063720703125, -0.055419921875
317, 181537526, -3.5947623252868652, -4.688614368438721, -9.024308204650879, 99.62552642822266, 17.617998123168945, 77.78632354736328, -0.00244140625, 1.0634765625, -0.067626953125
318, 181554193, -3.8804235458374023, -5.301611423492432, -8.485669136047363, 169.06373596191406, -13.766188621520996, 7.537167549133301, 0.005126953125, 1.076171875, -0.091552734375
319, 181570860, -4.647578716278076, -5.717824935913086, -7.011402130126953, 243.09957885742188, -52.811859130859375, -83.04399871826172, -4.8828125E-4, 1.116455078125, -0.138427734375
320, 181587527, -4.540304183959961, -7.230447292327881, -7.839580059051514, 424.8270568847656, -113.31489562988281, -9.655834197998047, -0.001220703125, 1.163330078125, -0.227294921875
321, 181604194, -2.6056199073791504, -7.0742669105529785, -6.0329484939575195, 560.6437377929688, -212.2049102783203, 96.57159423828125, 0.02783203125, 1.189453125, -0.368896484375
322, 181620861, -4.205172061920166, -7.127936363220215, -2.885359764099121, 574.464599609375, -267.1510009765625, 177.75486755371094, 0.06591796875, 1.173095703125, -0.53955078125
323, 181637528, -5.080530643463135, -6.573915481567383, -1.7289884090423584, 529.6978149414062, -215.5349884033203, 217.1621551513672, 0.102783203125, 1.1181640625, -0.688232421875
324, 181654195, -4.6872148513793945, -6.444184303283691, -0.8976137042045593, 497.3412170410156, -191.23110961914062, 206.2629852294922, 0.125244140625, 1.03955078125, -0.8173828125
325, 181670862, -6.00236701965332, -6.2223801612854, 0.7637798190116882, 449.74005126953125, -158.1881866455078, 202.2490692138672, 0.138916015625, 0.947509765625, -0.91943359375
326, 181687529, -8.278404235839844, -6.805487155914307, 1.8488779067993164, 431.68670654296875, -79.86611938476562, 180.1600799560547, 0.150390625, 0.851806640625, -0.991943359375
327, 181704196, -9.785054206848145, -5.6902265548706055, 6.072369575500488, 359.9690246582031, -11.447065353393555, 116.6457290649414, 0.158447265625, 0.767578125, -1.031982421875
328, 181720863, -8.988999366760254, -6.033633232116699, 6.490414619445801, 221.23321533203125, 9.70230770111084, 89.72001647949219, 0.166259765625, 0.7080078125, -1.044189453125
329, 181737530, -8.931588172912598, -3.2901458740234375, 4.694765567779541, 163.31614685058594, 27.576669692993164, 109.81779479980469, 0.17431640625, 0.661376953125, -1.049072265625
330, 181754197, -8.23130989074707, -5.632497310638428, 4.089823246002197, 173.70242309570312, 8.090058326721191, 62.29625701904297, 0.177490234375, 0.617431640625, -1.0537109375
331, 181770864, -7.519240856170654, -4.270848751068115, 3.569705009460449, 200.8250732421875, 10.279459953308105, 91.46868896484375, 0.18359375, 0.565673828125, -1.053955078125
332, 181787531, -7.354076862335205, -3.7603697776794434, 3.55004620552063, 195.3907470703125, 16.19013214111328, 89.09281158447266, 0.189208984375, 0.5166015625, -1.05419921875
333, 181804198, -7.582274436950684, -2.8920319080352783, 3.616913080215454, 201.99600219726562, 31.025590896606445, 104.77696990966797, 0.18994140625, 0.4609375, -1.043701171875
334, 181820865, -8.063979148864746, -1.3467862606048584, 3.8966116905212402, 217.32933044433594, 51.71795654296875, 139.6068115234375, 0.19482421875, 0.398193359375, -1.02734375
335, 181837532, -8.536516189575195, 0.053177788853645325, 3.9503135681152344, 215.13540649414062, 75.3767318725586, 170.4021453857422, 0.196533203125, 0.327392578125, -0.9990234375
336, 181854199, -8.226102828979492, 1.0811352729797363, 3.5974013805389404, 197.19271850585938, 100.93070220947266, 191.15428161621094, 0.197509765625, 0.2568359375, -0.962890625
337, 181870866, -8.374505043029785, 2.3443496227264404, 3.2130179405212402, 162.3691864013672, 125.5228271484375, 206.7798614501953, 0.196533203125, 0.18701171875, -0.917724609375
338, 181887533, -8.23650074005127, 3.969621419906616, 3.997030258178711, 230.80496215820312, 105.30091094970703, 284.5771484375, 0.18115234375, 0.09814453125, -0.867919921875
339, 181904200, -9.765398025512695, 2.6679186820983887, 2.946584701538086, 210.83688354492188, 134.7061309814453, 307.35223388671875, 0.151611328125, 0.0068359375, -0.80712890625
340, 181920867, -8.381904602050781, 5.03773307800293, 1.9305918216705322, 194.29067993164062, 73.4842758178711, 205.12669372558594, 0.1220703125, -0.0625, -0.753662109375
341, 181937534, -7.7433648109436035, 4.682194709777832, 2.116429328918457, 164.9776153564453, 65.80073547363281, 164.66427612304688, 0.096435546875, -0.107177734375, -0.7109375
342, 181954201, -7.585376262664795, 4.938075065612793, 2.166386604309082, 143.2255859375, 52.83493423461914, 159.39999389648438, 0.065673828125, -0.149169921875, -0.67138671875
343, 181970868, -8.057849884033203, 5.94446325302124, 1.4042115211486816, 148.80589294433594, 53.98677062988281, 172.64358520507812, 0.03564453125, -0.187744140625, -0.62939453125
344, 181987535, -8.362528800964355, 7.372506141662598, 1.4784214496612549, 162.64292907714844, 78.12051391601562, 190.37387084960938, -0.001953125, -0.22900390625, -0.58154296875
345, 182004202, -7.998290538787842, 6.312028408050537, 0.3269461989402771, 141.77503967285156, 137.5132598876953, 217.61575317382812, -0.047607421875, -0.264892578125, -0.52685546875
346, 182020869, -8.31796932220459, 6.625731468200684, 0.13936367630958557, 147.04026794433594, 154.9979705810547, 235.22958374023438, -0.10205078125, -0.3037109375, -0.465576171875
347, 182037536, -7.733525276184082, 6.88618278503418, -1.0715556144714355, 172.34336853027344, 153.05130004882812, 237.81275939941406, -0.1650390625, -0.332763671875, -0.4033203125
348, 182054203, -7.293299674987793, 7.190518856048584, -1.810388445854187, 174.81442260742188, 184.02980041503906, 231.75399780273438, -0.2314453125, -0.355224609375, -0.33544921875
349, 182070870, -6.740413665771484, 7.305912494659424, -2.2531518936157227, 145.0312957763672, 222.59107971191406, 211.42977905273438, -0.30224609375, -0.370849609375, -0.272705078125
350, 182087537, -6.146092891693115, 7.2871270179748535, -3.3782811164855957, 137.3744659423828, 250.68124389648438, 193.95706176757812, -0.37353515625, -0.376220703125, -0.216064453125
351, 182104204, -7.015900611877441, 3.7895848751068115, -3.9211344718933105, 251.72174072265625, 207.82867431640625, 162.52194213867188, -0.4453125, -0.369140625, -0.150390625
352, 182120871, -5.549566268920898, 6.957726001739502, -5.050096035003662, 387.1365661621094, 131.439208984375, 144.87535095214844, -0.496826171875, -0.32275390625, -0.041015625
353, 182137538, -5.032339096069336, 8.267803192138672, -5.009395599365234, 292.64971923828125, 216.3658905029297, 105.6637191772461, -0.5595703125, -0.277099609375, 0.03759765625
354, 182154205, -4.75338077545166, 8.061753273010254, -6.062526226043701, 266.750244140625, 177.7138214111328, 52.557029724121094, -0.610107421875, -0.230712890625, 0.099853515625
355, 182170872, -3.5077216625213623, 7.321910381317139, -5.785795211791992, 252.1648712158203, 132.62106323242188, 13.267553329467773, -0.6435546875, -0.1806640625, 0.1572265625
356, 182187539, -2.4008708000183105, 6.193442344665527, -6.568170547485352, 190.25636291503906, 125.56234741210938, -9.194710731506348, -0.668212890625, -0.137939453125, 0.194580078125
357, 182204206, -2.019853115081787, 5.774513244628906, -7.733071804046631, 193.98631286621094, 124.32276153564453, -26.690549850463867, -0.695068359375, -0.097412109375, 0.22900390625
358, 182220873, -2.22887921333313, 5.042447566986084, -8.608506202697754, 208.50909423828125, 115.32689666748047, -22.190547943115234, -0.715576171875, -0.049560546875, 0.259521484375
359, 182237540, -3.8796474933624268, 5.533738136291504, -11.023724555969238, 346.60467529296875, 171.39683532714844, -12.735218048095703, -0.748291015625, 0.0205078125, 0.3037109375
360, 182254207, -5.896408557891846, 6.989514350891113, -12.102725982666016, 519.0821533203125, 396.4578857421875, -123.75425720214844, -0.81982421875, 0.136962890625, 0.349853515625
361, 182270874, 2.689974069595337, 2.0708882808685303, -2.804598093032837, 537.7717895507812, 320.80718994140625, -145.81814575195312, -0.916015625, 0.284423828125, 0.371337890625
362, 182287541, 0.05192440748214722, 1.3038197755813599, -8.625126838684082, 244.76800537109375, 143.829345703125, -65.96710968017578, -0.955322265625, 0.35400390625, 0.375244140625
363, 182304208, 1.4397599697113037, 0.6310576796531677, -7.109414100646973, 178.2044219970703, 120.19269561767578, 32.37001419067383, -0.984375, 0.406494140625, 0.36865234375
364, 182320875, 1.2113393545150757, 0.3375905752182007, -8.484370231628418, 61.10470199584961, 142.80438232421875, 30.275554656982422, -1.02587890625, 0.43408203125, 0.36083984375
365, 182337542, 1.044697880744934, -0.6732035875320435, -11.949854850769043, 56.44871139526367, 129.758056640625, -10.259662628173828, -1.059326171875, 0.447021484375, 0.34375
366, 182354209, 1.0781792402267456, -0.9510701298713684, -11.479015350341797, 74.77784729003906, 192.8621063232422, -26.03807830810547, -1.101806640625, 0.4638671875, 0.32373046875
367, 182370876, 2.628486394882202, -0.8283659815788269, -8.140795707702637, 47.965328216552734, 206.04257202148438, -36.28202819824219, -1.15576171875, 0.470703125, 0.2939453125
368, 182387543, 1.4216032028198242, 0.37834492325782776, -9.89503288269043, 68.27862548828125, 113.39688110351562, -23.42384147644043, -1.191162109375, 0.482666015625, 0.274658203125
369, 182404210, 3.295213460922241, -0.6435824632644653, -9.394814491271973, 29.78209686279297, 65.15283966064453, -23.11437225341797, -1.20654296875, 0.4873046875, 0.26171875
370, 182420877, 3.4110825061798096, -1.3869755268096924, -9.709946632385254, 44.864009857177734, 65.9706802368164, -34.67624282836914, -1.2236328125, 0.494140625, 0.24951171875
371, 182437544, 3.9549083709716797, -0.7662515044212341, -10.677082061767578, 45.51956558227539, 84.57354736328125, -41.57965850830078, -1.2412109375, 0.498046875, 0.236572265625
372, 182454211, 4.081513404846191, -0.983442485332489, -9.730466842651367, 2.3226301670074463, 119.77985382080078, -53.9510498046875, -1.265380859375, 0.4921875, 0.21728515625
373, 182470878, 5.16413688659668, 0.12039025872945786, -8.858552932739258, -12.165264129638672, 131.1602325439453, -49.09904479980469, -1.294189453125, 0.48193359375, 0.1943359375
374, 182487545, 5.819937229156494, -0.005289090797305107, -7.9307780265808105, -19.27077293395996, 126.65016174316406, -42.50021743774414, -1.31982421875, 0.468994140625, 0.1708984375
375, 182504212, 4.669253349304199, -0.7594535946846008, -8.537496566772461, -24.47509765625, 133.97659301757812, -38.4544677734375, -1.348388671875, 0.454345703125, 0.141845703125
376, 182520879, 6.104964733123779, -0.8774508833885193, -7.361392021179199, 17.391542434692383, 112.68124389648438, -42.6155891418457, -1.371337890625, 0.447265625, 0.116455078125
377, 182537546, 1.7450132369995117, -1.1543306112289429, -6.2043938636779785, -12.763801574707031, 27.670772552490234, -59.22737121582031, -1.37841796875, 0.436767578125, 0.10888671875
378, 182554213, 8.228180885314941, -0.4907645285129547, -9.490678787231445, 8.66723918914795, 113.44440460205078, -40.79314041137695, -1.395751953125, 0.4248046875, 0.088623046875
379, 182570880, 7.007965564727783, -1.0642203092575073, -8.014324188232422, 8.373574256896973, 127.3561019897461, -42.167930603027344, -1.41796875, 0.4169921875, 0.05810546875
380, 182587547, 7.795219421386719, -2.3943731784820557, -11.1112642288208, 110.69694519042969, 134.4517822265625, 2.3397974967956543, -1.4384765625, 0.423828125, 0.03369140625
381, 182604214, 7.445554733276367, 0.3802049160003662, -8.997161865234375, 202.6039581298828, 225.9140167236328, 126.26056671142578, -1.4716796875, 0.484130859375, -0.011962890625
382, 182620881, 6.37012243270874, -0.46850162744522095, -6.014801979064941, 121.82756042480469, 290.4951477050781, 128.247802734375, -1.512451171875, 0.536865234375, -0.08447265625
383, 182637548, 6.206409931182861, -0.8573858737945557, -4.719091892242432, 46.69059371948242, 260.5094299316406, 76.65028381347656, -1.54736328125, 0.568359375, -0.152587890625
384, 182654215, 6.995153427124023, -1.2086199522018433, -5.298058032989502, -10.7167387008667, 239.3631591796875, 39.95735168457031, -1.571044921875, 0.58349609375, -0.216552734375
385, 182670882, 8.280999183654785, -1.3635612726211548, -4.980386734008789, -1.576555609703064, 213.9703826904297, -32.520721435546875, -1.5927734375, 0.578857421875, -0.2783203125
386, 182687549, 7.734468936920166, -1.3774027824401855, -5.373841762542725, 22.758750915527344, 197.936767578125, -58.84484100341797, -1.607666015625, 0.5625, -0.336181640625
387, 182704216, 6.267160415649414, -0.051325470209121704, -5.218986988067627, 105.33507537841797, 159.65811157226562, -112.94354248046875, -1.618408203125, 0.539794921875, -0.384765625
388, 182720883, 9.425893783569336, -4.367648124694824, -2.173121929168701, 100.09892272949219, 78.67259216308594, -127.43003845214844, -1.623046875, 0.510498046875, -0.41259765625
389, 182737550, 9.344367027282715, -2.48010516166687, -3.5767505168914795, 45.834285736083984, 32.970237731933594, -111.71122741699219, -1.62353515625, 0.478271484375, -0.427734375
390, 182754217, 8.699238777160645, -1.0455094575881958, -4.2432146072387695, 81.26567840576172, 24.15363883972168, -85.29573059082031, -1.623779296875, 0.455810546875, -0.43017578125
391, 182770884, 9.181108474731445, -0.7511410713195801, -4.261298656463623, 134.93206787109375, 55.493560791015625, -65.84059143066406, -1.62353515625, 0.43798828125, -0.4404296875
392, 182787551, 9.279881477355957, -0.6370384693145752, -4.194875240325928, 107.68891143798828, 94.77648162841797, -27.82331085205078, -1.62646484375, 0.43310546875, -0.463623046875
393, 182804218, 9.667728424072266, -0.9173152446746826, -3.940948724746704, 78.06610870361328, 93.76654815673828, -46.656044006347656, -1.62744140625, 0.422607421875, -0.489990234375
394, 182820885, 10.075420379638672, -1.158550500869751, -3.2498135566711426, 52.07832336425781, 124.5438461303711, -28.32609748840332, -1.625732421875, 0.413818359375, -0.51953125
395, 182837552, 9.665166854858398, -0.6987373232841492, -3.801065683364868, 28.055919647216797, 166.8541717529297, -4.709075450897217, -1.62646484375, 0.41162109375, -0.56494140625
396, 182854219, 9.109341621398926, -0.41610532999038696, -4.342194080352783, 22.76229476928711, 181.89187622070312, 20.164152145385742, -1.62548828125, 0.41455078125, -0.616943359375
397, 182870886, 7.435565948486328, 2.461771249771118, -7.86464262008667, 293.6559753417969, 215.48486328125, 37.99089050292969, -1.621826171875, 0.42041015625, -0.66845703125
398, 182887553, 7.659620761871338, 0.3405066132545471, 3.980858087539673, 539.8247680664062, 129.5094757080078, -196.9562530517578, -1.612548828125, 0.35986328125, -0.69189453125
399, 182904220, 9.237090110778809, -1.1672250032424927, -1.1786155700683594, 398.0555114746094, 222.41563415527344, -149.8203582763672, -1.59130859375, 0.291748046875, -0.7294921875
400, 182920887, 10.527298927307129, -0.5082250833511353, 5.224733829498291, 274.895751953125, 200.3586883544922, -77.18910217285156, -1.572509765625, 0.24755859375, -0.766357421875
401, 182937554, 11.435386657714844, -1.1411815881729126, 3.844038724899292, 81.3912582397461, 176.596435546875, -29.127479553222656, -1.555419921875, 0.231201171875, -0.802490234375
402, 182954221, 10.390594482421875, -0.10321463644504547, 1.973141074180603, 40.65813446044922, 223.60037231445312, 9.384880065917969, -1.5419921875, 0.226318359375, -0.856689453125
403, 182970888, 9.906908988952637, 0.477938175201416, -0.4899548888206482, 88.9097671508789, 296.56866455078125, -11.156952857971191, -1.513671875, 0.219970703125, -0.919189453125
404, 182987555, 9.022845268249512, 1.9227221012115479, 0.07553085684776306, 194.23788452148438, 402.273193359375, -73.15287780761719, -1.4638671875, 0.187744140625, -0.99560546875
405, 183004222, 7.749549865722656, 2.177039861679077, 4.420752048492432, 287.8818664550781, 519.112060546875, -156.28245544433594, -1.380126953125, 0.11767578125, -1.078369140625
406, 183020889, 8.394817352294922, 1.761783242225647, 6.083589553833008, 261.95513916015625, 531.5416259765625, -168.54417419433594, -1.27001953125, 0.038330078125, -1.148681640625
407, 183037556, 5.928689002990723, 1.646642804145813, 6.315640449523926, 127.97563171386719, 470.5409851074219, -148.22271728515625, -1.156005859375, -0.015625, -1.207763671875
408, 183054223, 3.9650845527648926, 2.1646156311035156, 6.524135589599609, 34.24705123901367, 362.30401611328125, -120.53604125976562, -1.056884765625, -0.043701171875, -1.249267578125
409, 183070890, 6.639970302581787, 3.268916130065918, 15.472044944763184, -295.60302734375, 235.46481323242188, -49.70423889160156, -0.987548828125, -0.01318359375, -1.3076171875
410, 183087557, 4.749938488006592, 2.373596668243408, 8.96939468383789, -249.83554077148438, 216.13758850097656, 34.156349182128906, -0.943115234375, 0.061767578125, -1.37255859375
411, 183104224, 2.82332706451416, 3.2904462814331055, 10.9422607421875, -132.227294921875, 258.31610107421875, -3.382188081741333, -0.884521484375, 0.10009765625, -1.408935546875
412, 183120891, 1.246555209159851, 1.4981663227081299, 9.399524688720703, -85.13136291503906, 273.52642822265625, -54.5077018737793, -0.80859375, 0.123046875, -1.435546875
413, 183137558, 0.1560213267803192, 0.7870983481407166, 8.711382865905762, -20.392908096313477, 248.960693359375, -83.18436431884766, -0.734619140625, 0.129638671875, -1.44677734375
414, 183154225, 0.9357839226722717, -0.8031956553459167, 8.254976272583008, 15.501703262329102, 207.14578247070312, -65.40082550048828, -0.66650390625, 0.127685546875, -1.449951171875
415, 183170892, 0.49334821105003357, -1.1206716299057007, 7.62214994430542, 48.577579498291016, 164.4085235595703, 25.154809951782227, -0.6181640625, 0.115966796875, -1.443115234375
416, 183187559, -5.200979709625244, 1.3339101076126099, 5.577913284301758, 196.9097137451172, 111.49539184570312, 31.00620460510254, -0.59130859375, 0.078369140625, -1.427978515625
417, 183204226, -3.6507792472839355, 2.8113837242126465, 11.185991287231445, 232.3146514892578, 64.2568588256836, -105.10626220703125, -0.561767578125, 0.01904296875, -1.38818359375
418, 183220893, 0.5617305636405945, 1.9172818660736084, 12.876578330993652, 92.33692932128906, 77.81175994873047, -100.19697570800781, -0.529296875, -0.012451171875, -1.365478515625
419, 183237560, -1.082214117050171, 2.850862979888916, 8.539652824401855, 27.441492080688477, 81.1704330444336, -77.55931854248047, -0.49609375, -0.015625, -1.362060546875
420, 183254227, -1.2939292192459106, 3.0961291790008545, 6.811253070831299, 75.40747833251953, 47.16036605834961, -101.96363830566406, -0.4658203125, -0.021484375, -1.347900390625
421, 183270894, 0.06401620805263519, 3.225205659866333, 9.232979774475098, 77.42377471923828, 32.86838150024414, -106.25538635253906, -0.442138671875, -0.035400390625, -1.33349609375
422, 183287561, 0.12009267508983612, 2.6734933853149414, 8.780489921569824, 87.17186737060547, 6.937330722808838, -69.26155090332031, -0.426513671875, -0.051513671875, -1.318115234375
423, 183304228, -0.2279234379529953, 2.8299763202667236, 9.066228866577148, 52.697566986083984, -10.608201026916504, -33.62621307373047, -0.419921875, -0.06201171875, -1.31201171875
424, 183320895, -0.5322518944740295, 3.626582622528076, 8.50073528289795, 42.028465270996094, -16.802473068237305, -20.260114669799805, -0.419677734375, -0.069580078125, -1.302978515625
425, 183337562, -0.7173210382461548, 4.113417148590088, 7.741340160369873, 65.919921875, -7.8848676681518555, -24.16275405883789, -0.41748046875, -0.081298828125, -1.294189453125
426, 183354229, 0.2962026298046112, 4.104160308837891, 10.419449806213379, 45.144920349121094, -7.0523905754089355, -38.26203536987305, -0.413818359375, -0.0927734375, -1.28369140625
427, 183370896, -0.10287221521139145, 4.903188228607178, 10.413535118103027, 30.43182945251465, 35.51137161254883, -31.195655822753906, -0.404052734375, -0.09619140625, -1.279052734375
428, 183387563, -0.6573032736778259, 3.9526307582855225, 8.500950813293457, 41.86747741699219, 44.94905471801758, -55.541725158691406, -0.382080078125, -0.10009765625, -1.2685546875
429, 183404230, -1.0955467224121094, 4.057156562805176, 8.953118324279785, 51.484657287597656, 37.80718231201172, -36.497947692871094, -0.368896484375, -0.106201171875, -1.25439453125
430, 183420897, -1.9050320386886597, 5.1684722900390625, 9.355786323547363, 68.47057342529297, 34.830955505371094, -37.00668716430664, -0.35693359375, -0.1181640625, -1.239501953125
431, 183437564, -3.648960828781128, 6.5177130699157715, 9.81619930267334, 116.6964340209961, 68.17239379882812, -114.10192108154297, -0.326416015625, -0.129638671875, -1.216064453125
432, 183454231, 0.01618138700723648, 3.5491726398468018, 9.90427303314209, 61.03189468383789, 73.50847625732422, -81.01528930664062, -0.28955078125, -0.1357421875, -1.193359375
433, 183470898, -0.6494361162185669, 3.6504464149475098, 6.610836982727051, -12.623621940612793, -60.01598358154297, 26.0925235748291, -0.29736328125, -0.13525390625, -1.195556640625
434, 183487565, -2.4687917232513428, 5.3481621742248535, 8.800870895385742, 1.0912046432495117, -41.815330505371094, 15.238667488098145, -0.310791015625, -0.13671875, -1.20166015625
435, 183504232, -2.2543692588806152, 4.8744096755981445, 8.688812255859375, 9.30322551727295, -10.91940689086914, -4.650911808013916, -0.314697265625, -0.138671875, -1.19970703125
436, 183520899, -2.0954396724700928, 4.595797538757324, 7.758399486541748, 10.794950485229492, -3.7849843502044678, -12.49198055267334, -0.313232421875, -0.140380859375, -1.19970703125
437, 183537566, -1.5771065950393677, 4.220614910125732, 8.32971477508545, 12.441496849060059, -3.654118061065674, -16.614803314208984, -0.314697265625, -0.141845703125, -1.19775390625
438, 183554233, -1.6037530899047852, 4.497466564178467, 7.729061126708984, -6.542703151702881, 1.7692335844039917, -25.536460876464844, -0.308837890625, -0.138671875, -1.19873046875
439, 183570900, -2.5226848125457764, 4.490596771240234, 7.313510417938232, 16.83062171936035, 8.551837921142578, -70.65198516845703, -0.296142578125, -0.133056640625, -1.197509765625
440, 183587567, -2.187506914138794, 4.8184051513671875, 7.0121235847473145, 49.24516296386719, 10.465279579162598, -66.64362335205078, -0.279052734375, -0.136474609375, -1.18701171875
441, 183604234, -1.108762264251709, 3.998497486114502, 7.193370819091797, 91.41613006591797, -3.1682262420654297, -27.407108306884766, -0.271484375, -0.144775390625, -1.174072265625
442, 183620901, -1.2835495471954346, 4.417068004608154, 8.389472007751465, 157.2755584716797, -38.080162048339844, 21.94914436340332, -0.279052734375, -0.171875, -1.1455078125
443, 183637568, -1.43185555934906, 6.253799915313721, 9.227632522583008, 134.32911682128906, -29.90716552734375, 33.289276123046875, -0.29296875, -0.19970703125, -1.121826171875
444, 183654235, -1.5363801717758179, 6.146995544433594, 8.525403022766113, 106.5975341796875, 2.4005520343780518, 13.656652450561523, -0.297119140625, -0.220458984375, -1.097900390625
445, 183670902, -0.6464329957962036, 5.157745838165283, 7.688733100891113, 122.85588073730469, 19.496946334838867, 6.787909507751465, -0.29736328125, -0.23876953125, -1.07177734375
446, 183687569, -0.7702972292900085, 4.903439521789551, 6.5586466789245605, 182.94287109375, 7.078033447265625, 13.266489028930664, -0.29736328125, -0.26611328125, -1.0341796875
447, 183704236, -0.2780539095401764, 6.675469398498535, 6.804745674133301, 253.32830810546875, 6.696981906890869, 15.42646598815918, -0.299560546875, -0.300537109375, -0.97607421875
448, 183720903, -1.453848123550415, 7.794327259063721, 7.407878398895264, 267.4605712890625, 29.85548210144043, -2.8206655979156494, -0.300048828125, -0.331298828125, -0.90771484375
449, 183737570, -2.1996049880981445, 8.237542152404785, 7.121484756469727, 245.14125061035156, 62.580387115478516, -62.32661819458008, -0.28173828125, -0.35107421875, -0.84033203125
450, 183754237, -2.6883249282836914, 7.951192855834961, 5.824759006500244, 231.21690368652344, 89.29533386230469, -94.79571533203125, -0.253662109375, -0.36083984375, -0.772216796875
451, 183770904, -3.073493003845215, 8.334813117980957, 4.180294513702393, 225.6276397705078, 97.96015930175781, -86.6480712890625, -0.223876953125, -0.361572265625, -0.70361328125
452, 183787571, -3.500037670135498, 6.870519161224365, 3.3108036518096924, 201.6152801513672, 82.7414321899414, -61.91040802001953, -0.206787109375, -0.360595703125, -0.639892578125
453, 183804238, -3.6118483543395996, 6.945578098297119, 2.5789337158203125, 210.48678588867188, 83.42639923095703, -92.69925689697266, -0.184814453125, -0.352783203125, -0.576904296875
454, 183820905, -3.8025760650634766, 10.078944206237793, 2.214481830596924, 208.9361114501953, 83.83993530273438, -87.19473266601562, -0.1591796875, -0.33837890625, -0.51220703125
455, 183837572, -4.1220879554748535, 9.615761756896973, 1.9810025691986084, 179.03848266601562, 73.16993713378906, -56.91552734375, -0.145263671875, -0.3291015625, -0.456298828125
456, 183854239, -4.574918746948242, 10.008048057556152, -0.012287288904190063, 176.3820343017578, 83.1593017578125, -63.82504653930664, -0.132080078125, -0.3115234375, -0.40234375
457, 183870906, -5.067270278930664, 9.786348342895508, -0.8098562955856323, 185.13436889648438, 74.3333969116211, -54.45708465576172, -0.1240234375, -0.294189453125, -0.34521484375
458, 183887573, -4.461818218231201, 8.048541069030762, -0.9279601573944092, 178.27285766601562, 81.93827056884766, -66.04244232177734, -0.11474609375, -0.27490234375, -0.291015625
459, 183904240, -4.888585567474365, 7.963482856750488, -0.41909679770469666, 162.08583068847656, 92.78343963623047, -71.64073181152344, -0.107666015625, -0.250732421875, -0.240966796875
460, 183920907, -4.436829566955566, 7.726254463195801, -0.5982154607772827, 161.03245544433594, 128.59303283691406, -108.31712341308594, -0.0966796875, -0.218017578125, -0.182861328125
461, 183937574, -5.9491143226623535, 6.817718982696533, -4.113803863525391, 83.12376403808594, 138.6471405029297, -96.90396881103516, -0.091796875, -0.189697265625, -0.142333984375
462, 183954241, -5.399797439575195, 7.268789291381836, -3.5679993629455566, 166.24404907226562, 19.394241333007812, -66.88032531738281, -0.082275390625, -0.1611328125, -0.105712890625
463, 183970908, -6.476528167724609, 8.489701271057129, -3.478667974472046, 234.7301025390625, 11.812715530395508, -79.94400024414062, -0.07177734375, -0.121826171875, -0.061279296875
464, 183987575, -5.628667831420898, 8.361287117004395, -1.055383563041687, 263.28338623046875, 21.61467933654785, -133.90870666503906, -0.05322265625, -0.060791015625, -0.010986328125
465, 184004242, -4.296494007110596, 7.849888324737549, -2.555327892303467, 187.79684448242188, -15.64010238647461, -101.43292999267578, -0.034912109375, -0.0068359375, 0.02001953125
466, 184020909, -5.820551872253418, 7.163589954376221, -3.7632622718811035, 181.8277587890625, -66.0732421875, -60.36764907836914, -0.016845703125, 0.036376953125, 0.03466796875
467, 184037576, -7.30669641494751, 6.682159423828125, -5.089025974273682, 230.60398864746094, -96.7352523803711, -64.9049072265625, 0.00439453125, 0.08251953125, 0.044677734375
468, 184054243, -6.712309837341309, 6.216876029968262, -4.518462181091309, 243.10113525390625, -105.84005737304688, -91.88636016845703, 0.033447265625, 0.142333984375, 0.052978515625
469, 184070910, -7.118178367614746, 5.92282772064209, -4.621427536010742, 217.07400512695312, -108.74713897705078, -106.20536804199219, 0.060546875, 0.201171875, 0.05419921875
470, 184087577, -6.309913158416748, 5.205209255218506, -5.014944076538086, 207.85366821289062, -89.35371398925781, -120.35551452636719, 0.0869140625, 0.263671875, 0.049560546875
471, 184104244, -7.776587963104248, 4.279116153717041, -4.927084445953369, 230.26548767089844, -61.405704498291016, -142.6810302734375, 0.108154296875, 0.3310546875, 0.04931640625
472, 184120911, -9.089808464050293, 2.820784091949463, -5.280853748321533, 235.80966186523438, -73.7559585571289, -216.54635620117188, 0.1279296875, 0.415771484375, 0.04052734375
473, 184137578, -7.841934680938721, 3.2233569622039795, -6.4598798751831055, 239.6882781982422, -45.05473709106445, -260.04449462890625, 0.139404296875, 0.51318359375, 0.034912109375
474, 184154245, -9.181530952453613, 1.7951329946517944, -5.083754062652588, 257.4288635253906, -33.00471878051758, -283.2950744628906, 0.140380859375, 0.61962890625, 0.021728515625
475, 184170912, -8.815813064575195, 0.6667962670326233, -5.6396284103393555, 240.83506774902344, -40.630897521972656, -338.1169738769531, 0.1328125, 0.733154296875, 0.001708984375
476, 184187579, -8.584073066711426, -0.6266546249389648, -4.549481391906738, 178.91758728027344, -18.50587272644043, -366.6590881347656, 0.1064453125, 0.845703125, -0.01953125
477, 184204246, -7.159785747528076, -1.8238165378570557, -4.563593864440918, 102.81438446044922, -28.685955047607422, -369.7665710449219, 0.0673828125, 0.94189453125, -0.0400390625
478, 184220913, -7.036679744720459, -2.4781265258789062, -4.754319190979004, 39.25566101074219, -25.00104331970215, -349.8240051269531, 0.0244140625, 1.0224609375, -0.050537109375
479, 184237580, -6.944662570953369, -2.81735897064209, -6.136676788330078, 37.717342376708984, -7.595401763916016, -300.2312927246094, -0.024169921875, 1.086669921875, -0.05712890625
480, 184254247, -6.829342365264893, -3.666132926940918, -5.146201133728027, 86.16232299804688, -0.5481984615325928, -265.7056579589844, -0.07275390625, 1.145751953125, -0.0712890625
481, 184270914, -6.6481146812438965, -3.798231840133667, -4.17913293838501, 87.85073852539062, -1.1775568723678589, -239.05140686035156, -0.12060546875, 1.197021484375, -0.08740234375
482, 184287581, -6.181461811065674, -4.109520435333252, -4.427689552307129, 67.43396759033203, -1.3505955934524536, -202.6817626953125, -0.167236328125, 1.23681640625, -0.104248046875
483, 184304248, -6.606319904327393, -5.149136543273926, -4.65111780166626, 81.5389633178711, 27.805984497070312, -186.5733184814453, -0.20703125, 1.269775390625, -0.1171875
484, 184320915, -6.471929550170898, -5.680685520172119, -4.241678237915039, 90.61212158203125, 46.35517120361328, -187.7362823486328, -0.256591796875, 1.3037109375, -0.133544921875
485, 184337582, -5.7316813468933105, -6.064364910125732, -3.8805532455444336, 76.11798858642578, 42.49406433105469, -176.9768524169922, -0.30322265625, 1.33349609375, -0.1455078125
486, 184354249, -5.425665855407715, -4.308202266693115, -5.201812267303467, 89.7593994140625, 46.885005950927734, -152.81809997558594, -0.350341796875, 1.35888671875, -0.16259765625
487, 184370916, -7.098655700683594, -6.8816962242126465, -3.5872013568878174, 83.79818725585938, 44.69614791870117, -148.05868530273438, -0.389892578125, 1.378662109375, -0.17822265625
488, 184387583, -5.049021244049072, -7.873807907104492, -4.077539920806885, 65.13419342041016, 23.844482421875, -130.3824462890625, -0.430908203125, 1.39794921875, -0.194580078125
489, 184404250, -5.041207313537598, -8.437294960021973, -4.090524196624756, 46.225006103515625, 0.992168128490448, -115.0267105102539, -0.45947265625, 1.407958984375, -0.20849609375
490, 184420917, -3.271118402481079, -8.007789611816406, -4.672427654266357, 72.24313354492188, 16.404884338378906, -97.54519653320312, -0.490234375, 1.4189453125, -0.22412109375
491, 184437584, -3.5493245124816895, -8.015510559082031, -3.1606228351593018, 95.77562713623047, 31.49162483215332, -64.22940826416016, -0.511962890625, 1.431884765625, -0.24755859375
492, 184454251, -3.4800777435302734, -8.056693077087402, -2.2616684436798096, 102.0429458618164, 16.676992416381836, -73.16150665283203, -0.533447265625, 1.44189453125, -0.27294921875
493, 184470918, -3.6678872108459473, -7.9683427810668945, -2.1390459537506104, 110.5028076171875, 7.306163787841797, -80.22327423095703, -0.553955078125, 1.4541015625, -0.304443359375
494, 184487585, -4.08491849899292, -9.055734634399414, -3.3496360778808594, 71.26748657226562, -14.519067764282227, -72.21180725097656, -0.574951171875, 1.45947265625, -0.324462890625
495, 184504252, -3.6355016231536865, -8.46638298034668, -4.9052324295043945, 79.64756774902344, 13.578060150146484, -32.843509674072266, -0.585693359375, 1.466064453125, -0.34716796875
496, 184520919, -4.026340961456299, -9.732439041137695, -4.080314636230469, 100.18787384033203, 48.988128662109375, -21.019968032836914, -0.59521484375, 1.470703125, -0.372802734375
497, 184537586, -2.975074052810669, -9.49323558807373, -4.437458038330078, 156.2279815673828, 83.26764678955078, -23.293048858642578, -0.606201171875, 1.4794921875, -0.410400390625
498, 184554253, -2.022449016571045, -8.167719841003418, -3.2218785285949707, 259.09210205078125, 141.1124267578125, -7.099292278289795, -0.613037109375, 1.4833984375, -0.4755859375
499, 184570920, -2.4994454383850098, -8.14188289642334, -1.4880897998809814, 314.0558776855469, 124.85301971435547, 53.947105407714844, -0.604736328125, 1.482666015625, -0.56396484375
500, 184587587, -4.759653091430664, -8.722665786743164, 1.440185785293579, 256.5926818847656, 71.25025939941406, 86.11095428466797, -0.577880859375, 1.479736328125, -0.638916015625
501, 184604254, -5.319911956787109, -9.6714448928833, 1.2504695653915405, 163.15785217285156, -1.2531198263168335, 60.38441848754883, -0.55712890625, 1.470703125, -0.6904296875
502, 184620921, -4.707920551300049, -10.239574432373047, -0.010554268956184387, 129.97169494628906, -47.1938362121582, 47.6262321472168, -0.544677734375, 1.463134765625, -0.731689453125
503, 184637588, -3.4563238620758057, -10.188514709472656, -0.6123071908950806, 169.55812072753906, -64.52034759521484, 79.21348571777344, -0.5322265625, 1.451904296875, -0.775390625
504, 184654255, -3.8891663551330566, -9.446572303771973, 0.40034061670303345, 218.35076904296875, -141.0184326171875, 142.44766235351562, -0.50830078125, 1.43212890625, -0.8388671875
505, 184670922, -4.103649139404297, -8.54004955291748, 0.9234633445739746, 245.74908447265625, -176.84872436523438, 186.96353149414062, -0.47216796875, 1.400146484375, -0.9111328125
506, 184687589, -4.779537677764893, -8.608288764953613, 2.312037706375122, 242.93862915039062, -126.9483871459961, 185.01434326171875, -0.44287109375, 1.359375, -0.98193359375
507, 184704256, -5.287607669830322, -8.603885650634766, 3.3231163024902344, 253.28843688964844, -140.77061462402344, 177.12841796875, -0.415283203125, 1.31494140625, -1.05029296875
508, 184720923, -4.97917366027832, -7.847429275512695, 3.3942272663116455, 305.3200378417969, -195.1201171875, 172.7996826171875, -0.403564453125, 1.2568359375, -1.1318359375
509, 184737590, -3.9166014194488525, -5.657019138336182, 4.260570049285889, 353.4893798828125, -248.67391967773438, 181.37557983398438, -0.41015625, 1.1796875, -1.220703125
510, 184754257, -4.155148029327393, -3.8485164642333984, 6.116225242614746, 351.0591125488281, -278.0796203613281, 186.0662384033203, -0.431884765625, 1.09130859375, -1.3046875
511, 184770924, -5.149231433868408, -2.6168525218963623, 9.759763717651367, 216.78884887695312, -248.43905639648438, 107.43144226074219, -0.46435546875, 1.019287109375, -1.361083984375
512, 184787591, -2.7455062866210938, -2.96236252784729, 7.87733268737793, 101.50714111328125, -242.97146606445312, 0.6992632746696472, -0.525146484375, 0.991455078125, -1.39013671875
513, 184804258, -3.523888349533081, -3.4094736576080322, 7.759173393249512, 111.21074676513672, -203.20826721191406, 5.442006587982178, -0.576416015625, 0.96435546875, -1.41015625
514, 184820925, -2.695411443710327, -3.2279915809631348, 8.170584678649902, 127.36976623535156, -194.5215606689453, 2.713484764099121, -0.624755859375, 0.932861328125, -1.427978515625
515, 184837592, -1.6456778049468994, -2.0919086933135986, 8.959357261657715, 132.54832458496094, -249.3670654296875, -6.5766167640686035, -0.685302734375, 0.89794921875, -1.44384765625
516, 184854259, -1.95340895652771, -2.109151601791382, 8.958111763000488, 142.31964111328125, -220.14820861816406, -2.415030002593994, -0.749267578125, 0.862548828125, -1.453125
517, 184870926, -2.0479719638824463, -2.4820828437805176, 9.509543418884277, 175.7988739013672, -169.01168823242188, 5.868043422698975, -0.79345703125, 0.815673828125, -1.462158203125
518, 184887593, -1.0986032485961914, -2.8298003673553467, 9.03493595123291, 200.74578857421875, -195.16622924804688, -10.2117919921875, -0.8427734375, 0.765625, -1.471435546875
519, 184904260, -0.050300002098083496, -1.7016037702560425, 8.369460105895996, 211.55502319335938, -207.47216796875, -26.85357093811035, -0.900146484375, 0.7060546875, -1.469482421875
520, 184920927, 0.18154498934745789, -0.3491823673248291, 8.920649528503418, 181.3968963623047, -193.78970336914062, -20.221973419189453, -0.953369140625, 0.653076171875, -1.46435546875
521, 184937594, 0.5980120897293091, 0.07737569510936737, 9.239941596984863, 182.352783203125, -146.42990112304688, 8.791802406311035, -1.0009765625, 0.60400390625, -1.45556640625
522, 184954261, 0.6137697696685791, 0.43202394247055054, 10.249853134155273, 164.24435424804688, -101.0426254272461, 38.1956787109375, -1.025634765625, 0.5615234375, -1.44873046875
523, 184970928, 1.7677185535430908, 0.9299291372299194, 9.820239067077637, 38.645565032958984, -231.00558471679688, -30.13594627380371, -1.072998046875, 0.54248046875, -1.42724609375
524, 184987595, 2.889225959777832, 1.3633644580841064, 9.242597579956055, 26.896862030029297, -246.1569061279297, -74.52912902832031, -1.140625, 0.5263671875, -1.393310546875
525, 185004262, 2.6214489936828613, 1.650246024131775, 9.550100326538086, 68.52732849121094, -165.4431610107422, -28.22675895690918, -1.18505859375, 0.506591796875, -1.36572265625
526, 185020929, 3.0501461029052734, 1.5275455713272095, 8.975249290466309, 77.9072494506836, -111.3207015991211, -13.480555534362793, -1.214111328125, 0.4873046875, -1.345703125
527, 185037596, 3.724134922027588, 2.2392845153808594, 8.970643997192383, 64.10726928710938, -94.7013931274414, -33.55817413330078, -1.237060546875, 0.468505859375, -1.330078125
528, 185054263, 4.017229080200195, 3.0136730670928955, 9.800701141357422, 38.95683288574219, -93.77793884277344, -28.72557258605957, -1.258544921875, 0.44970703125, -1.3125
529, 185070930, 4.22700309753418, 2.414419412612915, 9.88426399230957, 29.258779525756836, -85.01144409179688, -19.48458480834961, -1.27978515625, 0.43994140625, -1.295166015625
530, 185087597, 4.620595455169678, 2.391634941101074, 9.399895668029785, 32.88129425048828, -80.38922119140625, -32.910179138183594, -1.29296875, 0.427001953125, -1.281005859375
531, 185104264, 4.506922721862793, 2.1739165782928467, 8.75722885131836, 17.430715560913086, -90.56927490234375, -52.1148681640625, -1.310546875, 0.412353515625, -1.2626953125
532, 185120931, 4.3468098640441895, 2.3507373332977295, 8.250595092773438, 8.10744571685791, -84.24817657470703, -50.5136604309082, -1.328857421875, 0.402099609375, -1.2451171875
533, 185137598, 4.451898097991943, 2.545541524887085, 7.868794918060303, 3.7843034267425537, -58.199886322021484, -31.815078735351562, -1.337646484375, 0.392333984375, -1.234130859375
534, 185154265, 5.569891929626465, 1.8389908075332642, 6.186092853546143, 6.041997909545898, -26.60553550720215, -13.486577033996582, -1.349853515625, 0.39013671875, -1.22607421875
535, 185170932, 4.0153727531433105, 0.33653780817985535, 7.469475269317627, 62.72759246826172, 7.375168323516846, 43.053890228271484, -1.337890625, 0.380859375, -1.230224609375
536, 185187599, 3.0761189460754395, 2.1259605884552, 9.189538955688477, -65.94174194335938, -138.34727478027344, -74.91656494140625, -1.36328125, 0.38232421875, -1.20458984375
537, 185204266, 5.010087490081787, 2.2529306411743164, 6.432723045349121, -13.0471773147583, -75.92286682128906, -23.80223274230957, -1.381103515625, 0.379638671875, -1.18798828125
538, 185220933, 5.193305015563965, 3.121323585510254, 7.495921611785889, -44.88768768310547, -68.35706329345703, -34.053924560546875, -1.391845703125, 0.382080078125, -1.17236328125
539, 185237600, 5.382667541503906, 2.8197107315063477, 8.182913780212402, -40.6827392578125, -78.49908447265625, -36.25276184082031, -1.40478515625, 0.3818359375, -1.159423828125
540, 185254267, 5.3614959716796875, 2.625215768814087, 7.8815531730651855, -39.843482971191406, -90.5869369506836, -43.2822151184082, -1.419189453125, 0.379638671875, -1.140869140625
541, 185270934, 4.595461845397949, 1.530375599861145, 8.54190731048584, -26.69894790649414, -63.179420471191406, -14.806663513183594, -1.429443359375, 0.3798828125, -1.12548828125
542, 185287601, 6.8107428550720215, 1.8162821531295776, 8.200424194335938, -23.0577449798584, -94.09302520751953, -42.80366134643555, -1.4423828125, 0.374755859375, -1.109130859375
543, 185304268, 6.409635066986084, 1.7378557920455933, 7.98606014251709, -21.285520553588867, -117.00708770751953, -46.98577880859375, -1.4560546875, 0.366943359375, -1.083984375
544, 185320935, 5.995754718780518, 2.0664925575256348, 7.621640682220459, -24.995725631713867, -145.32363891601562, -49.81581115722656, -1.476806640625, 0.360595703125, -1.04931640625
545, 185337602, 6.371364593505859, 1.711696982383728, 6.622852325439453, -0.7885792255401611, -150.92723083496094, -34.498199462890625, -1.498779296875, 0.3515625, -1.0126953125
546, 185354269, 6.5390944480896, 2.2764837741851807, 7.662416458129883, 23.27863311767578, -160.1583709716797, -7.6804728507995605, -1.5166015625, 0.34521484375, -0.9736328125
547, 185370936, 7.204891204833984, 2.314225435256958, 7.136704444885254, 33.96574401855469, -196.9408721923828, 2.1754069328308105, -1.538818359375, 0.341552734375, -0.92236328125
548, 185387603, 7.5139665603637695, 2.6252942085266113, 6.451159477233887, 65.52342224121094, -220.29568481445312, 15.29477596282959, -1.56201171875, 0.341552734375, -0.863037109375
549, 185404270, 7.821841239929199, 2.691889524459839, 5.3560028076171875, 103.61270904541016, -231.63327026367188, 38.04241180419922, -1.582275390625, 0.34130859375, -0.7958984375
550, 185420937, 8.03612232208252, 2.911999225616455, 4.250635623931885, 110.47028350830078, -216.33132934570312, 40.317222595214844, -1.60107421875, 0.34619140625, -0.731689453125
551, 185437604, 6.9228644371032715, 4.142553806304932, 5.54486083984375, 39.80852508544922, -272.1501770019531, 40.14826965332031, -1.6123046875, 0.352783203125, -0.661376953125
552, 185454271, 6.985046863555908, 4.045453071594238, 4.065537452697754, -94.53269958496094, -437.3943786621094, 48.368309020996094, -1.622314453125, 0.367431640625, -0.55078125
553, 185470938, 8.91435432434082, 0.303707480430603, -1.7952585220336914, -156.78530883789062, -476.0825500488281, 64.89722442626953, -1.6181640625, 0.382568359375, -0.415283203125
554, 185487605, 11.194207191467285, 1.9006763696670532, 1.9917073249816895, -19.055660247802734, -258.4951171875, 41.13945770263672, -1.602783203125, 0.395751953125, -0.33544921875
555, 185504272, 10.044489860534668, 1.4570754766464233, -0.852250337600708, 71.74009704589844, -136.09637451171875, 33.30895233154297, -1.595458984375, 0.407958984375, -0.28955078125
556, 185520939, 9.425224304199219, 2.0990350246429443, -0.6994162797927856, 70.03491973876953, -140.73072814941406, 15.80021858215332, -1.58349609375, 0.419677734375, -0.250244140625
557, 185537606, 10.01674747467041, 1.502750277519226, -0.9682438969612122, 46.17923355102539, -154.1111297607422, 11.401533126831055, -1.57177734375, 0.427734375, -0.20751953125
558, 185554273, 9.60299301147461, 1.976689100265503, -0.1239088773727417, 18.20238494873047, -166.63983154296875, 24.811193466186523, -1.555908203125, 0.43505859375, -0.165771484375
559, 185570940, 9.981830596923828, 2.7848565578460693, -0.2578926086425781, -11.07866382598877, -281.7004699707031, 63.067359924316406, -1.526123046875, 0.4501953125, -0.101318359375
560, 185587607, 9.016493797302246, 1.6619192361831665, -3.041637897491455, -27.582014083862305, -347.1456298828125, 60.39756774902344, -1.48046875, 0.4619140625, -0.015625
561, 185604274, 8.579779624938965, 1.1718071699142456, -4.034267425537109, -19.10047149658203, -315.50921630859375, 37.03643798828125, -1.42724609375, 0.470947265625, 0.057861328125
562, 185620941, 8.354328155517578, 0.9837290644645691, -4.173966407775879, 2.5313222408294678, -285.0727233886719, 23.642263412475586, -1.37451171875, 0.474853515625, 0.122314453125
563, 185637608, 8.269441604614258, 0.9985020756721497, -5.08087158203125, -1.543276309967041, -263.5634765625, 20.37612533569336, -1.322021484375, 0.47998046875, 0.1787109375
564, 185654275, 8.720163345336914, 0.7520378232002258, -6.427530765533447, 26.646406173706055, -220.98300170898438, 22.562532424926758, -1.271728515625, 0.487548828125, 0.22021484375
565, 185670942, 8.712738990783691, 1.15955650806427, -6.058682441711426, 54.02766418457031, -203.2229461669922, 25.39870834350586, -1.225341796875, 0.503173828125, 0.2529296875
566, 185687609, 7.5668044090271, 1.0767998695373535, -6.768008708953857, 54.922428131103516, -213.20310974121094, 34.718345642089844, -1.17236328125, 0.52392578125, 0.288330078125
567, 185704276, 7.810231685638428, 0.7653534412384033, -7.179904937744141, 55.91501235961914, -217.80674743652344, 44.50489807128906, -1.120361328125, 0.54248046875, 0.3173828125
568, 185720943, 7.883939743041992, 0.13039705157279968, -8.46163558959961, 88.66871643066406, -234.0599365234375, 94.67862701416016, -1.060302734375, 0.572021484375, 0.348388671875
569, 185737610, 5.163072109222412, 0.5904508829116821, -10.929630279541016, 117.3984146118164, -346.16375732421875, 92.05998229980469, -0.982666015625, 0.61376953125, 0.377197265625
570, 185754277, 3.580832004547119, -1.3466849327087402, -9.130481719970703, 90.93710327148438, -490.6596374511719, 68.24348449707031, -0.85107421875, 0.648681640625, 0.409423828125
571, 185770944, 3.7594406604766846, -0.8170566558837891, -7.727154731750488, 61.55906295776367, -443.4658203125, 60.20754623413086, -0.71533203125, 0.672119140625, 0.41796875
572, 185787611, 3.7282660007476807, -1.038025140762329, -8.665764808654785, 30.717679977416992, -318.6986389160156, 32.51067352294922, -0.61474609375, 0.681884765625, 0.419189453125
573, 185804278, 2.983912467956543, -1.605616807937622, -9.518946647644043, 37.33783721923828, -209.78271484375, 31.139013290405273, -0.5478515625, 0.691162109375, 0.41259765625
574, 185820945, 1.4290977716445923, -1.4753079414367676, -9.557249069213867, 37.27265167236328, -145.2778778076172, 34.859378814697266, -0.501220703125, 0.701416015625, 0.404296875
575, 185837612, 0.753086507320404, -1.2725952863693237, -9.678715705871582, 35.63642883300781, -119.76758575439453, 24.003665924072266, -0.46435546875, 0.71044921875, 0.39697265625
576, 185854279, 1.110690951347351, -1.3228166103363037, -9.847092628479004, 54.03413009643555, -125.1087646484375, 25.74105453491211, -0.42822265625, 0.72021484375, 0.385009765625
577, 185870946, 0.4203087091445923, -1.1642930507659912, -9.971548080444336, 90.89724731445312, -124.75575256347656, 18.18663787841797, -0.395263671875, 0.7412109375, 0.372802734375
578, 185887613, -0.3607221245765686, -0.5457606315612793, -12.188220977783203, 221.1724090576172, -127.47639465332031, -36.35035705566406, -0.36572265625, 0.78955078125, 0.34716796875
579, 185904280, -1.0331391096115112, -2.678899049758911, -9.755447387695312, 236.8574981689453, -216.13946533203125, -50.88613510131836, -0.320556640625, 0.8583984375, 0.309326171875
580, 185920947, 0.4777981638908386, -4.307422637939453, -9.369943618774414, 244.49493408203125, -218.65090942382812, -29.768577575683594, -0.270263671875, 0.919677734375, 0.258544921875
581, 185937614, -0.7050604820251465, -4.80140495300293, -7.602153301239014, 216.52745056152344, -141.14479064941406, 16.662946701049805, -0.23095703125, 0.971435546875, 0.210205078125
582, 185954281, -2.278019428253174, -4.675797939300537, -7.65305757522583, 141.96310424804688, -97.64444732666016, 47.96338653564453, -0.2060546875, 1.001953125, 0.177001953125
583, 185970948, -3.034867525100708, -5.732212543487549, -8.567442893981934, 81.83831024169922, -141.1712646484375, 69.96183013916016, -0.170654296875, 1.011474609375, 0.14208984375
584, 185987615, -3.2025468349456787, -5.279367923736572, -9.074982643127441, 90.18212890625, -173.3058319091797, 97.58326721191406, -0.12548828125, 1.01513671875, 0.10400390625
585, 186004282, -3.3238844871520996, -5.037137508392334, -8.43560791015625, 144.22618103027344, -186.88340759277344, 104.59395599365234, -0.0751953125, 1.021484375, 0.055419921875
586, 186020949, -3.526620864868164, -5.508684158325195, -7.162200927734375, 147.69464111328125, -186.49830627441406, 100.74483489990234, -0.027587890625, 1.03125, 9.765625E-4
587, 186037616, -4.343034267425537, -5.712721824645996, -6.752240180969238, 161.1332550048828, -144.81576538085938, 85.94932556152344, 0.012451171875, 1.036865234375, -0.054443359375
588, 186054283, -5.07299280166626, -5.456921577453613, -5.574787139892578, 134.21180725097656, -129.44850158691406, 57.684173583984375, 0.03857421875, 1.04296875, -0.102783203125
589, 186070950, -5.1867547035217285, -5.7628607749938965, -5.281476974487305, 85.14958190917969, -102.07942199707031, 29.69853973388672, 0.05810546875, 1.04638671875, -0.138427734375
590, 186087617, -5.214502811431885, -5.951180458068848, -5.689713478088379, 70.17576599121094, -88.27404022216797, 26.465234756469727, 0.073486328125, 1.049072265625, -0.167236328125
591, 186104284, -5.003046989440918, -6.2688422203063965, -5.987872123718262, 59.57902908325195, -96.05850219726562, 43.0943603515625, 0.08935546875, 1.048583984375, -0.198974609375
592, 186120951, -4.619459629058838, -5.228879451751709, -6.538060188293457, 89.19874572753906, -36.87386703491211, 2.965670108795166, 0.09814453125, 1.0517578125, -0.22216796875
593, 186137618, -5.72470760345459, -5.859346389770508, -7.735218524932861, 136.10353088378906, -29.134653091430664, -49.70954513549805, 0.095947265625, 1.071533203125, -0.247802734375
594, 186154285, -5.079138278961182, -6.9514055252075195, -5.389339923858643, 170.7016143798828, -39.478397369384766, -47.97785186767578, 0.087890625, 1.09375, -0.28564453125
595, 186170952, -4.44407320022583, -6.637994289398193, -3.76124906539917, 158.76612854003906, -40.54057312011719, -30.9636173248291, 0.087646484375, 1.115478515625, -0.3251953125
596, 186187619, -5.476362705230713, -6.748720169067383, -3.990583896636963, 156.88050842285156, -25.037090301513672, -43.37556076049805, 0.081298828125, 1.131591796875, -0.356201171875
597, 186204286, -5.594130039215088, -7.245523929595947, -3.374208688735962, 156.6252899169922, -53.56735610961914, -18.575557708740234, 0.078125, 1.1455078125, -0.394775390625
598, 186220953, -5.350732326507568, -7.203220844268799, -2.611194133758545, 107.62654113769531, -67.6585464477539, 15.950879096984863, 0.07958984375, 1.149169921875, -0.432373046875
599, 186237620, -5.532593727111816, -6.946185111999512, -2.222130298614502, 52.94827651977539, -90.984375, 64.00704193115234, 0.094482421875, 1.138671875, -0.46337890625
600, 186254287, -5.628725051879883, -6.848657131195068, -2.1996378898620605, -8.032512664794922, -82.42481994628906, 46.43389892578125, 0.1064453125, 1.125244140625, -0.482666015625
601, 186270954, -6.39557409286499, -6.684467792510986, -2.435180187225342, -25.49142074584961, -88.44342803955078, 17.850908279418945, 0.111572265625, 1.120361328125, -0.49658203125
602, 186287621, -6.631387710571289, -7.045840263366699, -2.58245587348938, -45.597816467285156, -98.66345977783203, -19.40639877319336, 0.111572265625, 1.12060546875, -0.510986328125
603, 186304288, -5.340256690979004, -7.536590576171875, -3.3830151557922363, 13.43950080871582, -102.22736358642578, -34.93579864501953, 0.107421875, 1.128662109375, -0.5341796875
604, 186320955, -5.486383438110352, -7.290621757507324, -2.2386012077331543, 19.736032485961914, -91.18345642089844, -30.460813522338867, 0.099365234375, 1.13525390625, -0.558349609375
605, 186337622, -5.931514263153076, -7.462812423706055, -2.535583019256592, 66.20304870605469, -100.92549896240234, -28.394739151000977, 0.0947265625, 1.140380859375, -0.58935546875
606, 186354289, -5.911342620849609, -6.977613925933838, -1.5012718439102173, 49.138580322265625, -112.69426727294922, -22.12956428527832, 0.091064453125, 1.145751953125, -0.62060546875
607, 186370956, -5.569236755371094, -8.101871490478516, -3.0755691528320312, 105.69392395019531, -100.57259368896484, -54.978939056396484, 0.075927734375, 1.14990234375, -0.662353515625
608, 186387623, -5.2982869148254395, -8.22720718383789, -1.8151013851165771, 164.19056701660156, -63.012813568115234, -96.88259887695312, 0.058837890625, 1.16259765625, -0.70458984375
609, 186404290, -5.449453353881836, -6.813988208770752, 0.36435970664024353, 134.68264770507812, -52.7105827331543, -84.60192108154297, 0.036865234375, 1.17431640625, -0.74609375
610, 186420957, -5.853043079376221, -8.10352611541748, -0.5215886831283569, 50.18589782714844, -68.88478088378906, -43.29043960571289, 0.024658203125, 1.181884765625, -0.770751953125
611, 186437624, -4.229959487915039, -8.331119537353516, -0.956336498260498, 108.74681854248047, -42.39726638793945, -70.98793029785156, 0.007568359375, 1.1865234375, -0.801513671875
612, 186454291, -4.599953651428223, -7.8554816246032715, 0.061813026666641235, 66.96735382080078, -0.14069485664367676, -64.62094116210938, -0.0029296875, 1.1904296875, -0.81591796875
613, 186470958, -5.0789313316345215, -8.738450050354004, 0.10953414440155029, 61.91542053222656, 1.2372043132781982, -74.02894592285156, -0.01904296875, 1.201416015625, -0.8271484375
614, 186487625, -4.863829612731934, -8.271116256713867, 0.8083286881446838, 67.68965148925781, 5.7055253982543945, -88.92108917236328, -0.035400390625, 1.2119140625, -0.840576171875
615, 186504292, -3.8204262256622314, -8.682962417602539, 0.2658140957355499, 62.234867095947266, 13.614194869995117, -63.02986145019531, -0.050537109375, 1.219970703125, -0.850341796875
616, 186520959, -4.48215389251709, -8.773770332336426, 0.6645541191101074, 68.51713562011719, 29.58866310119629, -36.019187927246094, -0.054931640625, 1.218017578125, -0.859375
617, 186537626, -4.280979633331299, -8.110469818115234, 1.051686406135559, 82.81734466552734, 27.974775314331055, -70.28678894042969, -0.0654296875, 1.224365234375, -0.87109375
618, 186554293, -3.9354145526885986, -8.697328567504883, 1.5397971868515015, 75.75301361083984, 22.141557693481445, -71.43270874023438, -0.078369140625, 1.225341796875, -0.8837890625
619, 186570960, -5.437696933746338, -9.110736846923828, 1.4349759817123413, 76.41018676757812, 10.076600074768066, -60.45119857788086, -0.08935546875, 1.2275390625, -0.89892578125
620, 186587627, -4.247915267944336, -9.323098182678223, 1.4230446815490723, 80.26905822753906, -1.49491286277771, -60.77517318725586, -0.101806640625, 1.23095703125, -0.9130859375
621, 186604294, -4.130394458770752, -9.39657211303711, 1.7991197109222412, 79.12747955322266, 3.4386751651763916, -54.63508605957031, -0.1123046875, 1.2294921875, -0.931884765625
622, 186620961, -3.987279176712036, -9.683619499206543, 2.097933053970337, 94.82829284667969, -13.886813163757324, -43.00265121459961, -0.121337890625, 1.2294921875, -0.950927734375
623, 186637628, -3.2284133434295654, -9.205428123474121, 2.459104537963867, 122.5400390625, -19.53546905517578, -36.373939514160156, -0.13232421875, 1.22119140625, -0.977294921875
624, 186654295, -2.2737643718719482, -8.417387008666992, 2.3981688022613525, 174.45350646972656, -23.08269500732422, -42.357208251953125, -0.142578125, 1.202880859375, -1.014892578125
625, 186670962, -2.4995832443237305, -7.9997239112854, 3.2920820713043213, 147.60743713378906, -14.977438926696777, -75.4020767211914, -0.16064453125, 1.189453125, -1.050048828125
626, 186687629, -3.4672257900238037, -8.635002136230469, 3.1363821029663086, 127.00035858154297, -24.553552627563477, -104.58182525634766, -0.18115234375, 1.184814453125, -1.075439453125
627, 186704296, -3.3653576374053955, -9.302599906921387, 3.167529582977295, 153.40313720703125, -40.84083557128906, -112.77806091308594, -0.209228515625, 1.177490234375, -1.111083984375
628, 186720963, -2.4784929752349854, -7.265834808349609, 3.7840309143066406, 156.41946411132812, -40.7777099609375, -104.08919525146484, -0.236572265625, 1.163330078125, -1.146484375
629, 186737630, -2.375401020050049, -7.0781331062316895, 3.69698166847229, 155.77621459960938, -49.79563522338867, -74.73908233642578, -0.2607421875, 1.1455078125, -1.178955078125
630, 186754297, -2.273237943649292, -7.4291582107543945, 3.8896379470825195, 180.6019744873047, -59.94784164428711, -74.39659118652344, -0.28466796875, 1.119873046875, -1.21826171875
631, 186770964, 0.04175068810582161, -7.927985668182373, 6.232296466827393, 117.93164825439453, -19.795063018798828, -37.533756256103516, -0.302734375, 1.097900390625, -1.24755859375
632, 186787631, -1.1003851890563965, -6.792642593383789, 5.917403221130371, 88.62193298339844, 14.282325744628906, 21.603731155395508, -0.297119140625, 1.07763671875, -1.26123046875
633, 186804298, -1.1916581392288208, -6.89818000793457, 6.12916898727417, 96.09843444824219, 9.835600852966309, 75.59716796875, -0.285888671875, 1.05224609375, -1.2744140625
634, 186820965, -1.9063299894332886, -7.39624547958374, 6.6088056564331055, 95.8285903930664, -0.5319778323173523, 111.4825210571289, -0.267578125, 1.019287109375, -1.2900390625
635, 186837632, -2.327719211578369, -7.776632308959961, 7.1202616691589355, 86.6568374633789, -16.841983795166016, 118.91978454589844, -0.255126953125, 0.986328125, -1.30419921875
636, 186854299, -2.1589977741241455, -7.074619770050049, 7.129302501678467, 104.79399871826172, -25.224472045898438, 116.34019470214844, -0.241455078125, 0.948974609375, -1.32080078125
637, 186870966, -2.606577157974243, -6.6800312995910645, 7.029155731201172, 110.52723693847656, -25.919504165649414, 106.08806610107422, -0.236328125, 0.91015625, -1.333740234375
638, 186887633, -2.1571476459503174, -6.170820236206055, 7.043919086456299, 128.95953369140625, -27.03851318359375, 107.65682983398438, -0.227783203125, 0.8681640625, -1.352783203125
639, 186904300, -2.0800812244415283, -5.774890422821045, 7.6770710945129395, 141.89207458496094, -23.050949096679688, 132.50921630859375, -0.222412109375, 0.820068359375, -1.36767578125
640, 186920967, -2.6634857654571533, -5.498241424560547, 9.245532989501953, 54.25712203979492, 16.63677978515625, 143.80487060546875, -0.2109375, 0.779296875, -1.375732421875
641, 186937634, -3.6928372383117676, -6.688683032989502, 9.162009239196777, -28.925710678100586, 38.76129150390625, 156.1429901123047, -0.187255859375, 0.764404296875, -1.368408203125
642, 186954301, -4.45892858505249, -6.182828903198242, 7.90880012512207, -17.91335105895996, 26.3343448638916, 147.21759033203125, -0.170166015625, 0.748779296875, -1.362060546875
643, 186970968, -5.947483539581299, -5.188604354858398, 6.515488624572754, 23.587696075439453, -11.872383117675781, 92.3034896850586, -0.159423828125, 0.728759765625, -1.36474609375
644, 186987635, -5.625760555267334, -5.0552496910095215, 6.242875099182129, 68.21630859375, -63.47969055175781, 40.77280044555664, -0.167724609375, 0.708740234375, -1.375244140625
645, 187004302, -4.691274642944336, -5.210056304931641, 7.548006534576416, 104.72093963623047, -89.12738800048828, 29.72597312927246, -0.1884765625, 0.6787109375, -1.39453125
646, 187020969, -5.357276916503906, -3.9037716388702393, 6.945324420928955, 91.99952697753906, -123.80986022949219, -9.26094913482666, -0.213623046875, 0.653076171875, -1.4130859375
647, 187037636, -2.608072280883789, -4.793867588043213, 8.43502140045166, 88.00199890136719, -128.83055114746094, 10.744717597961426, -0.25, 0.63330078125, -1.431640625
648, 187054303, -2.7736241817474365, -4.259468078613281, 8.406702041625977, 115.37258911132812, -104.9260482788086, 51.07442855834961, -0.27490234375, 0.600341796875, -1.448486328125
649, 187070970, -2.3520731925964355, -3.3330981731414795, 8.565882682800293, 142.6614532470703, -103.93109893798828, 77.56431579589844, -0.30224609375, 0.553466796875, -1.4609375
650, 187087637, -1.5724081993103027, -2.8883285522460938, 8.445096969604492, 128.81309509277344, -81.2456283569336, 77.90599060058594, -0.325439453125, 0.509765625, -1.47216796875
651, 187104304, -1.5041356086730957, -1.9156386852264404, 8.458922386169434, 87.20513153076172, -10.532097816467285, 88.76312255859375, -0.33544921875, 0.47265625, -1.4736328125
652, 187120971, -2.113206624984741, -0.838318407535553, 7.638728141784668, -41.647857666015625, 100.16114807128906, 121.66254425048828, -0.3173828125, 0.46728515625, -1.4658203125
653, 187137638, -3.075721502304077, -2.322418212890625, 7.866204738616943, -42.87922286987305, 129.7789764404297, 152.76260375976562, -0.286376953125, 0.4619140625, -1.452392578125
654, 187154305, -4.386910915374756, -2.3426549434661865, 8.348676681518555, -52.76992416381836, 119.8254623413086, 146.62852478027344, -0.253173828125, 0.45947265625, -1.440673828125
655, 187170972, -4.161667346954346, -2.1611809730529785, 8.074984550476074, -36.0479850769043, 93.18026733398438, 126.79193115234375, -0.229736328125, 0.453125, -1.42626953125
656, 187187639, -4.386929988861084, -1.9287590980529785, 7.729730606079102, -16.195877075195312, 76.92504119873047, 111.95155334472656, -0.211181640625, 0.445068359375, -1.41943359375
657, 187204306, -4.582026958465576, -1.4542174339294434, 6.981115818023682, 29.136411666870117, 66.49143981933594, 127.3236312866211, -0.194091796875, 0.422607421875, -1.407958984375
658, 187220973, -5.0639238357543945, -1.7000807523727417, 7.330968379974365, 82.003173828125, 37.533409118652344, 130.2052764892578, -0.18408203125, 0.389892578125, -1.399658203125
659, 187237640, -5.076950550079346, -1.1342840194702148, 8.007783889770508, 118.47347259521484, 11.878002166748047, 117.24443054199219, -0.18603515625, 0.34521484375, -1.395263671875
