sep=,
DeviceTag:,B,,,,,,,,,,,,,,,,,
FirmwareVersion:,2.2.1,,,,,,,,,,,,,,,,,
AppVersion:,2022.0.1,,,,,,,,,,,,,,,,,
SyncStatus:,Un-synced,,,,,,,,,,,,,,,,,
OutputRate:,60Hz,,,,,,,,,,,,,,,,,
FilterProfile:,General,,,,,,,,,,,,,,,,,
Measurement Mode:,Inertial Mode - Rate quantities (with mag),,,,,,,,,,,,,,,,,
StartTime:,2022-08-03 16:23:28.017 +0300,,,,,,,,,,,,,,,,,
© Xsens Technologies B. V. 2005-2022,,,,,,,,,,,,,,,,,,,

PacketCounter,SampleTimeFine,Acc_X,Acc_Y,Acc_Z,Gyr_X,Gyr_Y,Gyr_Z,Mag_X,Mag_Y,Mag_Z
1, 569867976, -5.403831481933594, 0.3349536955356598, 8.126603126525879, -11.581120491027832, 1.3514739274978638, 1.9825069904327393, -0.167724609375, 0.18212890625, -1.33740234375
2, 569884643, -5.388996124267578, 0.4647507965564728, 8.031310081481934, -12.967229843139648, -4.6020026206970215, -0.09220577031373978, -0.168701171875, 0.18408203125, -1.33740234375
3, 569901310, -5.370791435241699, 0.3024071753025055, 8.169005393981934, -11.98859977722168, -13.271810531616211, -2.5033369064331055, -0.171630859375, 0.185546875, -1.33984375
4, 569917977, -5.207980632781982, 0.1193859651684761, 8.477630615234375, -1.758838415145874, -15.768625259399414, -2.7191362380981445, -0.173828125, 0.188232421875, -1.342529296875
5, 569934644, -5.204527378082275, 0.1651315540075302, 8.469542503356934, -4.218034267425537, -20.345722198486328, 1.4702544212341309, -0.1796875, 0.18798828125, -1.34521484375
6, 569951311, -5.096449375152588, 0.1804569959640503, 8.416534423828125, -2.434929370880127, -28.293519973754883, 0.8385941386222839, -0.185302734375, 0.192626953125, -1.34814453125
7, 569967978, -4.99303674697876, 0.20973043143749237, 8.45866870880127, -6.4487810134887695, -34.70906066894531, 3.5955584049224854, -0.191650390625, 0.190673828125, -1.354736328125
8, 569984645, -4.855046272277832, 0.20810745656490326, 8.437509536743164, -11.817514419555664, -39.92957305908203, 3.486492395401001, -0.20068359375, 0.192138671875, -1.359130859375
9, 570001312, -4.729185104370117, 0.14637704193592072, 8.416511535644531, -11.897668838500977, -42.4373664855957, 5.694133281707764, -0.208740234375, 0.196044921875, -1.36767578125
10, 570017979, -4.5109124183654785, 0.14484789967536926, 8.553498268127441, -7.654822826385498, -34.33303451538086, 3.860163927078247, -0.222412109375, 0.195556640625, -1.372802734375
11, 570034646, -4.488533973693848, 0.20891445875167847, 8.518460273742676, 3.1827332973480225, -16.993377685546875, -1.301318645477295, -0.22802734375, 0.194091796875, -1.37353515625
12, 570051313, -4.579797744750977, 0.28289994597435, 8.465203285217285, 1.5527000427246094, -10.176006317138672, -0.8237815499305725, -0.2294921875, 0.194091796875, -1.375
13, 570067980, -4.640764236450195, 0.20746847987174988, 8.4049654006958, -1.4034229516983032, -13.257344245910645, 0.7252687811851501, -0.2314453125, 0.195068359375, -1.37548828125
14, 570084647, -4.583749771118164, 0.18775369226932526, 8.439728736877441, -0.64633709192276, -16.134183883666992, 0.885591983795166, -0.236572265625, 0.195556640625, -1.377685546875
15, 570101314, -4.484419345855713, 0.19695140421390533, 8.463590621948242, -3.1370341777801514, -17.343185424804688, 1.8986268043518066, -0.240478515625, 0.19482421875, -1.378662109375
16, 570117981, -4.419845104217529, 0.11837179958820343, 8.484573364257812, 1.2343087196350098, -12.087894439697266, -0.6086733937263489, -0.242919921875, 0.195556640625, -1.38330078125
17, 570134648, -4.470038414001465, 0.18888768553733826, 8.533167839050293, 6.755948066711426, -8.454460144042969, -2.1417088508605957, -0.246337890625, 0.19287109375, -1.3828125
18, 570151315, -4.521433353424072, 0.20661038160324097, 8.439443588256836, 0.5626022815704346, -10.426714897155762, -0.778933584690094, -0.246337890625, 0.19482421875, -1.380859375
19, 570167982, -4.451022624969482, 0.13874393701553345, 8.509989738464355, -0.9457240104675293, -13.929835319519043, 0.19087238609790802, -0.251220703125, 0.19384765625, -1.384033203125
20, 570184649, -4.351056098937988, 0.129215270280838, 8.605634689331055, -3.583629608154297, -15.458621978759766, 1.1713402271270752, -0.25537109375, 0.19287109375, -1.384033203125
21, 570201316, -4.322454929351807, 0.12566545605659485, 8.661772727966309, -7.2010273933410645, -11.416266441345215, 1.4656621217727661, -0.2568359375, 0.193359375, -1.387939453125
22, 570217983, -4.216019153594971, 0.11554723978042603, 8.710644721984863, -5.957398891448975, -3.192213296890259, 0.6253661513328552, -0.25830078125, 0.197265625, -1.38916015625
23, 570234650, -4.293148994445801, 0.12511271238327026, 8.70834732055664, -2.412781000137329, 6.613694190979004, -2.319678783416748, -0.25732421875, 0.19677734375, -1.387451171875
24, 570251317, -4.329709053039551, 0.09370715916156769, 8.692118644714355, 1.4563705921173096, 9.534913063049316, -3.0955135822296143, -0.25390625, 0.198486328125, -1.386962890625
25, 570267984, -4.412047863006592, 0.094048872590065, 8.648940086364746, -1.4430580139160156, 4.411115646362305, -0.07098560035228729, -0.25244140625, 0.197509765625, -1.386474609375
26, 570284651, -4.340956687927246, 0.12104491144418716, 8.638522148132324, -0.22070464491844177, -0.6283563375473022, 1.4566903114318848, -0.25244140625, 0.197509765625, -1.386474609375
27, 570301318, -4.246081352233887, 0.09309698641300201, 8.67257308959961, 5.838473320007324, 2.5247530937194824, 0.4911940097808838, -0.2529296875, 0.198974609375, -1.387451171875
28, 570317985, -4.3653388023376465, 0.1288611888885498, 8.659327507019043, 17.62810516357422, 14.206744194030762, -2.2901763916015625, -0.251220703125, 0.19140625, -1.384521484375
29, 570334652, -4.342184066772461, 0.16576090455055237, 8.576164245605469, 26.592884063720703, 20.673227310180664, -4.126132965087891, -0.24462890625, 0.185791015625, -1.380859375
30, 570351319, -4.447996139526367, 0.2186172902584076, 8.51738166809082, 49.59011459350586, 47.99855422973633, -9.313834190368652, -0.234130859375, 0.177978515625, -1.37060546875
31, 570367986, -4.6382060050964355, 0.23716619610786438, 8.470029830932617, 72.84752655029297, 73.18919372558594, -14.403789520263672, -0.216064453125, 0.163818359375, -1.354736328125
32, 570384653, -4.840025424957275, 0.40442368388175964, 8.374625205993652, 94.13604736328125, 87.64336395263672, -11.317354202270508, -0.1943359375, 0.144775390625, -1.333251953125
33, 570401320, -5.120284557342529, 1.0379893779754639, 8.018787384033203, 91.53715515136719, 84.24767303466797, 2.0896811485290527, -0.17626953125, 0.12109375, -1.310791015625
34, 570417987, -5.3062424659729, 1.5211670398712158, 7.86398983001709, 89.61876678466797, 96.1809310913086, 0.9433924555778503, -0.155517578125, 0.10205078125, -1.28857421875
35, 570434654, -5.607200622558594, 1.4192396402359009, 7.608330249786377, 85.65687561035156, 112.5240478515625, -4.126049041748047, -0.13330078125, 0.084228515625, -1.262939453125
36, 570451321, -5.848555088043213, 1.4146640300750732, 7.278923988342285, 115.36957550048828, 148.4871063232422, -8.4169340133667, -0.103759765625, 0.0634765625, -1.227783203125
37, 570467988, -6.469396114349365, 1.9247770309448242, 6.81422233581543, 149.11068725585938, 196.97386169433594, -7.462984085083008, -0.069091796875, 0.038818359375, -1.17822265625
38, 570484655, -7.158803939819336, 3.5860190391540527, 6.8767619132995605, 143.56117248535156, 221.00167846679688, 13.229780197143555, -0.029296875, 0.01123046875, -1.115966796875
39, 570501322, -7.678389072418213, 3.779526472091675, 5.727771759033203, 96.23463439941406, 234.904052734375, 24.171077728271484, 0.00537109375, -0.011474609375, -1.058349609375
40, 570517989, -7.506198883056641, 2.509509325027466, 4.984253883361816, 48.46601104736328, 240.09825134277344, 14.786065101623535, 0.03564453125, -0.024169921875, -1.001220703125
41, 570534656, -7.627496242523193, 2.2413294315338135, 4.724191188812256, 12.666251182556152, 214.21751403808594, 19.258577346801758, 0.05859375, -0.029541015625, -0.95166015625
42, 570551323, -8.35654067993164, 2.3157448768615723, 4.105893611907959, 1.8334146738052368, 203.7132568359375, 8.583043098449707, 0.08154296875, -0.032470703125, -0.908447265625
43, 570567990, -8.957789421081543, 2.48858904838562, 3.5732457637786865, 25.845855712890625, 226.3704376220703, 7.186812400817871, 0.1015625, -0.036865234375, -0.857421875
44, 570584657, -9.26967716217041, 2.706953287124634, 2.9459447860717773, 57.614646911621094, 264.54156494140625, 20.77800941467285, 0.12109375, -0.044189453125, -0.79150390625
45, 570601324, -9.361692428588867, 2.607421636581421, 2.4278125762939453, 73.51973724365234, 267.95208740234375, 40.114192962646484, 0.130859375, -0.056640625, -0.719482421875
46, 570617991, -8.627473831176758, 2.168241024017334, 2.4436841011047363, 57.02139663696289, 216.6815185546875, 37.02494812011719, 0.1357421875, -0.068115234375, -0.65576171875
47, 570634658, -8.420951843261719, 3.444262981414795, 1.1074358224868774, 70.84261322021484, 164.48231506347656, 44.38040542602539, 0.133544921875, -0.078369140625, -0.603271484375
48, 570651325, -9.140796661376953, 3.552854061126709, 1.1576632261276245, 76.84614562988281, 154.78805541992188, 56.52454376220703, 0.124755859375, -0.09228515625, -0.5576171875
49, 570667992, -9.373895645141602, 3.7240941524505615, 0.07121491432189941, 84.52081298828125, 148.44009399414062, 56.00887680053711, 0.1162109375, -0.104248046875, -0.507568359375
50, 570684659, -9.360055923461914, 4.422081470489502, -0.882607102394104, 128.2232208251953, 139.90902709960938, 57.801185607910156, 0.099609375, -0.1142578125, -0.454345703125
51, 570701326, -8.790623664855957, 3.8281004428863525, -10.402921676635742, 300.540283203125, 163.9965057373047, 89.1739730834961, 0.080078125, -0.126953125, -0.380859375
52, 570717993, -7.612548351287842, 6.994710922241211, -11.329426765441895, 534.3697509765625, 490.2413024902344, 92.54411315917969, 0.038818359375, -0.10693359375, -0.20458984375
53, 570734660, -12.319796562194824, 5.149079322814941, -6.142171382904053, 458.277099609375, 812.9757690429688, 53.1236457824707, -0.073486328125, -0.059814453125, 0.02099609375
54, 570751327, -14.978171348571777, 5.411040782928467, 1.798538088798523, 382.7231750488281, 750.1879272460938, -68.95945739746094, -0.21923828125, 0.028564453125, 0.199462890625
55, 570767994, -10.245278358459473, 4.748679161071777, 6.661838054656982, 100.37197875976562, 220.64520263671875, -41.73670196533203, -0.30419921875, 0.07373046875, 0.26416015625
56, 570784661, -5.866227626800537, 2.2652783393859863, -8.13042163848877, -24.97759246826172, -97.33352661132812, -46.06827926635742, -0.281005859375, 0.073974609375, 0.252685546875
57, 570801328, -4.584747314453125, 3.6505064964294434, -10.959688186645508, 1.5381735563278198, 87.3939208984375, -1.8091760873794556, -0.285400390625, 0.074951171875, 0.255126953125
58, 570817995, -6.151674270629883, 2.8875088691711426, -6.774967193603516, -7.379281044006348, 153.7000732421875, 60.57218933105469, -0.329345703125, 0.069580078125, 0.272705078125
59, 570834662, -5.265652179718018, 2.7444334030151367, -7.130194187164307, -13.063603401184082, 115.08109283447266, 101.24864196777344, -0.37060546875, 0.060546875, 0.280029296875
60, 570851329, -4.612484455108643, 1.1667778491973877, -5.889249801635742, -39.044795989990234, 96.4033432006836, 123.1420669555664, -0.408935546875, 0.043212890625, 0.283935546875
61, 570867996, -4.52866268157959, -0.2632315158843994, -5.211150169372559, -80.0390853881836, 86.46419525146484, 104.42253112792969, -0.447265625, 0.015380859375, 0.2802734375
62, 570884663, -4.772334098815918, 2.8181517124176025, -5.3793487548828125, -88.78103637695312, -4.253692150115967, 56.12151336669922, -0.466552734375, -0.0068359375, 0.26904296875
63, 570901330, -4.053854942321777, 5.244753837585449, -10.133427619934082, -102.14688873291016, -24.59723663330078, 60.13808822631836, -0.460693359375, -0.03125, 0.252197265625
64, 570917997, -3.3088738918304443, 5.057931900024414, -5.581174373626709, -209.132080078125, 81.0795669555664, 99.63329315185547, -0.491943359375, -0.0751953125, 0.22509765625
65, 570934664, -5.2913126945495605, 4.703669548034668, -9.074237823486328, -269.91302490234375, 67.89767456054688, 112.75782012939453, -0.5283203125, -0.141845703125, 0.1767578125
66, 570951331, 0.9333873987197876, 0.7523820996284485, -23.10471534729004, 267.0456237792969, 619.6279907226562, -57.48683547973633, -0.620361328125, -0.11181640625, 0.21533203125
67, 570967998, -3.266934394836426, 1.4448658227920532, -3.1838178634643555, -86.68023681640625, 737.405029296875, -139.54847717285156, -0.7666015625, -0.107177734375, 0.2060546875
68, 570984665, -1.7355055809020996, 4.829388618469238, -5.65636682510376, -233.8128662109375, 484.989990234375, -214.18421936035156, -0.852783203125, -0.166015625, 0.13427734375
69, 571001332, 1.0556182861328125, 6.897759437561035, -7.439878940582275, -25.15988540649414, 287.45880126953125, -185.7144317626953, -0.872802734375, -0.192626953125, 0.10205078125
70, 571017999, 0.884243369102478, 7.650631904602051, -7.682706832885742, -35.08683776855469, 202.27438354492188, -115.1900634765625, -0.890625, -0.2060546875, 0.085205078125
71, 571034666, 1.3593807220458984, 8.112434387207031, -7.8809614181518555, -138.0105743408203, 148.85690307617188, -45.715187072753906, -0.905029296875, -0.232421875, 0.046142578125
72, 571051333, 1.334289789199829, 7.618524074554443, -8.087212562561035, -188.99600219726562, 106.79938507080078, -14.95953369140625, -0.919677734375, -0.261474609375, -0.001708984375
73, 571068000, 1.541731357574463, 7.51214599609375, -7.547857284545898, -226.12693786621094, 91.19181060791016, 0.20904982089996338, -0.932861328125, -0.295166015625, -0.060791015625
74, 571084667, 1.9257636070251465, 8.082783699035645, -6.611523151397705, -240.77804565429688, 84.73271942138672, 24.791828155517578, -0.948486328125, -0.327392578125, -0.12548828125
75, 571101334, 2.358412742614746, 8.071078300476074, -6.063445568084717, -214.1879425048828, 81.6187515258789, 12.844823837280273, -0.963623046875, -0.34912109375, -0.188720703125
76, 571118001, 2.5930190086364746, 8.486896514892578, -5.7457804679870605, -164.23770141601562, 86.29346466064453, -13.852681159973145, -0.971435546875, -0.366455078125, -0.23876953125
77, 571134668, 2.592728614807129, 8.466408729553223, -5.5513834953308105, -164.8681182861328, 81.5765151977539, -52.44211959838867, -0.96630859375, -0.385498046875, -0.28955078125
78, 571151335, 2.6306047439575195, 8.378806114196777, -5.3865437507629395, -180.776123046875, 79.59712982177734, -67.2254638671875, -0.957275390625, -0.401611328125, -0.34326171875
79, 571168002, 2.558464765548706, 8.124753952026367, -4.7661542892456055, -200.5163116455078, 103.00222778320312, -103.40381622314453, -0.934814453125, -0.420654296875, -0.404296875
80, 571184669, 1.7924566268920898, 8.182319641113281, -3.190831184387207, -159.70379638671875, 94.97740936279297, -87.91297912597656, -0.913818359375, -0.43505859375, -0.46142578125
81, 571201336, 0.9679506421089172, 9.092696189880371, -4.165505409240723, -211.067138671875, 20.22955894470215, -50.017208099365234, -0.8974609375, -0.440673828125, -0.51708984375
82, 571218003, 2.855055809020996, 8.82777214050293, -3.2328853607177734, -188.70883178710938, 31.51974868774414, 7.237309455871582, -0.89599609375, -0.441650390625, -0.572021484375
83, 571234670, 1.2783286571502686, 8.46007251739502, -3.046037197113037, -173.69752502441406, 75.77640533447266, 20.18260383605957, -0.90185546875, -0.436767578125, -0.627685546875
84, 571251337, 2.380213975906372, 11.007935523986816, -1.7815959453582764, -131.32400512695312, 40.304378509521484, 72.01189422607422, -0.913818359375, -0.4296875, -0.667236328125
85, 571268004, 3.2219104766845703, 10.57729434967041, -1.72658371925354, -196.4068603515625, 102.81184387207031, 96.67655181884766, -0.93505859375, -0.414306640625, -0.720703125
86, 571284671, 2.824178457260132, 10.28909969329834, -0.7830845713615417, -245.49595642089844, 153.9935760498047, 100.69634246826172, -0.953369140625, -0.391357421875, -0.798583984375
87, 571301338, 3.163802146911621, 10.310708045959473, 0.14737266302108765, -270.34375, 202.0222930908203, 103.75696563720703, -0.9638671875, -0.361328125, -0.88427734375
88, 571318005, 3.5565683841705322, 10.379467010498047, 0.7610756158828735, -311.03826904296875, 243.08258056640625, 127.46537780761719, -0.96875, -0.314697265625, -0.98046875
89, 571334672, 3.6804628372192383, 9.6983003616333, 2.174018621444702, -338.12628173828125, 262.87890625, 146.39707946777344, -0.96630859375, -0.255126953125, -1.0791015625
90, 571351339, 2.8592188358306885, 8.293522834777832, 2.8395884037017822, -356.593017578125, 265.5869140625, 131.0583953857422, -0.9521484375, -0.183349609375, -1.178466796875
91, 571368006, 1.9497485160827637, 7.373438835144043, 4.685710906982422, -331.8721618652344, 213.67044067382812, 86.76582336425781, -0.926025390625, -0.108642578125, -1.26171875
92, 571384673, 1.8938909769058228, 6.406392574310303, 5.163511753082275, -310.8127746582031, 133.74240112304688, 63.4194221496582, -0.90234375, -0.032958984375, -1.326416015625
93, 571401340, 2.504568576812744, 5.096034049987793, 4.902621746063232, -240.81771850585938, 80.7602767944336, 43.70517349243164, -0.886474609375, 0.03125, -1.370361328125
94, 571418007, 2.941899299621582, 4.3785400390625, 6.144958019256592, -146.2618865966797, 57.22648620605469, 60.94942092895508, -0.877685546875, 0.074951171875, -1.398193359375
95, 571434674, 3.6479859352111816, 5.510150909423828, 8.231443405151367, -167.81915283203125, 57.48869323730469, 56.374202728271484, -0.87255859375, 0.117431640625, -1.420654296875
96, 571451341, 2.8021445274353027, 6.177857398986816, 7.151765823364258, -226.84793090820312, 90.40495300292969, 37.21415328979492, -0.857421875, 0.177734375, -1.44677734375
97, 571468008, 2.365126848220825, 6.200786590576172, 7.702516555786133, -238.01162719726562, 109.30107116699219, 10.221102714538574, -0.83203125, 0.242919921875, -1.474365234375
98, 571484675, 2.7864959239959717, 7.310602188110352, 9.023027420043945, -313.58154296875, 166.26943969726562, 26.353044509887695, -0.7919921875, 0.321044921875, -1.499755859375
99, 571501342, 2.2485458850860596, 8.58094310760498, 9.54531192779541, -466.35205078125, 282.59820556640625, 166.5128631591797, -0.728759765625, 0.444580078125, -1.52197265625
100, 571518009, -2.5942492485046387, 3.547811269760132, 8.058643341064453, -593.70654296875, 364.0296325683594, 185.585205078125, -0.62939453125, 0.609619140625, -1.5205078125
101, 571534676, -4.310981750488281, -3.0017881393432617, 2.861267566680908, -524.073974609375, 463.110107421875, 42.60203170776367, -0.500732421875, 0.765625, -1.4755859375
102, 571551343, -1.5695979595184326, -2.5289061069488525, 4.389225959777832, -226.94252014160156, 396.9917907714844, -71.64955139160156, -0.39208984375, 0.850341796875, -1.423828125
103, 571568010, 0.4332071840763092, -1.2038776874542236, 9.823492050170898, -91.69768524169922, 288.6228942871094, -31.546689987182617, -0.316162109375, 0.88330078125, -1.385986328125
104, 571584677, -0.9506876468658447, -2.7844436168670654, 10.569507598876953, -78.6599349975586, 150.1989288330078, -6.470219135284424, -0.2705078125, 0.900390625, -1.35888671875
105, 571601344, -0.7211744785308838, -3.4769906997680664, 9.609112739562988, -80.424560546875, 66.3264389038086, -28.171857833862305, -0.25439453125, 0.922119140625, -1.342529296875
106, 571618011, -1.0274810791015625, -3.358898162841797, 8.745378494262695, -80.13253021240234, 95.53641510009766, -39.69834899902344, -0.240234375, 0.946044921875, -1.31982421875
107, 571634678, -1.7897900342941284, -1.470746636390686, 9.765275001525879, -47.87314987182617, 117.59490203857422, -37.7327995300293, -0.220703125, 0.963134765625, -1.300537109375
108, 571651345, -3.3827757835388184, 0.01861899346113205, 11.268464088439941, -39.977169036865234, 69.0499496459961, -3.035390853881836, -0.199951171875, 0.97216796875, -1.28125
109, 571668012, -3.984983205795288, -0.4525265693664551, 10.708806991577148, -74.86911010742188, -26.528879165649414, 36.67698669433594, -0.197509765625, 0.984130859375, -1.275634765625
110, 571684679, -3.561640739440918, -3.57358455657959, 8.571771621704102, -100.36608123779297, -35.97808837890625, 55.292415618896484, -0.197265625, 0.99609375, -1.26611328125
111, 571701346, -2.765881061553955, -5.072046756744385, 8.681920051574707, -79.3841781616211, 18.76140785217285, 29.091617584228516, -0.19140625, 1.009033203125, -1.250732421875
112, 571718013, -2.5975260734558105, -4.891227722167969, 10.234620094299316, -56.50530242919922, 23.82155990600586, 10.317146301269531, -0.1875, 1.01953125, -1.236572265625
113, 571734680, -5.099078178405762, -5.601773738861084, 9.260976791381836, -155.5390625, 10.212255477905273, -1.6207314729690552, -0.183349609375, 1.03857421875, -1.22314453125
114, 571751347, -1.013993263244629, -2.405510187149048, 7.642549514770508, -156.6126708984375, 45.119686126708984, -58.2157096862793, -0.180908203125, 1.08251953125, -1.18505859375
115, 571768014, -1.8191672563552856, -3.978830337524414, 6.868030071258545, -97.53575897216797, -11.577922821044922, -4.080754280090332, -0.1826171875, 1.106201171875, -1.164794921875
116, 571784681, -2.7376253604888916, -5.09792423248291, 6.388205051422119, -65.11383819580078, 5.30702543258667, 6.462944030761719, -0.183837890625, 1.11767578125, -1.15380859375
117, 571801348, -3.64874005317688, -4.975143909454346, 9.119194984436035, -48.7053337097168, 48.59600067138672, -18.214807510375977, -0.177490234375, 1.126708984375, -1.1396484375
118, 571818015, -5.366556644439697, -1.1063331365585327, 10.073896408081055, -124.59828186035156, -1.9766665697097778, -10.35785961151123, -0.1787109375, 1.147216796875, -1.117431640625
119, 571834682, -4.185619831085205, -3.3761532306671143, 8.489202499389648, -126.21478271484375, -8.223152160644531, -1.749983787536621, -0.179931640625, 1.16845703125, -1.093017578125
120, 571851349, -3.7901432514190674, -6.327250003814697, 7.984610080718994, -153.7354736328125, 1.2103989124298096, 21.589452743530273, -0.176513671875, 1.1865234375, -1.06591796875
121, 571868016, -3.982226848602295, -6.043403148651123, 8.040888786315918, -179.0098876953125, 26.72549057006836, -5.991746425628662, -0.176025390625, 1.214599609375, -1.026611328125
122, 571884683, -3.519644021987915, -5.462708950042725, 8.235177040100098, -229.0967254638672, 55.47526168823242, 4.0179667472839355, -0.170166015625, 1.239501953125, -0.97607421875
123, 571901350, -3.762402057647705, -6.1920485496521, 7.4856791496276855, -282.42889404296875, 73.72766876220703, 10.6858549118042, -0.156005859375, 1.272216796875, -0.90576171875
124, 571918017, -3.7921483516693115, -6.904683589935303, 6.574120998382568, -308.7894287109375, 58.36991500854492, 9.071497917175293, -0.14892578125, 1.29833984375, -0.825927734375
125, 571934684, -4.0349507331848145, -7.718194007873535, 5.105124473571777, -308.3755187988281, 39.94710922241211, 1.6906237602233887, -0.1435546875, 1.3203125, -0.745849609375
126, 571951351, -3.7182695865631104, -7.6492018699646, 3.0261690616607666, -287.4648132324219, 32.75996780395508, -0.22770006954669952, -0.14208984375, 1.3369140625, -0.67431640625
127, 571968018, -3.2024238109588623, -7.33762264251709, 4.4492387771606445, -323.7095031738281, 46.39549255371094, 4.610289573669434, -0.13916015625, 1.34228515625, -0.59033203125
128, 571984685, -0.1912129521369934, -6.868067264556885, 4.6116414070129395, -474.7513732910156, 186.6949920654297, 61.23164367675781, -0.1328125, 1.33544921875, -0.463623046875
129, 572001352, 2.4102227687835693, -4.625672817230225, -1.8401588201522827, -748.7672119140625, 545.0986328125, 108.47370910644531, -0.128173828125, 1.285400390625, -0.24365234375
130, 572018019, -10.38687801361084, -6.73048210144043, -6.462811470031738, -797.970703125, 464.2157287597656, 183.5364532470703, -0.16650390625, 1.15478515625, 0.015380859375
131, 572034686, -2.464337110519409, -4.615969181060791, -10.122522354125977, -886.3883056640625, 430.6994323730469, 91.93768310546875, -0.211669921875, 0.96875, 0.20751953125
132, 572051353, -5.203984260559082, -6.54604959487915, -7.6145920753479, -599.5723266601562, 455.9648742675781, 24.630115509033203, -0.3271484375, 0.805419921875, 0.33740234375
133, 572068020, -4.251638412475586, -4.331360816955566, -7.956108570098877, -434.3595886230469, 244.53610229492188, 116.52186584472656, -0.400634765625, 0.67724609375, 0.3896484375
134, 572084687, -1.4224262237548828, -2.0179550647735596, -8.396484375, -364.7970886230469, 195.66738891601562, 118.32551574707031, -0.44580078125, 0.564453125, 0.414306640625
135, 572101354, -1.07631516456604, -1.1589323282241821, -9.569913864135742, -366.30340576171875, 273.8227844238281, 103.12427520751953, -0.516357421875, 0.45751953125, 0.424072265625
136, 572118021, -0.9840383529663086, -1.1142596006393433, -10.82429027557373, -385.5699157714844, 328.06182861328125, 96.00042724609375, -0.610107421875, 0.345703125, 0.421875
137, 572134688, -0.5727254152297974, -0.38922733068466187, -11.573670387268066, -389.7880859375, 311.3175354003906, 94.0705795288086, -0.704345703125, 0.23779296875, 0.397216796875
138, 572151355, -0.5396664142608643, 1.1991291046142578, -11.69375228881836, -387.3761291503906, 240.97140502929688, 45.02001953125, -0.784423828125, 0.13232421875, 0.3515625
139, 572168022, 0.19746631383895874, 2.341057777404785, -11.252965927124023, -303.11627197265625, 271.00244140625, 14.163588523864746, -0.848876953125, 0.05029296875, 0.296630859375
140, 572184689, -0.3681333363056183, 2.3745620250701904, -10.01184368133545, -251.8262939453125, 220.0005340576172, -17.314891815185547, -0.90869140625, -0.012939453125, 0.2421875
141, 572201356, 1.0689332485198975, 1.721686840057373, -9.186386108398438, -185.2184295654297, 103.58387756347656, 4.849081516265869, -0.93994140625, -0.057373046875, 0.201904296875
142, 572218023, 1.155474066734314, 2.3269600868225098, -9.483569145202637, -223.4834442138672, -10.40967845916748, 13.484533309936523, -0.947509765625, -0.101318359375, 0.165283203125
143, 572234690, 2.1819512844085693, 4.648137092590332, -9.627859115600586, -209.06103515625, -11.443214416503906, -15.819337844848633, -0.93798828125, -0.1455078125, 0.127197265625
144, 572251357, 3.1371545791625977, 5.27034854888916, -8.622638702392578, -199.4972686767578, 13.846882820129395, -9.358295440673828, -0.93701171875, -0.1865234375, 0.084228515625
145, 572268024, 3.1087734699249268, 6.86846923828125, -9.277193069458008, -160.7862548828125, 82.99992370605469, 15.97065258026123, -0.948974609375, -0.21533203125, 0.044189453125
146, 572284691, 3.5103392601013184, 5.4834089279174805, -8.355463027954102, -93.07064819335938, 189.48631286621094, 67.46539306640625, -0.986572265625, -0.230224609375, 0.006103515625
147, 572301358, 2.6074349880218506, 4.472345352172852, -8.072771072387695, -38.866424560546875, 228.78286743164062, 68.34082794189453, -1.038818359375, -0.2294921875, -0.028564453125
148, 572318025, 4.256490707397461, 6.384334564208984, -6.866254806518555, -3.6063053607940674, 254.39913940429688, 25.37267303466797, -1.082275390625, -0.22607421875, -0.060302734375
149, 572334692, 2.6770527362823486, 7.719244480133057, -6.585677623748779, -4.28425407409668, 282.87872314453125, 2.6992452144622803, -1.12255859375, -0.2265625, -0.099609375
150, 572351359, 3.5564517974853516, 8.422531127929688, -5.890565872192383, -48.690982818603516, 280.0647888183594, 90.55040740966797, -1.1708984375, -0.22119140625, -0.14892578125
151, 572368026, 4.721098899841309, 5.9559149742126465, -5.548422813415527, -67.34834289550781, 284.2513732910156, 92.01824188232422, -1.2216796875, -0.212158203125, -0.206787109375
152, 572384693, 4.662168502807617, 5.091987133026123, -6.4122772216796875, -41.94704055786133, 272.037841796875, 33.156036376953125, -1.26171875, -0.20947265625, -0.26904296875
153, 572401360, 3.4929680824279785, 3.312274932861328, -5.260236740112305, 185.31723022460938, 179.86422729492188, -57.96248245239258, -1.2666015625, -0.207275390625, -0.274169921875
154, 572418027, 8.081963539123535, 5.088090896606445, -6.345108509063721, -3.8636434078216553, 182.56973266601562, 5.846537113189697, -1.278076171875, -0.199951171875, -0.288330078125
155, 572434694, 9.08228874206543, 5.966339588165283, -5.770601749420166, -125.3565673828125, 351.5929260253906, -7.593209266662598, -1.297607421875, -0.208984375, -0.379638671875
156, 572451361, 9.514986991882324, 5.834514617919922, -3.9022183418273926, -43.791385650634766, 437.7370910644531, -10.556320190429688, -1.31201171875, -0.21435546875, -0.473388671875
157, 572468028, 7.752825736999512, 5.881969451904297, -4.775075912475586, 55.47811508178711, 470.68365478515625, -7.32725715637207, -1.315673828125, -0.21435546875, -0.556396484375
158, 572484695, 7.90980339050293, 6.372814178466797, -3.4857447147369385, 100.17461395263672, 435.1506042480469, -12.43228530883789, -1.307373046875, -0.216796875, -0.621826171875
159, 572501362, 7.720981597900391, 6.968844890594482, -1.2885581254959106, 1.3713752031326294, 364.1670837402344, -2.410923719406128, -1.296142578125, -0.2197265625, -0.68603515625
160, 572518029, 6.868535041809082, 5.609853744506836, -2.668146848678589, -13.51546859741211, 330.04412841796875, 42.27198791503906, -1.284423828125, -0.213623046875, -0.755859375
161, 572534696, 8.524079322814941, 4.67775821685791, -0.5919551849365234, 22.57770538330078, 437.97406005859375, 93.89574432373047, -1.271484375, -0.199462890625, -0.82861328125
162, 572551363, 6.734353542327881, 4.97492790222168, 3.9966397285461426, 51.70030975341797, 514.3898315429688, 72.86555480957031, -1.244873046875, -0.18994140625, -0.903076171875
163, 572568030, 6.555134296417236, 4.848763942718506, 4.164011478424072, -33.26509094238281, 543.1161499023438, 36.467247009277344, -1.188720703125, -0.1787109375, -0.99853515625
164, 572584697, 5.789733409881592, 5.596768856048584, 3.1747210025787354, -11.596755981445312, 564.6660766601562, -10.377167701721191, -1.11328125, -0.176513671875, -1.0830078125
165, 572601364, 4.92945671081543, 4.9281487464904785, 4.226172924041748, -40.779571533203125, 508.4438171386719, -57.55088806152344, -1.01416015625, -0.178466796875, -1.149658203125
166, 572618031, 3.666658878326416, 3.9211063385009766, 5.223512172698975, -125.27913665771484, 403.0574035644531, -52.073299407958984, -0.92236328125, -0.1591796875, -1.2119140625
167, 572634698, 3.6330766677856445, 4.717884540557861, 7.604394912719727, -135.316650390625, 377.0557861328125, -28.566728591918945, -0.84033203125, -0.13818359375, -1.261962890625
168, 572651365, 3.62740421295166, 5.627726078033447, 8.59051513671875, -150.7230224609375, 419.5994873046875, -42.87736129760742, -0.744873046875, -0.107177734375, -1.3037109375
169, 572668032, 2.6716933250427246, 6.1353888511657715, 8.924827575683594, -155.0437469482422, 457.6751708984375, -77.27117919921875, -0.63427734375, -0.072021484375, -1.33544921875
170, 572684699, 1.8794772624969482, 5.562741756439209, 8.945104598999023, -200.14376831054688, 420.79443359375, -95.84625244140625, -0.516845703125, -0.02783203125, -1.357177734375
171, 572701366, 0.31743574142456055, 3.555194854736328, 8.039286613464355, -215.12255859375, 362.2154235839844, -108.87730407714844, -0.409423828125, 0.03173828125, -1.369873046875
172, 572718033, -1.5085718631744385, 1.2123945951461792, 8.156819343566895, -185.08653259277344, 308.4375, -99.52696228027344, -0.31884765625, 0.087890625, -1.366455078125
173, 572734700, -2.5406832695007324, -0.12176145613193512, 9.270862579345703, -164.18894958496094, 239.34600830078125, -63.508575439453125, -0.24853515625, 0.134521484375, -1.359619140625
174, 572751367, -3.1773719787597656, -0.18738670647144318, 9.527067184448242, -153.03387451171875, 152.90670776367188, -31.370147705078125, -0.201416015625, 0.177490234375, -1.35205078125
175, 572768034, -3.179324150085449, -0.26644033193588257, 9.58882999420166, -124.44159698486328, 71.09027099609375, -8.843247413635254, -0.179931640625, 0.213134765625, -1.351806640625
176, 572784701, -3.1801650524139404, -0.46883735060691833, 9.388748168945312, -91.98965454101562, 19.300003051757812, 11.086954116821289, -0.171875, 0.23291015625, -1.35400390625
177, 572801368, -3.2427775859832764, -0.5588510632514954, 9.468395233154297, -55.83684158325195, -16.548316955566406, 25.02272605895996, -0.173095703125, 0.246826171875, -1.361083984375
178, 572818035, -2.6106274127960205, 0.11049248278141022, 10.82391357421875, -47.6426887512207, -43.69904708862305, 34.36738967895508, -0.18701171875, 0.251953125, -1.371337890625
179, 572834702, -3.1329896450042725, 0.7374943494796753, 11.054157257080078, -57.310813903808594, -0.6849049925804138, 16.769887924194336, -0.192626953125, 0.263427734375, -1.3759765625
180, 572851369, -3.190031051635742, 0.8392659425735474, 7.486398220062256, -41.24712371826172, 64.52140045166016, 17.006399154663086, -0.181884765625, 0.27392578125, -1.370361328125
181, 572868036, -2.044584274291992, 0.6760784387588501, 9.006641387939453, -62.224029541015625, 50.25459671020508, -25.71823501586914, -0.170166015625, 0.29052734375, -1.36962890625
182, 572884703, -4.836655616760254, 0.2165316790342331, 5.6152567863464355, -16.039291381835938, 51.66876983642578, -27.85708236694336, -0.150390625, 0.29736328125, -1.36376953125
183, 572901370, -0.6107743382453918, 0.9689197540283203, 7.04660701751709, -19.350296020507812, -49.34347152709961, -95.3486328125, -0.147705078125, 0.306396484375, -1.367431640625
184, 572918037, 1.2791866064071655, 2.4514660835266113, 9.131693840026855, 13.265875816345215, -64.33768463134766, -158.3553924560547, -0.162841796875, 0.33544921875, -1.381591796875
185, 572934704, -5.991152286529541, 0.21822519600391388, 9.957904815673828, 49.021663665771484, 53.287471771240234, -136.33462524414062, -0.149169921875, 0.345947265625, -1.369384765625
186, 572951371, -5.523921489715576, -0.9188118577003479, 9.381102561950684, 108.09526824951172, 154.6595001220703, -150.47117614746094, -0.11474609375, 0.344482421875, -1.347412109375
187, 572968038, -4.565948486328125, -0.25749292969703674, 9.89235782623291, 148.25816345214844, 236.40200805664062, -165.75967407226562, -0.051513671875, 0.339111328125, -1.300048828125
188, 572984705, -2.4306721687316895, -0.6542431116104126, 9.356247901916504, 47.18754577636719, 91.44705963134766, -94.29885864257812, -0.016845703125, 0.3447265625, -1.27392578125
189, 573001372, -1.095072627067566, -0.24674370884895325, 8.875868797302246, 90.42951965332031, 82.09830474853516, -29.349647521972656, 0.003173828125, 0.336181640625, -1.255126953125
190, 573018039, -5.263971328735352, 0.28178831934928894, 8.41539192199707, 50.03963088989258, 11.039284706115723, 0.49244073033332825, 0.00732421875, 0.3251953125, -1.24658203125
191, 573034706, -4.646934509277344, -0.13544312119483948, 7.584726810455322, 76.3604965209961, -9.662642478942871, -2.1552765369415283, 0.007080078125, 0.31201171875, -1.24462890625
192, 573051373, -5.878561496734619, 0.1759149134159088, 7.2457780838012695, 134.05677795410156, 14.395941734313965, -35.25215530395508, 0.01123046875, 0.291015625, -1.23681640625
193, 573068040, -6.417962551116943, 0.7797272205352783, 7.847717761993408, 207.5819091796875, 79.30162811279297, -94.98136901855469, 0.027099609375, 0.26953125, -1.212158203125
194, 573084707, -4.863285541534424, 2.8348495960235596, 9.992423057556152, 208.3402557373047, 143.59742736816406, -139.16574096679688, 0.060546875, 0.255859375, -1.17041015625
195, 573101374, -3.954589366912842, 3.90608549118042, 10.072362899780273, 104.54541015625, 116.30563354492188, -94.38548278808594, 0.093505859375, 0.2568359375, -1.134765625
196, 573118041, -4.263429641723633, 2.4261138439178467, 9.226585388183594, 52.44015121459961, 98.66880798339844, -31.463943481445312, 0.11279296875, 0.2568359375, -1.10791015625
197, 573134708, -5.390233516693115, 2.3104074001312256, 7.775318622589111, 65.23841094970703, 126.76473236083984, -2.4674482345581055, 0.130859375, 0.24755859375, -1.072998046875
198, 573151375, -6.091011047363281, 1.808390498161316, 5.971510410308838, 92.6913070678711, 137.5086669921875, 12.864391326904297, 0.153076171875, 0.235595703125, -1.03564453125
199, 573168042, -5.090072154998779, 1.8049595355987549, 5.631914138793945, 156.9989013671875, 156.4214630126953, 36.4351921081543, 0.16845703125, 0.209228515625, -0.9873046875
200, 573184709, -6.843717098236084, 2.6398441791534424, 5.601004600524902, 223.50296020507812, 150.7403564453125, 61.39114761352539, 0.184326171875, 0.1689453125, -0.931396484375
201, 573201376, -5.94603967666626, 3.9760496616363525, 7.304338455200195, 246.8754119873047, 140.90065002441406, 71.07353210449219, 0.192626953125, 0.12646484375, -0.871826171875
202, 573218043, -5.105002403259277, 4.552859783172607, 7.541988849639893, 250.7455596923828, 248.15774536132812, 44.046512603759766, 0.20263671875, 0.08935546875, -0.78857421875
203, 573234710, -6.763989448547363, 3.527480363845825, 4.585780143737793, 263.82647705078125, 436.0584411621094, -81.18586730957031, 0.225830078125, 0.089599609375, -0.651611328125
204, 573251377, -9.529679298400879, 4.028870105743408, 1.1416940689086914, 291.67132568359375, 507.563232421875, -118.61783599853516, 0.24658203125, 0.1201171875, -0.48974609375
205, 573268044, -8.832178115844727, 4.829830646514893, -0.17656129598617554, 318.5453796386719, 512.1306762695312, -32.93098068237305, 0.234130859375, 0.14453125, -0.3212890625
206, 573284711, -10.960522651672363, 6.532384395599365, -2.968583822250366, 283.3345642089844, 465.4043273925781, 51.55082321166992, 0.189453125, 0.1640625, -0.168701171875
207, 573301378, -10.855717658996582, 4.2606706619262695, -5.161210536956787, 196.15301513671875, 363.31463623046875, 72.92064666748047, 0.135986328125, 0.17431640625, -0.0556640625
208, 573318045, -7.735267162322998, 4.614936351776123, -3.485679864883423, 161.66482543945312, 318.47186279296875, 95.98289489746094, 0.0751953125, 0.180419921875, 0.031005859375
209, 573334712, -7.085616111755371, 3.8694498538970947, -3.810464859008789, 177.5203399658203, 355.0848693847656, 98.52383422851562, 0.004638671875, 0.189453125, 0.11328125
210, 573351379, -7.796480178833008, 5.290494918823242, -6.060510158538818, 216.1211700439453, 381.6398620605469, 109.41751098632812, -0.08251953125, 0.214599609375, 0.20458984375
211, 573368046, -8.747154235839844, 5.749048233032227, -8.715375900268555, 233.03927612304688, 312.4887390136719, 75.90044403076172, -0.168212890625, 0.253173828125, 0.274169921875
212, 573384713, -6.098999977111816, 4.86990213394165, -8.378026008605957, 235.57388305664062, 231.82200622558594, 54.626861572265625, -0.23486328125, 0.304931640625, 0.3212890625
213, 573401380, -4.755526065826416, 4.3935346603393555, -7.890733242034912, 215.22518920898438, 183.61024475097656, 70.91458129882812, -0.28955078125, 0.35302734375, 0.352294921875
214, 573418047, -4.614757537841797, 5.977296352386475, -5.2376708984375, 119.5304183959961, 95.47152709960938, 112.56188201904297, -0.326171875, 0.382080078125, 0.3720703125
215, 573434714, -4.854450225830078, 3.966421604156494, -5.895637035369873, 66.8010025024414, 82.56437683105469, 113.37329864501953, -0.35107421875, 0.394287109375, 0.382080078125
216, 573451381, -3.8624491691589355, 5.109002590179443, -7.40721321105957, -45.34281921386719, 52.078060150146484, 83.24527740478516, -0.372802734375, 0.38427734375, 0.385009765625
217, 573468048, -4.79072904586792, 4.989818096160889, -9.171197891235352, -301.0947265625, 106.80165100097656, 54.33590316772461, -0.403564453125, 0.309814453125, 0.381103515625
218, 573484715, -5.357797145843506, 3.816220760345459, -7.350999355316162, -69.4631576538086, -50.507720947265625, 18.226051330566406, -0.395751953125, 0.271728515625, 0.367919921875
219, 573501382, -1.5723103284835815, 5.420994758605957, -5.782639503479004, -64.47013092041016, 97.42689514160156, 15.384614944458008, -0.407470703125, 0.26025390625, 0.371337890625
220, 573518049, -5.96600341796875, 2.2649993896484375, -8.904370307922363, 4.656529903411865, 70.04403686523438, 12.775619506835938, -0.44091796875, 0.243408203125, 0.377197265625
221, 573534716, -2.4398839473724365, 3.6002495288848877, -8.056451797485352, 87.06360626220703, 28.082956314086914, 4.929264545440674, -0.44775390625, 0.267333984375, 0.385009765625
222, 573551383, -1.396454930305481, 2.1028709411621094, -9.184855461120605, 12.748108863830566, 59.94008255004883, 1.4944055080413818, -0.460693359375, 0.27978515625, 0.39111328125
223, 573568050, -2.2336220741271973, 4.220156192779541, -6.798227310180664, 93.85262298583984, 50.29720687866211, 18.312915802001953, -0.478271484375, 0.296630859375, 0.396240234375
224, 573584717, -1.6040929555892944, 3.474149227142334, -7.5035505294799805, 55.39579391479492, 60.5899658203125, 4.861739158630371, -0.494384765625, 0.3134765625, 0.405029296875
225, 573601384, -1.5217941999435425, 3.6029348373413086, -7.512047290802002, 11.227262496948242, 82.32337188720703, 6.818850994110107, -0.518310546875, 0.31787109375, 0.408447265625
226, 573618051, -2.1780049800872803, 3.847243547439575, -7.693756580352783, -17.81396484375, 64.73355865478516, 0.9423636794090271, -0.5380859375, 0.317626953125, 0.40869140625
227, 573634718, -2.2761764526367188, 3.6467206478118896, -8.279805183410645, -9.67628002166748, 66.48116302490234, -6.448426246643066, -0.557373046875, 0.3115234375, 0.410400390625
228, 573651385, -1.6215567588806152, 3.006591796875, -8.519564628601074, 49.03507995605469, 122.66581726074219, -10.659712791442871, -0.5830078125, 0.32177734375, 0.415283203125
229, 573668052, -1.6704602241516113, 2.6728243827819824, -8.641968727111816, 100.9996566772461, 183.6642608642578, -18.636301040649414, -0.63134765625, 0.345458984375, 0.4248046875
230, 573684719, -2.2329204082489014, 1.9721472263336182, -7.997189998626709, 163.46363830566406, 182.4525604248047, -36.43271255493164, -0.68017578125, 0.3857421875, 0.428955078125
231, 573701386, -1.1083266735076904, 1.841795802116394, -8.320796012878418, 229.3052520751953, 245.9256591796875, -33.894508361816406, -0.741943359375, 0.449462890625, 0.429443359375
232, 573718053, -1.1535221338272095, 3.0328502655029297, -7.794394493103027, 173.6314697265625, 254.7169647216797, 8.855518341064453, -0.8203125, 0.5009765625, 0.42041015625
233, 573734720, 1.1238322257995605, 2.786471128463745, -10.573254585266113, 132.69439697265625, 194.1032257080078, 21.199317932128906, -0.87548828125, 0.543701171875, 0.408203125
234, 573751387, 2.8224477767944336, 1.9426143169403076, -10.571256637573242, 92.09215545654297, 212.23281860351562, 37.178836822509766, -0.93798828125, 0.572998046875, 0.388427734375
235, 573768054, -0.594374418258667, 0.8382829427719116, -11.301786422729492, 47.50994110107422, 159.75953674316406, 95.40363311767578, -0.986083984375, 0.595947265625, 0.373046875
236, 573784721, 2.793623447418213, 1.1472424268722534, -11.23166275024414, 97.54090118408203, 137.65415954589844, 20.673389434814453, -1.0166015625, 0.621826171875, 0.35546875
237, 573801388, 3.343851327896118, 0.8727802038192749, -11.896693229675293, 155.78968811035156, 157.65135192871094, -17.441314697265625, -1.056884765625, 0.65673828125, 0.335693359375
238, 573818055, 3.925048589706421, 0.30924341082572937, -12.428669929504395, 252.8686065673828, 253.13624572753906, -29.010976791381836, -1.115234375, 0.710205078125, 0.2939453125
239, 573834722, 4.6565961837768555, 0.13854819536209106, -11.319336891174316, 290.6606750488281, 340.11865234375, -17.573959350585938, -1.19189453125, 0.7744140625, 0.224365234375
240, 573851389, 5.0916056632995605, 0.328374445438385, -9.168478965759277, 306.1932067871094, 326.8369140625, -17.340166091918945, -1.267333984375, 0.838623046875, 0.1376953125
241, 573868056, 6.406421184539795, 0.16136211156845093, -9.245368003845215, 300.081298828125, 223.91635131835938, 25.185718536376953, -1.31396484375, 0.894775390625, 0.063720703125
242, 573884723, 6.314193248748779, -2.860861301422119, -6.995998859405518, 288.61907958984375, 153.69529724121094, 29.737810134887695, -1.337890625, 0.951416015625, -0.00927734375
243, 573901390, 6.947457790374756, -3.858889102935791, -7.1005048751831055, 247.2643585205078, 84.46380615234375, -17.209930419921875, -1.353759765625, 0.99169921875, -0.065185546875
244, 573918057, 7.759265899658203, -2.900805711746216, -4.0683674812316895, 196.8450164794922, 37.41447448730469, -11.465502738952637, -1.3671875, 1.013427734375, -0.1064453125
245, 573934724, 6.75673246383667, -3.6568102836608887, -6.696714878082275, 113.56474304199219, 37.689754486083984, -3.4399330615997314, -1.369873046875, 1.02978515625, -0.132080078125
246, 573951391, 6.918899059295654, -4.370107650756836, -7.160336494445801, 117.14098358154297, 39.09590148925781, -10.452596664428711, -1.37353515625, 1.04150390625, -0.15673828125
247, 573968058, 6.994410991668701, -4.7348127365112305, -7.600924015045166, 154.87461853027344, 35.558250427246094, -18.17991828918457, -1.3818359375, 1.053955078125, -0.188720703125
248, 573984725, 5.983467102050781, -4.35577392578125, -5.456460952758789, 186.7862548828125, 19.7391414642334, -23.962236404418945, -1.388427734375, 1.06787109375, -0.224853515625
249, 574001392, 4.489670753479004, -0.40599286556243896, -4.071628570556641, 155.33982849121094, 17.774866104125977, -10.416818618774414, -1.396240234375, 1.078125, -0.256591796875
250, 574018059, 7.854716777801514, -4.301546573638916, -10.734386444091797, 233.4112548828125, -5.896305561065674, 85.99649047851562, -1.38330078125, 1.10546875, -0.286376953125
251, 574034726, 5.609898090362549, -6.3585286140441895, -6.423541069030762, 352.04620361328125, -0.18463975191116333, 101.91728973388672, -1.36376953125, 1.152099609375, -0.35107421875
252, 574051393, 7.454638481140137, -6.3124542236328125, -5.927741527557373, 434.5899658203125, 18.768693923950195, 105.1583480834961, -1.346435546875, 1.1904296875, -0.435302734375
253, 574068060, 7.25015926361084, -7.15738582611084, -4.564342498779297, 489.2524108886719, 7.132183074951172, 127.85596466064453, -1.32275390625, 1.224853515625, -0.534912109375
254, 574084727, 6.163536548614502, -7.994783401489258, -2.99729585647583, 509.68865966796875, -26.90548324584961, 116.41150665283203, -1.296630859375, 1.241455078125, -0.640625
255, 574101394, 5.927577972412109, -7.817389965057373, -1.7690235376358032, 524.3285522460938, -67.60285186767578, 103.70001220703125, -1.275390625, 1.2373046875, -0.7431640625
256, 574118061, 5.40236759185791, -7.83402156829834, -0.8968105316162109, 535.4457397460938, -126.43646240234375, 106.8907470703125, -1.258056640625, 1.220947265625, -0.836181640625
257, 574134728, 5.6431427001953125, -8.158411979675293, -0.3469216227531433, 584.7981567382812, -169.03697204589844, 121.615478515625, -1.250244140625, 1.1875, -0.92333984375
258, 574151395, 6.058043003082275, -5.563283920288086, 1.4444403648376465, 745.0675659179688, -128.23776245117188, 58.67841720581055, -1.25146484375, 1.114501953125, -1.02978515625
259, 574168062, 3.1107630729675293, -4.454685211181641, 3.2659173011779785, 688.6339111328125, -105.15361785888672, -73.01225280761719, -1.275146484375, 0.986328125, -1.13232421875
260, 574184729, 5.755122184753418, -6.64802360534668, 5.7106614112854, 307.7501220703125, -49.57944107055664, 63.70294952392578, -1.289794921875, 0.920166015625, -1.16943359375
261, 574201396, 4.787851333618164, -6.042080879211426, 5.632682800292969, 213.70181274414062, 163.20594787597656, 98.25436401367188, -1.252197265625, 0.900146484375, -1.216552734375
262, 574218063, 3.798184871673584, -4.303682804107666, 7.095151901245117, 255.9084014892578, 145.02001953125, 94.47303009033203, -1.211181640625, 0.86572265625, -1.270263671875
263, 574234730, 3.5675981044769287, -5.402219772338867, 7.84116792678833, 322.40509033203125, 150.49069213867188, 121.23477935791016, -1.16796875, 0.8173828125, -1.3212890625
264, 574251397, 4.513072967529297, -6.1925048828125, 7.752340316772461, 365.8985290527344, 150.71888732910156, 148.3101806640625, -1.118896484375, 0.75439453125, -1.37158203125
265, 574268064, 4.06991720199585, -5.138455867767334, 7.732415676116943, 382.0869140625, 181.54922485351562, 152.8529510498047, -1.06884765625, 0.678955078125, -1.41650390625
266, 574284731, 2.868868827819824, -3.2787821292877197, 7.616046905517578, 396.58489990234375, 177.45486450195312, 165.64736938476562, -1.01123046875, 0.594970703125, -1.45654296875
267, 574301398, 2.4781603813171387, -0.6394674777984619, 8.217574119567871, 380.0800476074219, 70.30809783935547, 100.06474304199219, -0.985107421875, 0.50244140625, -1.466796875
268, 574318065, 0.7157324552536011, -0.8244324922561646, 8.550869941711426, 315.1966247558594, 122.20635986328125, 39.30702209472656, -0.95263671875, 0.41796875, -1.4755859375
269, 574334732, 1.326748251914978, -0.443910151720047, 9.494450569152832, 276.9056396484375, 174.90528869628906, 36.047760009765625, -0.91650390625, 0.344482421875, -1.47509765625
270, 574351399, 0.5205477476119995, 0.3660399317741394, 9.252111434936523, 279.9518127441406, 281.45068359375, 17.95307731628418, -0.848388671875, 0.270751953125, -1.476806640625
271, 574368066, -1.7488917112350464, 2.552945137023926, 9.005256652832031, 251.18641662597656, 268.2535095214844, -22.006662368774414, -0.765380859375, 0.19921875, -1.469970703125
272, 574384733, -4.1826863288879395, 4.0284857749938965, 8.722943305969238, 181.49774169921875, 126.63780212402344, -31.525663375854492, -0.717529296875, 0.143798828125, -1.454345703125
273, 574401400, -3.8628783226013184, 3.827676773071289, 9.93269157409668, 108.69206237792969, 66.61466979980469, -44.94525909423828, -0.695068359375, 0.10986328125, -1.43798828125
274, 574418067, -2.6496944427490234, 1.4008283615112305, 10.275556564331055, 66.96150970458984, 76.86478424072266, -51.347679138183594, -0.67041015625, 0.087890625, -1.431396484375
275, 574434734, -2.2493667602539062, 0.9392579197883606, 9.896234512329102, 55.256446838378906, 88.19073486328125, -37.208309173583984, -0.64404296875, 0.074462890625, -1.42578125
276, 574451401, -1.8884902000427246, 2.1084275245666504, 8.969358444213867, 54.577117919921875, 78.28783416748047, -46.81429672241211, -0.616455078125, 0.06103515625, -1.41748046875
277, 574468068, -1.1702390909194946, 2.74104380607605, 7.692986488342285, 57.0782470703125, 99.18392944335938, -69.21864318847656, -0.58740234375, 0.049560546875, -1.409912109375
278, 574484735, -4.191537857055664, 2.9883062839508057, 8.177619934082031, 48.537193298339844, 80.20429992675781, -116.59852600097656, -0.545166015625, 0.038818359375, -1.40087890625
279, 574501402, -2.2124788761138916, -1.1101185083389282, 8.590499877929688, 29.105016708374023, 54.697166442871094, -74.8408432006836, -0.520751953125, 0.033935546875, -1.3974609375
280, 574518069, -2.2728829383850098, -0.37021297216415405, 9.883260726928711, 50.78093719482422, 58.897239685058594, 23.880027770996094, -0.503662109375, 0.025634765625, -1.384765625
281, 574534736, -5.095658779144287, 5.558866024017334, 7.935482025146484, 175.7058563232422, 5.211944103240967, 16.483409881591797, -0.503173828125, -0.01318359375, -1.364990234375
282, 574551403, -4.126431941986084, 3.910740375518799, 8.45662784576416, 203.3299102783203, -7.995259761810303, -51.61930465698242, -0.50048828125, -0.05859375, -1.33447265625
283, 574568070, -3.61905574798584, 4.308536052703857, 8.004026412963867, 193.06118774414062, 16.502126693725586, -34.35578155517578, -0.49072265625, -0.099365234375, -1.297119140625
284, 574584737, -4.0116376876831055, 4.11045503616333, 8.403099060058594, 238.6031494140625, 32.340606689453125, -13.598136901855469, -0.480712890625, -0.147216796875, -1.25341796875
285, 574601404, -4.289107322692871, 4.798186302185059, 7.86318826675415, 291.75115966796875, 45.32746505737305, 13.046216011047363, -0.471923828125, -0.20166015625, -1.195556640625
286, 574618071, -4.238032341003418, 5.7061686515808105, 7.094407558441162, 334.1314392089844, 43.639217376708984, 29.198448181152344, -0.470703125, -0.26220703125, -1.124755859375
287, 574634738, -3.898008346557617, 6.451948165893555, 6.241010665893555, 342.3121032714844, 26.82241439819336, 51.09969711303711, -0.474853515625, -0.317626953125, -1.041748046875
288, 574651405, -3.6378393173217773, 6.914703845977783, 5.044879913330078, 340.3927307128906, 15.087241172790527, 57.35359191894531, -0.48583984375, -0.36572265625, -0.95654296875
289, 574668072, -3.4714345932006836, 7.6177592277526855, 3.760406732559204, 369.08782958984375, 18.73355484008789, 61.684574127197266, -0.49853515625, -0.40869140625, -0.860595703125
290, 574684739, -3.27130389213562, 8.31615924835205, 2.869835376739502, 403.4801940917969, 38.76997756958008, 71.58326721191406, -0.517578125, -0.440185546875, -0.7509765625
291, 574701406, -3.4730820655822754, 9.318582534790039, 2.443181037902832, 426.6822509765625, 56.57722091674805, 80.07170104980469, -0.536376953125, -0.463134765625, -0.629150390625
292, 574718073, -3.1859049797058105, 10.144614219665527, 1.454416036605835, 438.69000244140625, 67.2572250366211, 85.89409637451172, -0.558837890625, -0.46923828125, -0.500732421875
293, 574734740, -1.6670446395874023, 10.296326637268066, -0.3684524595737457, 443.7423400878906, 75.64972686767578, 109.14073944091797, -0.592041015625, -0.457275390625, -0.3759765625
294, 574751407, -1.3751232624053955, 9.977935791015625, -8.851163864135742, 587.0177001953125, 223.07791137695312, 164.52670288085938, -0.643310546875, -0.421142578125, -0.2255859375
295, 574768074, -3.73687744140625, 10.518193244934082, -5.975678443908691, 745.5934448242188, 371.19647216796875, 173.7133026123047, -0.7275390625, -0.33447265625, -0.041259765625
296, 574784741, -4.606627464294434, 10.521074295043945, -3.4406509399414062, 768.4204711914062, 365.1334533691406, 129.2414093017578, -0.82666015625, -0.19677734375, 0.118896484375
297, 574801408, -3.3120462894439697, 5.3509440422058105, -5.760701656341553, 810.9403076171875, 287.4388122558594, 89.97667694091797, -0.91064453125, -0.02685546875, 0.23828125
298, 574818075, -2.3421740531921387, 6.12833309173584, -0.5416127443313599, 958.1210327148438, 104.57952117919922, 168.06092834472656, -0.974365234375, 0.216552734375, 0.33642578125
299, 574834742, 2.5890297889709473, 10.839332580566406, -5.864518642425537, 509.2446594238281, -63.58304977416992, 80.703125, -0.96435546875, 0.4013671875, 0.37744140625
300, 574851409, 3.260350227355957, 5.691457271575928, -13.200749397277832, 166.94482421875, 171.16041564941406, 113.05792236328125, -0.9921875, 0.466552734375, 0.372802734375
301, 574868076, 1.8980188369750977, 0.1941598653793335, -10.486225128173828, 195.27684020996094, 272.3281555175781, 156.639892578125, -1.064697265625, 0.53173828125, 0.341796875
302, 574884743, 1.7308169603347778, -0.21802300214767456, -7.479299545288086, 233.73519897460938, 228.12005615234375, 113.1734390258789, -1.126220703125, 0.60986328125, 0.304931640625
303, 574901410, 2.1668806076049805, 0.9778579473495483, -8.458165168762207, 194.6339569091797, 168.1808624267578, 80.84793090820312, -1.16845703125, 0.66943359375, 0.27197265625
304, 574918077, 3.2814207077026367, 0.29195791482925415, -9.468673706054688, 172.61090087890625, 160.16421508789062, 80.14270782470703, -1.199951171875, 0.72412109375, 0.23681640625
305, 574934744, 4.038259506225586, -0.7398954629898071, -10.117429733276367, 161.6080322265625, 166.67213439941406, 75.67366790771484, -1.230712890625, 0.774169921875, 0.19775390625
306, 574951411, 4.842088222503662, -0.89559406042099, -9.717423439025879, 149.67481994628906, 192.4728546142578, 81.8948745727539, -1.2626953125, 0.820556640625, 0.14990234375
307, 574968078, 5.22321891784668, -2.247197389602661, -9.128851890563965, 138.21743774414062, 205.71786499023438, 88.50004577636719, -1.296142578125, 0.862548828125, 0.1005859375
308, 574984745, 5.243893623352051, -3.9022674560546875, -8.42873764038086, 146.366943359375, 213.0610809326172, 51.63587188720703, -1.3271484375, 0.903564453125, 0.04345703125
309, 575001412, 6.345674991607666, -3.813793420791626, -7.767967700958252, 140.42861938476562, 243.93971252441406, -34.72611618041992, -1.365234375, 0.925048828125, -0.020263671875
310, 575018079, 8.73866081237793, -2.866671085357666, -7.618403434753418, 109.70703887939453, 264.642333984375, -43.91359329223633, -1.4091796875, 0.928955078125, -0.092529296875
311, 575034746, 6.467007160186768, -5.851391792297363, -6.7596354484558105, 101.18707275390625, 281.8263854980469, -74.7348403930664, -1.447998046875, 0.9306640625, -0.167724609375
312, 575051413, 7.442190170288086, -2.702824831008911, -7.354615211486816, 87.78749084472656, 368.9850769042969, -128.14886474609375, -1.4970703125, 0.908935546875, -0.264892578125
313, 575068080, 8.608481407165527, -2.2303755283355713, -4.0211873054504395, 100.41387176513672, 369.394775390625, -91.57170867919922, -1.53515625, 0.88720703125, -0.36865234375
314, 575084747, 8.839164733886719, -2.221588134765625, -2.0545148849487305, 67.04879760742188, 317.0638732910156, -66.82467651367188, -1.55712890625, 0.873779296875, -0.46484375
315, 575101414, 9.42448902130127, -2.062387466430664, -2.115631103515625, 51.19154739379883, 225.63816833496094, -46.717098236083984, -1.566162109375, 0.860107421875, -0.53466796875
316, 575118081, 9.083775520324707, -2.9226396083831787, -2.863630771636963, 45.66557312011719, 178.31585693359375, -58.86543273925781, -1.571044921875, 0.846923828125, -0.588134765625
317, 575134748, 9.674838066101074, -2.022231101989746, -2.043994426727295, 44.2951545715332, 164.80377197265625, -89.44660186767578, -1.5751953125, 0.82275390625, -0.638671875
318, 575151415, 10.535207748413086, -0.8029480576515198, -0.9516632556915283, 31.775094985961914, 160.60044860839844, -74.29814910888672, -1.576416015625, 0.79931640625, -0.68701171875
319, 575168082, 10.812613487243652, -0.2760685682296753, -0.728569507598877, 4.656477451324463, 166.42726135253906, -38.818607330322266, -1.574951171875, 0.787109375, -0.73388671875
320, 575184749, 10.849858283996582, -0.9896048903465271, -0.6786160469055176, -0.061298467218875885, 183.49549865722656, 2.015580892562866, -1.5634765625, 0.78515625, -0.78076171875
321, 575201416, 9.53471851348877, -1.9075380563735962, -0.07740563154220581, 25.2006893157959, 194.09027099609375, 37.458595275878906, -1.546875, 0.79150390625, -0.832275390625
322, 575218083, 8.479455947875977, -2.3595821857452393, 0.6693628430366516, 54.365211486816406, 182.8260040283203, 39.39231872558594, -1.524658203125, 0.799072265625, -0.884521484375
323, 575234750, 8.928459167480469, -2.018813133239746, 1.2740955352783203, 70.07582092285156, 172.38758850097656, 36.9786491394043, -1.50146484375, 0.799072265625, -0.9345703125
324, 575251417, 8.428865432739258, -2.256256341934204, 2.1973133087158203, 63.21508026123047, 178.85671997070312, 26.90501594543457, -1.479736328125, 0.79931640625, -0.984619140625
325, 575268084, 8.048432350158691, -2.1190297603607178, 2.750903367996216, 27.67832374572754, 167.6073455810547, -10.02419376373291, -1.4560546875, 0.795654296875, -1.029052734375
326, 575284751, 9.113059043884277, -1.5469934940338135, 4.573085308074951, 23.597137451171875, 90.61471557617188, 2.7741780281066895, -1.43896484375, 0.79052734375, -1.059814453125
327, 575301418, 9.0950288772583, -2.639874219894409, 3.3312981128692627, 35.21938705444336, -0.2564484477043152, 14.179754257202148, -1.43603515625, 0.78955078125, -1.063720703125
328, 575318085, 12.340167045593262, -0.9570062756538391, -2.9887921810150146, 87.50264739990234, 59.361045837402344, 60.74169158935547, -1.431640625, 0.78857421875, -1.07470703125
329, 575334752, 8.987180709838867, -2.3520939350128174, 2.7319722175598145, 61.08372116088867, 247.09695434570312, 106.57044982910156, -1.38427734375, 0.7978515625, -1.130859375
330, 575351419, 7.709316730499268, -2.8261606693267822, 3.4091031551361084, 32.63870620727539, 225.52032470703125, 108.69740295410156, -1.3330078125, 0.815185546875, -1.182373046875
331, 575368086, 6.538271427154541, -3.741877555847168, 3.9657936096191406, 38.609375, 199.8868408203125, 91.44751739501953, -1.28564453125, 0.825927734375, -1.22509765625
332, 575384753, 7.014673709869385, -3.700864553451538, 5.16253137588501, 76.24154663085938, 153.01182556152344, 80.49417114257812, -1.243896484375, 0.828857421875, -1.259765625
333, 575401420, 7.927804946899414, -3.074859142303467, 5.578030586242676, 102.34765625, 119.85051727294922, 92.24285888671875, -1.20849609375, 0.81884765625, -1.29150390625
334, 575418087, 8.386056900024414, -2.7807750701904297, 5.872866153717041, 133.9664764404297, 117.94428253173828, 137.3887939453125, -1.169921875, 0.813720703125, -1.3203125
335, 575434754, 8.162508964538574, -3.322803497314453, 6.289582252502441, 189.08392333984375, 111.92748260498047, 164.8269805908203, -1.12841796875, 0.79736328125, -1.3525390625
336, 575451421, 8.54178524017334, -2.6591005325317383, 6.73004674911499, 304.5977783203125, 51.057838439941406, 179.1294708251953, -1.09814453125, 0.756103515625, -1.38330078125
337, 575468088, 6.860569953918457, -1.6243525743484497, 6.567734718322754, 329.4627990722656, 30.773271560668945, 175.8615264892578, -1.07666015625, 0.6953125, -1.41064453125
338, 575484755, 6.912642002105713, 0.31684738397598267, 6.627444744110107, 277.22467041015625, 67.77317810058594, 163.47634887695312, -1.055419921875, 0.640380859375, -1.42919921875
339, 575501422, 5.350831985473633, 0.4481097459793091, 8.17559814453125, 184.8739471435547, 264.68841552734375, 107.51512908935547, -1.001220703125, 0.596435546875, -1.458984375
340, 575518089, 3.785801649093628, -1.9610615968704224, 7.267352104187012, 103.78044891357422, 472.8739013671875, 88.15794372558594, -0.884521484375, 0.575439453125, -1.496826171875
341, 575534756, 3.26528000831604, -2.198639392852783, 8.621526718139648, 122.17247009277344, 549.7135009765625, 96.816650390625, -0.72900390625, 0.541748046875, -1.524169921875
342, 575551423, 3.799114227294922, -1.0658676624298096, 8.730494499206543, 44.85590362548828, 334.8235778808594, 78.8310775756836, -0.606201171875, 0.522705078125, -1.5244140625
343, 575568090, 4.996183395385742, 1.2758235931396484, 6.984036445617676, 29.635080337524414, 105.42237854003906, 131.20411682128906, -0.56201171875, 0.516357421875, -1.52099609375
344, 575584757, 2.5985963344573975, 1.1277023553848267, 5.695399284362793, 113.80154418945312, 107.14065551757812, 171.92369079589844, -0.53466796875, 0.486572265625, -1.5185546875
345, 575601424, 0.18108145892620087, 0.25148776173591614, 5.647366523742676, 212.41778564453125, 89.59558868408203, 140.15713500976562, -0.508544921875, 0.426513671875, -1.513427734375
346, 575618091, -1.4566363096237183, -0.4480164647102356, 7.651790142059326, 265.64410400390625, 1.6595208644866943, 115.04385375976562, -0.5029296875, 0.34765625, -1.501953125
347, 575634758, -1.639219045639038, -0.5369076728820801, 9.662651062011719, 252.59239196777344, -76.46630096435547, 73.53645324707031, -0.522216796875, 0.269775390625, -1.4892578125
348, 575651425, -0.2944905161857605, -0.16852480173110962, 11.691216468811035, 176.2688751220703, -0.6331603527069092, 64.11013793945312, -0.541748046875, 0.217529296875, -1.474365234375
349, 575668092, -0.4485104978084564, 0.5275568962097168, 12.99394702911377, 48.74457931518555, 177.83184814453125, 44.23497772216797, -0.508056640625, 0.1884765625, -1.461669921875
350, 575684759, -0.09332746267318726, -0.3342995345592499, 10.601053237915039, -52.58280944824219, 234.42657470703125, 68.99864196777344, -0.45166015625, 0.197265625, -1.45361328125
351, 575701426, -1.4636471271514893, -0.3036327362060547, 10.091291427612305, -63.722652435302734, 181.64193725585938, 58.14076232910156, -0.405517578125, 0.207275390625, -1.447265625
352, 575718093, -1.3425174951553345, -0.3736919164657593, 9.481573104858398, -33.64532470703125, 121.90064239501953, 45.92842102050781, -0.371337890625, 0.216552734375, -1.440185546875
353, 575734760, -1.504704475402832, -0.3300049304962158, 10.289815902709961, 8.805337905883789, 54.53888702392578, 41.061279296875, -0.35595703125, 0.212890625, -1.433837890625
354, 575751427, -2.5060737133026123, 0.08458733558654785, 9.162847518920898, 44.686893463134766, 33.59132385253906, 12.705283164978027, -0.349365234375, 0.201416015625, -1.42529296875
355, 575768094, -2.95397686958313, 0.8742272853851318, 7.571703910827637, 114.32630920410156, 32.49580764770508, -22.37801742553711, -0.339111328125, 0.177490234375, -1.4140625
356, 575784761, -1.4266265630722046, 0.8733315467834473, 9.396065711975098, 179.9647674560547, -28.923786163330078, -29.135156631469727, -0.341064453125, 0.142578125, -1.400390625
357, 575801428, -0.3702012598514557, 2.4112470149993896, 13.033340454101562, 120.67204284667969, 7.913663864135742, -6.913890361785889, -0.3408203125, 0.1044921875, -1.3828125
358, 575818095, -0.5374910235404968, 2.291867733001709, 11.701801300048828, 18.674205780029297, 54.96266555786133, 14.288551330566406, -0.328369140625, 0.093505859375, -1.37255859375
359, 575834762, -1.4798951148986816, 2.588948965072632, 10.332118034362793, 18.923738479614258, 71.72711944580078, 12.880517959594727, -0.3154296875, 0.0888671875, -1.366943359375
360, 575851429, -1.4788240194320679, 2.2630999088287354, 11.076617240905762, 9.907761573791504, 95.75433349609375, 11.69232177734375, -0.2958984375, 0.083984375, -1.357421875
361, 575868096, -2.3269436359405518, 2.2043111324310303, 9.935415267944336, -34.08000946044922, 95.65185546875, 10.653947830200195, -0.274169921875, 0.088623046875, -1.3466796875
362, 575884763, -2.6443803310394287, 1.7206116914749146, 8.771822929382324, -64.42481994628906, 82.96389770507812, 15.402213096618652, -0.25390625, 0.100341796875, -1.34716796875
363, 575901430, -3.2548110485076904, 1.7124582529067993, 9.080306053161621, -12.276508331298828, 29.661405563354492, -5.5366668701171875, -0.242431640625, 0.10400390625, -1.344970703125
364, 575918097, -3.20406436920166, 3.3356845378875732, 2.6292572021484375, 33.507144927978516, -59.115108489990234, -32.5615119934082, -0.24609375, 0.107421875, -1.34716796875
365, 575934764, 0.2488940954208374, 3.352222204208374, 10.364853858947754, 141.60281372070312, -111.4313735961914, -55.13762664794922, -0.26806640625, 0.08056640625, -1.3369140625
366, 575951431, -2.200214147567749, 2.473217248916626, 10.447888374328613, 58.61454772949219, -42.616783142089844, -73.69049835205078, -0.2724609375, 0.073486328125, -1.337646484375
367, 575968098, -3.405035972595215, 2.629585027694702, 10.758296966552734, 81.99088287353516, 8.34959888458252, -117.97013092041016, -0.26123046875, 0.06494140625, -1.326904296875
368, 575984765, -4.458932399749756, 2.6765732765197754, 8.971564292907715, 94.59725189208984, 64.05036926269531, -162.17495727539062, -0.23388671875, 0.064697265625, -1.312255859375
369, 576001432, -1.8533458709716797, 2.353919506072998, 9.672712326049805, 131.4359588623047, 93.16778564453125, -169.3336639404297, -0.187255859375, 0.061279296875, -1.282470703125
370, 576018099, 0.32143309712409973, 2.3869237899780273, 10.13776969909668, 94.0311050415039, 41.60986328125, -75.7627944946289, -0.162109375, 0.05078125, -1.260009765625
371, 576034766, -1.9127840995788574, 2.68971586227417, 8.383347511291504, 91.84260559082031, 7.6411237716674805, -15.108779907226562, -0.156494140625, 0.03759765625, -1.248291015625
372, 576051433, -0.44284477829933167, 2.643136501312256, 8.53968334197998, 148.03390502929688, 24.881732940673828, 1.0827155113220215, -0.150146484375, 0.011474609375, -1.2275390625
373, 576068100, -1.6437877416610718, 4.481827735900879, 8.499807357788086, 179.2669219970703, 43.69804382324219, 51.7901496887207, -0.15185546875, -0.03076171875, -1.195068359375
374, 576084767, -2.6345715522766113, 4.619043350219727, 6.903854846954346, 280.698974609375, 102.4598617553711, 40.824562072753906, -0.143798828125, -0.080810546875, -1.138916015625
375, 576101434, -1.7268524169921875, 4.060915470123291, 5.634921073913574, 404.0151672363281, 198.30654907226562, 9.95046329498291, -0.1181640625, -0.14453125, -1.042236328125
376, 576118101, -5.560029983520508, 5.142346382141113, 4.497766494750977, 467.0090637207031, 200.95010375976562, -48.11985397338867, -0.08349609375, -0.1982421875, -0.91845703125
377, 576134768, -6.189906120300293, 5.446728229522705, 3.24845552444458, 512.3643188476562, 141.25758361816406, -105.05640411376953, -0.052978515625, -0.22607421875, -0.786376953125
378, 576151435, -5.8692851066589355, 7.048606872558594, 3.120453357696533, 585.2418212890625, 93.10999298095703, -157.3278045654297, -0.016357421875, -0.231201171875, -0.646728515625
379, 576168102, -6.198101043701172, 8.804071426391602, 1.8785762786865234, 558.25341796875, 104.36164093017578, -223.03855895996094, 0.029541015625, -0.19482421875, -0.50537109375
380, 576184769, -6.667604923248291, 10.97803020477295, 0.5066577792167664, 412.70965576171875, 161.27394104003906, -232.76419067382812, 0.071044921875, -0.134033203125, -0.384521484375
381, 576201436, -6.877425670623779, 8.162132263183594, -0.4696037173271179, 314.25860595703125, 168.681884765625, -191.2624969482422, 0.09765625, -0.07177734375, -0.2890625
382, 576218103, -6.097518444061279, 7.621171951293945, -1.1807305812835693, 270.7652282714844, 149.91851806640625, -140.5894012451172, 0.110595703125, -0.01318359375, -0.212646484375
383, 576234770, -9.180891990661621, 7.165396690368652, -2.9464128017425537, 263.1415100097656, 110.2561264038086, -76.31768035888672, 0.109619140625, 0.034423828125, -0.147216796875
384, 576251437, -7.762126445770264, 8.641542434692383, -5.09098482131958, 296.3154602050781, 57.59968948364258, -89.25590515136719, 0.11328125, 0.08837890625, -0.093994140625
385, 576268104, -8.641447067260742, 6.602527141571045, -5.217636585235596, 399.17901611328125, 30.877864837646484, -47.634910583496094, 0.114501953125, 0.154052734375, -0.04296875
386, 576284771, -8.248620986938477, 6.609870910644531, -2.9225070476531982, 399.3247375488281, 45.73987579345703, -63.626190185546875, 0.112548828125, 0.22900390625, 0.004638671875
387, 576301438, -5.0057172775268555, 5.49023962020874, -6.098919868469238, 309.6772766113281, 51.264366149902344, -62.453182220458984, 0.108154296875, 0.294921875, 0.036376953125
388, 576318105, -7.80093240737915, 5.804349899291992, -2.6631686687469482, 357.84637451171875, 23.145849227905273, -26.32901954650879, 0.105712890625, 0.366455078125, 0.062255859375
389, 576334772, -7.186520576477051, 6.377379894256592, -4.128966331481934, 197.6455841064453, 25.793245315551758, -37.07958984375, 0.102294921875, 0.416015625, 0.076904296875
390, 576351439, -7.9147233963012695, 4.244112014770508, -5.471205234527588, 117.28154754638672, -0.14260686933994293, -49.7389030456543, 0.101806640625, 0.447998046875, 0.082275390625
391, 576368106, -8.872721672058105, 2.606761932373047, -6.071169376373291, 169.59735107421875, -53.668609619140625, -84.13579559326172, 0.108154296875, 0.49072265625, 0.075927734375
392, 576384773, -8.225211143493652, 2.3683600425720215, -5.089008331298828, 215.48654174804688, -75.6341323852539, -172.151123046875, 0.119384765625, 0.56103515625, 0.056396484375
393, 576401440, -5.508677005767822, 3.458808660507202, -3.7535462379455566, 169.6302490234375, -41.41139602661133, -213.65982055664062, 0.124755859375, 0.64306640625, 0.043212890625
394, 576418107, -5.482412815093994, 1.9346727132797241, -4.495798110961914, 110.46294403076172, -6.693730354309082, -178.50704956054688, 0.118896484375, 0.70703125, 0.030517578125
395, 576434774, -7.217484474182129, 0.5679571628570557, -5.30141019821167, 76.09516906738281, -17.914016723632812, -124.66616821289062, 0.10791015625, 0.749267578125, 0.023681640625
396, 576451441, -8.900406837463379, -0.20139402151107788, -6.781944751739502, 86.81888580322266, -52.99411392211914, -135.7275848388672, 0.106201171875, 0.7890625, 0.007080078125
397, 576468108, -9.494491577148438, -1.048504114151001, -7.21489143371582, 129.57864379882812, -98.09371948242188, -163.92198181152344, 0.10693359375, 0.84326171875, -0.021484375
398, 576484775, -8.44586181640625, -1.4172359704971313, -5.626728057861328, 154.6073760986328, -136.25743103027344, -162.70169067382812, 0.10791015625, 0.900390625, -0.0693359375
399, 576501442, -8.648043632507324, -1.9871490001678467, -5.494811534881592, 190.75975036621094, -152.09165954589844, -184.2144317626953, 0.1044921875, 0.9638671875, -0.1220703125
400, 576518109, -7.208775997161865, -1.215315818786621, -3.708076238632202, 213.07008361816406, -139.34344482421875, -206.9881134033203, 0.092529296875, 1.034423828125, -0.185791015625
401, 576534776, -6.7104811668396, -1.5806280374526978, -2.4972057342529297, 132.14122009277344, -127.29605102539062, -209.3380126953125, 0.07177734375, 1.09228515625, -0.23583984375
402, 576551443, -6.904219150543213, -4.31819486618042, -3.021876573562622, 76.0696792602539, -114.64732360839844, -191.39224243164062, 0.046630859375, 1.141845703125, -0.275390625
403, 576568110, -7.610383033752441, -5.273172378540039, -3.473081588745117, 57.5909538269043, -109.41581726074219, -170.61813354492188, 0.019287109375, 1.18115234375, -0.31005859375
404, 576584777, -8.304227828979492, -6.002359867095947, -3.6545569896698, 48.88694381713867, -101.48810577392578, -152.68301391601562, -0.004150390625, 1.21630859375, -0.336669921875
405, 576601444, -7.993278503417969, -6.182100772857666, -3.176318645477295, 51.43000030517578, -97.23539733886719, -135.69493103027344, -0.02783203125, 1.24072265625, -0.36767578125
406, 576618111, -7.976967811584473, -7.0056562423706055, -3.986379623413086, 100.7778549194336, -98.59661102294922, -120.96464538574219, -0.04931640625, 1.26806640625, -0.401611328125
407, 576634778, -8.077374458312988, -7.048766613006592, -2.7414774894714355, 225.82334899902344, -113.20942687988281, -122.4420394897461, -0.072021484375, 1.293212890625, -0.466552734375
408, 576651445, -7.451400279998779, -5.259793758392334, -0.6407551169395447, 263.28607177734375, -131.70579528808594, -121.73692321777344, -0.099853515625, 1.31884765625, -0.548583984375
409, 576668112, -7.125330924987793, -3.7581992149353027, 1.3649578094482422, 142.61163330078125, -154.1189422607422, -105.43457794189453, -0.12841796875, 1.333984375, -0.613525390625
410, 576684779, -7.747227191925049, -5.213891506195068, 0.38726264238357544, 40.41653823852539, -151.1140899658203, -89.74317169189453, -0.154052734375, 1.3447265625, -0.649658203125
411, 576701446, -8.484293937683105, -6.779337406158447, 0.4139927625656128, 59.143272399902344, -153.42202758789062, -83.08765411376953, -0.17919921875, 1.359130859375, -0.68212890625
412, 576718113, -6.682439804077148, -7.3037190437316895, -2.4046497344970703, 207.1184844970703, -147.04122924804688, -82.9302749633789, -0.20703125, 1.35986328125, -0.7412109375
413, 576734780, -5.545482158660889, -5.721330165863037, -0.34515780210494995, 373.4607849121094, -102.93404388427734, -59.879905700683594, -0.2333984375, 1.345458984375, -0.840087890625
414, 576751447, -5.390582084655762, -5.060025691986084, 1.1097631454467773, 465.3946228027344, -74.00108337402344, 0.22717678546905518, -0.245361328125, 1.300537109375, -0.9560546875
415, 576768114, -7.49196720123291, -3.566347122192383, 4.576660633087158, 489.8717041015625, -99.37043762207031, 30.166667938232422, -0.250244140625, 1.228515625, -1.076416015625
416, 576784781, -7.8388261795043945, -2.494030475616455, 7.329019546508789, 368.431396484375, -215.49305725097656, 2.808257579803467, -0.2783203125, 1.157958984375, -1.1796875
417, 576801448, -6.113115310668945, -3.325246810913086, 7.301152229309082, 238.207275390625, -309.64105224609375, -10.776493072509766, -0.334716796875, 1.104248046875, -1.260009765625
418, 576818115, -3.956395149230957, -4.3205952644348145, 7.239595890045166, 142.7294464111328, -318.9013671875, 1.3248939514160156, -0.404296875, 1.071044921875, -1.310791015625
419, 576834782, -3.2406704425811768, -4.983517169952393, 8.971210479736328, -3.272797107696533, -277.8766174316406, 45.99240493774414, -0.46875, 1.059814453125, -1.333984375
420, 576851449, -3.814099073410034, -5.709786891937256, 7.435632705688477, -61.58018112182617, -237.91458129882812, 82.99449157714844, -0.51025390625, 1.071044921875, -1.335693359375
421, 576868116, -3.2142295837402344, -5.007990837097168, 7.460928440093994, -30.457292556762695, -220.73892211914062, 89.0775146484375, -0.5458984375, 1.07373046875, -1.33642578125
422, 576884783, -3.7345027923583984, -4.789152145385742, 8.02493667602539, -6.926495552062988, -248.58302307128906, 76.81566619873047, -0.587158203125, 1.075439453125, -1.341552734375
423, 576901450, -2.8613765239715576, -4.925081253051758, 8.278507232666016, -24.563627243041992, -266.93511962890625, 50.040245056152344, -0.640380859375, 1.07763671875, -1.341552734375
424, 576918117, -2.4200222492218018, -4.946426868438721, 8.292623519897461, -84.99564361572266, -274.2615051269531, 29.97979736328125, -0.6982421875, 1.092529296875, -1.329833984375
425, 576934784, -1.546745777130127, -5.197490692138672, 8.07319450378418, -130.632080078125, -278.0406494140625, 19.472389221191406, -0.754150390625, 1.1220703125, -1.302978515625
426, 576951451, -1.3660309314727783, -5.536153316497803, 8.335271835327148, -141.16058349609375, -261.0062561035156, -7.4420061111450195, -0.81298828125, 1.14990234375, -1.26416015625
427, 576968118, -1.162485122680664, -5.757354259490967, 7.851513385772705, -144.77391052246094, -223.09140014648438, -38.09255599975586, -0.865966796875, 1.181884765625, -1.224609375
428, 576984785, -0.13238920271396637, -6.085447788238525, 7.0208868980407715, -69.91397094726562, -159.78369140625, -43.012657165527344, -0.911865234375, 1.19287109375, -1.195068359375
429, 577001452, -0.9530996084213257, -6.417060375213623, 7.005551815032959, -7.973024845123291, -118.50177764892578, -28.1782169342041, -0.938232421875, 1.19873046875, -1.18017578125
430, 577018119, 0.08237805962562561, -6.390848636627197, 7.0313520431518555, 54.790794372558594, -141.5437774658203, -16.61446762084961, -0.96728515625, 1.186767578125, -1.175537109375
431, 577034786, 2.5408926010131836, -4.196157455444336, 7.889532089233398, 106.87836456298828, -142.9324188232422, -11.505125045776367, -0.994873046875, 1.16552734375, -1.1826171875
432, 577051453, 1.4671515226364136, -5.444595813751221, 9.490346908569336, 36.01853942871094, -130.3731689453125, -7.365228652954102, -1.02294921875, 1.15478515625, -1.176513671875
433, 577068120, 2.2034692764282227, -5.453947067260742, 8.130884170532227, 8.02474594116211, -99.2156753540039, 5.563843250274658, -1.046630859375, 1.152587890625, -1.1689453125
434, 577084787, 2.5195260047912598, -5.517288684844971, 8.169301986694336, -9.085484504699707, -98.26057434082031, 20.975271224975586, -1.05517578125, 1.157470703125, -1.158203125
435, 577101454, 2.243142604827881, -6.066722393035889, 8.235227584838867, -21.417753219604492, -96.017333984375, 19.933900833129883, -1.071533203125, 1.161865234375, -1.1455078125
436, 577118121, 2.5621817111968994, -6.26054048538208, 8.239991188049316, -24.65943717956543, -81.1690673828125, 9.263652801513672, -1.08203125, 1.169189453125, -1.126220703125
437, 577134788, 2.526916742324829, -6.020425796508789, 7.249006271362305, -9.21520709991455, -76.390869140625, -5.414830207824707, -1.093017578125, 1.17236328125, -1.116455078125
438, 577151455, 2.9928057193756104, -5.529812812805176, 6.825554370880127, 22.479061126708984, -77.74530029296875, -18.232099533081055, -1.109375, 1.167236328125, -1.110107421875
439, 577168122, 4.067922115325928, -4.678919792175293, 5.408502578735352, 57.668060302734375, -63.136383056640625, 1.620461106300354, -1.1220703125, 1.15771484375, -1.10693359375
440, 577184789, 2.8272101879119873, -5.249096870422363, 8.831995010375977, 80.86219024658203, -53.60342788696289, 30.676837921142578, -1.12255859375, 1.146728515625, -1.116455078125
441, 577201456, 4.354541301727295, -5.747607231140137, 6.6073431968688965, 77.63492584228516, -123.24061584472656, 17.447265625, -1.141845703125, 1.140380859375, -1.11376953125
442, 577218123, 3.5445690155029297, -5.281059741973877, 5.906766414642334, 118.09756469726562, -59.03889083862305, -2.4375696182250977, -1.1513671875, 1.120361328125, -1.121337890625
443, 577234790, 3.7350776195526123, -7.152765274047852, 3.102684259414673, 276.355712890625, -71.4026870727539, 32.10073471069336, -1.158935546875, 1.08740234375, -1.15283203125
444, 577251457, 2.5568480491638184, -0.2848551273345947, 8.310267448425293, 407.0481262207031, -91.4014663696289, 72.26004791259766, -1.16259765625, 1.022216796875, -1.204833984375
445, 577268124, 5.542538642883301, -1.427992582321167, 9.441962242126465, 450.7539978027344, -107.48860931396484, 68.58839416503906, -1.173095703125, 0.94775390625, -1.248779296875
446, 577284791, 6.090273857116699, 1.873516321182251, 13.184258460998535, 313.7483215332031, -148.94960021972656, 102.653076171875, -1.191162109375, 0.879638671875, -1.27294921875
447, 577301458, 5.331635475158691, -0.2731473743915558, 9.980976104736328, 80.14990997314453, -153.2310028076172, 116.96691131591797, -1.20947265625, 0.876708984375, -1.26025390625
448, 577318125, 4.453260898590088, -1.1874442100524902, 7.948651313781738, 27.50335693359375, -132.59278869628906, 75.33252716064453, -1.229736328125, 0.882080078125, -1.24267578125
449, 577334792, 5.5925517082214355, -1.4935704469680786, 7.543678283691406, 2.2263545989990234, -139.4079132080078, 45.86958694458008, -1.249755859375, 0.890869140625, -1.218994140625
450, 577351459, 5.191339492797852, -2.8668015003204346, 7.657081127166748, 3.4130401611328125, -181.9913330078125, 31.474563598632812, -1.280517578125, 0.895751953125, -1.189208984375
451, 577368126, 5.561524391174316, -1.1943084001541138, 8.17431926727295, 31.467958450317383, -208.35745239257812, 30.98615837097168, -1.314208984375, 0.89794921875, -1.15576171875
452, 577384793, 6.112453937530518, -1.2417927980422974, 7.280947208404541, -23.652454376220703, -149.93682861328125, 13.010310173034668, -1.340087890625, 0.90234375, -1.119873046875
453, 577401460, 6.10418176651001, -1.6991183757781982, 7.927853584289551, -19.263385772705078, -129.84678649902344, 38.02592849731445, -1.357421875, 0.91259765625, -1.090087890625
454, 577418127, 5.60942268371582, -2.444302558898926, 8.603252410888672, -6.10905647277832, -148.40554809570312, 36.87779998779297, -1.375, 0.9228515625, -1.06103515625
455, 577434794, 6.224574089050293, -2.422741174697876, 7.78702449798584, 18.689247131347656, -197.4475555419922, 17.914865493774414, -1.397216796875, 0.92529296875, -1.02197265625
456, 577451461, 6.834161281585693, -2.5289578437805176, 6.557743549346924, 45.7643928527832, -257.2579650878906, 0.45073187351226807, -1.4287109375, 0.92041015625, -0.97412109375
457, 577468128, 7.377352714538574, -2.0142014026641846, 5.098791122436523, 79.35960388183594, -248.70811462402344, -1.4625164270401, -1.458740234375, 0.91015625, -0.922607421875
458, 577484795, 5.613641262054443, -4.704164028167725, 3.2724123001098633, 182.9872589111328, -234.65406799316406, -7.377827167510986, -1.48193359375, 0.898681640625, -0.885009765625
459, 577501462, 11.567808151245117, 3.3409290313720703, 6.409319877624512, 299.0158386230469, -269.36212158203125, 1.882192850112915, -1.5126953125, 0.8642578125, -0.847412109375
460, 577518129, 8.680927276611328, 0.2522570490837097, 5.004271030426025, 45.96126937866211, -124.13833618164062, 7.9477996826171875, -1.52099609375, 0.859375, -0.82421875
461, 577534796, 8.365060806274414, -0.9058573246002197, 3.8261725902557373, 38.45191955566406, -164.00779724121094, 16.327495574951172, -1.533203125, 0.860107421875, -0.786865234375
462, 577551463, 8.781864166259766, -1.0335052013397217, 3.58768367767334, 52.782501220703125, -198.8610382080078, 30.793577194213867, -1.541748046875, 0.86376953125, -0.739013671875
463, 577568130, 8.70466423034668, -0.7590280175209045, 3.0112149715423584, 59.73740768432617, -230.33966064453125, 35.65644836425781, -1.548583984375, 0.869384765625, -0.691162109375
464, 577584797, 9.61611557006836, -0.2217959761619568, 2.45829439163208, 52.41148376464844, -254.2902069091797, 16.710529327392578, -1.5556640625, 0.8779296875, -0.63134765625
465, 577601464, 9.636109352111816, -0.5508139729499817, 1.5408813953399658, 53.88944625854492, -283.68902587890625, -4.499566078186035, -1.559814453125, 0.87548828125, -0.56494140625
466, 577618131, 9.573779106140137, -0.37422117590904236, 0.5124682188034058, 73.63264465332031, -326.7832336425781, -26.687978744506836, -1.56103515625, 0.870361328125, -0.489013671875
467, 577634798, 10.775440216064453, -0.1236581951379776, -0.9587448835372925, 95.39336395263672, -351.7637634277344, -43.675506591796875, -1.554931640625, 0.86328125, -0.40185546875
468, 577651465, 9.729966163635254, -0.6332097053527832, -2.814023971557617, 98.30307006835938, -343.3921203613281, -57.71598815917969, -1.543701171875, 0.852294921875, -0.3232421875
469, 577668132, 10.553494453430176, -1.9087468385696411, -3.0616908073425293, 120.47270965576172, -346.76654052734375, -48.51681900024414, -1.524169921875, 0.848876953125, -0.246337890625
470, 577684799, 9.188376426696777, -2.090595006942749, -4.822352409362793, 145.94590759277344, -322.957763671875, 48.057403564453125, -1.488037109375, 0.8681640625, -0.17919921875
471, 577701466, 9.43408203125, -0.04149075970053673, -5.205437660217285, 144.2196502685547, -313.05828857421875, 31.128406524658203, -1.448974609375, 0.896240234375, -0.12158203125
472, 577718133, 9.696639060974121, -0.8357272148132324, -5.962732791900635, 106.10796356201172, -292.6627502441406, 2.915804624557495, -1.409912109375, 0.91162109375, -0.070068359375
473, 577734800, 9.047704696655273, -0.9280059933662415, -6.47059965133667, 96.41630554199219, -285.04400634765625, -5.030390739440918, -1.36865234375, 0.9267578125, -0.018798828125
474, 577751467, 8.434535026550293, -0.9197434186935425, -5.93104887008667, 103.3775634765625, -293.0920104980469, -43.828189849853516, -1.326171875, 0.936279296875, 0.025390625
475, 577768134, 7.191452980041504, -1.8416775465011597, -6.691699981689453, 75.50701141357422, -305.944580078125, -21.990129470825195, -1.277099609375, 0.9482421875, 0.07421875
476, 577784801, 5.666011333465576, -1.1332091093063354, -6.18543004989624, 78.41944885253906, -327.2240295410156, -84.41947937011719, -1.225830078125, 0.94970703125, 0.11865234375
477, 577801468, 4.579692840576172, -2.435781955718994, -7.107356548309326, 65.3336410522461, -313.0333557128906, -63.71529769897461, -1.173095703125, 0.951904296875, 0.15966796875
478, 577818135, 4.307555675506592, -1.9908827543258667, -7.862710475921631, 54.39971160888672, -283.97637939453125, -49.87592697143555, -1.118408203125, 0.95703125, 0.191162109375
479, 577834802, 4.561561107635498, -1.3086832761764526, -9.334145545959473, 49.74674606323242, -299.9725036621094, -74.2669677734375, -1.059326171875, 0.960693359375, 0.226318359375
480, 577851469, 5.001662254333496, -2.040248155593872, -9.585519790649414, 10.375057220458984, -288.0740661621094, -88.92536926269531, -1.006103515625, 0.9541015625, 0.25390625
481, 577868136, 3.679051399230957, -2.166923999786377, -9.657736778259277, -3.0720388889312744, -266.9747619628906, -66.62377166748047, -0.948974609375, 0.94970703125, 0.2802734375
482, 577884803, 2.03336501121521, -1.8246198892593384, -9.864892959594727, -12.391642570495605, -243.94737243652344, -67.53205871582031, -0.899169921875, 0.94091796875, 0.30126953125
483, 577901470, 1.2462949752807617, -2.293980836868286, -9.692766189575195, -3.5841989517211914, -207.7130126953125, -56.55722427368164, -0.850341796875, 0.936279296875, 0.317138671875
484, 577918137, 0.48416849970817566, -2.6171929836273193, -9.603358268737793, 23.245328903198242, -181.39207458496094, -22.74500846862793, -0.80712890625, 0.9365234375, 0.321533203125
485, 577934804, -0.009600639343261719, -1.9803308248519897, -9.338798522949219, 37.41380310058594, -161.6912384033203, -0.024974806234240532, -0.76513671875, 0.947265625, 0.32470703125
486, 577951471, -0.3332548141479492, -1.6974382400512695, -9.117483139038086, 41.607688903808594, -153.33555603027344, -12.883252143859863, -0.7294921875, 0.95751953125, 0.322509765625
487, 577968138, -0.9547057151794434, -3.153134346008301, -7.001344203948975, 74.71943664550781, -47.0435676574707, -5.63651180267334, -0.704833984375, 0.973876953125, 0.312255859375
488, 577984805, -2.34743070602417, -3.091216564178467, -10.111767768859863, 89.63485717773438, -29.55960464477539, 55.397178649902344, -0.69873046875, 0.99609375, 0.302978515625
489, 578001472, -2.3479161262512207, -2.1025285720825195, -9.789156913757324, 54.85468292236328, -111.66967010498047, 51.80537033081055, -0.668212890625, 1.011962890625, 0.2958984375
490, 578018139, -1.3833726644515991, -2.6726107597351074, -8.879203796386719, 46.43360900878906, -92.55854797363281, 48.868770599365234, -0.63525390625, 1.023681640625, 0.28759765625
491, 578034806, -1.4095556735992432, -2.9105494022369385, -9.705449104309082, 55.85190200805664, -85.6884765625, 51.839691162109375, -0.606689453125, 1.036865234375, 0.277587890625
492, 578051473, -1.6880594491958618, -2.576735258102417, -10.454423904418945, 64.51644134521484, -112.26094055175781, 50.23349380493164, -0.573974609375, 1.054931640625, 0.2685546875
493, 578068140, -1.6767983436584473, -2.4584927558898926, -9.734050750732422, 48.64085388183594, -131.1849365234375, 42.140380859375, -0.537353515625, 1.062744140625, 0.255126953125
494, 578084807, -1.7539294958114624, -2.808028221130371, -8.53592586517334, 40.2436637878418, -131.9598846435547, 14.859776496887207, -0.50244140625, 1.07373046875, 0.242431640625
495, 578101474, -2.7140188217163086, -3.8885838985443115, -8.365355491638184, 46.65946578979492, -88.20500946044922, 25.507108688354492, -0.47509765625, 1.081298828125, 0.231201171875
496, 578118141, -2.93993878364563, -3.5328147411346436, -8.828354835510254, 50.55897903442383, -69.19161224365234, 62.399147033691406, -0.452880859375, 1.088134765625, 0.220703125
497, 578134808, -3.2035703659057617, -2.4115078449249268, -8.632941246032715, 36.89967727661133, -78.15425109863281, 38.87516784667969, -0.427734375, 1.093505859375, 0.207275390625
498, 578151475, -2.602813243865967, -3.681941509246826, -8.087159156799316, 30.50214958190918, -70.38074493408203, 36.68937301635742, -0.403564453125, 1.102294921875, 0.195068359375
499, 578168142, -3.061835765838623, -3.055818557739258, -7.9478983879089355, 40.33269119262695, -48.86696243286133, 39.17007064819336, -0.38720703125, 1.10546875, 0.183349609375
500, 578184809, -0.6947040557861328, -4.226853847503662, -9.174116134643555, 53.57005310058594, -44.921714782714844, 30.899240493774414, -0.37158203125, 1.112548828125, 0.17529296875
501, 578201476, -2.3448359966278076, -1.434019684791565, -8.319685935974121, 43.336002349853516, -69.03902435302734, 15.55817699432373, -0.35693359375, 1.1259765625, 0.157470703125
502, 578218143, -3.517496347427368, -4.714142799377441, -9.403443336486816, 11.247716903686523, -111.12416076660156, 17.994586944580078, -0.330078125, 1.12158203125, 0.14697265625
503, 578234810, -3.7114222049713135, -4.372856616973877, -8.546422004699707, 62.939666748046875, -75.973388671875, 49.21480178833008, -0.305419921875, 1.1279296875, 0.12744140625
504, 578251477, -4.29892110824585, -4.656217575073242, -8.606842041015625, 102.90978240966797, -77.80667114257812, 85.00419616699219, -0.28076171875, 1.139404296875, 0.104736328125
505, 578268144, -4.868627548217773, -4.7225341796875, -8.156448364257812, 122.6378402709961, -108.03821563720703, 128.97857666015625, -0.23876953125, 1.14892578125, 0.069091796875
506, 578284811, -5.602176189422607, -4.4066877365112305, -7.411181926727295, 123.66747283935547, -134.70677185058594, 160.5284881591797, -0.186279296875, 1.151611328125, 0.030029296875
507, 578301478, -6.495113372802734, -4.199021816253662, -7.6184468269348145, 130.85520935058594, -165.5457763671875, 166.92254638671875, -0.133544921875, 1.146240234375, -0.017822265625
508, 578318145, -6.9639081954956055, -3.830280303955078, -6.8989105224609375, 145.61688232421875, -195.38890075683594, 162.56764221191406, -0.07421875, 1.144287109375, -0.07666015625
509, 578334812, -7.192973613739014, -3.531026840209961, -6.040341377258301, 133.90052795410156, -219.8734130859375, 162.4556427001953, -0.016845703125, 1.130859375, -0.13818359375
510, 578351479, -8.09770679473877, -3.1065359115600586, -5.135811805725098, 99.36700439453125, -231.60568237304688, 161.9132080078125, 0.037841796875, 1.111328125, -0.2021484375
511, 578368146, -8.206607818603516, -3.067967176437378, -5.3758955001831055, 109.31192016601562, -268.93280029296875, 110.76904296875, 0.08544921875, 1.092041015625, -0.276123046875
512, 578384813, -9.214162826538086, -2.522714853286743, -4.3626837730407715, 163.45323181152344, -306.0315856933594, 34.350608825683594, 0.113037109375, 1.093017578125, -0.367431640625
513, 578401480, -9.366056442260742, -3.739248514175415, -3.12491774559021, 163.54571533203125, -369.8993835449219, 47.35490798950195, 0.1328125, 1.08935546875, -0.474609375
514, 578418147, -8.977766036987305, -3.6956796646118164, -1.7363523244857788, 149.78997802734375, -373.61810302734375, 72.94136810302734, 0.147705078125, 1.07470703125, -0.587646484375
515, 578434814, -8.94408130645752, -3.6825942993164062, -0.3760489821434021, 159.00633239746094, -394.2474670410156, 66.4798583984375, 0.146240234375, 1.052001953125, -0.706298828125
516, 578451481, -8.058987617492676, -3.998964786529541, -0.7525731325149536, 191.58384704589844, -366.0532531738281, -24.007986068725586, 0.12646484375, 1.03857421875, -0.822509765625
517, 578468148, -9.472381591796875, -4.077751636505127, 2.9742770195007324, 253.58396911621094, -404.0439147949219, -77.88143920898438, 0.0810546875, 1.033935546875, -0.939208984375
518, 578484815, -7.820098876953125, -4.7096734046936035, 2.448833703994751, 302.23681640625, -484.324951171875, -43.727210998535156, 0.007080078125, 1.00341796875, -1.087890625
519, 578501482, -7.575262069702148, -1.8133058547973633, 2.250159740447998, 127.91317749023438, -358.4718322753906, 6.1511945724487305, -0.061279296875, 0.974365234375, -1.17822265625
520, 578518149, -8.394509315490723, -2.121814727783203, 5.198553562164307, 61.55976486206055, -331.0228576660156, 17.406211853027344, -0.11962890625, 0.956298828125, -1.2412109375
521, 578534816, -7.537994384765625, -1.6709214448928833, 5.719738006591797, 57.48922348022461, -338.9363098144531, 30.082212448120117, -0.18798828125, 0.937744140625, -1.296875
522, 578551483, -7.251115322113037, -1.8194810152053833, 6.851118564605713, 45.46918487548828, -324.0380859375, 57.42698287963867, -0.25634765625, 0.921142578125, -1.344482421875
523, 578568150, -6.289029121398926, -1.619479775428772, 7.500960826873779, 27.412185668945312, -353.2445373535156, 76.64409637451172, -0.328857421875, 0.90478515625, -1.3818359375
524, 578584817, -6.61500883102417, -3.5627002716064453, 6.0510969161987305, 15.271895408630371, -358.0554504394531, 92.40240478515625, -0.40966796875, 0.895263671875, -1.416259765625
525, 578601484, -3.8896191120147705, -4.02315092086792, 3.8049628734588623, -3.962883472442627, -153.27951049804688, 86.24827575683594, -0.460693359375, 0.886474609375, -1.42724609375
526, 578618151, -2.5790839195251465, -1.2495404481887817, 5.946883678436279, -70.27947998046875, 50.63997268676758, 63.077999114990234, -0.44873046875, 0.89501953125, -1.419921875
527, 578634818, -5.513869285583496, -1.5745203495025635, 6.798305511474609, -112.81329345703125, 51.599761962890625, 69.05892181396484, -0.42724609375, 0.916748046875, -1.404296875
528, 578651485, -7.2522501945495605, -2.10701060295105, 7.599299907684326, -115.11438751220703, 57.73383331298828, 4.780089855194092, -0.40966796875, 0.94775390625, -1.386474609375
529, 578668152, -6.5080389976501465, -1.556942105293274, 7.201136112213135, -22.46038818359375, 51.687007904052734, -52.808265686035156, -0.3984375, 0.96044921875, -1.37890625
530, 578684819, -5.451100826263428, -1.7292840480804443, 3.032731056213379, 88.62928009033203, 93.18650817871094, -81.3569107055664, -0.3916015625, 0.953857421875, -1.382080078125
531, 578701486, -2.8503406047821045, 0.8501613736152649, 0.7101690769195557, 194.41201782226562, 288.385986328125, -69.05753326416016, -0.348876953125, 0.9150390625, -1.380859375
532, 578718153, -6.3821282386779785, -4.019594669342041, 18.75738525390625, 75.34468841552734, -22.888208389282227, -129.5319366455078, -0.33056640625, 0.900146484375, -1.3857421875
533, 578734820, -1.0135810375213623, -1.5039137601852417, 8.892356872558594, 107.2910385131836, -224.99566650390625, -27.533994674682617, -0.384765625, 0.885009765625, -1.410400390625
534, 578751487, -2.1459081172943115, -2.2177438735961914, 8.036245346069336, 170.7819366455078, -261.412841796875, 46.18871307373047, -0.446533203125, 0.839599609375, -1.447265625
535, 578768154, -2.89275860786438, -1.9978748559951782, 9.4588623046875, 153.17205810546875, -273.8353271484375, 95.3288803100586, -0.512451171875, 0.791259765625, -1.474853515625
536, 578784821, -3.187208890914917, -2.0088019371032715, 9.744998931884766, 87.60041046142578, -263.8886413574219, 101.47771453857422, -0.576171875, 0.75830078125, -1.491943359375
537, 578801488, -2.083031415939331, -1.4919553995132446, 9.724061965942383, 17.278642654418945, -197.54843139648438, 77.03106689453125, -0.630126953125, 0.746826171875, -1.495361328125
538, 578818155, -0.7912712097167969, -0.5387805700302124, 10.657105445861816, -10.97541332244873, -171.6170654296875, 146.34674072265625, -0.67138671875, 0.75048828125, -1.49462890625
539, 578834822, -1.507498860359192, -1.014805793762207, 10.506952285766602, -70.23102569580078, -149.36184692382812, 242.40631103515625, -0.697998046875, 0.764404296875, -1.48828125
540, 578851489, -2.3745107650756836, -1.7825039625167847, 10.461502075195312, -119.94844818115234, -121.92298889160156, 254.1356658935547, -0.71533203125, 0.797119140625, -1.478759765625
541, 578868156, -2.308056354522705, -1.6170271635055542, 10.237804412841797, -142.57749938964844, -99.70442962646484, 206.54135131835938, -0.72119140625, 0.839599609375, -1.462890625
542, 578884823, -1.6130670309066772, -1.2536506652832031, 9.11917781829834, -113.0996322631836, -92.37734985351562, 160.3402862548828, -0.730224609375, 0.876220703125, -1.447265625
543, 578901490, -1.7654190063476562, -1.8402518033981323, 8.21721363067627, -62.00837707519531, -47.6405143737793, 148.0775604248047, -0.728515625, 0.899658203125, -1.440673828125
544, 578918157, -2.393341541290283, -3.0318636894226074, 7.62639045715332, 35.93009948730469, -17.16663932800293, 150.0322723388672, -0.717041015625, 0.90185546875, -1.442138671875
545, 578934824, -3.1598122119903564, -1.887509822845459, 7.86237907409668, 125.66862487792969, -10.625417709350586, 114.99513244628906, -0.705322265625, 0.873291015625, -1.456787109375
546, 578951491, -0.9966681003570557, -0.19303655624389648, 8.470968246459961, 121.410888671875, 1.315108060836792, 75.09603118896484, -0.697998046875, 0.8427734375, -1.464111328125
547, 578968158, -0.9734402298927307, -0.42683660984039307, 10.549707412719727, 99.0573959350586, 18.948163986206055, 68.79261779785156, -0.68603515625, 0.81396484375, -1.476318359375
548, 578984825, -2.412163734436035, -1.4645551443099976, 12.205653190612793, 91.12290954589844, -8.389167785644531, 100.57610321044922, -0.677001953125, 0.79296875, -1.484375
549, 579001492, -0.6718062162399292, -1.2402119636535645, 11.314074516296387, 57.02947235107422, -5.356606960296631, 126.55948638916016, -0.671142578125, 0.7705078125, -1.49072265625
550, 579018159, -0.31649282574653625, -0.5558480024337769, 11.559514045715332, 57.56575012207031, 12.864076614379883, 75.8392105102539, -0.66259765625, 0.757080078125, -1.4951171875
551, 579034826, 0.5886545181274414, 0.8618512749671936, 11.953291893005371, 44.50553894042969, 19.58187484741211, 42.75688171386719, -0.64990234375, 0.7421875, -1.496337890625
552, 579051493, -1.0311799049377441, 1.3507806062698364, 10.550276756286621, 6.140906810760498, -8.812183380126953, 67.82618713378906, -0.646484375, 0.73974609375, -1.496337890625
553, 579068160, -1.5511375665664673, 1.4750722646713257, 8.903791427612305, 70.06391906738281, -52.11507034301758, 45.39735412597656, -0.654052734375, 0.72314453125, -1.500244140625
554, 579084827, -1.0755950212478638, 0.4926576316356659, 8.98660945892334, 133.9209747314453, -61.45705795288086, 53.46126937866211, -0.670654296875, 0.69189453125, -1.507568359375
555, 579101494, -1.8831158876419067, 2.0292351245880127, 10.011161804199219, 211.25804138183594, -31.841876983642578, 48.21669006347656, -0.6748046875, 0.634765625, -1.51953125
556, 579118161, -0.7493677735328674, 3.556143283843994, 9.307724952697754, 174.4957275390625, -101.26815032958984, 51.880027770996094, -0.69482421875, 0.58154296875, -1.524658203125
557, 579134828, 0.019514888525009155, 3.3930156230926514, 9.176551818847656, 139.74395751953125, -157.30715942382812, 55.1253662109375, -0.735595703125, 0.540283203125, -1.520751953125
558, 579151495, 1.069706916809082, 3.5912299156188965, 8.920251846313477, 104.8204574584961, -162.80856323242188, 51.00960922241211, -0.78125, 0.5107421875, -1.51708984375
559, 579168162, 1.5601094961166382, 3.5825891494750977, 9.007440567016602, 76.6279296875, -153.9713897705078, 42.363037109375, -0.8251953125, 0.490234375, -1.5087890625
560, 579184829, 1.0910431146621704, 3.637547731399536, 9.454811096191406, 65.8365478515625, -124.64359283447266, 26.5950984954834, -0.8642578125, 0.471435546875, -1.5009765625
561, 579201496, 0.9542444944381714, 3.5608253479003906, 9.987081527709961, 65.4476318359375, -75.03427124023438, -7.83273983001709, -0.8896484375, 0.4541015625, -1.494384765625
562, 579218163, 1.4811729192733765, 3.522254705429077, 9.971691131591797, 55.571922302246094, -34.04288864135742, -18.91351890563965, -0.90380859375, 0.43701171875, -1.49072265625
563, 579234830, 2.5524802207946777, 3.2281787395477295, 8.942224502563477, 49.48136901855469, -25.587413787841797, -10.100802421569824, -0.906494140625, 0.4189453125, -1.48828125
564, 579251497, 2.660536289215088, 2.689682722091675, 8.726435661315918, 50.65005111694336, -95.03666687011719, 28.302722930908203, -0.927734375, 0.4091796875, -1.481201171875
565, 579268164, 2.0138425827026367, 3.7029759883880615, 8.499198913574219, 66.61300659179688, -54.220096588134766, 11.603249549865723, -0.94677734375, 0.393798828125, -1.473388671875
566, 579284831, 1.5921273231506348, 4.226017951965332, 8.8962984085083, 66.39251708984375, -47.52803039550781, 14.959806442260742, -0.9580078125, 0.374755859375, -1.467041015625
567, 579301498, 1.9308819770812988, 5.547426223754883, 5.380799770355225, 98.72076416015625, 3.50179123878479, 44.61674118041992, -0.965576171875, 0.35546875, -1.461669921875
568, 579318165, 1.3342218399047852, 3.7387211322784424, 8.132843017578125, 97.9861831665039, 21.75348472595215, -25.074316024780273, -0.96240234375, 0.3291015625, -1.45654296875
569, 579334832, 1.4229761362075806, 4.717624187469482, 8.530109405517578, 100.46292114257812, 32.78479766845703, -48.710121154785156, -0.949951171875, 0.298095703125, -1.4541015625
570, 579351499, 2.119617462158203, 4.565971374511719, 9.246421813964844, 87.40341186523438, 38.142208099365234, -39.64885330200195, -0.935302734375, 0.271484375, -1.453369140625
571, 579368166, 2.076474189758301, 4.193284034729004, 8.658461570739746, 64.1621322631836, 28.344791412353516, -28.08843421936035, -0.926025390625, 0.25146484375, -1.451171875
572, 579384833, 1.7236534357070923, 4.013295650482178, 8.326385498046875, 59.19386291503906, 8.643603324890137, -27.64848518371582, -0.918701171875, 0.232421875, -1.448486328125
573, 579401500, 1.634550929069519, 5.10829496383667, 8.702471733093262, 60.080169677734375, -15.714515686035156, -48.398738861083984, -0.91943359375, 0.21044921875, -1.44091796875
574, 579418167, -0.5843743085861206, 4.62290096282959, 7.933573246002197, 66.20608520507812, -38.74681091308594, -84.32846069335938, -0.920166015625, 0.19091796875, -1.437255859375
575, 579434834, -0.31050384044647217, 6.046834468841553, 8.152247428894043, 108.41234588623047, -65.47319030761719, -108.69529724121094, -0.923583984375, 0.1591796875, -1.41943359375
576, 579451501, 1.4251065254211426, 6.908449649810791, 7.899526119232178, 114.1367416381836, -67.96220397949219, -101.36164855957031, -0.931884765625, 0.119873046875, -1.400390625
577, 579468168, 2.3014771938323975, 7.803756237030029, 7.473686218261719, 107.94679260253906, -57.27006530761719, -81.37619018554688, -0.93359375, 0.08544921875, -1.3828125
578, 579484835, 1.3430331945419312, 7.71946907043457, 6.99617862701416, 123.65642547607422, -60.074954986572266, -54.60396957397461, -0.93994140625, 0.052734375, -1.3642578125
579, 579501502, 0.7884708642959595, 8.216050148010254, 6.886902332305908, 146.13975524902344, -64.50752258300781, -37.93084716796875, -0.94970703125, 0.016845703125, -1.337890625
580, 579518169, 1.8384243249893188, 8.363898277282715, 6.278651237487793, 189.4346160888672, -68.94609832763672, -13.955628395080566, -0.962158203125, -0.02587890625, -1.30712890625
581, 579534836, 2.447035074234009, 8.214458465576172, 5.5889410972595215, 192.2104949951172, -54.6007194519043, -16.541255950927734, -0.97216796875, -0.06982421875, -1.269775390625
582, 579551503, 2.2090349197387695, 7.926210880279541, 5.1008620262146, 194.5340576171875, -41.982200622558594, -15.751280784606934, -0.97802734375, -0.11328125, -1.229736328125
583, 579568170, 3.054368019104004, 9.50424861907959, 4.389103889465332, 202.8398895263672, -27.393144607543945, 13.831289291381836, -0.9853515625, -0.150390625, -1.191162109375
584, 579584837, 2.934990406036377, 9.5073881149292, 4.361550331115723, 185.40859985351562, -20.599197387695312, 47.99214553833008, -0.996337890625, -0.182373046875, -1.15087890625
585, 579601504, 3.2118353843688965, 8.821929931640625, 2.9475109577178955, 173.9404754638672, -16.583528518676758, 63.6868896484375, -1.0126953125, -0.203125, -1.111572265625
586, 579618171, 4.2177886962890625, 8.87062931060791, 1.9702863693237305, 191.08200073242188, -26.677997589111328, 71.72625732421875, -1.03076171875, -0.226806640625, -1.06884765625
587, 579634838, 4.438955307006836, 8.23932933807373, 2.0918054580688477, 153.7165069580078, -31.784996032714844, 70.36963653564453, -1.05224609375, -0.2451171875, -1.0322265625
588, 579651505, 2.072577953338623, 6.611399173736572, 2.80053973197937, 117.02776336669922, -12.553966522216797, 87.39722442626953, -1.071044921875, -0.25048828125, -1.002685546875
589, 579668172, 0.9467533230781555, 6.177863597869873, 2.123842239379883, 111.24657440185547, -8.019662857055664, 70.61165618896484, -1.089111328125, -0.2548828125, -0.97802734375
590, 579684839, 1.7979880571365356, 4.882742881774902, 0.5154478549957275, 227.9349822998047, -14.345212936401367, 2.0946011543273926, -1.097412109375, -0.274169921875, -0.931640625
591, 579701506, 4.109645366668701, 9.806453704833984, 0.5492548942565918, 284.8078918457031, 1.4293378591537476, -24.407546997070312, -1.09033203125, -0.307861328125, -0.864990234375
592, 579718173, 4.469014644622803, 8.992410659790039, 2.8026797771453857, 195.8864288330078, 46.463409423828125, 10.184331893920898, -1.087890625, -0.32861328125, -0.811767578125
593, 579734840, 0.6898327469825745, 8.150873184204102, -1.9678878784179688, 200.89881896972656, 35.9417839050293, -13.643104553222656, -1.085205078125, -0.3408203125, -0.7783203125
594, 579751507, 3.3458430767059326, 10.051998138427734, -1.63149094581604, 303.91229248046875, 20.431297302246094, -76.52632141113281, -1.0703125, -0.3642578125, -0.70751953125
595, 579768174, 2.3940553665161133, 11.668542861938477, -2.0914411544799805, 224.47531127929688, 11.303719520568848, -96.64138793945312, -1.04541015625, -0.38525390625, -0.643798828125
596, 579784841, 2.336526393890381, 11.439348220825195, 0.09100423008203506, 57.91217803955078, -41.45731735229492, -162.85179138183594, -1.00830078125, -0.404296875, -0.612060546875
597, 579801508, 4.332376003265381, 11.202754974365234, -2.540304183959961, -37.91825485229492, 25.52699851989746, -104.95248413085938, -0.975341796875, -0.41845703125, -0.6220703125
598, 579818175, 1.2135552167892456, 8.097655296325684, -2.7500617504119873, 2.7337353229522705, 69.17601776123047, -46.258235931396484, -0.95849609375, -0.418212890625, -0.63330078125
599, 579834842, 0.7543957233428955, 7.193716049194336, -3.046287775039673, 176.40455627441406, 86.43609619140625, -46.7628173828125, -0.943115234375, -0.4267578125, -0.603515625
600, 579851509, 1.243865966796875, 6.957242012023926, -3.866878032684326, 309.7537536621094, 52.647159576416016, -41.163150787353516, -0.929931640625, -0.4326171875, -0.5322265625
601, 579868176, 1.9787646532058716, 7.197285175323486, -4.383736610412598, 363.60736083984375, -9.779430389404297, -43.60831069946289, -0.919921875, -0.429443359375, -0.4345703125
602, 579884843, 1.9156179428100586, 7.390967845916748, -4.910573959350586, 407.02984619140625, -63.77660369873047, -57.64568328857422, -0.90380859375, -0.41552734375, -0.3212890625
603, 579901510, 3.5198118686676025, 6.696764945983887, -6.872246742248535, 443.89715576171875, -137.92005920410156, -35.627532958984375, -0.88134765625, -0.382568359375, -0.198974609375
604, 579918177, 3.677398204803467, 6.871040344238281, -8.151369094848633, 489.3619079589844, -132.9486083984375, 33.955039978027344, -0.868896484375, -0.3271484375, -0.069091796875
605, 579934844, 3.1622507572174072, 5.54150390625, -11.339202880859375, 595.66845703125, -50.32594299316406, 93.22676849365234, -0.872802734375, -0.23095703125, 0.064208984375
606, 579951511, 1.6985985040664673, 5.813480377197266, -12.926424980163574, 797.5341186523438, 58.01993179321289, 87.6149673461914, -0.89892578125, -0.078125, 0.20556640625
607, 579968178, -4.175218105316162, 7.34103536605835, -7.498940944671631, 729.348876953125, 111.12895965576172, 30.55954360961914, -0.93359375, 0.1123046875, 0.307861328125
608, 579984845, -2.507740020751953, 2.7799570560455322, -7.89087438583374, 416.0925598144531, -18.605039596557617, -63.61741256713867, -0.935302734375, 0.23193359375, 0.3564453125
609, 580001512, 0.7905197143554688, -0.7728984355926514, -11.428764343261719, 349.83624267578125, -104.06188201904297, -49.24069595336914, -0.9091796875, 0.318115234375, 0.3837890625
610, 580018179, 1.2992353439331055, -2.6625165939331055, -10.627406120300293, 440.2642517089844, -139.0511474609375, -69.79887390136719, -0.871826171875, 0.428466796875, 0.4072265625
611, 580034846, 0.6499751210212708, -2.96063232421875, -9.594319343566895, 464.30560302734375, -129.2411346435547, -50.9119758605957, -0.83447265625, 0.556640625, 0.41943359375
612, 580051513, -0.42091840505599976, -3.6905899047851562, -10.045634269714355, 397.7871398925781, -111.93864440917969, -33.60771560668945, -0.80322265625, 0.671630859375, 0.410888671875
613, 580068180, -0.21624919772148132, -4.767857074737549, -9.815633773803711, 342.7941589355469, -77.43833923339844, -32.984458923339844, -0.7802734375, 0.767822265625, 0.391357421875
614, 580084847, -0.13809429109096527, -5.562827110290527, -9.256485939025879, 293.22808837890625, -55.589900970458984, -17.730022430419922, -0.76513671875, 0.84716796875, 0.366455078125
615, 580101514, -0.43588945269584656, -5.424522399902344, -9.147538185119629, 261.2507629394531, -47.93382263183594, -24.01861572265625, -0.7587890625, 0.920166015625, 0.34033203125
616, 580118181, 0.7634372115135193, -5.692195892333984, -8.197012901306152, 252.45880126953125, -70.00203704833984, -48.4122428894043, -0.744873046875, 0.984619140625, 0.3056640625
617, 580134848, 1.011509656906128, -6.1384501457214355, -6.437016487121582, 223.20895385742188, -52.97956466674805, -22.456283569335938, -0.737060546875, 1.03564453125, 0.275634765625
618, 580151515, -0.15503647923469543, -7.906635761260986, -6.505657196044922, 176.93222045898438, -29.558385848999023, 25.0759334564209, -0.7275390625, 1.08251953125, 0.24560546875
619, 580168182, -1.1671950817108154, -7.726258277893066, -5.992669105529785, 183.9982452392578, -5.4204607009887695, -0.4241456687450409, -0.720703125, 1.126220703125, 0.215087890625
620, 580184849, 0.1142362430691719, -8.343125343322754, -4.591092586517334, 213.8481903076172, -58.77019119262695, 20.899080276489258, -0.71337890625, 1.168701171875, 0.177734375
621, 580201516, -0.4135579466819763, -9.397249221801758, -4.755497932434082, 294.2557678222656, -111.47272491455078, 15.09298324584961, -0.68896484375, 1.224365234375, 0.12060546875
622, 580218183, -0.1022263914346695, -9.913612365722656, -5.130491256713867, 298.1413879394531, -110.41181182861328, -0.8927285075187683, -0.666015625, 1.2822265625, 0.0546875
623, 580234850, 0.14750656485557556, -9.619754791259766, -5.018253326416016, 218.620361328125, -56.71818161010742, 2.2700071334838867, -0.654296875, 1.322265625, -0.00146484375
624, 580251517, -0.30998268723487854, -7.917287826538086, -2.423898935317993, 66.42804718017578, 9.906208992004395, 38.05842208862305, -0.646240234375, 1.340576171875, -0.02587890625
625, 580268184, -2.766383409500122, -9.12548542022705, -2.1434402465820312, 13.24797534942627, 9.392093658447266, 10.178403854370117, -0.644287109375, 1.340087890625, -0.030029296875
626, 580284851, -0.9630013704299927, -9.031698226928711, -0.5312057137489319, 87.68907928466797, -46.65715026855469, -39.195587158203125, -0.643798828125, 1.352294921875, -0.04443359375
627, 580301518, -0.9685959815979004, -10.121254920959473, -1.2461737394332886, 206.51614379882812, -96.30767059326172, -80.3463134765625, -0.65234375, 1.375, -0.087646484375
628, 580318185, -1.1387652158737183, -11.59584903717041, -1.7995929718017578, 293.9899597167969, -137.12281799316406, -94.30469512939453, -0.659423828125, 1.40869140625, -0.161865234375
629, 580334852, -0.15176457166671753, -11.485605239868164, -2.0848395824432373, 269.5055236816406, -135.61375427246094, -89.06838989257812, -0.67041015625, 1.4345703125, -0.235595703125
630, 580351519, 0.42347627878189087, -10.126387596130371, -5.103926181793213, 334.2673645019531, -150.02662658691406, -43.657379150390625, -0.6748046875, 1.459716796875, -0.318603515625
631, 580368186, -1.2060575485229492, -8.064488410949707, 2.199000835418701, 320.20782470703125, -200.14608764648438, -94.02582550048828, -0.68212890625, 1.478515625, -0.415771484375
632, 580384853, 1.4954999685287476, -8.291034698486328, 1.4176793098449707, 191.53021240234375, -90.46731567382812, -81.23957061767578, -0.707763671875, 1.483642578125, -0.477294921875
633, 580401520, 0.1824859231710434, -8.130276679992676, 0.027981311082839966, 178.45211791992188, -56.76274108886719, -39.09122848510742, -0.716796875, 1.4833984375, -0.52294921875
634, 580418187, 0.14045754075050354, -9.300023078918457, 3.2522730827331543, 226.38217163085938, -149.29721069335938, -48.700531005859375, -0.73291015625, 1.4853515625, -0.582275390625
635, 580434854, 1.3869216442108154, -7.873246192932129, 2.820761203765869, 256.4555969238281, -188.55361938476562, -39.1716423034668, -0.747802734375, 1.47607421875, -0.6494140625
636, 580451521, 0.8071197271347046, -7.336509704589844, 4.472517967224121, 258.9105224609375, -235.32174682617188, -49.19692611694336, -0.7685546875, 1.4638671875, -0.7177734375
637, 580468188, 1.4583812952041626, -7.534066677093506, 5.219977855682373, 229.4510498046875, -246.7484588623047, -77.55374908447266, -0.80029296875, 1.448486328125, -0.7724609375
638, 580484855, 2.359818458557129, -7.908302307128906, 5.762538433074951, 192.34237670898438, -237.1471710205078, -90.59553527832031, -0.84130859375, 1.428955078125, -0.816162109375
639, 580501522, 2.966616153717041, -7.542048454284668, 5.954878330230713, 161.1739044189453, -194.7359161376953, -99.88655090332031, -0.8876953125, 1.40771484375, -0.847900390625
640, 580518189, 2.7409119606018066, -7.362607955932617, 6.679262638092041, 99.97061920166016, -158.13983154296875, -128.4566192626953, -0.9296875, 1.390380859375, -0.865478515625
641, 580534856, 3.618039846420288, -7.062955856323242, 5.744245529174805, 59.63951110839844, -150.8649139404297, -173.61376953125, -0.986083984375, 1.366455078125, -0.867919921875
642, 580551523, 4.360991954803467, -5.767006874084473, 5.4988484382629395, 39.05427932739258, -143.4704132080078, -203.33436584472656, -1.048583984375, 1.343994140625, -0.864013671875
643, 580568190, 6.4543256759643555, -4.898631572723389, 4.392181873321533, 63.50940704345703, -164.23794555664062, -246.09071350097656, -1.1171875, 1.310791015625, -0.857421875
644, 580584857, 5.067098617553711, -4.941157341003418, 5.221810817718506, 140.61184692382812, -145.14134216308594, -294.5749816894531, -1.193359375, 1.2587890625, -0.858154296875
645, 580601524, 7.219035625457764, -5.3568034172058105, 6.13332462310791, 111.7343978881836, -111.59834289550781, -388.1978454589844, -1.28369140625, 1.180419921875, -0.866943359375
646, 580618191, 10.493302345275879, -6.132556915283203, 4.3846306800842285, 77.49131774902344, -23.900609970092773, -248.77239990234375, -1.345947265625, 1.11669921875, -0.87548828125
647, 580634858, 10.592918395996094, -5.433239936828613, 4.29910945892334, 67.3973159790039, -67.35462951660156, 0.67219477891922, -1.360107421875, 1.095458984375, -0.871337890625
648, 580651525, 8.171879768371582, -5.236496925354004, 5.535867214202881, 66.51348114013672, -39.81944274902344, 69.13455200195312, -1.356201171875, 1.1025390625, -0.875244140625
649, 580668192, 8.35861587524414, -4.897569179534912, 6.067438125610352, 18.329809188842773, -33.322021484375, 80.17440795898438, -1.345458984375, 1.115234375, -0.87353515625
650, 580684859, 8.592583656311035, -4.056247711181641, 6.3484787940979, -48.668758392333984, -20.368488311767578, 115.41431427001953, -1.329345703125, 1.140869140625, -0.8662109375
651, 580701526, 7.8668646812438965, -4.545588493347168, 5.027184009552002, -105.16754913330078, 2.4709808826446533, 112.73676300048828, -1.306396484375, 1.171142578125, -0.847412109375
652, 580718193, 5.781923770904541, -2.1754417419433594, 4.064376354217529, 58.26754379272461, 93.53446960449219, 39.015045166015625, -1.290283203125, 1.181640625, -0.860595703125
653, 580734860, 0.5257997512817383, -2.9912238121032715, 6.946409225463867, -24.924787521362305, -196.68507385253906, -106.05735778808594, -1.297607421875, 1.173583984375, -0.847900390625
654, 580751527, 6.800297737121582, -2.6379165649414062, 2.7169857025146484, -34.46516036987305, -259.3211669921875, -332.06732177734375, -1.382080078125, 1.11572265625, -0.77978515625
655, 580768194, 9.929803848266602, -2.549954414367676, 2.7600791454315186, -17.518434524536133, -199.30699157714844, -237.93338012695312, -1.439208984375, 1.056884765625, -0.732666015625
656, 580784861, 7.854252815246582, -1.5474036931991577, 4.841749668121338, -72.21810913085938, -162.18389892578125, -179.30227661132812, -1.4765625, 1.015625, -0.6806640625
657, 580801528, 7.910353660583496, -3.185199499130249, 3.866957664489746, -212.9207763671875, -144.17703247070312, -230.6047821044922, -1.51171875, 0.96875, -0.619873046875
658, 580818195, 9.70018196105957, -1.1238139867782593, 3.003859281539917, -371.04864501953125, -109.1056137084961, -242.22164916992188, -1.54296875, 0.91162109375, -0.54833984375
659, 580834862, 10.66690731048584, -0.5474741458892822, -2.993990659713745, -215.2366180419922, -59.59088897705078, -239.75991821289062, -1.5712890625, 0.8447265625, -0.4951171875
660, 580851529, 11.723078727722168, 0.969300389289856, 2.2173962593078613, 0.40128251910209656, -78.61479187011719, -177.28286743164062, -1.58740234375, 0.79345703125, -0.477783203125
661, 580868196, 10.19227123260498, -0.2978498041629791, 2.113420248031616, -29.153108596801758, -95.85238647460938, -118.5020751953125, -1.5927734375, 0.756103515625, -0.44873046875
662, 580884863, 10.089179039001465, -0.7166370749473572, 1.5728439092636108, -23.170307159423828, -93.31099700927734, -127.51705169677734, -1.60302734375, 0.72265625, -0.4208984375
