sep=,
DeviceTag:,B,,,,,,,,,,,,,,,,,
FirmwareVersion:,2.2.1,,,,,,,,,,,,,,,,,
AppVersion:,2022.0.1,,,,,,,,,,,,,,,,,
SyncStatus:,Un-synced,,,,,,,,,,,,,,,,,
OutputRate:,60Hz,,,,,,,,,,,,,,,,,
FilterProfile:,General,,,,,,,,,,,,,,,,,
Measurement Mode:,Inertial Mode - Rate quantities (with mag),,,,,,,,,,,,,,,,,
StartTime:,2022-08-03 16:14:41.086 +0300,,,,,,,,,,,,,,,,,
© Xsens Technologies B. V. 2005-2022,,,,,,,,,,,,,,,,,,,

PacketCounter,SampleTimeFine,Acc_X,Acc_Y,Acc_Z,Gyr_X,Gyr_Y,Gyr_Z,Mag_X,Mag_Y,Mag_Z
1, 42921872, 0.6779970526695251, -0.7193706631660461, 9.678682327270508, 8.089666366577148, -4.907907485961914, 5.481395244598389, -0.683349609375, 0.256591796875, -1.49072265625
2, 42938539, 0.6222182512283325, -0.6562231183052063, 9.690153121948242, 7.6046881675720215, -2.4141387939453125, 6.253912925720215, -0.686767578125, 0.255126953125, -1.4892578125
3, 42955206, 0.48652225732803345, -0.4534468352794647, 9.681743621826172, 10.090238571166992, -1.2285908460617065, 9.374401092529297, -0.688720703125, 0.2529296875, -1.490234375
4, 42971873, 0.5534636378288269, -0.44899412989616394, 9.565093040466309, 7.768162250518799, -2.874142646789551, 4.215000152587891, -0.688232421875, 0.2509765625, -1.48876953125
5, 42988540, 0.6654099225997925, -0.4432421028614044, 9.603453636169434, 5.306268215179443, -4.6007981300354, 0.02820599265396595, -0.689208984375, 0.24853515625, -1.48974609375
6, 43005207, 0.6552339792251587, -0.44974473118782043, 9.659127235412598, 3.3713040351867676, -4.4838361740112305, -2.3438055515289307, -0.687255859375, 0.24560546875, -1.48828125
7, 43021874, 0.6866160035133362, -0.42149385809898376, 9.624468803405762, 2.862277030944824, -3.5759172439575195, -2.420822858810425, -0.688232421875, 0.24560546875, -1.48779296875
8, 43038541, 0.6046355366706848, -0.41834312677383423, 9.605008125305176, 4.422654151916504, -4.232089519500732, -1.8480846881866455, -0.691162109375, 0.244384765625, -1.48974609375
9, 43055208, 0.5824170708656311, -0.3522679805755615, 9.611235618591309, 9.944568634033203, -10.86259937286377, -4.97824239730835, -0.694091796875, 0.242431640625, -1.48828125
10, 43071875, 0.5834534764289856, 0.008848130702972412, 9.768845558166504, 7.045461654663086, -8.65616226196289, -2.646228790283203, -0.694091796875, 0.242919921875, -1.48779296875
11, 43088542, 0.6455472707748413, -0.18818746507167816, 9.63232135772705, 6.484145164489746, -7.12108850479126, -1.0547823905944824, -0.695556640625, 0.238525390625, -1.4873046875
12, 43105209, 0.669295072555542, -0.1746077835559845, 9.682426452636719, 6.626871109008789, -6.191717147827148, -1.7262194156646729, -0.698974609375, 0.23681640625, -1.48388671875
13, 43121876, 0.730537474155426, -0.24092085659503937, 9.643045425415039, 5.3959760665893555, -5.083072185516357, -0.9267573356628418, -0.700927734375, 0.23681640625, -1.484375
14, 43138543, 0.6957646012306213, -0.20828798413276672, 9.713236808776855, 2.364750385284424, -3.843864917755127, -4.735647678375244, -0.700927734375, 0.23388671875, -1.484375
15, 43155210, 0.8298171758651733, -0.3398003876209259, 9.57395076751709, 1.046362280845642, -5.145195007324219, -5.71112060546875, -0.698974609375, 0.232421875, -1.482421875
16, 43171877, 0.8054766058921814, -0.33899667859077454, 9.63715934753418, 1.1176551580429077, -3.6762425899505615, -3.9281818866729736, -0.701416015625, 0.23193359375, -1.48583984375
17, 43188544, 0.7895883917808533, -0.22725197672843933, 9.682133674621582, 1.4998091459274292, -2.3815197944641113, -1.9184423685073853, -0.700439453125, 0.23193359375, -1.48486328125
18, 43205211, 0.7661733627319336, -0.2680366635322571, 9.689037322998047, 0.9285051226615906, -2.340808629989624, -1.6149704456329346, -0.704345703125, 0.2333984375, -1.48681640625
19, 43221878, 0.8285067677497864, -0.2604514956474304, 9.694915771484375, 0.32486510276794434, -0.2368406504392624, -1.5555745363235474, -0.703369140625, 0.23193359375, -1.48388671875
20, 43238545, 0.763990044593811, -0.2121613770723343, 9.70014476776123, -0.043118979781866074, 2.5496737957000732, -0.4293968975543976, -0.702880859375, 0.23193359375, -1.4833984375
21, 43255212, 0.7789193391799927, -0.18550460040569305, 9.632927894592285, -2.1221017837524414, 0.5395635366439819, -2.914994239807129, -0.699951171875, 0.23046875, -1.4853515625
22, 43271879, 0.7296082377433777, -0.20489543676376343, 9.599369049072266, -2.377204179763794, 0.013209749013185501, -4.218719482421875, -0.698486328125, 0.2333984375, -1.48486328125
23, 43288546, 0.7800321578979492, -0.24920666217803955, 9.748467445373535, -0.040967512875795364, -0.35572198033332825, -2.7790417671203613, -0.699951171875, 0.232421875, -1.484375
24, 43305213, 0.7916000485420227, -0.303877592086792, 9.7357816696167, 0.35677850246429443, -0.1960524171590805, -1.1116679906845093, -0.701904296875, 0.23193359375, -1.482421875
25, 43321880, 0.7357873320579529, -0.385166734457016, 9.592447280883789, -0.727772057056427, -0.611810564994812, -1.905521035194397, -0.700439453125, 0.23193359375, -1.48681640625
26, 43338547, 0.767549991607666, -0.39969080686569214, 9.514846801757812, -1.6740976572036743, -5.184421062469482, -5.32183313369751, -0.700927734375, 0.2333984375, -1.48291015625
27, 43355214, 0.7338588833808899, -0.27559614181518555, 9.602532386779785, -1.8639518022537231, -3.1175143718719482, -6.487979888916016, -0.700927734375, 0.2333984375, -1.486328125
28, 43371881, 0.7432020306587219, -0.24453741312026978, 9.672734260559082, 0.7512141466140747, -0.5023803114891052, -2.2143332958221436, -0.700927734375, 0.23388671875, -1.484375
29, 43388548, 0.8018296957015991, -0.3041495680809021, 9.588543891906738, 3.8636314868927, 0.819523274898529, 0.4859049916267395, -0.700927734375, 0.2314453125, -1.4853515625
30, 43405215, 0.8391240239143372, -0.3933522403240204, 9.598389625549316, 4.036888599395752, -2.1824071407318115, 0.4644799828529358, -0.698974609375, 0.2314453125, -1.48388671875
31, 43421882, 0.8037887811660767, -0.3219009041786194, 9.667505264282227, 4.362643241882324, -2.9687938690185547, -0.37576398253440857, -0.702880859375, 0.228759765625, -1.48388671875
32, 43438549, 0.6831496953964233, -0.19235238432884216, 9.662681579589844, 8.00533390045166, 1.0852166414260864, 0.9014326930046082, -0.700439453125, 0.229736328125, -1.47998046875
33, 43455216, 0.6831061244010925, -0.057890988886356354, 9.612507820129395, 8.712295532226562, 1.6833373308181763, -2.5891754627227783, -0.69970703125, 0.225830078125, -1.480712890625
34, 43471883, 0.6706771850585938, -0.032248079776763916, 9.672660827636719, 7.629903793334961, -3.793881893157959, -1.590293049812317, -0.70263671875, 0.22119140625, -1.48193359375
35, 43488550, 0.7542244791984558, -0.06232623755931854, 9.763400077819824, 3.463176965713501, -4.800127983093262, -3.180406332015991, -0.70068359375, 0.221923828125, -1.48193359375
36, 43505217, 0.8407549262046814, -0.17959266901016235, 9.661148071289062, -1.6072098016738892, -3.5803611278533936, -5.5682525634765625, -0.701171875, 0.222412109375, -1.482421875
37, 43521884, 0.7041281461715698, -0.08816762268543243, 9.661441802978516, -3.3687753677368164, -5.43135404586792, -6.724180698394775, -0.703369140625, 0.223388671875, -1.48095703125
38, 43538551, 0.7760428190231323, -0.04968108981847763, 9.628381729125977, -4.202571392059326, -4.353379249572754, -7.9379801750183105, -0.7021484375, 0.222900390625, -1.48291015625
39, 43555218, 0.8232976794242859, -0.0403563529253006, 9.626907348632812, -2.955206871032715, -0.9758824706077576, -6.194804668426514, -0.703857421875, 0.225830078125, -1.47900390625
40, 43571885, 0.8318345546722412, -0.12473230808973312, 9.608078956604004, -2.7580654621124268, 0.5594774484634399, -4.6976637840271, -0.702880859375, 0.224365234375, -1.4814453125
41, 43588552, 0.8381056189537048, -0.21986079216003418, 9.60718822479248, -2.1541945934295654, -0.6101202368736267, -3.706631898880005, -0.702392578125, 0.227294921875, -1.48193359375
42, 43605219, 0.8160030841827393, -0.23910440504550934, 9.599892616271973, -0.6013221740722656, 1.152206540107727, -2.006153106689453, -0.702392578125, 0.227294921875, -1.48193359375
43, 43621886, 0.7282485961914062, -0.1686803698539734, 9.65366268157959, -0.009002864360809326, -0.4914565086364746, -2.187631845474243, -0.703369140625, 0.226318359375, -1.482421875
44, 43638553, 0.776638925075531, -0.12449081242084503, 9.663556098937988, -1.7868574857711792, -1.308322548866272, -4.143174648284912, -0.702880859375, 0.228759765625, -1.48046875
45, 43655220, 0.7793460488319397, -0.07416783273220062, 9.676708221435547, -2.123292922973633, -1.2088940143585205, -3.09487247467041, -0.700927734375, 0.225830078125, -1.48095703125
46, 43671887, 0.8779240250587463, -0.1685563176870346, 9.61587142944336, -2.064563035964966, -0.14074178040027618, -1.7869467735290527, -0.701416015625, 0.226806640625, -1.48046875
47, 43688554, 0.8895659446716309, -0.22418531775474548, 9.607588768005371, 1.2002429962158203, -0.23655888438224792, 0.35036250948905945, -0.69970703125, 0.225341796875, -1.48193359375
48, 43705221, 0.9351216554641724, -0.2567997872829437, 9.660633087158203, 0.6022505760192871, 1.1240836381912231, 0.7363715171813965, -0.701416015625, 0.227783203125, -1.48193359375
49, 43721888, 0.8378379344940186, -0.20720899105072021, 9.720294952392578, -0.13914097845554352, -0.004085224587470293, -0.08503415435552597, -0.701416015625, 0.225341796875, -1.4814453125
50, 43738555, 0.8012420535087585, -0.20153601467609406, 9.752911567687988, -0.2866957187652588, -1.2886004447937012, -0.2638748288154602, -0.701171875, 0.225830078125, -1.47998046875
51, 43755222, 0.7781038880348206, -0.20520111918449402, 9.718348503112793, -2.071183919906616, -2.4628660678863525, -2.7180583477020264, -0.701904296875, 0.225830078125, -1.4814453125
52, 43771889, 0.7124339938163757, -0.13057322800159454, 9.729331016540527, -1.6769276857376099, -4.792930603027344, -4.001741886138916, -0.702392578125, 0.228271484375, -1.48388671875
53, 43788556, 0.7580751776695251, -0.07866857200860977, 9.751039505004883, 0.20538181066513062, -1.1238211393356323, -0.8856742978096008, -0.701416015625, 0.225341796875, -1.4833984375
54, 43805223, 0.9486339092254639, -0.3864842653274536, 9.667105674743652, 2.6946420669555664, 2.494030475616455, -2.343959093093872, -0.701416015625, 0.227783203125, -1.48291015625
55, 43821890, 0.6507986783981323, -0.10021079331636429, 9.644087791442871, 3.0567407608032227, 1.1292959451675415, -2.495675802230835, -0.703369140625, 0.226318359375, -1.48193359375
56, 43838557, 0.8219979405403137, -0.15580911934375763, 9.58135986328125, 1.9699559211730957, -2.46299409866333, -0.4691094160079956, -0.69921875, 0.224853515625, -1.48486328125
57, 43855224, 0.687760591506958, 0.04957374930381775, 9.6153564453125, 3.713169574737549, -3.0868172645568848, -1.6361523866653442, -0.69970703125, 0.224853515625, -1.48193359375
58, 43871891, 0.7650499939918518, 0.04593794047832489, 9.539947509765625, 14.641222953796387, 0.3580593764781952, -1.2679064273834229, -0.7021484375, 0.22119140625, -1.48095703125
59, 43888558, 0.797498881816864, 0.09078948199748993, 9.515900611877441, 17.91728973388672, 4.3593316078186035, 3.3485121726989746, -0.70068359375, 0.21533203125, -1.479248046875
60, 43905225, 0.886467695236206, -0.3081193268299103, 9.506511688232422, 13.293941497802734, 1.7078111171722412, 2.3313400745391846, -0.699462890625, 0.210693359375, -1.476318359375
61, 43921892, 0.8967490196228027, -0.18721552193164825, 9.54379940032959, 7.704550743103027, -0.5916534662246704, 0.043970607221126556, -0.7001953125, 0.210205078125, -1.476318359375
62, 43938559, 0.7801371812820435, -0.03801128268241882, 9.561360359191895, 4.823121070861816, -2.5293052196502686, -1.3757606744766235, -0.699951171875, 0.208740234375, -1.475830078125
63, 43955226, 0.764560878276825, 0.01931704394519329, 9.632010459899902, 6.449924945831299, 0.9516335129737854, 0.8595558404922485, -0.700927734375, 0.205810546875, -1.476806640625
64, 43971893, 0.7740468978881836, -0.06492139399051666, 9.7221097946167, 2.9088282585144043, 2.085277557373047, 0.12147464603185654, -0.699951171875, 0.203857421875, -1.477294921875
65, 43988560, 0.785898745059967, -0.04453837871551514, 9.658761978149414, -1.373173713684082, -1.7180485725402832, -3.7645928859710693, -0.698974609375, 0.205322265625, -1.478271484375
66, 44005227, 0.8011144399642944, 0.008541078306734562, 9.716176986694336, -8.256732940673828, -5.270597457885742, -9.217414855957031, -0.700439453125, 0.206298828125, -1.477294921875
67, 44021894, 0.7977606654167175, 0.0944349616765976, 9.744732856750488, -5.798946857452393, -1.8551406860351562, -4.823935031890869, -0.70068359375, 0.210693359375, -1.477294921875
68, 44038561, 0.7205241918563843, 0.12284720689058304, 9.750066757202148, -1.1678879261016846, 0.7944099307060242, -0.6715009212493896, -0.700439453125, 0.209716796875, -1.475341796875
69, 44055228, 0.7884031534194946, 0.07989382743835449, 9.719521522521973, -0.6538152694702148, -0.1999071091413498, -0.9091098308563232, -0.698974609375, 0.209228515625, -1.476318359375
70, 44071895, 0.8326995968818665, -0.11426012217998505, 9.631240844726562, -1.7066895961761475, -4.62214469909668, -3.271036386489868, -0.70068359375, 0.209228515625, -1.477783203125
71, 44088562, 0.9501635432243347, -0.11947276443243027, 9.625993728637695, -1.4558900594711304, -4.5324625968933105, -3.6405386924743652, -0.701171875, 0.210693359375, -1.478271484375
72, 44105229, 0.855358362197876, -0.014470788650214672, 9.605271339416504, -1.6115256547927856, -1.8053498268127441, -3.0616016387939453, -0.70263671875, 0.210205078125, -1.475830078125
73, 44121896, 0.849210262298584, -0.013481821864843369, 9.570263862609863, -2.1155831813812256, -0.3408537805080414, -2.322828531265259, -0.69970703125, 0.210205078125, -1.477294921875
74, 44138563, 0.7980302572250366, 0.05982102081179619, 9.575835227966309, -0.9325456023216248, -1.4120922088623047, -1.881304144859314, -0.700927734375, 0.209228515625, -1.474365234375
75, 44155230, 0.7754525542259216, 0.041075125336647034, 9.555532455444336, -1.9756358861923218, -1.401732087135315, -3.191035509109497, -0.70263671875, 0.213623046875, -1.476318359375
76, 44171897, 0.8273804783821106, -0.024370167404413223, 9.537492752075195, -2.2109267711639404, 0.4763641953468323, -2.522966146469116, -0.7001953125, 0.210693359375, -1.476806640625
77, 44188564, 0.7888363003730774, 0.04004395008087158, 9.531936645507812, -2.1653106212615967, 1.4789478778839111, -1.7546111345291138, -0.6982421875, 0.2138671875, -1.477783203125
78, 44205231, 0.8209163546562195, 0.056412473320961, 9.666418075561523, -2.3038880825042725, 2.3008339405059814, -1.0157357454299927, -0.69921875, 0.211669921875, -1.479248046875
79, 44221898, 0.841397762298584, -0.04023868590593338, 9.68679428100586, -0.3375881314277649, 3.3775017261505127, 1.029841661453247, -0.696533203125, 0.2119140625, -1.477294921875
80, 44238565, 0.7443795800209045, -0.021337196230888367, 9.703364372253418, 1.4765400886535645, 1.5424031019210815, 0.6611855030059814, -0.696533203125, 0.21337890625, -1.478759765625
81, 44255232, 0.7375456690788269, 0.013914107345044613, 9.72280216217041, 1.356019377708435, -1.2346471548080444, -0.6966397166252136, -0.697998046875, 0.209716796875, -1.478271484375
82, 44271899, 0.8379108309745789, -0.13922931253910065, 9.714131355285645, 0.5720211863517761, 0.26214599609375, -1.2837982177734375, -0.696533203125, 0.211181640625, -1.479248046875
83, 44288566, 0.8319599628448486, -0.14376521110534668, 9.702131271362305, 0.7702571153640747, 0.8899964690208435, -0.5132272243499756, -0.69775390625, 0.2138671875, -1.479736328125
84, 44305233, 0.7718758583068848, -0.041342929005622864, 9.668655395507812, 1.7489697933197021, 1.6960538625717163, 0.5288958549499512, -0.69775390625, 0.212890625, -1.480224609375
85, 44321900, 0.7952960729598999, -0.06787300109863281, 9.665657997131348, 0.5311369895935059, 1.0033966302871704, -0.7453551888465881, -0.69873046875, 0.211181640625, -1.478271484375
86, 44338567, 0.7085101008415222, 0.007589105516672134, 9.688612937927246, 0.9150200486183167, -0.7182056307792664, -0.9891369342803955, -0.695068359375, 0.2119140625, -1.476806640625
87, 44355234, 0.7037312388420105, -0.04321098327636719, 9.679402351379395, 1.9728243350982666, -0.10405158996582031, -0.08213991671800613, -0.695556640625, 0.211669921875, -1.477294921875
88, 44371901, 0.7329649329185486, -0.034980256110429764, 9.670430183410645, 5.370502471923828, 0.9526707530021667, 2.660883903503418, -0.695068359375, 0.210693359375, -1.477783203125
89, 44388568, 0.7007189393043518, 0.0016540782526135445, 9.762286186218262, 4.036478042602539, -0.2132769376039505, 1.7976720333099365, -0.696044921875, 0.206787109375, -1.477783203125
90, 44405235, 0.8526050448417664, -0.10836497694253922, 9.723493576049805, -1.0820726156234741, -3.0884432792663574, -1.4188412427902222, -0.696533203125, 0.207275390625, -1.476318359375
91, 44421902, 0.8724848031997681, -0.061902884393930435, 9.646148681640625, -1.5213686227798462, -3.2791171073913574, -1.0410408973693848, -0.696044921875, 0.206787109375, -1.475830078125
92, 44438569, 0.7827461361885071, 0.02020515315234661, 9.579241752624512, 1.7646191120147705, 0.7223613858222961, 1.5251020193099976, -0.697509765625, 0.208251953125, -1.4736328125
93, 44455236, 0.7421118021011353, 0.03983161225914955, 9.656229972839355, 3.299332618713379, 3.187776565551758, 3.823944568634033, -0.695068359375, 0.207275390625, -1.475830078125
94, 44471903, 0.7653378844261169, 0.02137870527803898, 9.715848922729492, 3.496730089187622, 4.937252044677734, 5.74382209777832, -0.695556640625, 0.206298828125, -1.477783203125
95, 44488570, 0.6445097327232361, 0.14478905498981476, 9.725521087646484, 6.700149059295654, 0.9059405326843262, 6.859780311584473, -0.694091796875, 0.202880859375, -1.4755859375
96, 44505237, 0.7040453553199768, 0.10820724070072174, 9.73961353302002, 9.616950035095215, -0.2201412171125412, 3.330247163772583, -0.696044921875, 0.203857421875, -1.4755859375
97, 44521904, 0.6091051697731018, 0.20787687599658966, 9.657940864562988, 9.708683967590332, -0.5768879055976868, 0.817692220211029, -0.696044921875, 0.19873046875, -1.47314453125
98, 44538571, 1.2231314182281494, 0.41220003366470337, 8.901152610778809, 24.785436630249023, 56.730167388916016, 15.376235008239746, -0.6884765625, 0.19482421875, -1.4736328125
99, 44555238, 0.10900773108005524, -0.09248882532119751, 10.232925415039062, 8.524358749389648, 16.05159568786621, 8.875458717346191, -0.678466796875, 0.189453125, -1.474365234375
100, 44571905, 0.6252223253250122, 0.07411609590053558, 9.521322250366211, 3.6448233127593994, 9.687183380126953, 1.5039081573486328, -0.676025390625, 0.188720703125, -1.47119140625
101, 44588572, 0.5063538551330566, 0.18393269181251526, 9.66683292388916, 6.477614402770996, 9.13115406036377, -1.2241978645324707, -0.673828125, 0.188232421875, -1.4716796875
102, 44605239, 0.3740015923976898, 0.6207684278488159, 9.652657508850098, 13.715007781982422, 19.524873733520508, 0.6632741689682007, -0.66943359375, 0.183349609375, -1.470703125
103, 44621906, 0.23631037771701813, 0.6559990644454956, 9.521708488464355, 24.08893585205078, 28.577789306640625, 5.557746887207031, -0.664306640625, 0.179443359375, -1.468017578125
104, 44638573, 0.32912710309028625, 0.27279794216156006, 9.470385551452637, 32.21664810180664, 36.50928497314453, 11.829785346984863, -0.658203125, 0.169921875, -1.46337890625
105, 44655240, 0.4100610613822937, 0.176887646317482, 9.708133697509766, 37.08834457397461, 47.461727142333984, 13.147359848022461, -0.644287109375, 0.160400390625, -1.461181640625
106, 44671907, 0.030701033771038055, 0.5070849061012268, 9.426755905151367, 54.5605583190918, 71.794189453125, 20.36147117614746, -0.629638671875, 0.1484375, -1.456787109375
107, 44688574, -0.2897459864616394, 0.7907415628433228, 9.920435905456543, 71.30638885498047, 95.31096649169922, 27.66393280029297, -0.60546875, 0.12841796875, -1.44580078125
108, 44705241, -0.6984145641326904, 0.8465104699134827, 10.117476463317871, 42.519500732421875, 77.0300064086914, 2.83181095123291, -0.5869140625, 0.114013671875, -1.439453125
109, 44721908, -0.5686143636703491, 0.353229820728302, 10.347917556762695, 21.67940902709961, 47.09062194824219, -16.68545150756836, -0.571533203125, 0.109619140625, -1.43408203125
110, 44738575, -0.16669699549674988, 0.8005025386810303, 10.219483375549316, 56.951210021972656, -32.04429244995117, -96.30776977539062, -0.56298828125, 0.10009765625, -1.429931640625
111, 44755242, -0.6750578284263611, 1.6907315254211426, 9.524157524108887, 66.5273208618164, 65.20387268066406, -40.039337158203125, -0.5458984375, 0.084228515625, -1.420654296875
112, 44771909, -1.367462396621704, 1.3830078840255737, 9.671996116638184, 37.340816497802734, 44.77777862548828, -29.792503356933594, -0.53125, 0.0732421875, -1.414306640625
113, 44788576, -1.1650112867355347, 1.0699127912521362, 9.413409233093262, 13.148804664611816, 22.964237213134766, -23.907203674316406, -0.519775390625, 0.068115234375, -1.40966796875
114, 44805243, -1.0024168491363525, 1.1865416765213013, 9.703981399536133, 1.487796425819397, 37.1839599609375, -31.447303771972656, -0.50634765625, 0.0703125, -1.409912109375
115, 44821910, -1.4509837627410889, 1.4593851566314697, 10.059630393981934, 1.3413174152374268, 29.738807678222656, -19.92685317993164, -0.492431640625, 0.0703125, -1.4091796875
116, 44838577, -1.4105180501937866, 1.6492668390274048, 9.899221420288086, 4.044668674468994, 33.1163215637207, -15.631147384643555, -0.487060546875, 0.06884765625, -1.406982421875
117, 44855244, -1.497092366218567, 1.3058371543884277, 10.107770919799805, 19.67156410217285, 62.988040924072266, -12.719481468200684, -0.471435546875, 0.068603515625, -1.400634765625
118, 44871911, -1.8801769018173218, 1.283805251121521, 9.889974594116211, 41.67369079589844, 74.1718978881836, -23.21843147277832, -0.450439453125, 0.05859375, -1.391845703125
119, 44888578, -1.9766895771026611, 1.7097975015640259, 9.54977035522461, 46.6768684387207, 67.98097229003906, -25.132118225097656, -0.428955078125, 0.049560546875, -1.38232421875
120, 44905245, -1.8602527379989624, 1.9456373453140259, 9.034170150756836, 27.110071182250977, 38.16604232788086, -14.727195739746094, -0.41455078125, 0.044189453125, -1.3740234375
121, 44921912, -2.2240617275238037, 2.1102023124694824, 9.111099243164062, -4.652976989746094, 17.986785888671875, -12.437036514282227, -0.406005859375, 0.042236328125, -1.372314453125
122, 44938579, -1.9040614366531372, 2.7392923831939697, 8.735876083374023, -34.22532272338867, 14.897875785827637, 7.557109832763672, -0.40478515625, 0.04931640625, -1.37646484375
123, 44955246, -2.73876690864563, 2.655160427093506, 8.526568412780762, -38.27324676513672, 110.65261840820312, 79.8208999633789, -0.391357421875, 0.053466796875, -1.374267578125
124, 44971913, -2.329617500305176, 1.1328972578048706, 8.130169868469238, -14.70850658416748, 117.11019134521484, 107.67605590820312, -0.3759765625, 0.051513671875, -1.365478515625
125, 44988580, -3.026033878326416, 0.6639843583106995, 8.278022766113281, 15.169628143310547, 125.70780181884766, 82.36087799072266, -0.359375, 0.04052734375, -1.35595703125
126, 45005247, -3.108469247817993, 0.812129557132721, 7.311041355133057, 70.65701293945312, 123.41873168945312, 28.136512756347656, -0.337646484375, 0.02587890625, -1.337646484375
127, 45021914, -2.8656156063079834, 0.9915934801101685, 7.809648036956787, 140.28553771972656, 154.3454132080078, 25.008378982543945, -0.30908203125, -0.003662109375, -1.303955078125
128, 45038581, -4.262938976287842, 2.5444977283477783, 8.36464786529541, 177.6555633544922, 187.66116333007812, -5.764471530914307, -0.2685546875, -0.041259765625, -1.258056640625
129, 45055248, -3.8299713134765625, 1.751349925994873, 8.12907600402832, 215.4846954345703, 196.3200225830078, -45.33399963378906, -0.225830078125, -0.08056640625, -1.201171875
130, 45071915, -5.288381099700928, 4.366812705993652, 7.605888843536377, 245.83441162109375, 253.21229553222656, -79.56924438476562, -0.1689453125, -0.113525390625, -1.127197265625
131, 45088582, -7.192595958709717, 5.275599956512451, 8.043050765991211, 216.3109130859375, 260.9039001464844, -80.62317657470703, -0.113525390625, -0.13623046875, -1.047607421875
132, 45105249, -6.090777397155762, 5.339790344238281, 6.177197456359863, 177.4375, 213.8707275390625, -67.56676483154297, -0.06591796875, -0.1494140625, -0.97412109375
133, 45121916, -6.384945869445801, 5.557827472686768, 5.702690124511719, 178.03822326660156, 197.3173370361328, -12.17101001739502, -0.036865234375, -0.165771484375, -0.902099609375
134, 45138583, -6.542301177978516, 4.9835052490234375, 5.65191125869751, 167.0867462158203, 221.87734985351562, 15.742938995361328, -0.02099609375, -0.184814453125, -0.832275390625
135, 45155250, -5.900032997131348, 5.328394889831543, 5.204230308532715, 149.71121215820312, 251.3380889892578, 32.30591583251953, -0.007080078125, -0.20068359375, -0.754638671875
136, 45171917, -7.2358222007751465, 5.668429374694824, 3.936570644378662, 141.19882202148438, 308.64923095703125, 45.93279266357422, -7.32421875E-4, -0.21533203125, -0.67041015625
137, 45188584, -8.146100997924805, 6.342342853546143, 2.226414680480957, 150.16909790039062, 385.35906982421875, 53.46981430053711, -0.00390625, -0.2294921875, -0.568115234375
138, 45205251, -8.520041465759277, 6.811215877532959, 0.23460066318511963, 166.21722412109375, 486.92169189453125, 66.8309097290039, -0.02099609375, -0.239013671875, -0.44775390625
139, 45221918, -7.444329738616943, 6.362269878387451, -1.0570130348205566, 214.0510711669922, 719.8844604492188, 48.125850677490234, -0.067138671875, -0.24267578125, -0.2841796875
140, 45238585, -9.382556915283203, 4.857802391052246, -2.0378341674804688, 216.00250244140625, 511.5150146484375, -9.956860542297363, -0.126220703125, -0.216552734375, -0.135986328125
141, 45255252, -9.447339057922363, 4.242716312408447, -5.179554462432861, 18.146547317504883, 165.16119384765625, -48.38596725463867, -0.151123046875, -0.2060546875, -0.093505859375
142, 45271919, -7.727748870849609, 4.942843437194824, -3.8302464485168457, 76.87844848632812, 110.0918197631836, -68.59992980957031, -0.1513671875, -0.18701171875, -0.067138671875
143, 45288586, -7.714702129364014, 4.928700923919678, -3.9036827087402344, 55.05416488647461, 170.42913818359375, -88.9764404296875, -0.157958984375, -0.165771484375, -0.03076171875
144, 45305253, -7.210962772369385, 4.609952449798584, -4.064457416534424, 45.16837692260742, 209.6492919921875, -96.29045867919922, -0.170166015625, -0.14501953125, 0.008544921875
145, 45321920, -6.505069255828857, 4.394775867462158, -4.051597595214844, 32.249752044677734, 237.5634002685547, -107.1838150024414, -0.188232421875, -0.12548828125, 0.047119140625
146, 45338587, -5.388556480407715, 3.805006742477417, -4.797969818115234, 9.187501907348633, 272.3450012207031, -113.21942138671875, -0.215087890625, -0.111328125, 0.0849609375
147, 45355254, -3.7821667194366455, 5.095935821533203, -6.901390075683594, 43.230533599853516, 292.6668701171875, -71.87001037597656, -0.25146484375, -0.093505859375, 0.124267578125
148, 45371921, -3.8334107398986816, 4.281471252441406, -7.899345874786377, 85.05723571777344, 328.41729736328125, -31.8612003326416, -0.311279296875, -0.07470703125, 0.16845703125
149, 45388588, -4.5000996589660645, 3.774205207824707, -6.863520622253418, 88.18254852294922, 308.5661315917969, -24.069705963134766, -0.375, -0.05224609375, 0.21337890625
150, 45405255, -3.8135807514190674, 4.795642375946045, -7.884629726409912, 62.53279495239258, 321.4552307128906, -24.22454261779785, -0.4423828125, -0.033935546875, 0.248046875
151, 45421922, -3.4618794918060303, 4.531650066375732, -9.2281494140625, 27.753870010375977, 302.0132751464844, -0.6128928661346436, -0.515869140625, -0.028564453125, 0.26611328125
152, 45438589, -2.1964316368103027, 4.65460729598999, -8.96955394744873, 18.64125633239746, 275.8848876953125, 24.94721794128418, -0.583251953125, -0.022705078125, 0.27978515625
153, 45455256, -1.7452572584152222, 3.5288524627685547, -7.448487281799316, -34.03453826904297, 285.1906433105469, 59.53387451171875, -0.66162109375, -0.02978515625, 0.27734375
154, 45471923, -0.8352131843566895, 3.2460317611694336, -6.996906280517578, -98.80977630615234, 253.49810791015625, 42.318721771240234, -0.73388671875, -0.046875, 0.26318359375
155, 45488590, -0.5079365968704224, 3.939340114593506, -10.427956581115723, -78.09246826171875, 186.30203247070312, 74.96951293945312, -0.790771484375, -0.064697265625, 0.239990234375
156, 45505257, -0.8510938882827759, 4.896341323852539, -9.064638137817383, -103.37728118896484, 231.2174835205078, 53.957008361816406, -0.8466796875, -0.081787109375, 0.215576171875
157, 45521924, 0.37421464920043945, 5.025347709655762, -9.202021598815918, -117.49887084960938, 286.0387878417969, 35.58121871948242, -0.91357421875, -0.105224609375, 0.171875
158, 45538591, 0.15578225255012512, 4.757942199707031, -8.157782554626465, -99.69186401367188, 282.74627685546875, 14.201746940612793, -0.9775390625, -0.123779296875, 0.126953125
159, 45555258, 3.04425048828125, 5.145960330963135, -7.288437843322754, -110.9462661743164, 221.61520385742188, 33.692901611328125, -1.02734375, -0.142578125, 0.083984375
160, 45571925, 4.84855318069458, 4.7539544105529785, -8.175995826721191, -135.4217529296875, 172.27432250976562, 90.16822052001953, -1.072021484375, -0.158447265625, 0.03662109375
161, 45588592, 2.8217358589172363, 4.151778697967529, -8.253177642822266, -85.31079864501953, 158.09530639648438, 90.30891418457031, -1.11962890625, -0.16015625, -0.002685546875
162, 45605259, 2.41497802734375, 4.29971981048584, -5.537585258483887, -51.678287506103516, 166.84779357910156, 22.77899932861328, -1.155517578125, -0.16552734375, -0.042724609375
163, 45621926, 5.122934818267822, 6.166198253631592, -7.30260705947876, -16.51667022705078, -9.250239372253418, 85.71570587158203, -1.171875, -0.158203125, -0.045166015625
164, 45638593, 4.123023509979248, 5.332433223724365, -5.564568996429443, -20.379709243774414, 33.42427062988281, 71.65261840820312, -1.19091796875, -0.151123046875, -0.057373046875
165, 45655260, 3.019202709197998, 4.4254150390625, -7.827165126800537, -61.245670318603516, 16.56296157836914, 72.44390106201172, -1.20751953125, -0.1416015625, -0.06640625
166, 45671927, 2.727039337158203, 4.769533157348633, -8.947073936462402, -37.150482177734375, 23.48775863647461, 19.511661529541016, -1.218505859375, -0.142822265625, -0.075927734375
167, 45688594, 4.151566505432129, 6.333794593811035, -7.4033050537109375, -18.70304298400879, 38.38996887207031, -9.33975887298584, -1.220458984375, -0.148681640625, -0.08642578125
168, 45705261, 6.090292930603027, 6.352001667022705, -6.953502655029297, -21.363500595092773, 22.238889694213867, 27.206823348999023, -1.226318359375, -0.146240234375, -0.09765625
169, 45721928, 2.5206665992736816, 6.020473957061768, -8.37078857421875, -41.69813537597656, 87.10759735107422, 31.760181427001953, -1.243896484375, -0.146240234375, -0.116943359375
170, 45738595, 4.540499687194824, 6.133558750152588, -6.9002814292907715, -61.398014068603516, 95.75360107421875, 42.41064453125, -1.2626953125, -0.14599609375, -0.141845703125
171, 45755262, 5.09053897857666, 5.971723556518555, -5.725875377655029, -118.66197204589844, 123.17449951171875, 34.67461395263672, -1.28466796875, -0.151611328125, -0.185791015625
172, 45771929, 4.928843021392822, 5.562995433807373, -6.966134548187256, -122.86088562011719, 75.33562469482422, 20.764453887939453, -1.297119140625, -0.15771484375, -0.227294921875
173, 45788596, 4.262040615081787, 5.897374629974365, -6.9008283615112305, -120.08769226074219, 84.97025299072266, -30.125669479370117, -1.3017578125, -0.170654296875, -0.263916015625
174, 45805263, 5.580503940582275, 6.941042900085449, -6.113715171813965, -170.52337646484375, 136.19100952148438, -62.94956588745117, -1.299072265625, -0.1923828125, -0.31884765625
175, 45821930, 6.299193382263184, 7.737985610961914, -5.422521591186523, -155.6451416015625, 145.43719482421875, -58.46307373046875, -1.295654296875, -0.2138671875, -0.380615234375
176, 45838597, 5.546180725097656, 7.6510419845581055, -4.942367076873779, -154.98805236816406, 137.42471313476562, -41.42637634277344, -1.2919921875, -0.22607421875, -0.4384765625
177, 45855264, 5.496417999267578, 7.2784037590026855, -4.3307204246521, -244.52432250976562, 169.12820434570312, -20.57023811340332, -1.29052734375, -0.237548828125, -0.513916015625
178, 45871931, 5.765511989593506, 8.513455390930176, -2.019122838973999, -635.4047241210938, 245.90841674804688, -12.910552978515625, -1.285888671875, -0.232421875, -0.665771484375
179, 45888598, 6.991051197052002, 8.010446548461914, -3.241672992706299, -871.6183471679688, 349.15167236328125, -11.659590721130371, -1.26025390625, -0.162109375, -0.933349609375
180, 45905265, 5.792820453643799, 6.614567279815674, 1.9159537553787231, -295.1396484375, 147.9229278564453, -19.004392623901367, -1.228271484375, -0.125732421875, -1.02490234375
181, 45921932, 6.126311302185059, 6.370044231414795, 2.561798095703125, -292.3063659667969, 136.26922607421875, 90.04347229003906, -1.21875, -0.070556640625, -1.095947265625
182, 45938599, 4.754694938659668, 6.778675079345703, 4.9266252517700195, -332.8366394042969, 111.686767578125, 85.06500244140625, -1.21435546875, 2.44140625E-4, -1.1689453125
183, 45955266, 4.664218902587891, 7.789135932922363, 6.44775915145874, -346.7726135253906, 67.03507995605469, 23.966434478759766, -1.20458984375, 0.073974609375, -1.228515625
184, 45971933, 6.214278221130371, 7.383615016937256, 6.075933456420898, -382.2232666015625, 69.17478942871094, 4.090404510498047, -1.19482421875, 0.150146484375, -1.281494140625
185, 45988600, 7.256252765655518, 5.364695072174072, 4.700130462646484, -455.5218505859375, 182.8391571044922, 48.478031158447266, -1.1640625, 0.25146484375, -1.343017578125
186, 46005267, 7.977553844451904, 4.320621490478516, 6.287674903869629, -830.1151123046875, 306.4730224609375, 73.95580291748047, -1.102294921875, 0.432373046875, -1.413330078125
187, 46021934, 1.533196210861206, 0.3780972361564636, 7.9516730308532715, -809.4205322265625, 84.08573150634766, 125.45492553710938, -1.056640625, 0.68212890625, -1.420166015625
188, 46038601, 5.6493916511535645, 1.0916318893432617, 9.380955696105957, -368.2698059082031, 230.24761962890625, 127.96676635742188, -1.008544921875, 0.80712890625, -1.40673828125
189, 46055268, 5.4384050369262695, 0.6596896648406982, 8.925070762634277, -333.1807861328125, 317.3055419921875, 125.20874786376953, -0.920166015625, 0.903564453125, -1.40087890625
190, 46071935, 3.4424707889556885, -1.6469576358795166, 8.014978408813477, -316.6781921386719, 271.8598327636719, 114.55130004882812, -0.829833984375, 0.99072265625, -1.37939453125
191, 46088602, 0.8992557525634766, -2.631910800933838, 8.848440170288086, -285.0723876953125, 253.57325744628906, 69.14395904541016, -0.76025390625, 1.066162109375, -1.34326171875
192, 46105269, -0.28189605474472046, -4.430386543273926, 8.175227165222168, -162.3029022216797, 256.29107666015625, -3.359708786010742, -0.68896484375, 1.108154296875, -1.316162109375
193, 46121936, 0.7146247625350952, -4.677816390991211, 9.353559494018555, -152.52040100097656, 205.40151977539062, -10.945926666259766, -0.649658203125, 1.143798828125, -1.2880859375
194, 46138603, -0.7145380973815918, -4.327254772186279, 9.252289772033691, -150.39483642578125, 176.4943389892578, -16.190948486328125, -0.609375, 1.176025390625, -1.25927734375
195, 46155270, 0.06315627694129944, -8.333694458007812, 7.872608661651611, -247.36241149902344, 42.653358459472656, 48.17768478393555, -0.5869140625, 1.218994140625, -1.213134765625
196, 46171937, -0.8571352362632751, -3.521070957183838, 7.21587610244751, -149.60337829589844, 63.12812042236328, -17.70587921142578, -0.574462890625, 1.25244140625, -1.173828125
197, 46188604, -0.08257237076759338, -6.8354878425598145, 7.361863136291504, -211.30685424804688, -47.017417907714844, 1.0504541397094727, -0.578857421875, 1.28515625, -1.133544921875
198, 46205271, -1.9067645072937012, -8.597704887390137, 4.2663702964782715, -166.53878784179688, -140.2332000732422, 23.94099235534668, -0.593994140625, 1.31591796875, -1.091552734375
199, 46221938, -0.8555808067321777, -5.808376789093018, 9.770426750183105, -199.94126892089844, -124.38337707519531, 19.91573143005371, -0.609619140625, 1.343994140625, -1.052001953125
200, 46238605, -1.0621037483215332, -10.03108024597168, 6.474955081939697, -226.46620178222656, -99.03972625732422, 10.385534286499023, -0.617919921875, 1.376708984375, -0.9912109375
201, 46255272, 1.0722625255584717, -9.831679344177246, 5.591064929962158, -179.50181579589844, -101.21540069580078, 40.07177734375, -0.627197265625, 1.400390625, -0.947998046875
202, 46271939, 0.5032196044921875, -9.487383842468262, 5.821292400360107, -163.2508544921875, -103.6146011352539, 99.21070861816406, -0.615478515625, 1.417236328125, -0.90185546875
203, 46288606, 0.7477415800094604, -8.25859260559082, 5.094050884246826, -107.75468444824219, -102.86988830566406, 123.54438018798828, -0.59521484375, 1.4287109375, -0.8720703125
204, 46305273, -0.5989878177642822, -6.183805465698242, 6.1562910079956055, -134.87115478515625, -135.1276397705078, 127.89928436279297, -0.572265625, 1.4345703125, -0.840087890625
205, 46321940, -0.5933494567871094, -3.1488776206970215, 4.249878406524658, -89.70133209228516, -90.2437515258789, 100.30912780761719, -0.548583984375, 1.443115234375, -0.814208984375
206, 46338607, 1.6850820779800415, -4.213749408721924, 3.2827858924865723, 5.3960394859313965, -5.005797863006592, -4.162153720855713, -0.54296875, 1.443603515625, -0.8115234375
207, 46355274, 1.033437967300415, -8.069082260131836, 5.249472618103027, -1.479067325592041, -55.82966995239258, -37.29879379272461, -0.554931640625, 1.445068359375, -0.815673828125
208, 46371941, -0.9224799275398254, -7.5341925621032715, 4.441519260406494, -124.49638366699219, -186.4144744873047, -63.26365280151367, -0.580322265625, 1.453125, -0.792724609375
209, 46388608, 1.094664454460144, -9.580429077148438, 5.306338787078857, -75.37945556640625, -145.9811248779297, -44.425018310546875, -0.607666015625, 1.45849609375, -0.768310546875
210, 46405275, 1.58942449092865, -9.450065612792969, 3.9577250480651855, -22.516658782958984, -119.6589584350586, -45.97535705566406, -0.626220703125, 1.464111328125, -0.75927734375
211, 46421942, 1.9708431959152222, -8.525594711303711, 6.508349895477295, 27.184303283691406, -83.20389556884766, -44.80511474609375, -0.64501953125, 1.462158203125, -0.767578125
212, 46438609, 1.0846613645553589, -7.856751441955566, 7.878945827484131, -95.74286651611328, -143.2520751953125, -37.18790817260742, -0.661865234375, 1.46630859375, -0.751953125
213, 46455276, 2.1009769439697266, -8.004663467407227, 5.119837284088135, -314.3164367675781, -219.71148681640625, -21.988588333129883, -0.681640625, 1.476318359375, -0.67333984375
214, 46471943, 2.719892740249634, -9.319680213928223, 1.687537670135498, -321.6547546386719, -147.11306762695312, -17.430988311767578, -0.690673828125, 1.485595703125, -0.574951171875
215, 46488610, 2.759060859680176, -9.272202491760254, 2.4716124534606934, -321.89019775390625, -66.04798889160156, -35.35519790649414, -0.69873046875, 1.48486328125, -0.483642578125
216, 46505277, 2.050391435623169, -9.729849815368652, 0.9492805004119873, -257.2283935546875, -97.22470092773438, -56.01527404785156, -0.71044921875, 1.477783203125, -0.40478515625
217, 46521944, 2.9055469036102295, -10.03571891784668, 0.5815310478210449, -171.5191650390625, -68.92288970947266, -114.49478912353516, -0.733642578125, 1.465087890625, -0.348388671875
218, 46538611, 4.687975883483887, -10.633417129516602, -0.650170624256134, -142.8350067138672, -47.64879608154297, -129.38479614257812, -0.76513671875, 1.453125, -0.309326171875
219, 46555278, 3.727510452270508, -10.665348052978516, 0.42932671308517456, -158.9667205810547, -93.85546112060547, -126.9423599243164, -0.79345703125, 1.4375, -0.262939453125
220, 46571945, 1.3250746726989746, -9.551057815551758, 0.819361686706543, -209.73358154296875, -170.6907196044922, -189.0339813232422, -0.81982421875, 1.409912109375, -0.205322265625
221, 46588612, 4.825911998748779, -9.101324081420898, -1.5819292068481445, -254.84744262695312, -230.82400512695312, -386.9711608886719, -0.885986328125, 1.362060546875, -0.12451171875
222, 46605279, 5.198723793029785, -8.265830993652344, -3.496049165725708, -186.36004638671875, -165.6273193359375, -443.83624267578125, -0.9619140625, 1.303955078125, -0.062744140625
223, 46621946, 6.788630962371826, -6.915609836578369, -3.7776918411254883, -243.63951110839844, -189.75271606445312, -452.6556396484375, -1.03955078125, 1.220703125, 0.005126953125
224, 46638613, 7.224347114562988, -4.920267581939697, -4.680525302886963, -376.07452392578125, -255.3826904296875, -350.2032775878906, -1.07568359375, 1.118896484375, 0.10205078125
225, 46655280, 4.466681957244873, -3.4004931449890137, -6.428173542022705, -351.94122314453125, -303.596923828125, -257.2775573730469, -1.06103515625, 1.007568359375, 0.194580078125
226, 46671947, 4.765156269073486, -2.4634342193603516, -8.205490112304688, -311.92242431640625, -390.59942626953125, -187.9104461669922, -1.0048828125, 0.90869140625, 0.283935546875
227, 46688614, 7.050447463989258, -2.164104461669922, -8.742170333862305, -181.64170837402344, -267.3548889160156, -198.51600646972656, -0.94189453125, 0.842529296875, 0.331298828125
228, 46705281, 5.80440616607666, -1.314460039138794, -8.85551929473877, -178.3668212890625, -116.11505889892578, -226.2053985595703, -0.927001953125, 0.775390625, 0.360107421875
229, 46721948, 4.008535861968994, -0.26874226331710815, -8.26410961151123, -144.67112731933594, -162.16390991210938, -222.35513305664062, -0.9072265625, 0.720703125, 0.38232421875
230, 46738615, 4.242276191711426, -0.40474358201026917, -7.687954902648926, -173.76560974121094, -178.3253173828125, -234.64088439941406, -0.86572265625, 0.65966796875, 0.403564453125
231, 46755282, 2.391677141189575, 0.5739706754684448, -7.77349853515625, -130.94827270507812, -189.0003204345703, -215.53424072265625, -0.8291015625, 0.602294921875, 0.41748046875
232, 46771949, 2.362708806991577, 2.124201774597168, -10.164384841918945, -39.59956741333008, -356.83245849609375, -104.05459594726562, -0.747314453125, 0.580078125, 0.431640625
233, 46788616, 1.655604600906372, 1.0568420886993408, -9.724359512329102, 42.298919677734375, -463.5663146972656, -7.051375865936279, -0.622802734375, 0.588134765625, 0.431884765625
234, 46805283, 0.670576810836792, -1.8159509897232056, -11.114725112915039, 70.35236358642578, -675.990478515625, -9.893621444702148, -0.44775390625, 0.606201171875, 0.408447265625
235, 46821950, 4.097818851470947, -0.1675836145877838, -13.802014350891113, 93.0221176147461, 32.04945755004883, -196.89816284179688, -0.38330078125, 0.63623046875, 0.394287109375
236, 46838617, 0.4081202447414398, -0.0270848348736763, -6.247091293334961, -56.00532150268555, 183.10269165039062, -88.55948638916016, -0.447509765625, 0.648681640625, 0.407470703125
237, 46855284, -0.06112048774957657, 1.8155288696289062, -8.70215129852295, -163.1036834716797, 51.566410064697266, -151.5611572265625, -0.484619140625, 0.61669921875, 0.414306640625
238, 46871951, -1.3504160642623901, 0.9184598922729492, -12.113798141479492, -176.20321655273438, -177.64315795898438, -153.53469848632812, -0.44580078125, 0.569091796875, 0.412109375
239, 46888618, -1.453286051750183, 1.6743226051330566, -8.004639625549316, -54.7552604675293, -4.816575050354004, -129.86927795410156, -0.431640625, 0.55517578125, 0.410400390625
240, 46905285, -2.477525234222412, 2.923438549041748, -7.548953056335449, 16.00503921508789, -63.102901458740234, -38.64993667602539, -0.436279296875, 0.55859375, 0.412353515625
241, 46921952, 0.027531445026397705, 1.6744970083236694, -11.28593921661377, 85.7030258178711, -378.1492919921875, -38.14617156982422, -0.34765625, 0.579345703125, 0.385498046875
242, 46938619, 2.141451358795166, -0.2472625970840454, -7.952428340911865, 84.4432373046875, -275.4665222167969, -25.789066314697266, -0.261474609375, 0.60888671875, 0.3515625
243, 46955286, -1.141939401626587, 0.674260139465332, -10.022909164428711, 76.71876525878906, -111.06010437011719, 33.92593002319336, -0.224365234375, 0.626220703125, 0.330322265625
244, 46971953, -2.0368752479553223, 0.5568141341209412, -10.139379501342773, 106.02395629882812, -117.5290298461914, 63.9670524597168, -0.19287109375, 0.642822265625, 0.313720703125
245, 46988620, -2.924196243286133, 0.04383517801761627, -10.530525207519531, 122.5862808227539, -206.3473358154297, 125.39305114746094, -0.1484375, 0.658203125, 0.283935546875
246, 47005287, -3.9311821460723877, -0.8120543956756592, -10.369227409362793, 175.61854553222656, -268.9505920410156, 162.8462371826172, -0.080810546875, 0.673583984375, 0.2333984375
247, 47021954, -5.113310813903809, -0.5893954634666443, -8.83344554901123, 187.82864379882812, -322.7928161621094, 200.94175720214844, -0.005126953125, 0.67822265625, 0.171142578125
248, 47038621, -6.640909194946289, 0.5184885263442993, -6.846527099609375, 176.79486083984375, -406.09173583984375, 170.609130859375, 0.080810546875, 0.675048828125, 0.081298828125
249, 47055288, -8.17612361907959, 0.8941149711608887, -5.788150787353516, 49.96308517456055, -543.1841430664062, 110.21843719482422, 0.17041015625, 0.664306640625, -0.036865234375
250, 47071955, -8.671013832092285, 0.8860945105552673, -7.165440559387207, -14.048952102661133, -580.6304931640625, 31.821008682250977, 0.246826171875, 0.650390625, -0.18603515625
251, 47088622, -9.375682830810547, 0.5829979181289673, -7.636176109313965, -77.31005859375, -594.7925415039062, 10.719415664672852, 0.295654296875, 0.643310546875, -0.345947265625
252, 47105289, -10.356378555297852, 1.3647334575653076, -6.56017541885376, -133.35826110839844, -582.0426635742188, -5.741566181182861, 0.31982421875, 0.63916015625, -0.5029296875
253, 47121956, -11.883094787597656, 0.5287332534790039, -5.677405834197998, -10.318070411682129, -582.11572265625, -18.155670166015625, 0.3134765625, 0.63818359375, -0.666015625
254, 47138623, -12.599699020385742, -0.7489882111549377, -3.6283624172210693, 129.155517578125, -658.949462890625, -154.1549072265625, 0.2744140625, 0.667236328125, -0.84326171875
255, 47155290, -9.622030258178711, -0.10853156447410583, 1.6753286123275757, 243.2071075439453, -725.0555419921875, -176.063720703125, 0.181884765625, 0.68603515625, -1.041259765625
256, 47171957, -4.743408203125, 1.476864218711853, 1.8035310506820679, 89.91824340820312, -474.646728515625, -61.29285430908203, 0.083984375, 0.681640625, -1.175048828125
257, 47188624, -7.531760215759277, -1.581251859664917, 3.9931187629699707, -1.3983635902404785, -348.3592529296875, -76.75605010986328, 0.012451171875, 0.69580078125, -1.2470703125
258, 47205291, -6.780396938323975, -1.1885982751846313, 6.849487781524658, -17.075349807739258, -339.2770080566406, -71.45193481445312, -0.063232421875, 0.710205078125, -1.306884765625
259, 47221958, -7.258166790008545, -1.5246540307998657, 5.956240177154541, -17.291486740112305, -381.64410400390625, -69.11126708984375, -0.15234375, 0.726318359375, -1.361083984375
260, 47238625, -5.571741580963135, -1.2935155630111694, 5.433472156524658, 10.169285774230957, -406.90673828125, -93.1636962890625, -0.256103515625, 0.737060546875, -1.41357421875
261, 47255292, -3.9091639518737793, -0.9624782800674438, 6.90027379989624, 23.179275512695312, -400.03973388671875, -88.54080200195312, -0.369873046875, 0.738525390625, -1.45654296875
262, 47271959, -3.834475040435791, -1.826875925064087, 7.4388651847839355, 0.3358215093612671, -388.38006591796875, -80.98104095458984, -0.47900390625, 0.742431640625, -1.483154296875
263, 47288626, -2.8593382835388184, -2.1771929264068604, 9.901768684387207, -49.00008010864258, -282.0111083984375, -148.04229736328125, -0.5771484375, 0.753662109375, -1.486083984375
264, 47305293, -0.2669510245323181, -3.9954164028167725, 8.516823768615723, -72.27250671386719, -182.2513885498047, -6.363339900970459, -0.640380859375, 0.77734375, -1.4853515625
265, 47321960, -1.4603030681610107, -3.9032392501831055, 9.89907455444336, -8.965246200561523, -180.66111755371094, 18.305410385131836, -0.68115234375, 0.783935546875, -1.483154296875
266, 47338627, -0.9057443141937256, -3.5380842685699463, 9.654519081115723, 52.215553283691406, -240.50962829589844, 35.09172058105469, -0.744140625, 0.7734375, -1.482666015625
267, 47355294, -2.200310230255127, -2.134671211242676, 9.026191711425781, 116.48638916015625, -249.643798828125, 45.51682662963867, -0.803466796875, 0.7490234375, -1.479248046875
268, 47371961, -0.8376985192298889, -1.0300272703170776, 9.917125701904297, 158.5758819580078, -297.0169372558594, 75.08967590332031, -0.8828125, 0.707763671875, -1.47216796875
269, 47388628, -1.6083472967147827, -1.2303377389907837, 9.978216171264648, 117.23958587646484, -185.37405395507812, 86.71601104736328, -0.93603515625, 0.68017578125, -1.464599609375
270, 47405295, -0.27782827615737915, 0.1412036269903183, 9.409711837768555, 64.69515991210938, -99.14106750488281, 63.553443908691406, -0.964111328125, 0.66455078125, -1.46044921875
271, 47421962, 0.2312120497226715, -0.8329651951789856, 9.729475975036621, -13.447994232177734, -16.800254821777344, 67.5174789428711, -0.9716796875, 0.6708984375, -1.45703125
272, 47438629, 1.0801050662994385, -0.15360772609710693, 9.174531936645508, -63.56733322143555, 43.91007614135742, 78.91162872314453, -0.9619140625, 0.6875, -1.45751953125
273, 47455296, 0.2998334467411041, 0.49868977069854736, 9.042572021484375, -98.58641052246094, 65.69815826416016, 113.56468200683594, -0.939453125, 0.72216796875, -1.4560546875
274, 47471963, 0.6049093008041382, -0.9222476482391357, 9.820181846618652, -131.40708923339844, 68.15312957763672, 161.49595642089844, -0.906005859375, 0.76708984375, -1.4541015625
275, 47488630, 0.6042087078094482, -2.347480535507202, 9.68468189239502, -79.32117462158203, -54.76063537597656, 162.7781524658203, -0.8984375, 0.8046875, -1.445068359375
276, 47505297, 0.6485864520072937, -1.5758752822875977, 9.489249229431152, -37.05941390991211, -82.99974060058594, 167.770751953125, -0.9052734375, 0.8310546875, -1.435302734375
277, 47521964, -0.9194695949554443, -2.1853134632110596, 11.156926155090332, -72.43627166748047, -78.8504638671875, 183.79139709472656, -0.907958984375, 0.857177734375, -1.42236328125
278, 47538631, -2.4962151050567627, -3.673336982727051, 11.20759105682373, -134.41921997070312, -130.6300048828125, 118.95763397216797, -0.91943359375, 0.89697265625, -1.400390625
279, 47555298, -3.3477468490600586, -5.728330135345459, 8.735136985778809, -160.54364013671875, -118.37512969970703, 23.409269332885742, -0.9453125, 0.941162109375, -1.369384765625
280, 47571965, -2.422430992126465, -5.666965484619141, 7.13228702545166, -70.61705017089844, -136.53038024902344, -78.22394561767578, -0.98193359375, 0.960205078125, -1.3466796875
281, 47588632, 0.5776412487030029, -4.99844217300415, 8.939294815063477, -12.347567558288574, -130.87905883789062, -154.0852508544922, -1.03076171875, 0.9501953125, -1.33203125
282, 47605299, 2.406869411468506, -2.930022716522217, 10.480228424072266, -65.61832427978516, -148.6182403564453, -179.5049591064453, -1.083740234375, 0.938232421875, -1.30859375
283, 47621966, 3.4169960021972656, -1.6696288585662842, 8.044933319091797, -286.1025390625, -202.0834197998047, -287.4356994628906, -1.15576171875, 0.948974609375, -1.2568359375
284, 47638633, 2.870617628097534, 0.9465892314910889, 4.2923431396484375, -709.9829711914062, -324.2093505859375, -348.2756652832031, -1.263427734375, 1.00537109375, -1.1162109375
285, 47655300, 7.197903633117676, -8.136146545410156, 8.413684844970703, -170.34280395507812, 86.18950653076172, -158.3614501953125, -1.30078125, 1.026611328125, -1.06494140625
286, 47671967, 6.049046993255615, -4.095535755157471, 7.065131664276123, -4.616679668426514, 66.59861755371094, -82.251708984375, -1.3037109375, 1.01171875, -1.074462890625
287, 47688634, 3.6851043701171875, -4.768699645996094, 8.165263175964355, 6.74439811706543, 117.16065216064453, -45.364044189453125, -1.293701171875, 1.001953125, -1.09521484375
288, 47705301, 4.2379326820373535, -6.13654088973999, 7.192232131958008, 39.97725296020508, 62.46986770629883, -13.921985626220703, -1.2822265625, 0.9931640625, -1.114990234375
289, 47721968, 2.9427051544189453, -6.244905471801758, 8.088613510131836, 93.07456970214844, 36.56838607788086, -37.55685043334961, -1.280029296875, 0.97412109375, -1.13427734375
290, 47738635, 4.047024250030518, -4.419717788696289, 8.097528457641602, 108.65379333496094, -30.66143035888672, -38.6180419921875, -1.28564453125, 0.947265625, -1.1474609375
291, 47755302, 2.496940851211548, -4.469890594482422, 7.725597858428955, 64.34337615966797, 0.8991551399230957, -68.10299682617188, -1.295654296875, 0.923583984375, -1.153076171875
292, 47771969, 4.239711284637451, -3.665782928466797, 7.547492027282715, 42.62804412841797, 32.7552604675293, -111.62577819824219, -1.3017578125, 0.89404296875, -1.1650390625
293, 47788636, 5.751394271850586, -1.5691386461257935, 8.074566841125488, -12.597290992736816, 84.12358856201172, -224.2008056640625, -1.309326171875, 0.8603515625, -1.177490234375
294, 47805303, 4.132503986358643, -2.5350892543792725, 8.044960021972656, -87.91024017333984, 145.78013610839844, -310.4892578125, -1.313232421875, 0.81689453125, -1.198486328125
295, 47821970, 2.4787309169769287, -4.416913032531738, 8.023966789245605, -168.7626190185547, 229.1051483154297, -363.3442687988281, -1.30517578125, 0.776611328125, -1.227294921875
296, 47838637, 3.1228339672088623, -4.541390419006348, 7.137902736663818, -231.12831115722656, 270.83489990234375, -361.59881591796875, -1.277587890625, 0.757568359375, -1.256103515625
297, 47855304, 1.939249873161316, -5.685964107513428, 7.239286422729492, -223.42221069335938, 314.1784362792969, -508.2101745605469, -1.24609375, 0.725830078125, -1.29736328125
298, 47871971, 2.3757808208465576, -7.092270374298096, 8.034904479980469, -226.45159912109375, 318.93853759765625, -749.8832397460938, -1.21142578125, 0.6611328125, -1.339111328125
299, 47888638, 1.688969373703003, -3.8018829822540283, 9.778396606445312, -247.1987762451172, 230.51544189453125, -928.436279296875, -1.17919921875, 0.575927734375, -1.365234375
300, 47905305, -0.010203391313552856, -3.0840229988098145, 10.115678787231445, -83.62808227539062, 272.8252868652344, -983.0048828125, -1.123779296875, 0.477783203125, -1.406005859375
301, 47921972, 1.5582399368286133, 2.4350526332855225, 9.747123718261719, 62.5772590637207, -4.466565132141113, -808.1461181640625, -1.0751953125, 0.345947265625, -1.414794921875
302, 47938639, 2.601846694946289, 1.1489605903625488, 6.933838844299316, 90.7683334350586, -126.61732482910156, -446.1952819824219, -1.074951171875, 0.260986328125, -1.39697265625
303, 47955306, 5.331947326660156, 0.45509573817253113, 6.847390174865723, 13.98493766784668, -98.72004699707031, -230.72091674804688, -1.078369140625, 0.2197265625, -1.37841796875
304, 47971973, 6.648466110229492, 1.1217139959335327, 6.85861873626709, -38.4488639831543, -17.51947021484375, -124.80180358886719, -1.07177734375, 0.208251953125, -1.374755859375
305, 47988640, 6.067984580993652, -0.3246949315071106, 8.490213394165039, -0.9316208362579346, -57.51593780517578, -87.30829620361328, -1.07666015625, 0.20263671875, -1.373779296875
306, 48005307, 5.486242771148682, -0.7970797419548035, 8.394181251525879, 18.025835037231445, -96.42808532714844, -93.0621109008789, -1.09130859375, 0.185546875, -1.362060546875
307, 48021974, 5.070812225341797, 1.2114075422286987, 9.08665943145752, 3.1656227111816406, -92.43097686767578, -115.9087905883789, -1.103759765625, 0.168212890625, -1.3486328125
308, 48038641, 3.968430280685425, 2.1352851390838623, 7.3193159103393555, 3.528798818588257, -104.64496612548828, -152.365966796875, -1.108154296875, 0.149658203125, -1.335693359375
309, 48055308, 5.699779510498047, 1.4090116024017334, 4.694843292236328, 28.372108459472656, -171.88046264648438, -102.77593231201172, -1.130126953125, 0.13232421875, -1.310546875
310, 48071975, 7.503102779388428, 0.3401104509830475, 6.093543529510498, 68.1156005859375, -117.06948852539062, -104.61315155029297, -1.14990234375, 0.105224609375, -1.285888671875
311, 48088642, 6.7095136642456055, 0.8001098036766052, 7.165558338165283, 68.06880187988281, -50.532562255859375, -109.49198913574219, -1.153076171875, 0.072509765625, -1.264892578125
312, 48105309, 6.965580940246582, 2.8913896083831787, 6.759615898132324, 73.87393188476562, 43.298770904541016, -75.38143920898438, -1.13623046875, 0.046142578125, -1.261962890625
313, 48121976, 5.988389015197754, 4.9191718101501465, 6.242751598358154, 104.45315551757812, 105.79808807373047, 50.69316864013672, -1.1201171875, 0.023681640625, -1.26123046875
314, 48138643, 5.1362714767456055, 2.4413130283355713, 5.843390941619873, 76.03531646728516, 234.05825805664062, 55.88916015625, -1.090087890625, 0.017578125, -1.275146484375
315, 48155310, 4.222348213195801, 1.9387791156768799, 11.549338340759277, -10.090072631835938, 340.68212890625, 30.438016891479492, -1.016845703125, 0.016845703125, -1.313232421875
316, 48171977, 4.158022880554199, 1.4506514072418213, 11.675862312316895, -88.05073547363281, 30.05120277404785, 79.22933197021484, -1.002197265625, 0.041015625, -1.33154296875
317, 48188644, 4.0906782150268555, 2.4015424251556396, 5.687777996063232, -54.88481903076172, 35.0837516784668, 21.187232971191406, -1.006103515625, 0.064697265625, -1.34619140625
318, 48205311, 6.345819473266602, 2.0201573371887207, 8.239551544189453, 56.8807487487793, 107.2304916381836, -29.10661506652832, -0.98046875, 0.05126953125, -1.34716796875
319, 48221978, 6.549140930175781, 1.0318340063095093, 11.140680313110352, -20.354366302490234, 86.59412384033203, -0.0706033781170845, -0.955810546875, 0.050048828125, -1.357177734375
320, 48238645, 5.782590389251709, 0.9787149429321289, 9.25293254852295, -68.86365509033203, 144.5755615234375, 30.973207473754883, -0.9306640625, 0.06689453125, -1.374267578125
321, 48255312, 5.337331771850586, 0.3689291775226593, 7.202144622802734, -47.859039306640625, 227.29783630371094, 52.318214416503906, -0.88525390625, 0.08740234375, -1.39990234375
322, 48271979, 5.067599296569824, 2.4774203300476074, 11.556323051452637, -88.20252227783203, 284.0023498535156, 110.20941925048828, -0.828125, 0.106689453125, -1.421875
323, 48288646, 0.7763867378234863, 1.8864243030548096, 8.546814918518066, -101.72338104248047, 274.910400390625, 107.45806121826172, -0.76904296875, 0.140380859375, -1.4453125
324, 48305313, -0.19973313808441162, 1.1882020235061646, 8.368992805480957, -73.26821899414062, 234.05528259277344, 71.62381744384766, -0.709716796875, 0.161865234375, -1.46142578125
325, 48321980, -0.5166431069374084, 1.468206524848938, 9.076334953308105, -25.717548370361328, 188.68438720703125, 46.6952018737793, -0.660400390625, 0.1748046875, -1.466552734375
326, 48338647, 0.1624252051115036, 0.7052872180938721, 9.405884742736816, 15.690051078796387, 131.32127380371094, 9.783217430114746, -0.62548828125, 0.172607421875, -1.4658203125
327, 48355314, 0.05026122182607651, 0.8749889135360718, 9.186250686645508, 41.08641815185547, 79.14305114746094, -3.7899537086486816, -0.60009765625, 0.162353515625, -1.4619140625
328, 48371981, -0.3408368229866028, 1.1139992475509644, 9.223684310913086, 42.71084976196289, 34.87401580810547, -26.113204956054688, -0.5859375, 0.1513671875, -1.45556640625
329, 48388648, -0.48865097761154175, 1.4579277038574219, 8.083065032958984, 88.35676574707031, 89.08793640136719, -2.3182318210601807, -0.5673828125, 0.13330078125, -1.446533203125
330, 48405315, -0.6168036460876465, 0.7459909319877625, 10.930754661560059, 77.86610412597656, 21.722501754760742, -24.134780883789062, -0.55224609375, 0.11083984375, -1.434326171875
331, 48421982, -0.10835576802492142, 1.2487810850143433, 9.03581714630127, 38.624385833740234, 52.378238677978516, 3.4779303073883057, -0.53857421875, 0.097900390625, -1.427001953125
332, 48438649, -1.210960865020752, 1.2053027153015137, 9.74143123626709, 48.725711822509766, 53.92381286621094, 10.76667594909668, -0.52685546875, 0.08642578125, -1.42333984375
333, 48455316, -0.5073440670967102, 1.063307762145996, 9.862068176269531, 89.63824462890625, 73.5391845703125, 3.6801366806030273, -0.51171875, 0.06787109375, -1.407958984375
334, 48471983, -0.560794472694397, 1.2928543090820312, 10.130648612976074, 147.0426788330078, 85.41544342041016, -7.743049144744873, -0.489013671875, 0.03466796875, -1.385009765625
335, 48488650, -0.6005646586418152, 1.499540090560913, 10.521491050720215, 155.41744995117188, 64.2486572265625, 25.196109771728516, -0.471923828125, -0.00439453125, -1.3583984375
336, 48505317, -0.7109218239784241, 1.232473373413086, 9.82686710357666, 180.99945068359375, 82.2708740234375, 11.08071231842041, -0.458984375, -0.044677734375, -1.33056640625
337, 48521984, -1.0500695705413818, 2.4377024173736572, 9.440862655639648, 230.2041778564453, 89.63533782958984, -18.1618709564209, -0.434814453125, -0.094482421875, -1.28857421875
338, 48538651, -1.8686457872390747, 3.21943736076355, 8.204346656799316, 281.03302001953125, 80.00871276855469, 4.813851356506348, -0.41650390625, -0.14990234375, -1.234130859375
339, 48555318, -3.262308359146118, 4.501427173614502, 7.783142566680908, 346.60498046875, 16.239742279052734, -26.381881713867188, -0.406982421875, -0.2109375, -1.162841796875
340, 48571985, -2.0386743545532227, 5.77408504486084, 6.904505729675293, 377.574951171875, 11.636690139770508, -31.59966278076172, -0.397705078125, -0.271484375, -1.0810546875
341, 48588652, -2.615744113922119, 6.23613166809082, 6.1224894523620605, 383.2364196777344, 14.452644348144531, -23.92820930480957, -0.39013671875, -0.32373046875, -0.98828125
342, 48605319, -2.3339433670043945, 6.024220943450928, 6.757739067077637, 413.63043212890625, 1.5460689067840576, -32.30944061279297, -0.37939453125, -0.36865234375, -0.889404296875
343, 48621986, -2.1300220489501953, 6.4390549659729, 6.231464385986328, 505.59356689453125, -69.7459945678711, -46.15743637084961, -0.374267578125, -0.406982421875, -0.766845703125
344, 48638653, -2.9387810230255127, 7.80617094039917, 3.075866222381592, 584.0599365234375, -35.029335021972656, -68.01506805419922, -0.360595703125, -0.427001953125, -0.614501953125
345, 48655320, -2.9548819065093994, 9.554303169250488, 0.6491209268569946, 616.9986572265625, 20.919946670532227, -96.71615600585938, -0.336669921875, -0.4169921875, -0.44921875
346, 48671987, -2.447427272796631, 11.437345504760742, -0.8306477069854736, 595.3916015625, 33.90947341918945, -84.23892211914062, -0.31396484375, -0.378662109375, -0.283935546875
347, 48688654, -2.540208578109741, 11.88944149017334, -2.656731605529785, 476.906005859375, 32.117340087890625, -39.59584426879883, -0.300537109375, -0.322021484375, -0.15087890625
348, 48705321, -2.431042194366455, 11.462620735168457, -3.2136130332946777, 306.48046875, 41.39712905883789, 31.610307693481445, -0.31298828125, -0.282958984375, -0.0703125
349, 48721988, -2.1416103839874268, 9.258706092834473, -3.624953508377075, 287.5351867675781, 72.56301879882812, 10.104266166687012, -0.32470703125, -0.244384765625, 0.00341796875
350, 48738655, -2.58638334274292, 9.085738182067871, -4.808895587921143, 275.71630859375, 73.21000671386719, 4.466900825500488, -0.340576171875, -0.196044921875, 0.06689453125
351, 48755322, -2.219209909439087, 8.017999649047852, -5.643461227416992, 301.0625915527344, 49.3538932800293, -13.636635780334473, -0.35205078125, -0.141357421875, 0.1279296875
352, 48771989, -2.7547123432159424, 7.640666484832764, -7.315763473510742, 408.8312072753906, 52.50318145751953, -34.70661163330078, -0.356689453125, -0.0576171875, 0.20361328125
353, 48788656, -2.8075592517852783, 6.5836615562438965, -8.729494094848633, 418.7193298339844, 40.69312286376953, -34.68611145019531, -0.36181640625, 0.03857421875, 0.268798828125
354, 48805323, -3.385079860687256, 5.170785427093506, -9.76186466217041, 459.6646423339844, 30.167863845825195, -19.481876373291016, -0.3671875, 0.151611328125, 0.327392578125
355, 48821990, -2.447152853012085, 2.829956531524658, -9.92633056640625, 478.75079345703125, -30.573122024536133, 8.260336875915527, -0.366455078125, 0.274169921875, 0.364990234375
356, 48838657, -2.1724085807800293, 2.7092928886413574, -8.875337600708008, 533.3937377929688, -70.55645751953125, 27.278276443481445, -0.348876953125, 0.413330078125, 0.385009765625
357, 48855324, -1.9023607969284058, 6.8133344650268555, -6.276321887969971, 416.30316162109375, -52.968475341796875, 9.240428924560547, -0.332275390625, 0.535888671875, 0.3818359375
358, 48871991, -3.0105788707733154, 6.76714563369751, -7.025129318237305, 265.3009033203125, 31.420940399169922, -32.100074768066406, -0.3359375, 0.62060546875, 0.378173828125
359, 48888658, -2.1832282543182373, 4.527191638946533, -6.330245494842529, 154.97369384765625, 35.079097747802734, -34.43715286254883, -0.348876953125, 0.667724609375, 0.376220703125
360, 48905325, -3.1544418334960938, 1.7635918855667114, -8.492393493652344, 138.36962890625, 46.49835205078125, -35.443382263183594, -0.361572265625, 0.709228515625, 0.372314453125
361, 48921992, -3.182199239730835, 0.9320429563522339, -9.108113288879395, 134.56143188476562, 35.87083053588867, -55.5836296081543, -0.3759765625, 0.749755859375, 0.365966796875
362, 48938659, -2.554386854171753, 0.7559632062911987, -9.563558578491211, 138.75653076171875, 23.116649627685547, -52.02375793457031, -0.386962890625, 0.790771484375, 0.360107421875
363, 48955326, -2.152416944503784, 0.8968807458877563, -10.224724769592285, 137.18507385253906, 28.307279586791992, -37.97706985473633, -0.39990234375, 0.829345703125, 0.347412109375
364, 48971993, -0.9030811786651611, 0.39632463455200195, -9.512407302856445, 179.0578155517578, -24.625394821166992, 28.77645492553711, -0.401123046875, 0.873291015625, 0.328857421875
365, 48988660, -2.0352413654327393, -0.8441796898841858, -9.178558349609375, 114.04786682128906, -54.24115753173828, 54.63621520996094, -0.376708984375, 0.900634765625, 0.306640625
366, 49005327, -0.974884033203125, -3.32586669921875, -12.771432876586914, 120.23161315917969, 96.56278228759766, 23.082550048828125, -0.379638671875, 0.92529296875, 0.302001953125
367, 49021994, -3.38485050201416, 0.1775258183479309, -8.024717330932617, 169.4562530517578, 84.7708969116211, 57.931522369384766, -0.408935546875, 0.965576171875, 0.287353515625
368, 49038661, -4.501347541809082, -2.088627576828003, -9.189657211303711, 150.29319763183594, 37.20326232910156, 16.279111862182617, -0.409912109375, 0.997802734375, 0.269775390625
369, 49055328, -1.7166690826416016, -1.9185049533843994, -8.951022148132324, 121.90084838867188, 7.794938087463379, -4.597043037414551, -0.416748046875, 1.029052734375, 0.251953125
370, 49071995, -0.3876202404499054, -2.07452654838562, -7.994359016418457, 41.372310638427734, 10.970000267028809, 20.620162963867188, -0.41796875, 1.044189453125, 0.241943359375
371, 49088662, -1.5073670148849487, -3.2646453380584717, -9.009855270385742, -7.019987106323242, 20.936626434326172, 36.302757263183594, -0.41552734375, 1.042724609375, 0.241943359375
372, 49105329, -5.2605438232421875, -7.011914253234863, -12.196310043334961, 36.56682586669922, 78.90386962890625, -10.02937126159668, -0.428955078125, 1.04248046875, 0.244384765625
373, 49121996, -3.5777761936187744, -4.571590900421143, -10.19958209991455, 164.85806274414062, -34.13726043701172, -87.89569091796875, -0.446533203125, 1.081787109375, 0.220947265625
374, 49138663, -4.138613224029541, -5.447929382324219, -8.201728820800781, 144.42831420898438, -230.2381134033203, -97.87176513671875, -0.420654296875, 1.119140625, 0.185302734375
375, 49155330, 0.4065111577510834, -2.661156415939331, -11.059308052062988, 176.612548828125, -306.50787353515625, -110.9832534790039, -0.379638671875, 1.160400390625, 0.13330078125
376, 49171997, -4.256422519683838, -3.512273073196411, -11.874593734741211, 268.62335205078125, -202.71351623535156, -38.559326171875, -0.348388671875, 1.21044921875, 0.06396484375
377, 49188664, -3.952782154083252, -5.11417818069458, -11.533489227294922, 450.3149719238281, -277.8052062988281, -65.93255615234375, -0.318359375, 1.281005859375, -0.048828125
378, 49205331, -1.7002403736114502, -3.0325796604156494, -2.5724563598632812, 410.22393798828125, -246.81011962890625, -35.031681060791016, -0.297607421875, 1.34326171875, -0.178466796875
379, 49221998, -0.9396323561668396, -3.987778902053833, -1.0991320610046387, 170.90576171875, -159.5384063720703, 35.702842712402344, -0.277099609375, 1.366455078125, -0.254150390625
380, 49238665, -4.012746810913086, -6.796610355377197, -6.617093086242676, 21.810516357421875, -136.06521606445312, 88.84070587158203, -0.243896484375, 1.3564453125, -0.2783203125
381, 49255332, -5.941307544708252, -7.381126403808594, -3.869140386581421, 39.738983154296875, -107.75003051757812, 79.38465881347656, -0.215087890625, 1.349853515625, -0.303466796875
382, 49271999, -6.570830345153809, -7.7873148918151855, -2.0294129848480225, -10.221369743347168, -96.36233520507812, 21.10152816772461, -0.197998046875, 1.346435546875, -0.3154296875
383, 49288666, -6.521678447723389, -8.129276275634766, -3.3960258960723877, -60.292537689208984, -154.91111755371094, -11.640498161315918, -0.190185546875, 1.343505859375, -0.32177734375
384, 49305333, -6.037273406982422, -6.993877410888672, -4.367832660675049, -37.24407958984375, -233.9383544921875, -47.97248840332031, -0.185302734375, 1.34619140625, -0.34130859375
385, 49322000, -6.8942975997924805, -6.525346755981445, -3.8580310344696045, -47.946937561035156, -237.52450561523438, -76.26521301269531, -0.187744140625, 1.352294921875, -0.36279296875
386, 49338667, -4.4266204833984375, -6.704588413238525, -8.266562461853027, -37.92619323730469, -229.72235107421875, -73.81468200683594, -0.198486328125, 1.363037109375, -0.3759765625
387, 49355334, -7.149909496307373, -8.094871520996094, -6.351665019989014, 132.283203125, -250.62265014648438, -65.38792419433594, -0.2041015625, 1.372314453125, -0.438232421875
388, 49372001, -7.780566692352295, -8.095466613769531, -3.0164432525634766, 168.29135131835938, -278.2772521972656, -73.0977783203125, -0.216796875, 1.3818359375, -0.513916015625
389, 49388668, -5.84810733795166, -7.71413516998291, -3.015585422515869, 134.1549835205078, -343.7557067871094, -73.59735870361328, -0.235595703125, 1.39111328125, -0.59326171875
390, 49405335, -5.417209625244141, -8.128448486328125, -3.649670362472534, 155.1412811279297, -411.3605651855469, -15.304729461669922, -0.256103515625, 1.393798828125, -0.67822265625
391, 49422002, -5.2441725730896, -6.371694087982178, -0.3171505331993103, 268.1123352050781, -442.67767333984375, 19.105228424072266, -0.27587890625, 1.377685546875, -0.7919921875
392, 49438669, -6.376865863800049, -5.484825134277344, 3.7507548332214355, 140.87022399902344, -347.4655456542969, 14.176127433776855, -0.29931640625, 1.36376953125, -0.874755859375
393, 49455336, -3.164443016052246, -6.229231834411621, 0.5417740941047668, 181.0757598876953, -315.2474365234375, 24.864669799804688, -0.328369140625, 1.34228515625, -0.9453125
394, 49472003, -4.27172327041626, -5.550111770629883, -1.6103672981262207, 234.14418029785156, -261.572998046875, 78.43753814697266, -0.3564453125, 1.31005859375, -1.025634765625
395, 49488670, -9.165563583374023, -8.281678199768066, 4.708691596984863, 273.94342041015625, -188.5526123046875, 136.8372802734375, -0.351318359375, 1.254638671875, -1.103759765625
396, 49505337, -4.751828193664551, -6.474294662475586, 5.492486953735352, 220.06399536132812, -192.64784240722656, 149.3386993408203, -0.353759765625, 1.200927734375, -1.170654296875
397, 49522004, -5.074094295501709, -5.553900241851807, 5.604803562164307, 175.1322479248047, -215.00555419921875, 146.2357635498047, -0.36328125, 1.154541015625, -1.2236328125
398, 49538671, -4.862926483154297, -5.6980390548706055, 4.958649158477783, 171.8634033203125, -239.10325622558594, 138.23318481445312, -0.386962890625, 1.108154296875, -1.275146484375
399, 49555338, -4.282299518585205, -5.257059574127197, 5.9116387367248535, 191.2299346923828, -242.3401641845703, 125.20780181884766, -0.418212890625, 1.054931640625, -1.323486328125
400, 49572005, -4.162573337554932, -5.831752300262451, 6.828549385070801, 131.43869018554688, -275.5730285644531, 42.5748291015625, -0.46533203125, 1.013916015625, -1.36181640625
401, 49588672, -5.715859413146973, -0.9873002767562866, 10.303186416625977, 125.518798828125, -296.1411437988281, 73.94879913330078, -0.532470703125, 0.98486328125, -1.389892578125
402, 49605339, -3.205110788345337, -4.371772766113281, 9.003541946411133, 66.82691955566406, -284.78240966796875, 52.55717086791992, -0.589599609375, 0.95654296875, -1.414306640625
403, 49622006, -0.23553746938705444, -1.6125683784484863, 8.702136993408203, 43.11996078491211, -308.27984619140625, 1.8160163164138794, -0.66650390625, 0.948486328125, -1.420654296875
404, 49638673, 1.2718501091003418, 0.4306130111217499, 9.285929679870605, 97.12730407714844, -224.62298583984375, 50.97380447387695, -0.727294921875, 0.92724609375, -1.42822265625
405, 49655340, 1.379307508468628, -0.10467158257961273, 11.118269920349121, 128.27462768554688, -170.16897583007812, 58.96260452270508, -0.765625, 0.894287109375, -1.43701171875
406, 49672007, 2.1575000286102295, -0.08885088562965393, 11.43270206451416, 120.25187683105469, -152.60206604003906, 35.355411529541016, -0.802978515625, 0.864013671875, -1.443115234375
407, 49688674, 1.652416467666626, -0.02218291163444519, 11.417476654052734, 105.007080078125, -145.42147827148438, -16.07769775390625, -0.8408203125, 0.837158203125, -1.446533203125
408, 49705341, 0.18912595510482788, -0.679537296295166, 11.183411598205566, 107.91629028320312, -143.6108856201172, -61.49559020996094, -0.883544921875, 0.804931640625, -1.447265625
409, 49722008, 0.1800248920917511, -0.11816340684890747, 10.204431533813477, 124.74988555908203, -138.84730529785156, -73.58931732177734, -0.92626953125, 0.766845703125, -1.447998046875
410, 49738675, -0.9277000427246094, 0.24423053860664368, 6.037221431732178, 122.98210906982422, -68.16088104248047, -51.375545501708984, -0.962890625, 0.73046875, -1.446533203125
411, 49755342, 1.0783238410949707, -2.7072296142578125, 8.847094535827637, 103.6837158203125, -49.41520690917969, 33.37464904785156, -0.963134765625, 0.702392578125, -1.45263671875
412, 49772009, -0.43855759501457214, -2.547684907913208, 10.964787483215332, 29.67051887512207, -106.60303497314453, -103.9891586303711, -0.9921875, 0.68505859375, -1.443603515625
413, 49788676, 2.035120964050293, -0.3206329345703125, 11.476279258728027, -21.892667770385742, -216.09246826171875, -138.41751098632812, -1.04345703125, 0.668212890625, -1.426025390625
414, 49805343, 1.5530248880386353, -0.5654054880142212, 7.7084431648254395, -76.45832061767578, -221.48806762695312, -154.4733428955078, -1.114501953125, 0.66845703125, -1.390380859375
415, 49822010, 1.8928802013397217, -0.44210273027420044, 8.701347351074219, -74.62852478027344, -161.32064819335938, -113.62377166748047, -1.159912109375, 0.669921875, -1.36376953125
416, 49838677, 2.7633848190307617, 0.15949746966362, 9.192501068115234, -40.58296203613281, -115.71348571777344, -52.95261001586914, -1.19189453125, 0.6708984375, -1.34228515625
417, 49855344, 3.433340072631836, -0.637103796005249, 9.205785751342773, -18.777475357055664, -99.73797607421875, -13.793075561523438, -1.219482421875, 0.673095703125, -1.326171875
418, 49872011, 3.61598539352417, -0.867628276348114, 9.614482879638672, -3.4477622509002686, -104.97421264648438, -20.873987197875977, -1.241943359375, 0.67236328125, -1.3076171875
419, 49888678, 2.951366424560547, -0.4183366000652313, 10.407628059387207, 10.557814598083496, -123.33182525634766, -9.689003944396973, -1.26904296875, 0.6689453125, -1.2861328125
420, 49905345, 4.299797058105469, -0.8901222944259644, 9.978487968444824, -3.9988114833831787, -153.82164001464844, -33.24053955078125, -1.3017578125, 0.662109375, -1.25927734375
421, 49922012, 4.878803730010986, -0.4170090854167938, 9.991353034973145, -50.821693420410156, -205.1611785888672, -70.85572052001953, -1.34423828125, 0.658935546875, -1.22216796875
422, 49938679, 4.829349994659424, -1.0337895154953003, 10.110002517700195, -105.9154281616211, -267.6330261230469, -81.63954162597656, -1.391845703125, 0.658203125, -1.1640625
423, 49955346, 4.980437755584717, -0.5707492828369141, 10.178993225097656, -139.15013122558594, -371.3702392578125, -77.57178497314453, -1.453125, 0.66259765625, -1.080810546875
424, 49972013, 5.720226764678955, 0.16161632537841797, 6.633391380310059, -131.6805877685547, -421.4547424316406, -61.436553955078125, -1.51318359375, 0.66455078125, -0.970947265625
425, 49988680, 6.877275466918945, 0.7007506489753723, 4.209754467010498, -95.78207397460938, -383.5558166503906, -50.617977142333984, -1.5625, 0.664794921875, -0.86279296875
426, 50005347, 6.825196266174316, 0.25714173913002014, 5.653538703918457, -97.11148071289062, -419.2093200683594, -63.839202880859375, -1.594970703125, 0.65673828125, -0.74755859375
427, 50022014, 8.557205200195312, -0.927095890045166, 0.6780470609664917, -31.0283203125, -368.1310119628906, -44.63144302368164, -1.616455078125, 0.645263671875, -0.63525390625
428, 50038681, 8.54664421081543, -0.42013314366340637, 2.9316744804382324, -21.54234504699707, -263.9266357421875, -20.21702003479004, -1.62353515625, 0.6376953125, -0.556396484375
429, 50055348, 7.7553277015686035, 0.4218531847000122, 3.7540876865386963, -58.0323600769043, -276.1079406738281, -7.747738838195801, -1.623291015625, 0.63525390625, -0.48095703125
430, 50072015, 7.543369293212891, 0.7808458209037781, 3.6721951961517334, -112.8060073852539, -374.09747314453125, 26.419471740722656, -1.609375, 0.6376953125, -0.3798828125
431, 50088682, 7.376616954803467, 0.48019903898239136, -1.092522382736206, -100.6117172241211, -514.2582397460938, 4.341423988342285, -1.57763671875, 0.634765625, -0.23974609375
432, 50105349, 7.791764736175537, -0.5143269896507263, -2.262544631958008, -84.77043914794922, -538.175537109375, 12.436245918273926, -1.519775390625, 0.627197265625, -0.095703125
433, 50122016, 6.822799205780029, -2.1008517742156982, -6.392848968505859, -44.84304428100586, -442.475341796875, 24.07126235961914, -1.451416015625, 0.625, 0.02099609375
434, 50138683, 10.560246467590332, -2.007072687149048, -3.13657283782959, -39.04075622558594, -386.33489990234375, 85.96985626220703, -1.377197265625, 0.63232421875, 0.1103515625
435, 50155350, 9.043453216552734, -2.1966421604156494, -5.9036664962768555, -79.44886779785156, -336.6841125488281, 124.58610534667969, -1.3017578125, 0.642578125, 0.18017578125
436, 50172017, 7.384133815765381, -1.1018426418304443, -5.608851909637451, -64.72120666503906, -335.0169982910156, 108.59475708007812, -1.227783203125, 0.648681640625, 0.242919921875
437, 50188684, 6.317502498626709, -0.6776825189590454, -6.3560380935668945, -40.30687713623047, -397.2330017089844, 119.705322265625, -1.133056640625, 0.658447265625, 0.3046875
438, 50205351, 4.986663341522217, 0.12825678288936615, -8.422566413879395, -117.82124328613281, -448.6857604980469, 80.55591583251953, -1.02001953125, 0.65234375, 0.35693359375
439, 50222018, 4.807376384735107, -1.7445549964904785, -10.209833145141602, -209.76512145996094, -503.19097900390625, 19.54301643371582, -0.882080078125, 0.5927734375, 0.408447265625
440, 50238685, 4.950769901275635, -2.7521510124206543, -9.438299179077148, -89.97972106933594, -386.1843566894531, 7.24163293838501, -0.760986328125, 0.564453125, 0.429931640625
441, 50255352, 3.9232001304626465, -2.6010959148406982, -11.356391906738281, 7.406857013702393, -237.59791564941406, -31.697084426879883, -0.68359375, 0.55859375, 0.434814453125
442, 50272019, 2.644773244857788, -1.9689171314239502, -10.399210929870605, 19.69510269165039, -187.2840118408203, -32.01982498168945, -0.6298828125, 0.5634765625, 0.435302734375
443, 50288686, 1.8171601295471191, -0.9100155234336853, -10.337478637695312, 14.121291160583496, -185.48109436035156, -38.31808090209961, -0.578369140625, 0.56884765625, 0.4326171875
444, 50305353, 1.493735909461975, -1.3340239524841309, -11.050248146057129, 9.353306770324707, -206.29759216308594, -53.69831466674805, -0.5234375, 0.57470703125, 0.4248046875
445, 50322020, 1.3216906785964966, -0.7005484104156494, -10.930344581604004, 29.461345672607422, -245.93017578125, -64.20864868164062, -0.45849609375, 0.58447265625, 0.416015625
446, 50338687, -0.7437127232551575, -0.16070803999900818, -9.814207077026367, 79.0379638671875, -314.4356384277344, -54.05832290649414, -0.38134765625, 0.606689453125, 0.391845703125
447, 50355354, -1.957329273223877, 0.6120353937149048, -9.014243125915527, 103.99270629882812, -447.8484802246094, -13.398824691772461, -0.274169921875, 0.63427734375, 0.34912109375
448, 50372021, -1.5956288576126099, -3.6530449390411377, -13.697322845458984, -16.42462158203125, -565.8094482421875, -0.3668423593044281, -0.135498046875, 0.641845703125, 0.27294921875
449, 50388688, -1.0128611326217651, -3.2021450996398926, -8.438481330871582, -26.37624168395996, -471.2698974609375, -20.11631202697754, -0.017822265625, 0.636962890625, 0.189453125
450, 50405355, -0.5869618058204651, -2.857853889465332, -6.764240741729736, -49.8558349609375, -194.06585693359375, -63.822242736816406, 0.04150390625, 0.638671875, 0.13818359375
451, 50422022, -3.893681049346924, -2.501502752304077, -7.933708667755127, -94.88909149169922, -13.463958740234375, -25.603071212768555, 0.047607421875, 0.628173828125, 0.1357421875
452, 50438689, -4.158989906311035, -1.4307246208190918, -11.230447769165039, -21.346542358398438, -54.895198822021484, -7.926460266113281, 0.04931640625, 0.624267578125, 0.130859375
453, 50455356, -5.594203948974609, -0.540982186794281, -9.54397964477539, -12.98215389251709, -141.97239685058594, -10.304871559143066, 0.073486328125, 0.62255859375, 0.104736328125
454, 50472023, -5.817268371582031, -0.7307113409042358, -8.53796100616455, -10.608278274536133, -195.8942108154297, -39.41787338256836, 0.106689453125, 0.626708984375, 0.06494140625
455, 50488690, -6.892284393310547, -1.0487223863601685, -7.125317573547363, 5.301790714263916, -197.62881469726562, -60.94087600708008, 0.1376953125, 0.6376953125, 0.02001953125
456, 50505357, -7.490488052368164, -0.711337685585022, -6.870093822479248, -15.907294273376465, -183.33352661132812, -90.63805389404297, 0.1650390625, 0.65771484375, -0.025390625
457, 50522024, -6.921681880950928, -0.8269081711769104, -6.695508003234863, -5.411842346191406, -144.73834228515625, -113.8366470336914, 0.18212890625, 0.6826171875, -0.061767578125
458, 50538691, -7.4522271156311035, -0.6260108351707458, -6.034840106964111, -1.4342981576919556, -128.9195098876953, -136.97769165039062, 0.194091796875, 0.713134765625, -0.092529296875
459, 50555358, -5.577550888061523, -0.6331914067268372, -6.2798895835876465, 0.4234936535358429, -42.27626037597656, -192.82102966308594, 0.1953125, 0.7548828125, -0.111083984375
460, 50572025, -6.839104175567627, -1.964503288269043, -8.68050765991211, 3.056267261505127, -29.497825622558594, -183.2674102783203, 0.17724609375, 0.803955078125, -0.11376953125
461, 50588692, -7.106661796569824, -1.600132703781128, -7.889825820922852, -36.64654541015625, -162.35128784179688, -92.28134155273438, 0.184326171875, 0.8271484375, -0.14599609375
462, 50605359, -7.753188133239746, -1.5559487342834473, -7.059732913970947, -61.57627868652344, -195.98843383789062, -71.80485534667969, 0.198486328125, 0.840576171875, -0.184326171875
463, 50622026, -9.248089790344238, -2.1740965843200684, -7.040461540222168, -76.05081939697266, -232.6587371826172, -79.63945007324219, 0.212646484375, 0.85107421875, -0.233154296875
464, 50638693, -8.739523887634277, -2.5177857875823975, -6.074390411376953, -99.22542572021484, -266.3423156738281, -87.67499542236328, 0.22607421875, 0.8671875, -0.289794921875
465, 50655360, -8.268509864807129, -2.181511640548706, -5.1179656982421875, -121.2492446899414, -314.67108154296875, -62.494232177734375, 0.2353515625, 0.878662109375, -0.356689453125
466, 50672027, -3.6350648403167725, -2.2928619384765625, -6.52792501449585, -22.030113220214844, -230.510009765625, 22.651229858398438, 0.24658203125, 0.873779296875, -0.4169921875
467, 50688694, -8.982748985290527, -4.327993392944336, -3.8771865367889404, 45.09920883178711, -134.43223571777344, 36.47058868408203, 0.256591796875, 0.864990234375, -0.458740234375
468, 50705361, -7.991765022277832, -3.231616497039795, -4.198670864105225, 37.33246994018555, -108.39920043945312, -25.38359832763672, 0.260498046875, 0.867919921875, -0.49755859375
469, 50722028, -9.078126907348633, -2.991743326187134, -3.287890672683716, 21.80398178100586, -67.20777130126953, -34.73469924926758, 0.2578125, 0.8759765625, -0.519775390625
470, 50738695, -8.999091148376465, -2.912332057952881, -3.229017496109009, 6.335878849029541, -43.96043395996094, -35.122528076171875, 0.254638671875, 0.886474609375, -0.53271484375
471, 50755362, -9.826594352722168, -2.5737087726593018, -3.0522172451019287, -11.438490867614746, -65.13055419921875, -10.226773262023926, 0.251220703125, 0.89013671875, -0.54541015625
472, 50772029, -11.050682067871094, -2.203411817550659, -3.8596839904785156, 1.6012829542160034, -131.60574340820312, 12.354168891906738, 0.25244140625, 0.890869140625, -0.575927734375
473, 50788696, -11.122284889221191, -4.724817276000977, -2.4099209308624268, 89.04844665527344, -209.9522247314453, 33.91212844848633, 0.251708984375, 0.878173828125, -0.63427734375
474, 50805363, -9.883722305297852, -5.58424711227417, -2.1941800117492676, 131.20108032226562, -258.6601257324219, -11.821147918701172, 0.2431640625, 0.875244140625, -0.7119140625
475, 50822030, -10.64797592163086, -6.96260929107666, 2.0626087188720703, 92.89812469482422, -261.7592468261719, -80.7916488647461, 0.221435546875, 0.880126953125, -0.7978515625
476, 50838697, -9.897436141967773, -1.4440147876739502, -0.5838867425918579, 77.24078369140625, -276.9107971191406, -115.06180572509766, 0.186767578125, 0.905029296875, -0.865966796875
477, 50855364, -6.566756725311279, -0.671326220035553, 3.560133218765259, 20.343997955322266, -239.0650177001953, -62.39506149291992, 0.151611328125, 0.916748046875, -0.93603515625
478, 50872031, -7.396674156188965, -2.41733717918396, 0.2335551679134369, -85.0824966430664, -157.27664184570312, -40.22156524658203, 0.12353515625, 0.935302734375, -0.96630859375
479, 50888698, -9.257220268249512, -4.6745219230651855, 0.05555950105190277, -33.297183990478516, -152.7946319580078, -45.08631134033203, 0.098876953125, 0.952392578125, -0.99169921875
480, 50905365, -6.953837871551514, -4.138867378234863, 2.038579225540161, 32.700592041015625, -198.37620544433594, -23.660715103149414, 0.070556640625, 0.953857421875, -1.03759765625
481, 50922032, -6.589539051055908, -3.3663084506988525, 3.7243645191192627, -165.79051208496094, -199.9759063720703, 21.404369354248047, 0.04345703125, 0.96533203125, -1.064208984375
482, 50938699, -8.485912322998047, -3.1154496669769287, 3.2900915145874023, -293.8081970214844, -223.67776489257812, 37.594627380371094, 0.0146484375, 1.001220703125, -1.0673828125
483, 50955366, -10.149090766906738, -4.858460426330566, 1.481400966644287, -251.24676513671875, -270.5625305175781, 41.18291473388672, -0.01904296875, 1.0361328125, -1.076171875
484, 50972033, -8.244712829589844, -4.024608135223389, 1.773621678352356, -80.5102310180664, -371.6390075683594, 74.8469009399414, -0.064453125, 1.045166015625, -1.120849609375
485, 50988700, -5.975412845611572, -3.7788751125335693, 5.635933876037598, -22.04857063293457, -476.33905029296875, 133.26242065429688, -0.12060546875, 1.02734375, -1.189453125
486, 51005367, -5.855931758880615, -4.178676605224609, 3.0269887447357178, -46.45195770263672, -520.5934448242188, 101.7126235961914, -0.207275390625, 1.01416015625, -1.259521484375
487, 51022034, -7.921187400817871, -4.0266547203063965, 2.8452067375183105, 61.10752487182617, -388.39996337890625, 82.51421356201172, -0.287841796875, 1.00537109375, -1.311767578125
488, 51038701, -6.184941291809082, -3.9573426246643066, 6.441195964813232, 168.1142120361328, -333.578857421875, 114.64189910888672, -0.349853515625, 0.9560546875, -1.365966796875
489, 51055368, -6.04114294052124, -3.100734233856201, 6.145390510559082, 185.5118408203125, -348.6849365234375, 127.43009185791016, -0.421630859375, 0.90625, -1.41064453125
490, 51072035, -5.427152633666992, -4.165365219116211, 8.57645034790039, 139.01780700683594, -329.93048095703125, 133.9846649169922, -0.488037109375, 0.851806640625, -1.447265625
491, 51088702, -4.928353309631348, -3.3831369876861572, 9.31573486328125, -31.294960021972656, -337.84661865234375, 117.08329772949219, -0.568359375, 0.84375, -1.461181640625
492, 51105369, -1.039615511894226, -3.582042694091797, 6.996557235717773, -356.3885498046875, -400.4906921386719, 89.63165283203125, -0.6552734375, 0.916748046875, -1.433837890625
493, 51122036, -2.133286952972412, -4.292984962463379, 7.72838020324707, -312.4394836425781, -372.0318603515625, -29.01084327697754, -0.754638671875, 1.0078125, -1.380615234375
494, 51138703, -0.7125158309936523, -2.096834421157837, 8.721431732177734, -3.3203277587890625, -326.9041748046875, 17.649446487426758, -0.837646484375, 1.023681640625, -1.353759765625
495, 51155370, 1.9647173881530762, -2.014890670776367, 9.372272491455078, 111.36986541748047, -239.38868713378906, 44.794952392578125, -0.89501953125, 1.002197265625, -1.354248046875
496, 51172037, 2.910975933074951, -2.254532814025879, 9.364301681518555, 126.28174591064453, -199.44039916992188, 27.687368392944336, -0.93701171875, 0.977783203125, -1.35498046875
497, 51188704, 3.391944408416748, -1.8104448318481445, 8.814431190490723, 91.93205261230469, -179.58828735351562, 8.30632209777832, -0.979736328125, 0.951416015625, -1.3525390625
498, 51205371, 3.5679006576538086, -2.0023465156555176, 7.531373023986816, 52.451988220214844, -167.74131774902344, 13.705299377441406, -1.019287109375, 0.93896484375, -1.3408203125
499, 51222038, -4.779069423675537, 0.455963671207428, 12.986729621887207, 533.0062255859375, -10.118098258972168, 201.49803161621094, -1.01220703125, 0.857177734375, -1.387939453125
500, 51238705, -2.1795482635498047, -2.563948392868042, 13.364119529724121, 413.901611328125, -23.07253646850586, 176.44972229003906, -0.99951171875, 0.7646484375, -1.421875
501, 51255372, 2.9390032291412354, 0.19601976871490479, 13.127694129943848, 261.9884338378906, -56.57393264770508, 70.72754669189453, -1.004150390625, 0.694091796875, -1.439208984375
502, 51272039, 7.588399887084961, 2.118140459060669, 10.053939819335938, 84.0807876586914, -125.16015625, 48.47012710571289, -1.030517578125, 0.663330078125, -1.434326171875
503, 51288706, 5.848957538604736, 1.666086196899414, 6.975930213928223, -56.21332931518555, -81.65357208251953, 58.60639190673828, -1.054443359375, 0.677001953125, -1.418212890625
504, 51305373, 2.3142476081848145, -1.4674631357192993, 7.640316009521484, -105.87220764160156, -10.73607349395752, 39.1407470703125, -1.059326171875, 0.7099609375, -1.412353515625
505, 51322040, 4.010889530181885, -0.27831485867500305, 8.404274940490723, -194.84762573242188, 50.99150085449219, -43.81950378417969, -1.049072265625, 0.74853515625, -1.4052734375
506, 51338707, 2.8613479137420654, -0.8739787340164185, 9.337255477905273, -248.2467803955078, 34.334800720214844, -66.77348327636719, -1.041748046875, 0.8017578125, -1.391845703125
507, 51355374, 3.4993486404418945, -0.7432647943496704, 8.162097930908203, -260.1313781738281, 3.551687240600586, -80.30889892578125, -1.04931640625, 0.856689453125, -1.3671875
508, 51372041, 3.1113898754119873, -1.8983433246612549, 6.3336405754089355, -226.1881561279297, -4.571651458740234, -67.85358428955078, -1.056396484375, 0.903076171875, -1.3427734375
509, 51388708, -0.22518011927604675, -2.5881237983703613, 5.375901222229004, -151.9047088623047, 92.21347045898438, -77.5889663696289, -1.052490234375, 0.9345703125, -1.330322265625
510, 51405375, 1.2875345945358276, -2.876009464263916, 11.221474647521973, -133.25985717773438, 62.1565055847168, -65.74327087402344, -1.042236328125, 0.956787109375, -1.31982421875
511, 51422042, 2.507202625274658, -3.6925206184387207, 10.344311714172363, -143.50636291503906, 6.688511848449707, -59.003807067871094, -1.046630859375, 0.984130859375, -1.303466796875
512, 51438709, 2.1955039501190186, -3.479745626449585, 10.044572830200195, -137.62515258789062, -34.833152770996094, -44.793827056884766, -1.058837890625, 1.00537109375, -1.28125
513, 51455376, 2.631944417953491, -3.437843084335327, 9.444324493408203, -155.583251953125, -79.82958221435547, -39.15007019042969, -1.078857421875, 1.0341796875, -1.251708984375
514, 51472043, 3.574883460998535, -3.201162576675415, 7.318392753601074, -178.38720703125, -78.2186050415039, -55.85587692260742, -1.103515625, 1.062744140625, -1.21337890625
515, 51488710, 2.9997928142547607, -2.2267699241638184, 7.512283802032471, -170.30712890625, -49.35190200805664, -32.59163284301758, -1.119384765625, 1.09033203125, -1.175537109375
516, 51505377, 2.2610256671905518, -3.4067513942718506, 8.7872896194458, -171.65689086914062, -19.244861602783203, 9.64488410949707, -1.12548828125, 1.11865234375, -1.141845703125
517, 51522044, 1.7930899858474731, -4.5559186935424805, 9.21215534210205, -142.888671875, -2.956632614135742, 46.93376922607422, -1.1220703125, 1.150634765625, -1.1142578125
518, 51538711, 1.559780240058899, -5.225236415863037, 9.337759017944336, -120.3957748413086, -4.104419231414795, 91.26143646240234, -1.10546875, 1.1826171875, -1.090087890625
519, 51555378, 1.6984643936157227, -4.768858432769775, 8.75450325012207, -170.65414428710938, -29.50481605529785, 82.3874740600586, -1.087158203125, 1.21875, -1.056396484375
520, 51572045, 3.159558057785034, -7.672588348388672, 8.535690307617188, -344.8675842285156, -93.9508056640625, 21.745054244995117, -1.091552734375, 1.263671875, -0.978759765625
521, 51588712, 2.5855062007904053, -7.629222393035889, 5.430566787719727, -459.5003662109375, -121.2686996459961, -15.32198429107666, -1.1064453125, 1.31201171875, -0.86669921875
522, 51605379, 2.399142026901245, -6.750627517700195, 3.767777919769287, -667.65234375, -48.75651550292969, -70.03644561767578, -1.1240234375, 1.349365234375, -0.708740234375
523, 51622046, 4.306523323059082, -7.070769309997559, 1.3293479681015015, -730.6520385742188, 5.709539413452148, -124.62199401855469, -1.14990234375, 1.349853515625, -0.524169921875
524, 51638713, 2.9680888652801514, -8.626431465148926, -0.02075958251953125, -650.1263427734375, -0.47790923714637756, -139.6112823486328, -1.183837890625, 1.3125, -0.36328125
525, 51655380, 4.454736709594727, -5.831164360046387, 0.2594408392906189, -551.27392578125, -34.23174285888672, -101.97412109375, -1.21240234375, 1.250244140625, -0.233154296875
526, 51672047, 5.163211822509766, -5.008274555206299, -1.7311933040618896, -603.3734130859375, -53.96626663208008, 122.51811981201172, -1.1923828125, 1.1982421875, -0.10009765625
527, 51688714, 1.3135606050491333, -6.802358150482178, -3.7582662105560303, -613.4486083984375, -79.41962432861328, 137.2630615234375, -1.152587890625, 1.130859375, 0.028076171875
528, 51705381, 2.3345890045166016, -8.728299140930176, -7.522691249847412, -596.5528564453125, -266.7691345214844, 18.576457977294922, -1.105712890625, 1.026123046875, 0.15625
529, 51722048, 8.683287620544434, -8.562344551086426, -10.917365074157715, -413.40460205078125, -425.21417236328125, -146.37631225585938, -1.02685546875, 0.91162109375, 0.27197265625
530, 51738715, -1.950736403465271, -6.35654878616333, -10.516717910766602, -283.5836486816406, -115.30387878417969, -69.13614654541016, -0.98291015625, 0.8232421875, 0.325439453125
531, 51755382, 0.02179086208343506, -6.049409866333008, -5.8399977684021, -294.836181640625, 87.91668701171875, -62.13771438598633, -1.00244140625, 0.746337890625, 0.33837890625
532, 51772049, 1.9576388597488403, -5.640077590942383, -9.479743003845215, -258.4930725097656, 20.664663314819336, 37.55528259277344, -1.017822265625, 0.673583984375, 0.351318359375
533, 51788716, 3.2890491485595703, -3.922438859939575, -9.7080078125, -163.26763916015625, -42.53397750854492, 46.71870803833008, -1.00732421875, 0.6328125, 0.364501953125
534, 51805383, 3.4920241832733154, -4.897414684295654, -8.512567520141602, -234.52285766601562, 49.54365158081055, 71.51332092285156, -1.0087890625, 0.584228515625, 0.36669921875
535, 51822050, 2.931234836578369, -4.320868015289307, -9.188196182250977, -308.3261413574219, 111.64763641357422, 67.8282241821289, -1.034912109375, 0.514404296875, 0.35791015625
536, 51838717, 3.232903003692627, -2.995260000228882, -10.172958374023438, -287.66546630859375, 120.8487548828125, 70.72991180419922, -1.06591796875, 0.443603515625, 0.343505859375
537, 51855384, 3.364457845687866, -3.1306912899017334, -10.713075637817383, -250.5603790283203, 127.14677429199219, 76.16166687011719, -1.099365234375, 0.38623046875, 0.318115234375
538, 51872051, 2.4062976837158203, -0.1908172070980072, -9.942438125610352, -237.4087677001953, 134.87437438964844, 28.588407516479492, -1.136962890625, 0.336669921875, 0.29296875
539, 51888718, 5.135148525238037, 1.7483289241790771, -8.688423156738281, -167.16567993164062, 83.67680358886719, -106.9078140258789, -1.156982421875, 0.277587890625, 0.266357421875
540, 51905385, 3.27156138420105, 1.6552067995071411, -9.152170181274414, -69.36746978759766, -36.904422760009766, -107.98833465576172, -1.150146484375, 0.240966796875, 0.260009765625
541, 51922052, 4.161964416503906, 1.0073413848876953, -10.631192207336426, 4.478260517120361, -115.24173736572266, -76.56926727294922, -1.116455078125, 0.22412109375, 0.272705078125
542, 51938719, 3.755783796310425, 0.6791621446609497, -10.080535888671875, -8.011568069458008, -91.79304504394531, -19.206727981567383, -1.089111328125, 0.22119140625, 0.286376953125
543, 51955386, 4.7062273025512695, 1.0784831047058105, -6.499137878417969, -157.01028442382812, 177.4111328125, 15.884747505187988, -1.1103515625, 0.197021484375, 0.262939453125
544, 51972053, 4.155034065246582, 1.865095853805542, -8.029458045959473, -206.041748046875, 247.4307861328125, -15.383232116699219, -1.167236328125, 0.14892578125, 0.2060546875
545, 51988720, 5.657997131347656, 0.497313916683197, -5.8628010749816895, -185.1226348876953, 245.5627899169922, 47.72145080566406, -1.223388671875, 0.10888671875, 0.14453125
546, 52005387, 4.531291484832764, 1.7468968629837036, -6.855522632598877, -127.77986145019531, 226.01132202148438, 82.72891998291016, -1.275634765625, 0.097900390625, 0.089599609375
547, 52022054, 4.848564147949219, 2.5891237258911133, -7.71923828125, -80.177978515625, 178.62242126464844, 47.622047424316406, -1.3193359375, 0.09326171875, 0.04052734375
548, 52038721, 4.961500644683838, 2.732555866241455, -8.231082916259766, 10.261603355407715, 80.76522064208984, -4.635417938232422, -1.338134765625, 0.0927734375, 0.01904296875
549, 52055388, 6.369585990905762, 3.3700108528137207, -8.39677619934082, 95.65258026123047, 52.927947998046875, -32.26673126220703, -1.34423828125, 0.097900390625, 0.01806640625
550, 52072055, 8.299864768981934, 3.751319169998169, -8.560385704040527, 25.65602684020996, 104.99201965332031, -39.213504791259766, -1.352783203125, 0.099853515625, 0.005859375
551, 52088722, 8.157905578613281, 3.4348723888397217, -8.233948707580566, -106.72210693359375, 256.37310791015625, -84.87134552001953, -1.377197265625, 0.075927734375, -0.048095703125
552, 52105389, 7.5789570808410645, 1.1968979835510254, -5.937222003936768, -206.29469299316406, 358.210693359375, -184.01571655273438, -1.402099609375, 0.018798828125, -0.1494140625
553, 52122056, 6.928890228271484, 2.990457057952881, -5.07627010345459, -151.41746520996094, 264.6056823730469, -219.4349822998047, -1.39794921875, -0.050048828125, -0.242919921875
554, 52138723, 7.674663543701172, 3.0582215785980225, -5.420327186584473, -85.49742126464844, 173.97007751464844, -165.1510009765625, -1.38232421875, -0.09716796875, -0.300048828125
555, 52155390, 7.720180034637451, 4.350848197937012, -4.952054023742676, -44.88214874267578, 125.17984008789062, -77.93903350830078, -1.374755859375, -0.12109375, -0.33935546875
556, 52172057, 8.056018829345703, 4.848203659057617, -5.014782428741455, -13.777425765991211, 77.6453628540039, -39.93879318237305, -1.37353515625, -0.1298828125, -0.36083984375
557, 52188724, 7.990926265716553, 1.5158430337905884, -6.061765193939209, 16.397369384765625, 70.83521270751953, -59.30087661743164, -1.366455078125, -0.143310546875, -0.375732421875
558, 52205391, 8.454587936401367, 4.714548110961914, -4.218830108642578, -4.838183879852295, 56.854618072509766, -50.18095016479492, -1.357421875, -0.154541015625, -0.384521484375
559, 52222058, 8.0926513671875, 5.311312675476074, -3.1489033699035645, 15.276896476745605, 66.16378021240234, -37.31116485595703, -1.35546875, -0.162109375, -0.400390625
560, 52238725, 9.173078536987305, 5.246313571929932, -4.580524444580078, -0.6396368741989136, 116.53532409667969, -51.57683181762695, -1.348876953125, -0.1689453125, -0.416259765625
561, 52255392, 9.52908706665039, 4.7990946769714355, -6.302971839904785, -132.65541076660156, 328.6429138183594, -142.4342498779297, -1.334716796875, -0.1943359375, -0.491943359375
562, 52272059, 9.384453773498535, 5.992071628570557, -3.9732422828674316, -67.41905212402344, 415.0257263183594, -146.3955535888672, -1.30322265625, -0.22607421875, -0.592041015625
563, 52288726, 8.239834785461426, 6.465409755706787, -1.0915193557739258, -25.929306030273438, 441.99029541015625, -120.49468994140625, -1.264404296875, -0.248046875, -0.680908203125
564, 52305393, 7.639675140380859, 6.224855899810791, -1.086700201034546, -22.953516006469727, 488.739501953125, -110.30724334716797, -1.21484375, -0.265625, -0.767822265625
565, 52322060, 6.635863304138184, 4.898742198944092, -0.23810619115829468, 137.92129516601562, 584.8839721679688, -46.086917877197266, -1.155517578125, -0.282470703125, -0.837646484375
566, 52338727, 5.666789531707764, 6.425868511199951, 4.084360122680664, 119.14199829101562, 411.3435363769531, -24.503141403198242, -1.107177734375, -0.29931640625, -0.86572265625
567, 52355394, 6.374145030975342, 6.356807231903076, 2.958176612854004, 21.662595748901367, 325.35894775390625, -10.530360221862793, -1.073974609375, -0.304931640625, -0.901611328125
568, 52372061, 5.517456531524658, 6.4955854415893555, 3.874826669692993, -26.00473403930664, 330.1719055175781, -21.77421760559082, -1.02978515625, -0.3037109375, -0.94384765625
569, 52388728, 4.636196136474609, 6.236868381500244, 3.8387160301208496, -74.37860107421875, 306.99029541015625, -24.75290870666504, -0.9892578125, -0.301513671875, -0.991455078125
570, 52405395, 4.393271446228027, 5.867831707000732, 4.035863876342773, -75.29956817626953, 296.6241149902344, -30.909515380859375, -0.94140625, -0.291015625, -1.03955078125
571, 52422062, 5.3111419677734375, 6.149848937988281, 5.60518741607666, -51.99317932128906, 316.24261474609375, -26.574270248413086, -0.886962890625, -0.2841796875, -1.0751953125
572, 52438729, 5.483394145965576, 7.8837409019470215, 11.606953620910645, -150.39720153808594, 277.0191345214844, 0.2029428333044052, -0.835205078125, -0.26953125, -1.113525390625
573, 52455396, 5.81553840637207, 6.048435688018799, 7.582629203796387, -326.6219482421875, 136.15667724609375, 37.97185516357422, -0.811767578125, -0.214599609375, -1.188232421875
574, 52472063, 8.26629638671875, 5.372137546539307, 6.532052040100098, -442.0115966796875, 53.389408111572266, 244.18202209472656, -0.83056640625, -0.12158203125, -1.27587890625
575, 52488730, 1.1182445287704468, 4.461642742156982, 5.370766639709473, -447.357421875, 44.4936637878418, 298.2365417480469, -0.873046875, -0.00439453125, -1.353515625
576, 52505397, -1.3833630084991455, 2.364988327026367, 2.750964403152466, -225.8922119140625, 122.0855484008789, 130.5283966064453, -0.87939453125, 0.08544921875, -1.400390625
577, 52522064, 0.25550681352615356, 1.398356318473816, 3.7947158813476562, 102.5943374633789, 341.8992614746094, 12.750326156616211, -0.813720703125, 0.08251953125, -1.4140625
578, 52538731, 2.1783268451690674, 2.135056495666504, 13.527809143066406, 138.93785095214844, 315.7308349609375, -28.88064956665039, -0.7177734375, 0.03369140625, -1.401123046875
579, 52555398, 3.3992066383361816, 2.109626293182373, 10.663715362548828, -84.49971008300781, 123.96704864501953, -22.853954315185547, -0.678955078125, 0.050048828125, -1.410888671875
580, 52572065, 2.7029612064361572, 2.074674367904663, 10.810639381408691, -23.995433807373047, 222.58859252929688, -54.582088470458984, -0.622802734375, 0.057373046875, -1.4140625
581, 52588732, 1.4777365922927856, 2.3430604934692383, 10.25236988067627, -9.777813911437988, 259.4479675292969, -62.63536834716797, -0.551513671875, 0.06201171875, -1.40966796875
582, 52605399, 1.4632008075714111, 3.799654722213745, 10.532450675964355, -42.30710220336914, 239.8481903076172, -59.012855529785156, -0.48095703125, 0.071044921875, -1.407470703125
583, 52622066, -0.08305655419826508, 1.9701279401779175, 9.163985252380371, -11.15882682800293, 220.70481872558594, -57.2921028137207, -0.41552734375, 0.08251953125, -1.394287109375
584, 52638733, -0.4237324595451355, 1.7485779523849487, 9.89070987701416, -62.92259216308594, 126.63137817382812, -63.845726013183594, -0.3681640625, 0.100341796875, -1.390869140625
585, 52655400, -1.6413602828979492, 1.6071536540985107, 8.797816276550293, -9.642938613891602, 107.26927947998047, -29.98712921142578, -0.340087890625, 0.110107421875, -1.38330078125
586, 52672067, -4.456847190856934, 3.1219539642333984, 9.202831268310547, -5.991614818572998, 89.00325775146484, -20.883892059326172, -0.310302734375, 0.109619140625, -1.376220703125
587, 52688734, 1.4036496877670288, 0.8022553324699402, 7.826554298400879, -2.576885461807251, 2.5300843715667725, -22.20001220703125, -0.310302734375, 0.11962890625, -1.38037109375
588, 52705401, -3.966310977935791, 1.7852635383605957, 10.282931327819824, 39.679534912109375, 70.0682601928711, -30.383731842041016, -0.284912109375, 0.109130859375, -1.36279296875
589, 52722068, -1.297979474067688, 2.811880588531494, 6.7085161209106445, 14.263585090637207, 19.691669464111328, -24.701385498046875, -0.27685546875, 0.111328125, -1.361083984375
590, 52738735, -1.9133142232894897, 1.7982213497161865, 8.522245407104492, 7.7183356285095215, -4.536619186401367, -45.0256462097168, -0.27197265625, 0.11181640625, -1.357666015625
591, 52755402, -2.2736241817474365, 2.1931161880493164, 7.792795181274414, 11.354564666748047, -42.191402435302734, -54.1364860534668, -0.27099609375, 0.116943359375, -1.358642578125
592, 52772069, -0.4267963171005249, 2.696945905685425, 7.948312759399414, 49.718379974365234, -71.64952850341797, -72.53108215332031, -0.279052734375, 0.11279296875, -1.36474609375
593, 52788736, -0.47034400701522827, 2.4209933280944824, 9.565109252929688, 85.68930053710938, -55.72041320800781, -47.94990921020508, -0.28759765625, 0.1015625, -1.359375
594, 52805403, -1.976896047592163, 2.728567600250244, 10.691683769226074, 98.94438934326172, -16.896316528320312, -37.54555130004883, -0.289306640625, 0.08251953125, -1.352294921875
595, 52822070, -2.0662598609924316, 2.4305100440979004, 9.754443168640137, 92.17374420166016, -4.897380828857422, -35.81424331665039, -0.28662109375, 0.06201171875, -1.34130859375
596, 52838737, -0.4995725452899933, 1.9799948930740356, 10.575338363647461, 87.28900909423828, 10.175223350524902, -26.740468978881836, -0.281494140625, 0.04443359375, -1.32568359375
597, 52855404, -1.3577942848205566, 2.9755642414093018, 9.22373104095459, 94.77428436279297, 26.354278564453125, -30.446462631225586, -0.275146484375, 0.0283203125, -1.3115234375
598, 52872071, -1.4711682796478271, 3.635284900665283, 9.21724796295166, 140.0539093017578, 35.655216217041016, -41.86857986450195, -0.259033203125, 0.005126953125, -1.29052734375
599, 52888738, -1.3632031679153442, 4.334185600280762, 7.966794967651367, 157.55613708496094, 21.297607421875, -29.084718704223633, -0.2490234375, -0.025146484375, -1.262939453125
600, 52905405, -1.3298897743225098, 3.149127244949341, 6.792383670806885, 175.76927185058594, 9.029661178588867, -5.515695571899414, -0.24462890625, -0.058349609375, -1.233642578125
601, 52922072, -1.9712224006652832, 4.143826961517334, 7.441471099853516, 186.67428588867188, -13.582797050476074, 14.810341835021973, -0.249267578125, -0.095703125, -1.203125
602, 52938739, -1.6605583429336548, 5.925306797027588, 8.593524932861328, 197.5144805908203, -8.043329238891602, 4.26925802230835, -0.251220703125, -0.133056640625, -1.166748046875
603, 52955406, -1.8207184076309204, 5.799474716186523, 8.32499885559082, 166.6337890625, 16.126663208007812, -3.6787054538726807, -0.247802734375, -0.164794921875, -1.132080078125
604, 52972073, -2.3398613929748535, 4.2403717041015625, 6.692198276519775, 161.33511352539062, 52.54896926879883, -58.484745025634766, -0.236572265625, -0.18603515625, -1.0966796875
605, 52988740, -2.654642343521118, 5.293984889984131, 6.437800884246826, 192.73443603515625, 71.07866668701172, -114.9024429321289, -0.199951171875, -0.20068359375, -1.050537109375
606, 53005407, -2.6498501300811768, 6.703694820404053, 6.053786754608154, 185.0634307861328, 40.565765380859375, -96.02458190917969, -0.17529296875, -0.2138671875, -1.002685546875
607, 53022074, -2.1324784755706787, 7.424283504486084, 6.211038589477539, 148.40252685546875, 47.6544189453125, -67.1029281616211, -0.1513671875, -0.222900390625, -0.963623046875
608, 53038741, -3.9204888343811035, 7.493873596191406, 5.3519392013549805, 142.20274353027344, 80.17391204833984, -74.40087127685547, -0.128662109375, -0.232177734375, -0.923095703125
609, 53055408, -4.243785858154297, 8.176904678344727, 5.495476722717285, 215.32305908203125, 81.05142974853516, -121.80516815185547, -0.098876953125, -0.232177734375, -0.86865234375
610, 53072075, -4.098630428314209, 8.0805082321167, 5.3272385597229, 296.3077697753906, 82.00965118408203, -183.52952575683594, -0.054931640625, -0.22802734375, -0.7939453125
611, 53088742, -4.249335289001465, 7.214841842651367, 4.781555652618408, 307.17510986328125, 32.14998245239258, -161.78189086914062, -0.013427734375, -0.216552734375, -0.720703125
612, 53105409, -4.208133220672607, 8.174250602722168, 3.8037872314453125, 275.3386535644531, -23.052509307861328, -100.28306579589844, 0.011962890625, -0.205322265625, -0.662353515625
613, 53122076, -4.771676063537598, 9.036922454833984, 2.550565004348755, 244.90895080566406, -50.27113723754883, -65.84185028076172, 0.0244140625, -0.201904296875, -0.615966796875
614, 53138743, -5.600154399871826, 9.21873664855957, 1.3742848634719849, 243.1563720703125, -37.27281188964844, -69.08159637451172, 0.037841796875, -0.188232421875, -0.576904296875
615, 53155410, -5.648911952972412, 9.104595184326172, 0.24106457829475403, 248.9955291748047, 6.92776346206665, -98.07510375976562, 0.052978515625, -0.1708984375, -0.529541015625
616, 53172077, -5.2004714012146, 8.016997337341309, 0.7715198993682861, 278.4469299316406, 72.16077423095703, -166.99020385742188, 0.0810546875, -0.139404296875, -0.463134765625
617, 53188744, -6.0391998291015625, 7.487778663635254, 0.6949548125267029, 291.62908935546875, 90.92636108398438, -219.0303955078125, 0.114013671875, -0.0830078125, -0.38720703125
618, 53205411, -6.250824451446533, 7.375490188598633, -0.7080322504043579, 226.42263793945312, 140.31544494628906, -234.48089599609375, 0.146484375, -0.017578125, -0.32080078125
619, 53222078, -8.02373218536377, 7.196779251098633, -1.3896310329437256, 232.05824279785156, 138.1886444091797, -220.03994750976562, 0.169189453125, 0.05322265625, -0.256103515625
620, 53238745, -8.499524116516113, 8.132505416870117, -2.3232924938201904, 297.12603759765625, 132.12991333007812, -242.67340087890625, 0.18505859375, 0.13525390625, -0.189208984375
621, 53255412, -8.104292869567871, 6.260688781738281, -2.1444547176361084, 296.1152648925781, 143.47816467285156, -274.3894348144531, 0.194091796875, 0.232666015625, -0.13037109375
622, 53272079, -7.8360915184021, 5.094825267791748, -2.1792027950286865, 254.44451904296875, 132.28433227539062, -265.53656005859375, 0.1953125, 0.3349609375, -0.075927734375
623, 53288746, -7.707315444946289, 4.870799541473389, -3.878225803375244, 189.8074493408203, 100.29547882080078, -231.68759155273438, 0.187744140625, 0.421875, -0.04052734375
624, 53305413, -7.684873104095459, 2.4315779209136963, -4.730297565460205, 160.7259979248047, 79.97927856445312, -156.3979949951172, 0.177978515625, 0.4892578125, -0.016845703125
625, 53322080, -8.764662742614746, 1.9894275665283203, -5.371466159820557, 158.37049865722656, 65.49822998046875, -165.7745361328125, 0.164306640625, 0.54931640625, -0.004150390625
626, 53338747, -9.727999687194824, 0.22279411554336548, -5.162278175354004, 161.3948516845703, 86.14482879638672, -254.33834838867188, 0.150146484375, 0.6318359375, 0.00927734375
627, 53355414, -9.028188705444336, -3.5908620357513428, -8.230914115905762, 193.38192749023438, 88.87176513671875, -348.8865051269531, 0.116943359375, 0.732177734375, 0.0234375
628, 53372081, -10.365836143493652, -0.9484000205993652, -4.675869464874268, 277.3887023925781, 84.39482116699219, -443.2223815917969, 0.06787109375, 0.86669921875, 0.02197265625
629, 53388748, -8.138400077819824, -2.1038758754730225, -6.835916042327881, 316.6472473144531, 87.58830261230469, -519.7998046875, -0.009521484375, 1.017822265625, -0.002685546875
630, 53405415, -5.365506172180176, -3.3492629528045654, -8.039527893066406, 328.792724609375, 91.3129653930664, -447.0451965332031, -0.1044921875, 1.149169921875, -0.038818359375
631, 53422082, -4.910717964172363, -3.713446617126465, -4.934178829193115, 375.1315612792969, 102.76274871826172, -305.2721862792969, -0.189208984375, 1.246337890625, -0.1015625
632, 53438749, -5.4514055252075195, -4.417010307312012, -3.5575056076049805, 261.6053771972656, 48.996097564697266, -227.9027862548828, -0.25048828125, 1.3154296875, -0.158935546875
633, 53455416, -5.684650421142578, -6.296333312988281, -4.198663711547852, 111.47270965576172, -27.73569679260254, -159.46749877929688, -0.293701171875, 1.348876953125, -0.19287109375
634, 53472083, -6.2095794677734375, -7.0265727043151855, -5.035038471221924, 54.07175827026367, -81.58293914794922, -108.72688293457031, -0.3173828125, 1.367431640625, -0.21533203125
635, 53488750, -6.111083984375, -7.933353424072266, -7.645052909851074, 145.9651641845703, -68.95692443847656, -106.84558868408203, -0.33544921875, 1.385986328125, -0.247314453125
636, 53505417, -6.487427234649658, -8.381755828857422, -5.483541011810303, 379.1187438964844, -6.217375755310059, -124.70746612548828, -0.365966796875, 1.421630859375, -0.33740234375
637, 53522084, -4.767053604125977, -5.160885810852051, -0.42306387424468994, 393.1795959472656, -39.67510986328125, -127.95945739746094, -0.3994140625, 1.44873046875, -0.453125
638, 53538751, -4.095271110534668, -4.209443092346191, 0.4809814989566803, 185.60675048828125, -95.77055358886719, -102.11933135986328, -0.427490234375, 1.46044921875, -0.524169921875
639, 53555418, -5.809622287750244, -4.793589115142822, -1.4912632703781128, 56.26694107055664, -81.17619323730469, -107.32319641113281, -0.4560546875, 1.468505859375, -0.549072265625
640, 53572085, -3.3434770107269287, -7.941797733306885, -1.5704786777496338, 42.50809860229492, -61.58036422729492, -50.201011657714844, -0.47900390625, 1.471435546875, -0.56201171875
641, 53588752, -4.806623935699463, -8.48415756225586, -1.421514630317688, 59.92522048950195, -56.59566116333008, -10.753920555114746, -0.4853515625, 1.469970703125, -0.580078125
642, 53605419, -4.532651424407959, -10.00665283203125, -2.017878770828247, 87.15540313720703, -53.48874282836914, 3.203965902328491, -0.4833984375, 1.4697265625, -0.607177734375
643, 53622086, -3.9937784671783447, -10.11050033569336, -2.09098744392395, 178.68173217773438, -81.48780822753906, 21.949886322021484, -0.48095703125, 1.465576171875, -0.654052734375
644, 53638753, -4.800448894500732, -10.267056465148926, -1.5906623601913452, 298.7415771484375, -188.02133178710938, 40.708858489990234, -0.4755859375, 1.45263671875, -0.7353515625
645, 53655420, -5.376485347747803, -9.354036331176758, -0.20292234420776367, 414.0904541015625, -285.7277526855469, 49.50894546508789, -0.480712890625, 1.41943359375, -0.8583984375
646, 53672087, -4.20955228805542, -7.066147804260254, 1.9740182161331177, 393.62701416015625, -257.9151916503906, 83.48979187011719, -0.4951171875, 1.370361328125, -0.9794921875
647, 53688754, -3.0415151119232178, -6.268985271453857, 2.6806468963623047, 270.149658203125, -104.6192626953125, 90.53562927246094, -0.49169921875, 1.326416015625, -1.05712890625
648, 53705421, -1.881159782409668, -6.706068992614746, 5.341973304748535, 304.0263671875, -144.7156524658203, 41.98360824584961, -0.49365234375, 1.27734375, -1.132080078125
649, 53722088, -3.9368715286254883, -6.928679943084717, 6.59397554397583, 312.5533447265625, -219.15211486816406, 47.44686508178711, -0.5234375, 1.218017578125, -1.206298828125
650, 53738755, -3.9427778720855713, -6.941921234130859, 7.635523796081543, 364.04681396484375, -315.3894348144531, 53.47114562988281, -0.566650390625, 1.14404296875, -1.284912109375
651, 53755422, -4.082250118255615, -5.873873233795166, 10.089323997497559, 403.5089111328125, -563.7354125976562, 98.18206024169922, -0.661376953125, 1.053955078125, -1.36083984375
652, 53772089, -5.422994613647461, -3.5182414054870605, 11.228240966796875, 114.37920379638672, -716.1868896484375, 8.01517105102539, -0.82373046875, 1.004150390625, -1.367431640625
653, 53788756, 1.9852869510650635, -5.978884696960449, 5.262643337249756, 159.6876678466797, -409.9922180175781, -14.114644050598145, -0.953857421875, 0.9755859375, -1.3505859375
654, 53805423, -0.7885512113571167, -3.997628688812256, 7.532726764678955, 198.46255493164062, -117.89873504638672, 0.035813283175230026, -0.991943359375, 0.9267578125, -1.36181640625
655, 53822090, 0.012844428420066833, -3.6955654621124268, 8.495088577270508, 176.9259490966797, -107.03936004638672, 12.44357681274414, -1.0146484375, 0.885498046875, -1.3720703125
656, 53838757, 1.52137291431427, -2.473163366317749, 9.15732479095459, 170.9223175048828, -113.17642211914062, -3.0634894371032715, -1.043212890625, 0.84326171875, -1.3759765625
657, 53855424, 2.5372140407562256, -0.6101205348968506, 10.299487113952637, 168.0471954345703, -110.7333755493164, -6.51226806640625, -1.069580078125, 0.801025390625, -1.3798828125
658, 53872091, 2.0134706497192383, -0.13764411211013794, 11.359981536865234, 264.95062255859375, 36.27886962890625, 98.76840209960938, -1.0693359375, 0.74853515625, -1.398681640625
659, 53888758, 0.42548179626464844, -1.3743577003479004, 11.562272071838379, 275.17877197265625, 4.648647785186768, 142.86306762695312, -1.0517578125, 0.698486328125, -1.419677734375
660, 53905425, 1.1505870819091797, -0.9097869396209717, 9.414203643798828, 296.9105224609375, -16.833738327026367, 141.9036407470703, -1.052001953125, 0.636962890625, -1.429443359375
661, 53922092, 1.963754415512085, 0.6516255736351013, 8.685386657714844, 251.52838134765625, 30.765180587768555, 100.51307678222656, -1.043212890625, 0.57958984375, -1.439697265625
662, 53938759, 2.4445226192474365, 1.6549570560455322, 9.453784942626953, 159.68064880371094, 20.63106346130371, 60.938175201416016, -1.03125, 0.541015625, -1.44677734375
663, 53955426, 3.1629245281219482, 1.4935938119888306, 8.894285202026367, 71.63213348388672, -35.294891357421875, 30.965686798095703, -1.034423828125, 0.51953125, -1.4443359375
