Yaw,Pitch,Roll,MagX,MagY,MagZ,AccelX,AccelY,AccelZ,GyroX,GyroY,GyroZ
+087.407,-018.656,+009.565,+0.809,+1.102,+2.520,-03.0170,-01.4950,-08.8400,+00.002798,+00.001284,+00.001230
+087.408,-018.654,+009.567,+0.805,+1.078,+2.547,-03.0210,-01.4920,-08.7930,+00.000528,+00.001006,+00.001125
+087.408,-018.654,+009.566,+0.800,+1.092,+2.509,-02.9960,-01.4550,-08.8120,-00.000454,-00.000093,+00.000872
+087.408,-018.654,+009.565,+0.814,+1.087,+2.515,-03.0050,-01.4980,-08.8210,-00.000179,-00.000246,+00.000799
+087.408,-018.653,+009.567,+0.805,+1.063,+2.547,-03.0260,-01.5150,-08.8280,+00.001871,+00.000194,+00.000355
+087.407,-018.654,+009.568,+0.805,+1.073,+2.515,-03.0080,-01.5010,-08.8140,+00.000531,-00.001116,+00.000989
+087.408,-018.656,+009.567,+0.805,+1.102,+2.520,-03.0170,-01.4780,-08.8190,-00.001759,-00.002437,+00.003706
+087.410,-018.658,+009.564,+0.800,+1.073,+2.541,-03.0100,-01.4670,-08.8190,-00.000783,-00.002198,+00.003468
+087.410,-018.660,+009.564,+0.814,+1.107,+2.526,-03.0300,-01.4890,-08.8540,+00.001824,-00.000616,+00.000338
+087.411,-018.658,+009.563,+0.800,+1.078,+2.536,-03.0430,-01.4270,-08.8250,+00.002456,+00.002293,+00.001315
+087.411,-018.656,+009.565,+0.800,+1.068,+2.536,-03.0160,-01.4880,-08.8380,+00.001739,+00.001450,+00.001235
+087.414,-018.653,+009.562,+0.809,+1.088,+2.531,-03.0370,-01.4530,-08.8270,-00.002957,+00.004345,+00.002318
+087.411,-018.647,+009.562,+0.809,+1.112,+2.536,-03.0200,-01.5100,-08.7990,-00.000543,+00.005742,-00.002830
+087.407,-018.640,+009.563,+0.795,+1.073,+2.547,-02.9960,-01.4910,-08.8480,-00.001570,+00.005589,-00.002782
+087.403,-018.634,+009.562,+0.809,+1.078,+2.536,-03.0210,-01.4550,-08.8230,+00.000142,+00.005022,-00.002731
+087.401,-018.628,+009.563,+0.800,+1.073,+2.531,-03.0260,-01.4170,-08.8560,+00.003177,+00.002482,-00.002675
+087.395,-018.624,+009.569,+0.800,+1.063,+2.536,-03.0010,-01.4910,-08.8010,+00.004329,+00.003080,-00.005253
+087.390,-018.619,+009.574,+0.814,+1.097,+2.520,-02.9850,-01.5030,-08.8420,+00.000299,+00.003128,-00.001244
+087.390,-018.614,+009.577,+0.800,+1.102,+2.520,-03.0130,-01.4950,-08.8160,+00.004453,+00.003843,+00.001008
+087.388,-018.608,+009.581,+0.805,+1.063,+2.542,-03.0160,-01.5110,-08.8680,+00.003126,+00.004023,-00.001555
+087.384,-018.604,+009.586,+0.805,+1.087,+2.504,-03.0170,-01.5070,-08.8260,+00.003423,+00.001663,-00.001801
+087.380,-018.601,+009.589,+0.791,+1.102,+2.514,-02.9950,-01.5130,-08.8310,+00.003165,+00.001223,-00.002710
+087.378,-018.600,+009.594,+0.795,+1.058,+2.536,-03.0090,-01.5350,-08.8330,+00.002229,-00.000270,+00.001833
+087.378,-018.602,+009.597,+0.795,+1.078,+2.509,-03.0130,-01.4920,-08.8370,+00.001575,-00.001627,+00.003345
+087.381,-018.605,+009.595,+0.805,+1.073,+2.531,-03.0410,-01.4990,-08.8190,-00.001558,-00.001215,+00.004275
+087.385,-018.606,+009.591,+0.795,+1.073,+2.530,-03.0350,-01.5050,-08.8380,-00.001816,+00.000567,+00.004280
+087.387,-018.605,+009.588,+0.805,+1.078,+2.525,-03.0090,-01.4860,-08.8420,-00.002509,+00.001125,+00.000600
+087.386,-018.604,+009.585,+0.800,+1.058,+2.509,-03.0180,-01.4810,-08.8740,-00.001594,+00.002453,+00.001231
+087.388,-018.600,+009.583,+0.800,+1.083,+2.541,-02.9970,-01.4760,-08.8240,-00.000211,+00.005167,+00.001757
+087.387,-018.594,+009.583,+0.805,+1.088,+2.509,-03.0030,-01.5060,-08.8370,+00.001343,+00.003525,-00.001831
+087.384,-018.592,+009.583,+0.786,+1.068,+2.509,-03.0090,-01.4760,-08.8270,+00.000943,+00.002186,-00.003027
+087.379,-018.589,+009.587,+0.805,+1.073,+2.542,-02.9900,-01.4950,-08.7780,+00.002933,+00.000152,-00.001203
+087.379,-018.589,+009.589,+0.809,+1.092,+2.488,-03.0140,-01.4720,-08.8220,+00.002698,-00.001539,+00.001431
+087.378,-018.590,+009.593,+0.795,+1.112,+2.519,-03.0130,-01.4950,-08.8420,+00.003877,-00.000889,-00.000279
+087.378,-018.591,+009.597,+0.805,+1.063,+2.542,-03.0010,-01.4790,-08.8240,+00.004233,-00.000468,+00.000835
+087.376,-018.592,+009.600,+0.805,+1.092,+2.499,-03.0110,-01.4790,-08.8270,+00.002096,-00.001579,-00.002253
+087.372,-018.591,+009.603,+0.800,+1.068,+2.525,-03.0300,-01.4950,-08.8420,+00.002177,-00.001267,-00.001624
+087.369,-018.590,+009.607,+0.791,+1.083,+2.536,-03.0160,-01.4770,-08.8340,+00.002049,+00.000170,-00.000292
+087.368,-018.589,+009.608,+0.805,+1.093,+2.525,-03.0060,-01.4660,-08.8240,+00.002597,+00.001740,-00.000551
+087.366,-018.588,+009.610,+0.809,+1.078,+2.520,-03.0040,-01.4960,-08.8080,+00.001760,+00.000577,-00.001972
+087.363,-018.585,+009.611,+0.800,+1.053,+2.542,-02.9950,-01.4840,-08.8210,+00.000964,+00.002096,-00.001733
+087.360,-018.583,+009.612,+0.800,+1.097,+2.525,-03.0110,-01.5000,-08.8150,-00.001049,+00.000733,-00.000370
+087.357,-018.579,+009.611,+0.795,+1.078,+2.509,-03.0070,-01.4990,-08.8270,-00.001923,+00.002408,-00.001588
+087.355,-018.574,+009.610,+0.800,+1.068,+2.541,-02.9930,-01.4970,-08.8300,-00.002036,+00.000794,-00.001571
+087.353,-018.572,+009.611,+0.800,+1.088,+2.520,-02.9860,-01.4970,-08.8320,+00.000471,+00.001534,-00.000461
+087.350,-018.570,+009.610,+0.805,+1.063,+2.520,-03.0060,-01.4580,-08.8250,+00.000096,+00.002036,-00.003028
+087.344,-018.565,+009.612,+0.809,+1.083,+2.520,-03.0040,-01.5050,-08.8120,+00.000681,+00.005089,-00.006553
+087.340,-018.560,+009.615,+0.795,+1.102,+2.525,-02.9940,-01.4910,-08.8150,+00.001630,+00.002627,-00.001275
+087.337,-018.559,+009.618,+0.809,+1.068,+2.547,-02.9910,-01.5180,-08.8350,+00.000265,-00.000281,+00.000764
+087.338,-018.561,+009.616,+0.795,+1.083,+2.546,-03.0060,-01.5070,-08.8140,-00.002303,-00.004135,+00.004330
+087.339,-018.564,+009.614,+0.795,+1.093,+2.514,-03.0090,-01.4730,-08.8420,+00.000934,-00.001376,+00.000403
+087.338,-018.566,+009.618,+0.800,+1.088,+2.509,-03.0160,-01.5180,-08.8380,+00.003788,-00.000716,+00.000547
+087.337,-018.566,+009.622,+0.791,+1.088,+2.536,-02.9960,-01.5160,-08.8120,+00.003135,+00.001497,+00.000253
+087.337,-018.565,+009.624,+0.805,+1.078,+2.536,-02.9860,-01.4950,-08.8220,+00.002589,+00.000752,+00.000979
+087.335,-018.565,+009.628,+0.805,+1.083,+2.536,-02.9870,-01.5030,-08.8190,+00.003209,+00.001132,-00.000675
+087.334,-018.565,+009.630,+0.800,+1.098,+2.541,-02.9830,-01.5040,-08.8080,+00.002350,-00.000044,-00.001563
+087.332,-018.565,+009.633,+0.809,+1.078,+2.536,-03.0260,-01.5110,-08.8180,+00.001902,+00.000455,+00.001205
+087.332,-018.566,+009.635,+0.805,+1.078,+2.509,-03.0120,-01.5200,-08.8510,+00.001212,-00.000827,+00.001230
+087.331,-018.568,+009.638,+0.800,+1.063,+2.536,-03.0200,-01.5390,-08.8170,+00.001157,+00.000670,-00.001122
+087.331,-018.568,+009.640,+0.805,+1.102,+2.531,-03.0140,-01.5200,-08.8200,+00.000172,-00.002709,+00.001870
+087.331,-018.572,+009.640,+0.800,+1.073,+2.525,-02.9970,-01.4940,-08.8480,-00.000232,-00.004151,+00.003018
+087.332,-018.578,+009.639,+0.809,+1.078,+2.531,-02.9880,-01.4950,-08.8190,+00.000803,-00.005396,+00.002602
+087.332,-018.583,+009.637,+0.795,+1.083,+2.520,-03.0550,-01.4640,-08.8280,+00.000316,-00.001103,-00.000015
+087.331,-018.584,+009.636,+0.795,+1.083,+2.493,-03.0320,-01.5020,-08.8360,-00.001113,+00.000928,+00.000330
+087.334,-018.583,+009.632,+0.800,+1.073,+2.531,-02.9920,-01.4550,-08.8550,-00.001553,-00.000948,+00.004144
+087.337,-018.581,+009.629,+0.805,+1.068,+2.515,-02.9530,-01.4870,-08.8480,-00.000278,+00.001364,+00.003998
+087.350,-018.575,+009.619,+0.800,+1.073,+2.525,-02.9910,-01.4740,-08.7860,-00.006318,+00.014541,+00.018417
+087.377,-018.558,+009.610,+0.805,+1.063,+2.526,-03.0490,-01.3880,-08.8410,+00.007585,+00.017454,+00.020447
+087.394,-018.542,+009.606,+0.805,+1.088,+2.525,-02.9850,-01.4990,-08.8400,-00.002195,+00.013682,+00.011650
+087.406,-018.533,+009.592,+0.805,+1.097,+2.499,-02.9790,-01.5170,-08.7950,-00.009729,+00.008910,+00.007540
+087.412,-018.526,+009.578,+0.800,+1.053,+2.547,-03.0030,-01.5100,-08.8450,-00.007414,+00.006332,+00.005053
+087.415,-018.521,+009.567,+0.800,+1.088,+2.531,-02.9850,-01.4170,-08.8190,-00.013480,+00.004504,+00.002754
+087.417,-018.519,+009.543,+0.795,+1.078,+2.525,-03.0290,-01.4420,-08.8550,-00.024041,+00.002345,+00.001697
+087.417,-018.518,+009.507,+0.805,+1.083,+2.552,-03.0410,-01.4720,-08.8500,-00.035289,+00.001116,+00.002277
+087.413,-018.514,+009.479,+0.795,+1.078,+2.536,-03.0950,-01.4600,-08.8660,-00.019884,+00.007845,-00.007178
+087.403,-018.500,+009.464,+0.805,+1.102,+2.520,-03.0590,-01.4140,-08.8680,-00.009765,+00.014584,-00.007306
+087.402,-018.475,+009.470,+0.800,+1.078,+2.547,-03.0180,-01.4930,-08.7870,+00.004081,+00.023233,-00.000148
+087.399,-018.447,+009.471,+0.800,+1.093,+2.531,-02.9650,-01.5190,-08.8570,-00.007020,+00.025011,-00.006681
+087.395,-018.417,+009.465,+0.800,+1.063,+2.515,-03.0050,-01.4640,-08.8030,-00.005532,+00.027365,-00.008176
+087.391,-018.377,+009.472,+0.795,+1.083,+2.530,-02.9530,-01.5000,-08.8670,+00.028343,+00.040511,-00.007000
+087.385,-018.322,+009.504,+0.805,+1.078,+2.531,-02.9660,-01.4350,-08.8250,+00.016374,+00.051997,-00.015875
+087.357,-018.253,+009.511,+0.791,+1.083,+2.509,-02.9440,-01.3220,-08.7520,-00.009380,+00.054242,-00.043974
+087.309,-018.184,+009.515,+0.791,+1.088,+2.525,-02.9980,-01.6490,-08.7610,-00.010092,+00.057416,-00.051473
+087.259,-018.102,+009.559,+0.786,+1.083,+2.519,-02.8490,-01.3490,-08.9170,+00.073155,+00.066623,-00.048083
+087.207,-018.023,+009.613,+0.795,+1.068,+2.520,-02.8360,-01.1810,-08.7680,+00.043673,+00.053296,-00.048571
+087.141,-017.925,+009.698,+0.768,+1.068,+2.545,-02.9220,-01.6080,-08.8510,+00.065575,+00.083321,-00.073454
+087.081,-017.819,+009.791,+0.768,+1.093,+2.518,-02.7340,-01.5820,-08.7090,+00.070858,+00.071508,-00.054876
+087.051,-017.761,+009.884,+0.768,+1.088,+2.524,-02.7250,-01.4890,-08.8230,+00.060966,+00.042001,-00.025069
+087.022,-017.721,+009.963,+0.777,+1.108,+2.546,-02.7910,-01.4690,-08.8920,+00.075444,+00.014370,-00.029698
+086.980,-017.704,+010.081,+0.772,+1.107,+2.502,-02.7950,-01.5400,-08.8500,+00.100992,+00.001128,-00.039552
+086.941,-017.703,+010.196,+0.777,+1.088,+2.513,-02.7730,-01.5830,-08.7790,+00.084701,-00.008004,-00.024421
+086.924,-017.723,+010.254,+0.768,+1.073,+2.535,-02.7700,-01.6340,-08.8790,+00.016769,-00.026846,-00.001164
+086.921,-017.777,+010.255,+0.782,+1.103,+2.514,-02.7170,-01.5850,-08.8750,-00.027072,-00.056492,+00.011826
+086.937,-017.856,+010.185,+0.782,+1.093,+2.519,-02.7870,-01.5910,-08.8690,-00.081324,-00.065720,+00.036307
+087.005,-017.917,+010.011,+0.768,+1.073,+2.545,-03.0560,-01.5920,-08.7670,-00.159924,-00.029315,+00.071850
+087.074,-017.959,+009.809,+0.772,+1.112,+2.502,-02.8260,-01.4510,-08.8190,-00.172802,-00.021411,+00.061099
+087.209,-018.012,+009.519,+0.777,+1.073,+2.540,-02.6540,-01.6650,-08.7670,-00.228094,-00.041969,+00.162341
+087.444,-018.130,+009.203,+0.795,+1.063,+2.541,-02.7730,-01.3510,-08.7990,-00.202053,-00.093076,+00.227226
+087.693,-018.271,+008.912,+0.795,+1.058,+2.547,-03.0880,-01.2610,-08.8820,-00.169716,-00.091377,+00.212693
+087.889,-018.397,+008.674,+0.805,+1.078,+2.504,-03.0640,-01.1620,-08.9090,-00.154495,-00.081488,+00.160471
+088.046,-018.520,+008.455,+0.805,+1.014,+2.537,-03.1020,-01.4530,-08.8420,-00.135534,-00.096067,+00.142262
+088.198,-018.664,+008.274,+0.818,+1.043,+2.537,-02.9910,-01.3280,-08.8300,-00.103798,-00.111626,+00.147159
+088.345,-018.820,+008.120,+0.818,+1.024,+2.532,-03.1670,-01.2400,-08.8630,-00.083092,-00.117917,+00.133698
+088.465,-018.976,+008.015,+0.823,+1.038,+2.553,-03.1110,-01.2670,-08.8140,-00.037537,-00.124306,+00.108079
+088.567,-019.145,+007.978,+0.832,+1.038,+2.543,-03.0290,-01.2970,-08.8000,+00.013512,-00.142559,+00.106608
+088.693,-019.354,+007.954,+0.837,+1.028,+2.522,-03.0710,-01.2390,-08.7720,+00.013296,-00.185841,+00.141978
+088.848,-019.625,+007.879,+0.860,+1.004,+2.534,-03.1130,-01.3310,-08.7290,-00.033092,-00.236511,+00.176581
+089.022,-019.953,+007.767,+0.864,+1.018,+2.523,-03.3130,-01.1080,-08.7910,-00.059127,-00.274759,+00.172152
+089.156,-020.327,+007.617,+0.887,+0.998,+2.535,-03.1600,-01.1540,-08.8450,-00.101459,-00.332217,+00.140043
+089.237,-020.771,+007.467,+0.897,+1.003,+2.541,-03.1700,-01.1930,-08.8490,-00.103597,-00.404559,+00.108161
+089.268,-021.313,+007.339,+0.910,+0.993,+2.520,-03.3450,-01.2810,-08.7580,-00.111743,-00.507113,+00.070552
+089.221,-021.981,+007.156,+0.943,+0.978,+2.495,-03.5030,-01.0380,-08.8290,-00.217322,-00.628096,+00.003271
+089.007,-022.794,+006.949,+0.947,+0.993,+2.506,-03.4580,-00.8950,-08.7460,-00.277234,-00.788071,-00.121964
+088.663,-023.781,+006.704,+0.993,+0.968,+2.486,-03.7440,-00.9820,-08.6930,-00.363599,-00.949780,-00.193123
+088.164,-024.972,+006.524,+1.030,+0.952,+2.467,-04.6450,-01.0570,-08.7270,-00.301199,-01.186408,-00.350013
+087.531,-026.445,+006.341,+1.062,+0.952,+2.479,-03.7920,-00.9270,-08.4960,-00.425723,-01.438738,-00.367388
+086.859,-028.242,+006.158,+1.118,+0.961,+2.444,-04.5290,-01.0620,-08.4300,-00.402451,-01.736942,-00.371573
+085.972,-030.418,+006.093,+1.173,+0.965,+2.398,-04.1850,-00.7010,-08.2870,-00.451708,-02.111517,-00.560771
+084.623,-033.045,+006.365,+1.242,+0.950,+2.390,-05.9840,-01.0910,-08.8550,-00.244339,-02.566732,-00.892971
+082.907,-036.297,+007.343,+1.329,+0.963,+2.297,-04.3590,-00.4550,-09.6720,+00.203400,-03.200875,-00.814326
+081.318,-040.307,+009.063,+1.440,+0.986,+2.195,-05.1490,-00.4860,-09.0210,+00.852205,-03.913269,-00.395238
+079.916,-045.327,+011.362,+1.541,+1.024,+2.097,-06.1660,-00.9150,-10.9790,+01.441564,-04.816031,+00.064759
+078.173,-051.579,+014.813,+1.712,+1.085,+1.868,-08.2440,-02.0840,-08.7050,+01.966069,-05.982285,+00.361170
+075.883,-059.050,+019.205,+1.863,+1.107,+1.607,-07.2160,-02.3690,-09.1350,+02.333918,-06.849840,+01.124220
+072.508,-066.880,+024.858,+1.983,+1.090,+1.365,-09.2330,-02.1450,-07.7210,+02.377188,-06.870981,+01.374236
+065.890,-074.374,+034.434,+2.093,+1.062,+1.027,-10.2560,-01.3710,-10.0950,+03.121673,-06.499461,+01.665298
+049.768,-081.114,+054.004,+2.148,+0.976,+0.698,-05.5320,-03.7940,-12.6200,+03.246608,-05.845597,+02.016223
+020.561,-084.815,+085.247,+2.157,+0.926,+0.554,-10.0970,-05.4720,-29.3500,+01.147263,-02.760689,+01.593301
+021.190,-086.425,+084.686,+2.184,+0.872,+0.475,-07.0420,-06.2300,-29.5830,-00.558316,+01.512981,+01.252107
+074.368,-085.347,+030.239,+2.198,+0.818,+0.637,-01.6980,-02.3300,-12.9710,-01.345000,+03.722354,+00.925702
+095.117,-081.546,+008.280,+2.212,+0.789,+0.777,+01.6260,-00.8390,-02.8660,-00.985685,+03.635694,+00.843166
+101.540,-077.726,+001.131,+2.217,+0.770,+0.949,-00.6100,-02.4740,-08.0530,-00.631122,+03.414931,+00.633662
+103.448,-073.119,-001.544,+2.189,+0.732,+1.109,-02.3000,-05.0720,-12.6310,-00.836474,+04.440808,+00.298800
+102.623,-067.391,-002.003,+2.139,+0.729,+1.321,-02.8880,-05.7100,-10.6540,-01.145274,+05.276247,-00.341127
+100.184,-060.928,-000.926,+2.052,+0.741,+1.542,-04.3790,-05.0510,-10.4440,-00.839294,+05.891459,-01.042485
+097.258,-053.999,+000.798,+1.900,+0.758,+1.793,-04.9220,-03.5480,-08.3030,-00.526007,+06.047386,-01.510396
+094.761,-047.096,+002.216,+1.762,+0.800,+1.990,-06.5150,-01.6200,-09.8800,-00.400507,+05.949992,-01.483100
+093.225,-040.227,+002.962,+1.583,+0.852,+2.148,-07.7540,-00.6790,-11.1130,-00.181925,+05.929813,-01.074227
+092.527,-033.535,+003.384,+1.362,+0.884,+2.321,-08.2680,-01.7520,-11.0800,+00.094317,+05.679455,-00.686015
+092.172,-027.345,+003.875,+1.191,+0.887,+2.442,-08.4140,-03.0400,-12.2090,+00.373036,+05.176904,-00.597193
+091.872,-021.647,+004.704,+1.007,+0.928,+2.530,-10.0620,-02.4600,-16.0350,+00.787187,+04.853677,-00.597955
+091.674,-016.050,+005.880,+0.786,+0.990,+2.590,-13.7420,-01.8300,-16.9330,+01.032219,+04.851590,-00.642678
+091.517,-010.416,+007.287,+0.620,+1.051,+2.614,-17.9230,-00.4470,-17.3430,+01.258284,+04.927588,-00.735352
+091.375,-004.662,+008.490,+0.399,+1.092,+2.631,-18.7560,-01.7110,-11.4250,+00.763038,+04.880486,-00.894043
+090.924,+000.485,+008.805,+0.183,+1.085,+2.616,-21.6540,+02.3560,-05.6550,+00.144941,+04.029605,-01.085672
+090.817,+004.415,+009.012,+0.058,+1.081,+2.664,-24.4080,+01.4000,+02.9180,+00.144752,+02.919467,-00.230580
+091.389,+006.694,+009.765,-0.043,+1.136,+2.622,-25.3290,+00.6020,+09.0920,+01.079750,+01.485222,+00.247139
+091.441,+007.094,+011.160,-0.048,+1.170,+2.595,-23.8120,-05.1950,+09.6640,+00.975260,-00.376835,-00.269615
+090.204,+005.595,+011.321,-0.034,+1.190,+2.611,-19.3950,-05.5960,+06.7630,-00.115191,-02.234510,-00.926051
+088.356,+002.795,+010.139,+0.049,+1.145,+2.610,+18.0890,+03.1500,-29.3080,-00.345068,-02.343766,-00.800726
+088.393,-001.168,+009.757,+0.210,+1.133,+2.622,-06.1280,+06.7700,+03.2740,-00.773751,-03.902173,+00.586572
+087.622,-005.757,+010.166,+0.358,+1.117,+2.629,-16.4500,+06.9740,-24.2160,-00.004426,-03.548578,-00.028769
+087.416,-008.983,+010.859,+0.482,+1.175,+2.586,-01.6620,-02.1340,-09.9290,+00.935727,-02.696221,+00.381202
+086.777,-012.070,+011.777,+0.593,+1.193,+2.548,-05.1350,-09.8910,-12.0650,+00.348271,-02.743743,-00.197203
+085.945,-014.861,+012.005,+0.667,+1.187,+2.551,-09.1770,+00.6320,-15.6790,+00.392000,-02.134681,-00.092568
+085.533,-016.846,+012.454,+0.749,+1.216,+2.495,-07.9870,-01.7010,-15.0130,+00.568940,-01.111407,+00.104717
+085.589,-017.713,+012.674,+0.773,+1.240,+2.491,-03.5160,-01.9950,-09.1160,+00.164359,-00.577253,+00.273616
+085.831,-018.221,+012.787,+0.796,+1.230,+2.486,-03.4440,-01.5150,-09.4090,+00.114053,-00.292157,+00.289488
+086.027,-018.532,+012.780,+0.805,+1.230,+2.465,-03.2270,-01.0980,-09.1070,+00.023376,-00.225032,+00.154699
+086.078,-018.783,+012.753,+0.828,+1.220,+2.472,-03.0840,-01.7180,-08.9430,-00.041957,-00.189407,+00.065129
+086.068,-018.986,+012.657,+0.819,+1.235,+2.466,-02.9720,-01.9980,-08.7510,-00.118727,-00.174458,+00.016103
+086.098,-019.215,+012.427,+0.842,+1.215,+2.446,-02.8430,-02.1590,-08.6210,-00.251454,-00.204152,+00.115893
+086.249,-019.506,+011.985,+0.855,+1.215,+2.452,-03.2800,-02.2390,-08.7830,-00.380099,-00.220705,+00.199183
+086.466,-019.787,+011.496,+0.860,+1.170,+2.484,-03.4590,-01.9870,-08.8500,-00.335535,-00.192885,+00.235544
+086.716,-020.041,+011.080,+0.865,+1.160,+2.479,-03.4330,-01.8170,-08.7910,-00.263013,-00.165763,+00.254250
+086.983,-020.263,+010.741,+0.878,+1.131,+2.480,-03.4680,-01.7370,-08.7650,-00.187170,-00.139858,+00.239553
+087.208,-020.466,+010.500,+0.892,+1.121,+2.497,-03.3330,-01.5310,-08.7560,-00.126973,-00.143938,+00.207507
+087.401,-020.679,+010.301,+0.897,+1.131,+2.470,-03.4640,-01.5890,-08.7320,-00.100948,-00.160337,+00.184996
+087.624,-020.919,+010.110,+0.906,+1.131,+2.481,-03.2920,-01.6560,-08.5430,-00.114461,-00.190524,+00.239930
+087.952,-021.254,+009.741,+0.938,+1.125,+2.477,-03.2870,-01.8990,-08.6550,-00.259459,-00.271130,+00.381390
+088.505,-021.707,+009.212,+0.947,+1.115,+2.467,-03.3530,-01.6890,-08.6250,-00.276114,-00.345196,+00.564849
+089.185,-022.231,+008.691,+0.970,+1.091,+2.479,-03.3410,-01.2010,-08.7530,-00.216422,-00.382820,+00.632626
+089.843,-022.850,+008.181,+0.998,+1.046,+2.502,-03.6710,-00.9730,-08.6960,-00.229325,-00.496091,+00.561813
+090.263,-023.557,+007.718,+1.021,+1.036,+2.482,-03.8710,-00.8220,-08.6250,-00.266995,-00.609789,+00.324121
+090.388,-024.405,+007.294,+1.058,+1.021,+2.467,-03.6560,-01.0610,-08.6490,-00.371624,-00.801861,+00.132777
+090.279,-025.508,+006.855,+1.086,+1.006,+2.447,-03.9890,-01.2340,-08.6040,-00.455575,-01.075017,-00.012668
+089.980,-026.987,+006.458,+1.136,+1.020,+2.428,-04.0450,-00.7320,-08.5300,-00.466258,-01.446115,-00.147179
+089.327,-028.838,+006.188,+1.182,+0.980,+2.414,-04.6190,-00.7390,-08.5080,-00.515937,-01.807066,-00.455129
+088.027,-031.207,+006.200,+1.247,+0.984,+2.390,-05.0680,-01.1620,-08.5440,-00.548536,-02.419061,-00.946682
+085.998,-034.425,+006.755,+1.325,+0.993,+2.313,-05.2350,-01.2340,-08.8650,-00.392009,-03.295003,-01.275985
+082.953,-038.763,+008.486,+1.422,+1.021,+2.226,-04.5220,-01.1220,-10.2330,+00.162257,-04.500015,-01.715727
+079.205,-044.584,+011.883,+1.546,+1.073,+2.092,-03.4360,-00.4370,-12.2240,+01.195984,-05.979195,-01.291681
+075.368,-052.049,+016.836,+1.721,+1.144,+1.847,-08.7110,-00.3260,-12.7350,+02.281126,-07.436546,-00.157893
+069.992,-061.323,+024.378,+1.905,+1.194,+1.479,-08.8500,-01.0830,-15.0410,+02.715317,-09.005990,+00.844056
+061.214,-071.238,+035.061,+2.029,+1.167,+1.174,-13.2680,-08.0920,-17.7000,+01.798568,-08.545640,+01.624426
+038.849,-079.795,+060.106,+2.143,+1.114,+0.739,-11.0920,-04.7360,-15.7160,+03.250076,-08.236492,+02.227513
-009.743,-083.419,+113.036,+2.170,+0.975,+0.404,-31.9140,-08.8770,-38.5300,+03.918499,-03.857419,+02.099169
-025.717,-084.526,+131.893,+2.179,+0.925,+0.340,-04.3900,-10.0280,-30.5780,+02.129634,+01.055046,+01.457547
+001.232,-086.852,+105.413,+2.225,+0.881,+0.407,+00.8740,-08.1880,-15.6420,-00.586350,+03.025787,+00.606726
+063.498,-085.940,+041.524,+2.230,+0.877,+0.563,+02.0250,-04.5600,-09.4330,-01.853725,+03.442951,+00.098273
+083.552,-082.084,+019.498,+2.226,+0.883,+0.761,+00.8000,-02.7310,-08.9900,-01.642453,+04.030559,-00.236397
+088.848,-076.917,+012.911,+2.208,+0.903,+0.937,-02.1220,-03.1580,-11.2790,-00.947581,+04.939263,-00.577487
+090.238,-070.450,+010.695,+2.144,+0.945,+1.202,-04.8040,-04.1530,-12.2680,-00.769801,+05.970344,-00.969661
+090.101,-062.942,+009.703,+2.066,+0.937,+1.445,-06.6860,-04.1020,-11.3350,-01.153496,+06.666263,-01.346919
+089.357,-054.716,+008.868,+1.900,+0.984,+1.722,-08.5770,-02.3520,-11.4260,-01.304165,+07.233783,-01.530168
+088.783,-046.108,+008.054,+1.689,+0.993,+2.018,-09.1670,+00.5460,-09.0700,-00.898472,+07.395160,-01.315332
+088.750,-037.765,+007.513,+1.495,+1.000,+2.219,-09.0910,+01.6910,-08.6190,-00.302450,+07.059134,-00.776188
+089.508,-030.139,+007.121,+1.261,+1.033,+2.358,-10.3660,+01.8160,-09.0150,+00.253212,+06.362711,-00.012614
+090.805,-023.699,+007.207,+1.035,+1.075,+2.455,-12.5900,-01.5180,-15.3760,+00.743627,+05.370855,+00.458471
+092.199,-017.437,+007.911,+0.869,+1.102,+2.544,-18.4720,-05.9220,-25.4320,+01.188498,+05.873556,+00.268030
+092.911,-010.189,+008.882,+0.616,+1.134,+2.587,-21.7180,-08.8300,-16.9110,+00.792640,+06.423183,-00.731623
+092.552,-003.406,+009.466,+0.344,+1.152,+2.612,-22.6080,-06.4520,-07.4450,+00.333343,+05.306672,-01.511099
+091.433,+002.084,+009.882,+0.160,+1.154,+2.647,-25.8040,-00.4640,-04.2520,+00.517137,+04.176247,-01.795015
+090.730,+006.342,+010.608,-0.038,+1.229,+2.611,-28.0290,+01.8320,+05.7370,+00.770365,+03.055521,-00.848608
+090.698,+008.635,+011.811,-0.131,+1.220,+2.564,-28.9420,+00.7480,+10.9120,+01.279218,+01.270279,-00.277135
+090.172,+008.931,+013.061,-0.149,+1.269,+2.552,-27.0960,-03.9620,+09.5460,+00.872862,-00.527152,-00.729616
+088.394,+007.482,+013.084,-0.117,+1.299,+2.542,-23.7540,-04.3640,+00.7830,-00.072163,-02.083105,-01.484897
+085.699,+005.560,+011.533,-0.085,+1.215,+2.577,+20.4580,-04.7780,-35.2650,-01.433864,-01.887561,-01.846719
+084.999,+002.697,+011.573,-0.002,+1.229,+2.596,+09.2640,+11.6220,+07.7970,+00.587156,-03.681879,+00.742108
+084.143,-002.973,+012.353,+0.206,+1.256,+2.589,-22.5330,+05.2280,-18.7060,+01.206851,-05.004915,+00.199660
+083.667,-007.867,+013.451,+0.395,+1.303,+2.549,-04.2040,-05.3610,-16.3510,+01.598114,-04.069134,+00.738758
+082.660,-012.404,+014.796,+0.524,+1.312,+2.512,-11.2480,-21.3320,-17.8030,+00.185893,-04.014804,-00.372386
+081.641,-015.362,+014.682,+0.630,+1.325,+2.473,-05.0450,+07.0450,-15.7840,-00.195399,-01.936625,+00.134921
+081.482,-016.818,+014.371,+0.694,+1.319,+2.460,-04.4430,-02.3690,-10.5240,-00.489472,-00.916103,+00.198552
+081.704,-017.470,+013.933,+0.713,+1.265,+2.499,-02.7290,-04.4000,-08.6650,-00.293562,-00.377825,+00.330669
+082.096,-017.846,+013.462,+0.731,+1.265,+2.483,-02.5610,-01.0130,-09.0580,-00.286873,-00.194022,+00.432391
+082.417,-018.146,+013.080,+0.740,+1.285,+2.473,-03.6090,-01.0020,-09.2340,-00.218751,-00.191884,+00.224980
+082.476,-018.388,+012.864,+0.750,+1.235,+2.495,-02.9850,-01.5220,-08.7700,-00.179853,-00.202369,+00.040498
+082.525,-018.663,+012.534,+0.759,+1.235,+2.485,-02.8010,-02.4520,-08.6940,-00.323112,-00.232557,+00.145481
+082.746,-018.991,+012.013,+0.777,+1.220,+2.502,-03.0440,-02.2340,-08.7920,-00.422024,-00.240893,+00.289708
+083.086,-019.311,+011.434,+0.800,+1.201,+2.508,-03.4200,-01.8280,-08.8390,-00.390545,-00.195259,+00.339467
+083.449,-019.590,+010.867,+0.814,+1.186,+2.504,-03.4660,-01.5850,-08.8300,-00.417236,-00.174263,+00.338192
+083.825,-019.848,+010.232,+0.819,+1.146,+2.504,-03.2870,-01.8160,-08.7930,-00.437708,-00.168126,+00.361159
+084.253,-020.106,+009.669,+0.832,+1.156,+2.532,-03.2660,-01.7070,-08.7430,-00.317286,-00.152125,+00.399226
+084.725,-020.359,+009.191,+0.846,+1.136,+2.527,-03.4030,-01.2230,-08.6930,-00.269244,-00.160688,+00.413613
+085.197,-020.640,+008.724,+0.865,+1.116,+2.517,-03.2460,-01.4390,-08.6540,-00.247889,-00.202383,+00.428349
+085.714,-020.998,+008.302,+0.883,+1.082,+2.540,-03.3620,-01.2350,-08.6090,-00.187694,-00.272226,+00.481947
+086.279,-021.445,+007.887,+0.901,+1.111,+2.508,-03.2870,-01.2950,-08.6950,-00.169141,-00.357082,+00.533133
+086.901,-021.996,+007.497,+0.924,+1.062,+2.531,-03.4380,-01.0490,-08.6910,-00.128503,-00.442114,+00.563792
+087.448,-022.633,+007.134,+0.947,+1.062,+2.527,-03.4040,-00.7190,-08.7610,-00.140634,-00.539107,+00.468787
+087.798,-023.408,+006.809,+0.989,+1.051,+2.502,-03.7690,-00.7320,-08.6600,-00.175278,-00.698070,+00.285341
+087.842,-024.362,+006.540,+1.021,+1.036,+2.487,-03.9750,-00.8110,-08.6200,-00.286331,-00.906857,+00.034294
+087.584,-025.620,+006.182,+1.049,+1.006,+2.499,-03.9010,-01.0830,-08.6440,-00.461611,-01.248538,-00.128445
+087.181,-027.270,+005.769,+1.099,+1.006,+2.459,-04.2090,-01.1100,-08.6240,-00.533344,-01.610866,-00.189152
+086.646,-029.402,+005.404,+1.173,+0.975,+2.425,-04.6400,-01.0040,-08.3880,-00.543696,-02.063782,-00.223716
+085.828,-032.192,+005.193,+1.228,+0.955,+2.395,-05.0640,-01.1170,-08.8710,-00.562701,-02.782450,-00.505590
+084.439,-036.095,+005.462,+1.343,+0.983,+2.309,-05.7760,-01.0270,-09.5810,-00.292485,-03.929589,-00.791160
+082.564,-041.458,+006.453,+1.495,+1.020,+2.202,-02.3350,-01.4270,-11.9300,-00.051085,-05.371640,-00.704922
+080.708,-048.829,+008.003,+1.633,+0.984,+2.064,-04.5690,+00.0090,-11.9570,+00.336570,-07.181000,-00.018020
+078.883,-058.220,+011.024,+1.868,+1.034,+1.731,-09.5690,+00.3190,-08.5140,+01.971779,-08.984108,+00.609823
+075.183,-069.127,+018.042,+2.066,+1.049,+1.321,-09.1050,-03.8420,-18.4010,+03.659352,-09.501176,+01.303735
+067.468,-079.583,+030.192,+2.167,+1.002,+0.972,-11.3220,-04.1060,-21.1110,+04.357084,-08.862379,+02.434719
+045.007,-087.286,+056.045,+2.240,+0.945,+0.579,-01.2280,-00.5270,-18.4090,+01.968614,-04.229860,+03.398432
+064.284,-088.605,+037.400,+2.253,+0.842,+0.548,-01.6950,-06.2830,-28.8300,+00.744396,+01.128015,+00.906280
+098.341,-086.261,+003.271,+2.258,+0.808,+0.640,+03.6950,-02.7810,-08.8980,-00.285702,+02.436072,+00.466971
+103.078,-083.680,-001.689,+2.263,+0.784,+0.736,+03.6750,-00.4950,-04.4860,-00.056961,+02.176220,+00.271887
+103.908,-081.001,-002.199,+2.254,+0.779,+0.849,+01.7070,-00.4740,-08.7650,+00.454075,+02.527106,+00.133223
+103.512,-077.329,-001.205,+2.245,+0.785,+0.972,-01.2830,-02.6240,-14.4570,+00.477775,+03.722225,-00.074758
+101.730,-071.919,+000.730,+2.208,+0.806,+1.125,-03.6420,-04.1750,-14.7000,-00.012365,+05.280746,-00.621604
+099.065,-065.102,+002.952,+2.107,+0.857,+1.394,-04.8040,-03.5940,-10.8720,-00.289718,+06.194467,-01.286918
+096.292,-057.646,+005.018,+2.006,+0.884,+1.620,-05.7260,-02.1950,-09.4250,-00.343506,+06.487228,-01.775899
+093.989,-049.889,+006.508,+1.827,+0.976,+1.869,-08.0130,+00.9200,-10.9340,-00.256416,+06.724135,-01.817626
+092.883,-041.864,+007.339,+1.606,+0.999,+2.111,-08.9120,+03.3750,-10.6980,+00.215736,+06.915725,-01.245314
+093.225,-034.015,+007.733,+1.413,+1.051,+2.274,-10.1530,+04.4110,-09.1500,+00.668634,+06.687163,-00.300410
+094.587,-027.101,+008.062,+1.201,+1.107,+2.377,-11.0720,+01.4280,-11.6610,+00.810973,+05.751456,+00.425761
+096.360,-020.983,+008.164,+0.994,+1.071,+2.491,-13.3690,-01.6040,-20.7150,+00.783368,+05.516966,+00.690026
+097.822,-014.458,+009.028,+0.819,+1.127,+2.558,-16.3810,-05.7900,-21.6710,+01.362200,+05.981925,+00.028888
+098.172,-007.551,+010.386,+0.565,+1.169,+2.568,-20.0940,-07.2340,-17.1450,+01.048585,+05.891800,-01.150304
+097.548,-001.063,+010.768,+0.289,+1.226,+2.609,-23.3490,-07.0710,-07.4370,-00.357629,+05.009132,-01.846297
+096.298,+004.819,+010.652,+0.095,+1.174,+2.649,-27.6320,+00.1770,-01.5150,+00.223112,+04.503423,-01.950506
+095.532,+009.183,+010.708,-0.094,+1.210,+2.603,-30.0520,+02.9250,+08.4420,+00.176886,+02.985888,-01.014320
+094.959,+011.246,+010.861,-0.195,+1.192,+2.610,-30.5200,-00.4320,+11.9180,+00.156802,+00.859191,-00.866875
+093.762,+010.087,+010.003,-0.172,+1.167,+2.605,-38.0350,+02.5230,+27.1670,-01.495746,-03.126799,-00.510648
+093.224,+006.061,+008.218,-0.029,+1.131,+2.650,+22.3490,+03.8760,-37.7710,-01.291323,-03.399019,+00.618199
+094.525,+001.384,+006.984,+0.160,+1.080,+2.685,-10.9670,-05.0280,+06.4110,-00.571223,-04.538743,+01.244751
+093.506,-003.805,+007.018,+0.321,+1.049,+2.698,-10.4980,+05.6990,-27.9870,+00.300573,-04.026564,-00.644720
+092.728,-007.936,+008.562,+0.482,+1.121,+2.629,-01.2650,+02.3700,-07.8760,+01.759328,-03.750628,+00.201703
+091.924,-012.354,+011.092,+0.630,+1.188,+2.549,-09.3960,-12.6690,-15.9140,+01.945333,-04.103619,-00.233094
+091.095,-015.605,+012.264,+0.736,+1.246,+2.521,-08.9020,+01.6390,-16.7450,+00.210207,-01.987689,+00.095896
+090.957,-016.672,+012.108,+0.791,+1.230,+2.492,-04.2610,-02.0070,-11.0130,-00.314423,-00.579477,+00.060717
+090.970,-016.968,+011.914,+0.796,+1.245,+2.492,-02.9940,-01.6480,-09.6160,-00.056016,-00.150847,+00.059424
+091.069,-017.150,+011.915,+0.805,+1.206,+2.519,-02.6370,-01.1630,-09.1530,+00.042428,-00.132349,+00.170013
+091.252,-017.366,+011.954,+0.809,+1.210,+2.493,-03.0140,-01.4580,-09.1160,+00.101351,-00.169901,+00.165529
+091.305,-017.560,+012.014,+0.814,+1.210,+2.482,-03.0270,-01.9360,-08.9290,+00.041471,-00.140745,+00.041181
+091.288,-017.717,+011.971,+0.828,+1.200,+2.515,-02.8750,-01.5910,-08.8940,-00.083971,-00.145311,+00.004985
+091.291,-017.878,+011.787,+0.828,+1.215,+2.477,-02.7330,-02.3500,-08.6480,-00.200638,-00.145819,+00.055801
+091.400,-018.094,+011.470,+0.842,+1.210,+2.494,-02.7960,-02.3780,-08.7070,-00.274547,-00.167171,+00.178359
+091.656,-018.318,+011.107,+0.842,+1.205,+2.483,-03.1330,-01.6190,-08.8700,-00.220694,-00.139729,+00.270493
+091.928,-018.512,+010.812,+0.869,+1.200,+2.501,-03.3060,-01.5770,-08.9030,-00.163952,-00.114191,+00.237257
+092.169,-018.657,+010.572,+0.860,+1.161,+2.495,-03.1940,-01.4590,-08.8160,-00.127318,-00.071663,+00.204437
+092.399,-018.784,+010.367,+0.869,+1.195,+2.495,-02.7690,-01.7000,-08.7880,-00.116060,-00.084521,+00.226060
+092.714,-018.988,+010.049,+0.883,+1.160,+2.502,-02.8360,-01.7230,-08.7530,-00.240242,-00.157110,+00.323794
+093.127,-019.275,+009.623,+0.897,+1.136,+2.497,-02.9690,-01.7920,-08.7810,-00.238705,-00.210894,+00.409890
+093.602,-019.621,+009.237,+0.911,+1.116,+2.519,-03.2120,-01.5790,-08.7460,-00.195039,-00.249881,+00.439639
+094.078,-020.056,+008.869,+0.934,+1.111,+2.499,-03.1540,-01.4660,-08.7180,-00.176686,-00.361183,+00.449236
+094.555,-020.612,+008.469,+0.947,+1.091,+2.500,-03.2600,-01.2390,-08.7250,-00.235557,-00.458237,+00.457674
+094.974,-021.294,+007.966,+0.984,+1.066,+2.512,-03.4010,-01.0640,-08.7600,-00.360344,-00.593227,+00.392625
+095.227,-022.150,+007.387,+1.007,+1.061,+2.492,-03.4280,-00.9710,-08.8240,-00.456191,-00.789655,+00.231696
+095.224,-023.278,+006.804,+1.053,+1.031,+2.483,-03.6380,-00.8020,-08.7480,-00.561026,-01.078511,+00.045124
+094.912,-024.725,+006.235,+1.090,+0.996,+2.480,-03.8770,-00.7730,-08.7080,-00.623462,-01.426673,-00.185086
+094.195,-026.591,+005.832,+1.150,+0.995,+2.445,-03.8030,-00.4850,-08.6090,-00.639456,-01.817246,-00.489494
+093.073,-028.907,+005.722,+1.210,+0.994,+2.410,-04.0090,-00.7050,-08.5670,-00.495153,-02.265704,-00.742767
+091.347,-031.869,+006.213,+1.265,+0.994,+2.386,-05.3360,-00.9680,-08.8860,-00.205910,-03.022704,-01.237562
+088.392,-035.834,+008.033,+1.385,+1.051,+2.278,-04.8120,-00.8920,-09.2070,+00.452538,-04.144502,-01.928834
+084.291,-041.256,+011.531,+1.509,+1.128,+2.116,-00.9850,+00.2660,-12.8280,+00.997038,-05.745957,-01.750574
+079.584,-048.503,+016.760,+1.638,+1.180,+1.961,-06.9220,-01.0700,-14.8760,+02.111263,-07.470487,-00.994197
+073.109,-057.560,+025.104,+1.818,+1.269,+1.598,-09.9810,-04.5170,-09.4560,+02.951551,-09.523661,+00.117210
+062.133,-068.343,+038.801,+2.006,+1.270,+1.113,-08.6830,-04.9880,-15.3750,+03.376454,-10.535420,+02.128614
+035.370,-077.634,+067.725,+2.088,+1.228,+0.742,-08.8380,-02.2600,-26.6100,+03.171150,-09.853959,+02.483487
-006.067,-080.902,+111.349,+2.134,+1.108,+0.374,-20.7360,+00.0960,-26.0500,+01.876203,-04.322638,+02.908495
+002.000,-083.225,+104.878,+2.161,+1.014,+0.398,-03.2700,-05.3740,-32.5180,+01.628368,+03.348740,+01.769945
+050.750,-084.538,+056.940,+2.198,+0.946,+0.550,+04.3020,-03.3770,-09.3080,+00.064804,+04.143841,+01.734840
+087.092,-082.122,+020.348,+2.235,+0.882,+0.724,+03.0300,-03.8300,-06.7330,-00.631626,+03.730436,+01.439541
+100.147,-077.802,+006.553,+2.258,+0.834,+0.907,-00.3590,-06.0560,-14.0040,-00.897610,+04.492786,+00.792829
+103.137,-071.666,+002.480,+2.213,+0.806,+1.120,-02.1800,-05.7670,-13.0580,-01.027007,+05.878647,-00.053412
+102.342,-064.508,+002.342,+2.139,+0.842,+1.390,-02.8840,-03.6680,-08.1410,-00.513739,+06.319659,-00.771537
+100.459,-057.194,+003.751,+2.011,+0.845,+1.647,-04.6620,-02.7520,-09.3270,-00.092196,+06.349762,-01.324699
+098.587,-049.647,+005.081,+1.873,+0.892,+1.882,-06.7670,-01.9070,-12.7120,-00.247325,+06.612501,-01.507936
+097.389,-041.687,+005.628,+1.661,+0.934,+2.103,-08.6150,+00.1820,-13.2930,-00.190427,+06.971890,-01.247864
+097.118,-033.558,+006.074,+1.403,+0.967,+2.311,-09.9120,+02.0250,-10.9910,+00.589194,+06.994677,-00.648493
+097.723,-026.127,+007.101,+1.205,+1.024,+2.442,-11.5780,+00.0060,-11.7710,+01.304218,+06.142426,-00.089780
+098.739,-019.499,+008.545,+0.975,+1.071,+2.506,-15.2670,-05.1470,-19.8220,+01.864304,+05.822123,-00.052042
+099.064,-012.592,+010.804,+0.731,+1.162,+2.538,-20.9380,-09.3660,-21.4180,+02.044365,+06.090562,-01.242733
+098.245,-005.167,+012.482,+0.487,+1.248,+2.591,-27.9670,-09.9890,-18.9550,+00.817614,+06.226435,-02.355828
+096.872,+002.075,+012.393,+0.192,+1.242,+2.599,-30.0150,-06.8000,-04.9340,-00.466544,+05.525550,-02.627370
+095.076,+007.969,+011.780,-0.075,+1.215,+2.593,-36.5900,+03.0310,+01.2890,-00.161545,+04.328510,-02.302412
+094.460,+012.041,+011.579,-0.218,+1.202,+2.598,-36.5100,+05.1360,+15.3890,+00.129915,+02.537092,-00.579523
+094.299,+013.036,+011.933,-0.264,+1.226,+2.563,-35.2160,-02.4560,+11.6980,+00.284933,-00.105443,-00.402815
+092.957,+011.732,+010.909,-0.241,+1.177,+2.597,-14.7620,-03.6030,+09.1910,-01.649770,-02.411779,-01.062696
+091.932,+008.855,+009.422,-0.172,+1.118,+2.633,+36.5110,+08.2460,-22.3750,+00.067380,-03.034355,+00.568716
+091.767,+003.322,+009.633,+0.026,+1.160,+2.657,-21.7510,+11.4800,+01.8960,+00.661636,-05.884798,+00.008525
+090.858,-002.482,+010.834,+0.257,+1.172,+2.630,-07.6790,+12.5510,-28.4580,+01.420833,-04.419617,+00.632246
+090.647,-007.077,+012.914,+0.390,+1.235,+2.603,-05.7710,-17.3960,-08.8360,+01.707722,-03.963200,+00.241853
+089.255,-011.293,+014.273,+0.556,+1.316,+2.508,-10.5260,-03.4150,-20.8810,+00.548692,-03.612830,-00.250281
+088.526,-014.307,+014.386,+0.657,+1.295,+2.475,-06.8530,-03.5640,-16.7740,-00.344075,-02.116732,+00.150859
+088.435,-015.620,+013.684,+0.704,+1.290,+2.487,-05.3150,-00.5550,-12.9300,-00.557710,-00.673626,+00.193279
+088.521,-016.110,+013.156,+0.731,+1.246,+2.494,-02.4260,-02.4930,-09.3760,-00.400902,-00.307880,+00.183789
+088.800,-016.489,+012.689,+0.750,+1.240,+2.511,-02.0420,-01.6490,-08.8540,-00.289587,-00.285308,+00.347252
+089.078,-016.852,+012.355,+0.750,+1.216,+2.501,-03.1840,-01.8530,-09.2340,-00.257973,-00.246435,+00.238619
+089.242,-017.113,+011.841,+0.773,+1.216,+2.518,-02.9590,-01.6690,-08.9740,-00.492055,-00.159995,+00.175311
+089.421,-017.313,+011.163,+0.777,+1.211,+2.529,-01.6850,-02.1410,-08.1090,-00.539545,-00.156777,+00.201118
+089.677,-017.615,+010.623,+0.796,+1.171,+2.546,-02.4390,-02.1240,-08.5910,-00.389815,-00.242924,+00.294927
+089.977,-018.012,+010.103,+0.809,+1.147,+2.536,-03.7210,-02.0590,-09.0760,-00.374174,-00.279379,+00.297867
+090.244,-018.340,+009.621,+0.814,+1.127,+2.547,-03.3220,-01.3340,-08.9940,-00.315153,-00.232354,+00.252185
+090.507,-018.642,+009.206,+0.837,+1.137,+2.548,-03.3240,-01.5840,-08.8510,-00.281398,-00.217674,+00.270326
+090.831,-018.940,+008.784,+0.842,+1.112,+2.548,-02.9340,-01.6220,-08.7900,-00.272415,-00.217675,+00.343280
+091.322,-019.302,+008.333,+0.865,+1.112,+2.533,-03.0290,-01.6070,-08.8630,-00.244520,-00.271884,+00.510000
+091.992,-019.731,+007.796,+0.883,+1.048,+2.540,-03.1770,-01.3960,-08.9860,-00.295245,-00.309551,+00.639340
+092.734,-020.195,+007.228,+0.915,+1.096,+2.530,-03.4400,-01.3490,-08.6520,-00.252553,-00.325354,+00.667719
+093.489,-020.698,+006.714,+0.929,+1.023,+2.542,-03.3410,-00.6230,-08.6820,-00.184953,-00.397669,+00.634047
+094.087,-021.308,+006.310,+0.966,+1.003,+2.549,-02.9440,-00.6670,-08.7080,-00.158996,-00.531351,+00.499092
+094.458,-022.105,+005.893,+0.993,+0.992,+2.518,-03.1220,-00.7650,-08.7610,-00.319965,-00.747754,+00.284808
+094.544,-023.211,+005.313,+1.035,+0.953,+2.510,-03.6890,-00.7960,-08.7190,-00.549398,-01.100354,+00.097897
+094.435,-024.743,+004.632,+1.072,+0.947,+2.522,-03.8700,-00.6520,-08.7300,-00.664302,-01.482688,-00.025237
+094.101,-026.788,+003.962,+1.141,+0.946,+2.466,-03.9550,-00.8340,-08.8100,-00.718724,-02.017318,-00.194249
+093.522,-029.543,+003.438,+1.237,+0.896,+2.439,-04.5580,-00.6630,-08.4200,-00.686496,-02.674463,-00.372270
+092.591,-033.061,+003.230,+1.316,+0.934,+2.415,-06.0120,-00.2060,-08.7710,-00.505253,-03.394384,-00.708326
+090.497,-037.680,+004.192,+1.436,+0.962,+2.286,-04.1460,-00.8600,-09.6820,-00.108508,-04.630027,-01.487080
+087.373,-044.122,+006.334,+1.606,+0.974,+2.117,-00.6270,+00.0570,-11.9210,+00.174219,-06.567659,-01.408066
+084.381,-052.877,+008.793,+1.772,+1.001,+1.931,-06.3900,-02.6920,-13.1490,-00.006428,-08.551612,-00.344222
+080.899,-063.556,+012.647,+1.969,+1.012,+1.553,-11.1260,-01.6450,-13.7570,+01.151506,-10.026210,+00.361800
+074.598,-075.828,+021.456,+2.153,+0.988,+1.068,-11.8150,-02.6020,-16.9740,+02.404728,-10.535000,+01.874106
+032.965,-086.471,+066.237,+2.226,+0.902,+0.702,-13.5210,-04.7600,-27.5300,+03.275490,-09.779380,+02.113796
-074.675,-084.107,+175.427,+2.235,+0.816,+0.333,-35.4640,-11.9720,-39.3630,+01.362553,-04.023995,+02.163177
-087.538,-084.730,-171.198,+2.248,+0.767,+0.339,-04.1620,-06.1540,-32.3390,+00.822451,+02.491319,+00.991466
-142.453,-088.307,-116.217,+2.276,+0.738,+0.501,+00.5310,-04.1740,-12.4540,-00.029109,+04.275375,+00.483928
+124.547,-085.364,-023.697,+2.286,+0.734,+0.679,+01.5130,-03.0480,-05.4640,-00.518470,+04.381756,+00.194201
+112.467,-080.483,-012.536,+2.277,+0.720,+0.893,-00.7330,-03.6320,-08.1740,-00.870584,+04.542596,+00.007789
+106.721,-074.637,-008.114,+2.245,+0.727,+1.106,-03.5120,-03.9420,-12.3900,-01.050152,+05.678232,-00.241676
+102.588,-067.604,-005.100,+2.167,+0.754,+1.381,-03.6460,-03.2020,-08.4650,-00.580151,+06.424140,-00.586701
+099.314,-060.225,-002.467,+2.047,+0.761,+1.633,-04.4410,-02.5890,-08.2390,-00.108611,+06.545777,-00.956382
+096.672,-052.558,-000.167,+1.914,+0.808,+1.879,-06.0520,-01.5410,-12.2370,+00.206146,+06.864561,-01.194351
+094.723,-044.255,+001.645,+1.689,+0.851,+2.116,-08.1420,-00.3670,-14.2430,+00.349896,+07.434852,-01.183104
+093.740,-035.609,+002.896,+1.435,+0.908,+2.324,-09.1450,+02.0930,-12.0840,+00.724039,+07.481138,-00.770532
+093.761,-027.447,+004.513,+1.205,+0.951,+2.464,-10.9350,+02.3500,-12.0790,+01.841865,+06.789082,-00.268681
+094.267,-020.226,+006.428,+0.961,+1.022,+2.544,-14.0050,-03.4620,-20.5820,+01.838895,+06.111934,-00.223538
+094.278,-012.936,+008.613,+0.690,+1.109,+2.590,-20.8200,-06.3090,-25.2320,+01.902087,+06.503720,-01.335269
+093.199,-004.924,+010.596,+0.418,+1.166,+2.631,-26.6330,-06.7130,-20.2780,+01.161889,+06.748554,-02.424948
+091.718,+002.525,+010.697,+0.109,+1.198,+2.628,-29.9040,-08.0760,-06.9190,-00.530038,+05.624721,-02.448527
+089.937,+008.211,+009.610,-0.135,+1.147,+2.629,-34.1540,+01.0770,+03.8500,-00.434474,+04.047225,-02.322223
+088.786,+012.164,+010.272,-0.292,+1.168,+2.606,-37.1570,+04.9470,+13.3450,+01.324974,+02.566712,-01.046757
+088.118,+013.385,+011.440,-0.366,+1.208,+2.548,-34.5900,-01.7960,+11.3270,+00.754215,-00.029435,-00.802056
+086.506,+012.389,+010.504,-0.334,+1.203,+2.571,-29.9380,-00.9590,+03.4230,-01.030244,-01.693553,-01.346506
+084.420,+010.244,+007.808,-0.297,+1.080,+2.638,+27.1000,-03.9350,-36.8100,-02.288763,-01.890712,-01.373402
+084.245,+006.930,+007.823,-0.172,+1.103,+2.660,+07.2220,+03.4450,+15.5470,+00.670986,-04.229185,+00.766315
+082.772,+000.631,+008.427,+0.040,+1.091,+2.674,-25.0340,+08.9900,-21.7860,+01.328572,-05.477322,-00.718611
+082.187,-004.510,+009.599,+0.192,+1.168,+2.664,-03.6540,-04.7860,-19.5640,+01.017761,-04.144727,+00.828378
+081.094,-009.056,+010.237,+0.386,+1.166,+2.635,-07.1550,-09.3400,-16.5870,-00.321799,-03.978467,-00.818802
+080.289,-012.706,+010.310,+0.510,+1.160,+2.603,-07.4070,-02.7910,-13.9860,+00.053446,-02.910695,+00.189174
+080.086,-014.927,+010.172,+0.588,+1.169,+2.612,-05.5450,+06.0420,-14.8570,+00.009069,-01.314365,+00.505023
+080.640,-015.866,+009.947,+0.639,+1.163,+2.577,-02.3410,-04.8590,-09.1860,-00.097327,-00.561409,+00.554577
+081.500,-016.523,+009.361,+0.667,+1.124,+2.594,-03.1100,-03.1700,-09.1150,-00.401846,-00.346469,+00.866597
+082.392,-016.946,+008.388,+0.685,+1.099,+2.611,-03.4300,-01.9890,-08.8860,-00.711346,-00.220339,+00.745127
+083.151,-017.219,+007.322,+0.699,+1.104,+2.612,-03.3660,-00.7280,-09.3740,-00.708829,-00.121815,+00.600938
+083.660,-017.441,+006.576,+0.726,+1.035,+2.624,-03.1380,-00.4600,-08.9580,-00.404448,-00.155224,+00.344016
+083.963,-017.659,+006.144,+0.736,+1.035,+2.641,-02.7820,-01.1250,-08.9630,-00.260530,-00.174533,+00.258823
+084.302,-017.915,+005.743,+0.740,+1.020,+2.609,-02.9060,-00.9260,-09.0090,-00.253931,-00.191358,+00.333450
+084.686,-018.154,+005.373,+0.754,+0.990,+2.631,-02.9680,-00.6420,-08.8450,-00.189036,-00.171388,+00.337295
+085.081,-018.379,+005.072,+0.772,+0.995,+2.659,-03.0130,-00.3540,-08.8980,-00.142066,-00.161092,+00.348487
+085.446,-018.583,+004.827,+0.772,+0.995,+2.632,-02.8670,-00.5540,-08.7260,-00.093765,-00.154947,+00.295696
+085.841,-018.830,+004.627,+0.800,+0.960,+2.628,-02.7960,-00.8900,-08.8360,-00.061428,-00.214754,+00.390605
+086.400,-019.171,+004.384,+0.800,+0.960,+2.634,-03.1900,-00.7350,-08.5920,-00.042152,-00.293455,+00.539020
+087.098,-019.631,+004.151,+0.832,+0.960,+2.592,-03.2100,-00.2130,-08.5890,+00.034097,-00.396471,+00.616045
+087.769,-020.208,+003.942,+0.865,+0.970,+2.620,-03.2730,-00.2710,-08.7230,-00.003858,-00.496731,+00.556197
+088.313,-020.881,+003.723,+0.887,+0.930,+2.622,-03.3350,-00.5310,-08.8080,-00.054127,-00.602622,+00.442496
+088.811,-021.730,+003.449,+0.924,+0.934,+2.596,-03.4870,-00.3040,-08.7100,-00.092533,-00.788680,+00.443660
+089.121,-022.891,+003.236,+0.961,+0.909,+2.577,-03.6670,+00.0550,-08.6740,-00.021215,-01.114675,+00.206787
+088.989,-024.426,+003.206,+1.016,+0.904,+2.595,-03.1170,-00.5120,-09.1210,-00.122174,-01.538084,-00.156273
+088.324,-026.608,+003.161,+1.076,+0.933,+2.523,-03.6450,-00.6010,-09.0970,-00.455708,-02.216378,-00.571867
+087.024,-029.987,+002.941,+1.178,+0.892,+2.474,-05.3000,-01.5600,-09.1910,-00.853040,-03.521703,-00.992239
+085.431,-035.035,+002.741,+1.302,+0.885,+2.420,-03.8210,-01.9730,-11.7490,-00.855927,-05.142885,-00.922842
+084.248,-042.573,+002.156,+1.528,+0.922,+2.248,-00.5220,-03.9110,-14.6660,-01.337307,-07.582536,-00.137389
+085.723,-053.026,-000.308,+1.808,+0.795,+1.987,-08.7060,-01.3230,-22.8560,-00.495804,-09.701280,+01.461045
+089.899,-065.193,-002.769,+2.038,+0.796,+1.665,-10.3990,+01.3680,-19.8900,+02.238359,-10.852280,+01.701899
+103.427,-076.370,-012.182,+2.236,+0.712,+1.175,-08.9550,-00.1020,-20.6550,+03.057274,-09.358909,+02.940324
+148.338,-082.195,-054.139,+2.332,+0.582,+0.789,-20.5410,-09.8040,-25.7590,+00.051892,-06.578145,+03.246629
+169.368,-081.477,-074.822,+2.331,+0.493,+0.704,-05.7000,-08.5880,-41.7200,+00.324531,+00.569203,+01.357751
+151.978,-079.630,-056.930,+2.341,+0.508,+0.812,+03.6890,-05.8520,-12.2140,+00.964328,+03.568235,-00.042414
+134.602,-077.431,-038.410,+2.313,+0.548,+0.950,+05.2550,-03.4730,-00.9290,+01.431107,+03.301520,-00.904160
+122.125,-075.371,-024.553,+2.300,+0.569,+1.083,+03.5030,-01.0260,-04.1840,+01.555164,+02.670804,-01.388919
+112.131,-072.741,-013.438,+2.263,+0.658,+1.166,-00.7780,+00.1030,-14.0450,+01.137801,+03.300110,-01.584930
+104.127,-068.095,-004.904,+2.185,+0.724,+1.372,-04.2440,+00.8440,-17.8820,+00.714980,+05.048692,-01.718363
+098.675,-061.376,+000.769,+2.089,+0.799,+1.555,-05.7890,+01.6310,-13.6790,+00.631605,+06.330076,-01.888596
+095.163,-053.597,+004.567,+1.919,+0.925,+1.804,-07.0510,+02.4640,-12.0780,+00.768779,+06.890284,-01.984451
+093.048,-045.280,+007.050,+1.693,+0.983,+2.018,-08.0260,+03.0110,-11.0990,+00.722134,+07.166606,-01.868827
+092.093,-036.926,+008.570,+1.500,+1.045,+2.203,-08.7460,+04.7010,-09.6420,+00.831990,+07.070313,-01.427665
+092.170,-029.170,+009.890,+1.224,+1.122,+2.372,-08.9750,+06.0650,-06.5740,+01.511956,+06.308247,-00.786418
+092.874,-022.607,+011.549,+0.998,+1.198,+2.448,-11.6300,+03.2100,-15.2780,+01.710519,+05.554097,-00.377600
+093.963,-016.353,+013.420,+0.823,+1.254,+2.493,-13.7580,-01.2600,-21.5660,+02.161147,+05.596749,-00.346065
+094.658,-009.522,+015.600,+0.579,+1.350,+2.471,-19.0250,-07.2420,-22.9100,+01.766389,+06.116778,-01.383054
+094.518,-002.220,+016.494,+0.303,+1.383,+2.501,-21.8570,-07.6450,-13.6830,+00.093650,+05.896045,-02.091374
+093.793,+004.515,+015.500,+0.059,+1.385,+2.539,-26.6760,-08.1000,-08.2170,-01.329975,+05.255855,-02.331185
+092.562,+010.436,+013.575,-0.181,+1.314,+2.556,-30.5630,+01.0120,+03.7760,-01.328947,+04.340529,-02.171076
+091.711,+014.163,+012.884,-0.347,+1.247,+2.528,-31.6400,+02.6540,+13.4170,+00.025221,+02.037599,-01.047230
+090.707,+015.023,+012.749,-0.393,+1.247,+2.542,-31.4330,-02.9920,+08.7290,-00.129350,-00.240200,-01.142686
+088.876,+013.448,+011.604,-0.370,+1.247,+2.543,-17.0860,+07.6460,+11.3420,-00.908363,-02.917511,-00.890711
+088.758,+010.339,+011.043,-0.255,+1.202,+2.580,+33.7160,+02.2730,-29.3110,-00.589293,-02.719526,+01.614883
+089.794,+005.501,+010.254,-0.089,+1.200,+2.630,-22.8420,+05.9550,+03.3270,-00.733669,-05.070503,+01.126233
+089.229,+000.800,+010.416,+0.100,+1.189,+2.628,-06.0040,+01.3850,-22.2870,+00.342623,-03.473016,-00.209785
+088.278,-002.919,+011.917,+0.229,+1.251,+2.606,-03.1020,-01.5260,-12.3370,+01.593115,-03.237086,-00.123832
+087.385,-006.730,+014.271,+0.344,+1.294,+2.568,-03.3280,-13.4620,-11.3320,+02.160751,-03.631380,-00.114349
+085.827,-010.693,+016.402,+0.492,+1.410,+2.477,-05.8700,-00.4720,-13.0940,+01.269245,-03.500004,-00.253738
+085.088,-013.198,+016.809,+0.588,+1.389,+2.471,-08.9340,-02.8750,-16.9760,-00.530581,-01.271144,-00.032768
+084.877,-013.861,+016.133,+0.598,+1.360,+2.472,-02.1220,-02.5460,-09.8490,-00.622352,-00.441849,+00.068576
+084.970,-014.205,+015.431,+0.616,+1.384,+2.483,-02.6370,-00.9080,-09.7900,-00.537511,-00.179062,+00.182043
+085.070,-014.445,+014.989,+0.625,+1.320,+2.484,-02.7040,-02.1450,-09.3530,-00.267081,-00.196472,+00.086012
+085.056,-014.621,+014.834,+0.630,+1.311,+2.522,-02.8180,-01.9890,-09.5550,-00.058090,-00.113188,+00.015738
+085.033,-014.687,+014.830,+0.630,+1.340,+2.479,-02.4800,-02.0230,-09.0600,+00.003326,-00.053071,-00.026960
+085.004,-014.729,+014.770,+0.630,+1.325,+2.479,-01.8990,-02.8150,-08.1240,-00.126980,-00.067764,+00.010824
+085.125,-014.920,+014.349,+0.644,+1.330,+2.517,-02.1580,-02.0700,-08.3850,-00.485730,-00.160369,+00.230687
+085.559,-015.253,+013.552,+0.653,+1.291,+2.528,-02.0190,-02.8280,-08.4490,-00.706495,-00.222904,+00.532319
+086.179,-015.689,+012.379,+0.685,+1.236,+2.514,-01.8770,-04.2010,-08.0610,-00.988098,-00.282598,+00.608067
+086.799,-016.114,+011.376,+0.708,+1.202,+2.569,-03.5230,-00.6330,-09.8610,-00.561630,-00.216105,+00.572081
+087.284,-016.426,+010.838,+0.703,+1.192,+2.542,-02.7690,-01.2430,-08.8400,-00.268730,-00.187273,+00.381355
+087.607,-016.733,+010.470,+0.740,+1.177,+2.549,-02.4120,-01.7280,-08.7870,-00.232457,-00.238568,+00.290275
+087.882,-017.117,+010.075,+0.763,+1.182,+2.577,-02.5910,-01.6340,-08.6790,-00.333303,-00.326881,+00.302693
+088.268,-017.638,+009.516,+0.777,+1.186,+2.567,-03.0510,-02.0440,-08.7210,-00.389786,-00.422611,+00.441389
+088.737,-018.279,+008.995,+0.800,+1.147,+2.563,-03.0170,-01.3280,-08.9890,-00.285456,-00.530779,+00.471125
+089.105,-019.019,+008.533,+0.828,+1.112,+2.569,-03.2480,-01.0920,-08.9460,-00.326511,-00.661417,+00.343328
+089.288,-019.957,+008.042,+0.869,+1.112,+2.550,-02.7380,-00.7510,-09.1310,-00.425339,-00.875540,+00.229955
+089.220,-021.148,+007.482,+0.920,+1.062,+2.531,-03.3980,-01.1900,-09.0160,-00.569698,-01.173230,+00.004398
+088.809,-022.782,+006.866,+0.948,+1.047,+2.548,-03.8410,-00.7890,-08.8640,-00.686987,-01.597127,-00.251737
+087.814,-025.039,+006.464,+1.017,+1.046,+2.519,-03.8510,-00.4580,-08.8130,-00.690947,-02.310519,-00.730522
+086.292,-028.027,+006.415,+1.113,+1.025,+2.481,-05.1100,-01.0260,-09.0170,-00.594460,-03.026502,-01.038903
+083.702,-032.121,+007.131,+1.201,+1.024,+2.442,-04.9070,-01.4170,-09.1100,-00.396671,-04.309647,-01.850459
+079.905,-037.782,+009.460,+1.348,+1.091,+2.281,-02.9150,+00.2460,-12.9150,+00.627646,-05.901773,-01.970849
+075.157,-045.463,+014.049,+1.546,+1.166,+2.064,-04.2830,+01.5060,-13.3010,+01.784742,-08.039697,-01.288136
+069.081,-055.300,+021.765,+1.730,+1.237,+1.820,-09.9330,-00.6040,-08.6040,+03.244337,-10.030540,-00.188464
+057.572,-066.795,+035.781,+1.942,+1.296,+1.319,-07.4090,-05.3940,-16.3170,+04.022734,-11.867950,+01.290785
+029.455,-076.817,+066.587,+2.084,+1.253,+0.779,-07.9450,+00.1900,-19.7960,+03.615422,-10.817940,+01.779069
-020.504,-078.495,+119.092,+2.106,+1.172,+0.443,-04.1580,+03.3800,-35.8210,+02.986472,-06.911543,+02.077752
-034.112,-078.553,+135.005,+2.124,+1.107,+0.245,-05.6680,-05.3660,-53.9150,+01.637483,+01.145817,+01.068214
-014.959,-082.309,+116.816,+2.157,+1.058,+0.403,-00.3930,-04.9830,-20.4790,-00.237259,+05.044017,+00.833232
+035.280,-083.465,+065.796,+2.189,+1.015,+0.614,-01.0690,-03.2410,-11.9830,-01.379509,+05.330958,+00.745432
+072.349,-079.064,+027.000,+2.199,+1.016,+0.898,-02.9400,-02.5650,-11.8170,-01.961637,+06.479051,+00.719306
+085.977,-071.870,+011.698,+2.158,+0.959,+1.219,-04.1220,-01.2800,-07.0970,-01.581414,+07.002909,+00.748282
+091.210,-064.017,+005.757,+2.084,+0.917,+1.484,-05.1420,-02.1400,-06.9880,-00.551151,+07.038732,+00.584294
+093.341,-056.025,+003.667,+1.956,+0.890,+1.736,-05.8080,-04.1550,-07.1590,-00.081987,+06.989934,+00.207812
+093.865,-048.182,+003.195,+1.767,+0.898,+2.012,-06.0020,-04.2480,-08.6250,-00.027168,+06.768117,-00.336328
+093.548,-040.482,+003.530,+1.601,+0.930,+2.181,-07.3290,-02.4360,-11.1190,+00.233605,+06.664126,-00.698265
+093.226,-032.777,+004.334,+1.366,+0.939,+2.358,-09.1790,-00.6120,-13.6000,+00.754076,+06.705834,-00.612198
+093.400,-025.131,+005.652,+1.095,+0.996,+2.496,-12.0840,-01.0380,-16.5220,+01.390489,+06.616753,-00.365953
+093.859,-017.553,+007.023,+0.878,+1.043,+2.583,-17.1090,-04.6190,-22.4870,+01.262682,+06.687905,-00.436470
+093.955,-009.534,+008.130,+0.579,+1.100,+2.612,-21.3160,-05.0000,-21.5880,+00.865968,+07.063153,-01.122658
+093.339,-001.571,+008.835,+0.261,+1.118,+2.657,-24.4180,-05.4770,-13.1920,+00.346492,+06.450157,-01.786863
+091.875,+005.143,+008.632,+0.017,+1.111,+2.679,-27.2890,-07.8180,-07.0670,-00.391159,+05.073684,-02.430754
+089.606,+010.413,+007.793,-0.218,+1.113,+2.641,-33.8890,+00.7870,+00.1570,-00.265049,+03.856457,-02.399616
+088.314,+013.910,+008.046,-0.366,+1.115,+2.603,-35.4260,+05.1800,+12.4610,+01.008651,+02.134664,-00.962472
+087.823,+014.643,+009.412,-0.403,+1.135,+2.612,-33.0940,-00.9220,+12.5290,+01.133060,-00.382782,-00.356657
+086.976,+012.916,+009.583,-0.357,+1.159,+2.598,-26.6900,-02.3230,+02.7550,-00.064656,-02.197238,-00.526410
+085.866,+009.486,+008.681,-0.246,+1.119,+2.646,+18.9180,+00.3590,-32.6750,-00.810690,-02.814559,-00.375562
+085.420,+004.906,+009.531,-0.117,+1.156,+2.635,+02.6100,-03.4700,+10.1590,+00.238131,-05.204340,-00.010092
+083.823,-000.907,+010.198,+0.100,+1.203,+2.639,-21.3630,+09.7630,-26.4370,+00.220021,-04.603406,-00.394531
+083.850,-004.924,+010.944,+0.266,+1.202,+2.625,-02.5870,-05.5340,-13.1590,+01.058533,-03.097802,+00.869075
+083.206,-008.660,+011.770,+0.381,+1.230,+2.613,-06.7430,-14.6630,-12.8040,+00.103991,-03.342466,-00.369289
+082.436,-012.149,+011.919,+0.510,+1.243,+2.581,-10.8600,+04.8590,-18.0700,+00.799510,-02.740509,+00.416084
+082.121,-014.570,+012.426,+0.602,+1.228,+2.564,-05.8360,-01.9360,-15.0220,+00.268807,-01.423473,+00.201275
+082.506,-015.608,+012.723,+0.630,+1.227,+2.533,-03.1650,-04.3210,-09.8390,+00.322846,-00.658406,+00.527461
+082.993,-016.191,+012.522,+0.667,+1.237,+2.529,-02.9660,-00.4690,-09.7310,-00.156900,-00.303268,+00.518101
+083.379,-016.597,+012.240,+0.685,+1.251,+2.535,-03.4680,-01.5960,-09.0050,-00.149671,-00.284208,+00.271114
+083.455,-016.898,+012.083,+0.699,+1.212,+2.552,-03.1860,-01.8690,-08.9440,-00.102503,-00.216530,+00.045988
+083.408,-017.149,+011.862,+0.713,+1.266,+2.531,-02.7920,-02.1250,-08.8470,-00.264390,-00.228470,+00.022363
+083.476,-017.408,+011.463,+0.713,+1.211,+2.531,-02.7930,-02.5640,-08.8420,-00.358142,-00.212535,+00.150548
+083.708,-017.674,+010.934,+0.731,+1.211,+2.564,-03.0220,-01.8860,-08.9850,-00.421132,-00.155757,+00.293303
+084.112,-017.882,+010.315,+0.754,+1.177,+2.544,-03.1500,-01.8660,-08.9340,-00.439438,-00.107497,+00.390051
+084.616,-018.086,+009.685,+0.763,+1.142,+2.561,-02.9140,-01.5350,-08.7580,-00.395341,-00.102809,+00.468645
+085.151,-018.293,+009.122,+0.759,+1.123,+2.593,-02.7370,-01.1220,-08.8510,-00.291818,-00.106171,+00.462837
+085.658,-018.513,+008.684,+0.782,+1.118,+2.589,-02.9040,-01.0770,-08.7880,-00.208802,-00.143039,+00.431605
+086.082,-018.771,+008.353,+0.791,+1.122,+2.552,-02.9650,-01.1170,-08.7710,-00.146303,-00.191372,+00.361342
+086.448,-019.083,+008.092,+0.800,+1.093,+2.584,-03.1130,-01.3310,-08.7670,-00.117466,-00.254596,+00.328443
+086.857,-019.524,+007.817,+0.828,+1.127,+2.575,-02.9120,-01.4690,-08.8160,-00.123652,-00.384689,+00.433312
+087.357,-020.141,+007.531,+0.851,+1.083,+2.587,-03.2760,-00.8720,-08.7730,-00.092380,-00.530197,+00.480713
+087.783,-020.957,+007.251,+0.888,+1.087,+2.556,-02.8220,-00.8000,-08.7680,-00.138636,-00.774772,+00.406602
+087.954,-022.098,+007.018,+0.929,+1.062,+2.542,-03.5680,-01.1430,-08.9260,-00.142666,-01.066597,+00.171681
+087.816,-023.563,+006.831,+0.984,+1.037,+2.518,-03.5970,-01.0270,-08.7070,-00.282982,-01.420342,-00.045315
+087.337,-025.489,+006.625,+1.026,+1.046,+2.536,-03.6960,-00.9450,-08.9130,-00.393960,-01.906520,-00.241758
+086.425,-027.980,+006.537,+1.104,+1.045,+2.459,-04.7430,-00.9070,-08.5110,-00.437445,-02.448812,-00.626939
+084.775,-031.059,+006.759,+1.205,+1.024,+2.420,-05.7680,-00.8980,-08.5530,-00.508488,-03.099772,-01.148735
+081.940,-035.218,+007.844,+1.284,+1.028,+2.376,-04.4470,-01.0140,-09.7130,-00.305172,-04.348280,-01.855724
+077.906,-041.017,+010.491,+1.436,+1.094,+2.215,+00.7840,+00.1380,-12.2020,+00.334502,-06.184635,-01.836351
+073.507,-049.165,+014.653,+1.638,+1.155,+1.983,-06.4580,-01.8740,-10.9160,+01.237096,-08.347113,-00.735302
+068.761,-059.452,+020.489,+1.827,+1.176,+1.717,-10.8900,-04.2780,-07.8550,+01.931759,-09.945969,+00.608402
+058.995,-070.930,+032.565,+2.029,+1.197,+1.243,-06.9080,-01.5900,-15.3850,+02.942398,-10.448050,+01.770659
+028.352,-081.277,+065.848,+2.148,+1.104,+0.734,-11.9400,-04.4520,-24.2790,+03.156777,-10.324730,+02.464427
-038.034,-083.265,+133.801,+2.189,+1.009,+0.474,-17.0880,+06.6870,-29.5270,+01.793682,-04.443066,+03.224464
-048.831,-085.171,+146.161,+2.212,+0.950,+0.427,-04.3450,-05.1960,-34.8280,+01.875800,+02.694789,+01.737326
+038.536,-088.809,+059.987,+2.267,+0.842,+0.575,+00.8930,-05.6070,-11.8790,+00.583014,+04.309032,+01.233594
+098.364,-084.666,+000.122,+2.263,+0.823,+0.763,+02.2290,-04.9500,-03.9500,-00.392843,+03.990139,+00.667833
+100.526,-080.273,-002.767,+2.272,+0.804,+0.908,+00.6220,-05.4550,-05.7110,-00.790764,+03.787070,+00.107658
+098.062,-075.505,-001.353,+2.217,+0.821,+1.131,-02.4910,-05.8450,-12.2990,-00.909593,+04.586017,-00.548982
+094.406,-069.240,+001.261,+2.167,+0.812,+1.333,-04.3140,-04.6860,-11.9890,-00.630566,+05.937214,-01.203675
+090.929,-061.872,+003.935,+2.048,+0.893,+1.590,-05.5720,-03.2570,-09.8020,-00.334189,+06.544660,-01.718554
+088.172,-053.961,+005.901,+1.864,+0.941,+1.860,-07.4360,-01.3500,-11.6280,-00.327667,+06.926171,-01.902515
+086.505,-045.424,+006.939,+1.680,+0.993,+2.066,-09.6540,+01.2730,-13.2070,-00.100014,+07.523008,-01.624231
+086.115,-036.520,+007.421,+1.403,+1.036,+2.274,-10.1450,+03.6580,-10.6270,+00.403593,+07.695807,-00.933665
+086.942,-028.183,+008.229,+1.127,+1.084,+2.427,-11.0600,+05.0770,-06.5820,+01.634163,+06.831908,-00.068870
+088.468,-021.461,+009.555,+0.952,+1.116,+2.521,-12.9330,+01.6420,-16.0520,+01.621244,+05.626364,+00.536506
+090.549,-015.050,+011.242,+0.736,+1.226,+2.543,-16.9190,-04.6520,-24.8970,+02.205598,+06.067754,+00.555923
+091.836,-007.879,+013.210,+0.473,+1.298,+2.563,-20.8030,-09.5790,-20.0240,+01.591730,+06.417365,-00.812002
+091.893,-000.745,+014.213,+0.261,+1.310,+2.586,-23.1910,-06.7300,-11.9120,+00.508024,+05.721698,-01.700693
+091.219,+005.515,+014.199,-0.011,+1.317,+2.542,-25.9860,-03.8620,-06.0030,-00.217978,+04.832286,-01.984047
+090.642,+010.699,+014.092,-0.232,+1.324,+2.511,-29.5900,+02.9910,+05.1400,+00.126585,+03.800628,-01.203771
+090.764,+013.747,+014.470,-0.343,+1.296,+2.538,-30.9630,+02.2040,+11.0170,+00.337800,+01.819921,-00.266485
+090.559,+014.613,+014.385,-0.370,+1.306,+2.483,-30.4240,-02.4450,+07.0540,-00.462852,+00.080745,-00.574750
+089.164,+014.002,+012.623,-0.370,+1.247,+2.543,-25.8520,+00.4530,+00.2820,-01.475204,-01.282192,-01.199512
+087.443,+012.386,+010.049,-0.347,+1.168,+2.598,+25.2610,+01.3770,-34.5960,-01.847209,-01.594699,-00.886645
+088.314,+009.429,+010.339,-0.228,+1.182,+2.603,+10.3030,-02.6040,+06.7960,+00.692131,-03.476628,+01.764357
+087.442,+003.712,+011.180,-0.020,+1.209,+2.612,-24.3490,+06.6890,-24.8850,+01.701371,-04.952488,-00.345654
+086.907,-000.751,+012.953,+0.118,+1.252,+2.602,-02.1350,+03.4980,-15.3620,+02.027463,-03.542471,+01.021650
+086.260,-004.769,+015.592,+0.280,+1.358,+2.538,-04.0560,-18.8320,-10.2320,+02.200870,-03.674955,-00.225371
+084.700,-008.576,+017.380,+0.409,+1.391,+2.474,-06.5700,-01.2090,-14.5420,+00.913458,-03.339881,-00.211557
+083.638,-011.707,+018.171,+0.487,+1.425,+2.466,-06.6090,-05.3210,-12.4490,+00.122223,-02.533952,-00.029503
+083.014,-013.544,+017.442,+0.575,+1.419,+2.460,-03.9990,+00.2060,-12.7400,-00.982987,-01.186517,+00.063455
+082.928,-014.646,+016.475,+0.616,+1.345,+2.467,-02.3210,-03.3640,-09.2850,-00.851161,-00.875209,+00.284480
+083.102,-015.404,+015.801,+0.635,+1.330,+2.500,-02.8130,-00.5890,-09.9850,-00.272318,-00.468643,+00.315601
+083.176,-015.938,+015.699,+0.653,+1.340,+2.474,-03.7870,-02.8240,-09.4650,-00.018779,-00.353019,+00.102474
+083.138,-016.207,+015.810,+0.671,+1.339,+2.475,-03.2150,-02.1620,-09.2680,+00.137508,-00.181986,-00.002741
+083.052,-016.375,+015.978,+0.676,+1.349,+2.486,-02.3980,-02.7620,-08.5600,+00.094166,-00.158532,-00.016863
+083.039,-016.595,+015.969,+0.685,+1.359,+2.470,-02.6060,-02.9290,-08.6320,-00.068680,-00.203501,+00.084880
+083.188,-016.838,+015.738,+0.699,+1.329,+2.476,-02.8680,-02.7100,-08.5870,-00.221883,-00.152424,+00.229340
+083.456,-017.059,+015.320,+0.690,+1.320,+2.503,-02.9710,-02.3980,-08.6200,-00.338902,-00.103673,+00.284943
+083.828,-017.227,+014.781,+0.727,+1.319,+2.483,-02.7370,-02.4870,-08.5210,-00.387271,-00.055306,+00.375378
+084.266,-017.428,+014.232,+0.722,+1.285,+2.483,-02.7010,-02.1720,-08.8250,-00.344444,-00.088685,+00.423658
+084.732,-017.672,+013.742,+0.740,+1.280,+2.500,-03.2140,-01.9780,-08.7150,-00.318092,-00.121641,+00.408024
+085.145,-017.924,+013.187,+0.754,+1.270,+2.506,-02.9350,-01.9780,-08.7360,-00.395174,-00.146318,+00.376707
+085.570,-018.243,+012.623,+0.773,+1.230,+2.507,-02.9180,-01.8440,-08.5560,-00.390522,-00.229797,+00.433481
+086.176,-018.733,+011.834,+0.786,+1.211,+2.529,-02.6740,-03.0630,-08.5320,-00.574345,-00.367971,+00.698755
+087.065,-019.428,+011.000,+0.823,+1.191,+2.504,-03.2310,-02.1830,-08.7010,-00.385367,-00.491277,+00.887858
+087.925,-020.267,+010.361,+0.874,+1.161,+2.512,-03.6280,-00.9890,-08.8400,-00.296959,-00.637384,+00.735804
+088.406,-021.168,+009.772,+0.888,+1.126,+2.513,-03.3190,-00.9620,-08.8520,-00.426474,-00.745673,+00.389187
+088.439,-022.218,+009.190,+0.934,+1.131,+2.510,-03.6720,-01.1540,-08.7550,-00.537207,-00.993072,+00.045262
+088.069,-023.566,+008.672,+0.980,+1.100,+2.496,-03.5900,-01.2470,-08.7350,-00.599043,-01.368114,-00.157310
+087.478,-025.455,+008.214,+1.030,+1.070,+2.498,-04.1050,-01.4950,-08.9190,-00.600467,-01.921018,-00.274806
+086.511,-028.000,+007.947,+1.104,+1.065,+2.437,-03.3140,-00.9570,-08.9120,-00.651971,-02.513606,-00.516996
+084.760,-031.340,+008.123,+1.210,+1.063,+2.394,-04.6780,-01.1510,-09.2430,-00.547567,-03.459143,-01.122567
+081.918,-035.857,+009.424,+1.302,+1.072,+2.349,-05.0690,-01.0090,-10.0010,-00.005452,-04.662442,-01.613808
+077.883,-041.938,+012.536,+1.459,+1.158,+2.168,-00.8810,-00.0820,-13.6510,+00.875791,-06.366704,-01.507715
+073.151,-049.874,+017.571,+1.652,+1.209,+1.902,-07.3970,-01.8780,-14.2510,+01.653357,-07.997684,-00.692879
+066.396,-059.187,+026.062,+1.804,+1.265,+1.657,-11.1730,-05.7650,-14.9400,+02.841810,-09.305911,+00.110416
+054.416,-069.538,+040.616,+1.997,+1.290,+1.198,-12.9930,-03.9990,-12.8710,+03.142998,-10.202700,+01.816303
+024.879,-077.931,+072.786,+2.107,+1.213,+0.721,-11.7160,-04.7410,-21.0530,+03.398988,-09.575639,+02.160905
-021.778,-079.648,+121.826,+2.139,+1.132,+0.412,-31.3310,-03.6910,-27.6350,+02.544964,-05.805980,+02.675806
-029.858,-080.768,+130.477,+2.148,+1.083,+0.306,-06.1120,-05.0860,-39.5610,+00.938884,+01.869918,+01.671427
-005.059,-084.490,+105.646,+2.185,+1.004,+0.490,-00.6720,-03.5020,-16.8600,-00.568762,+04.587067,+01.448553
+057.344,-084.623,+042.411,+2.222,+0.956,+0.674,+01.3840,-02.5750,-05.7200,-01.059442,+04.609703,+01.402424
+085.822,-080.625,+013.138,+2.240,+0.893,+0.896,+00.8150,-03.3490,-05.7500,-00.661666,+04.426151,+01.085461
+093.713,-075.390,+004.857,+2.204,+0.860,+1.098,-02.2220,-06.2660,-11.5530,-00.464875,+05.037999,+00.429064
+094.897,-068.816,+003.003,+2.144,+0.852,+1.342,-04.5690,-07.3910,-13.0830,-00.710807,+06.158092,-00.406968
+093.321,-061.166,+003.594,+2.034,+0.864,+1.584,-05.8680,-06.1020,-10.9880,-00.678183,+06.845814,-01.271086
+090.947,-052.909,+004.990,+1.859,+0.911,+1.860,-07.3280,-03.3150,-09.8540,-00.395907,+07.203092,-01.816533
+089.093,-044.416,+006.258,+1.661,+0.959,+2.092,-08.7250,-00.2400,-10.8030,+00.079057,+07.298854,-01.719749
+088.375,-035.910,+007.190,+1.417,+1.026,+2.290,-10.3650,+01.7600,-10.9420,+00.540835,+07.302657,-01.048124
+089.050,-027.988,+008.027,+1.132,+1.074,+2.395,-12.0940,+02.3930,-09.5310,+01.336371,+06.541421,-00.064326
+090.601,-021.201,+008.943,+0.975,+1.115,+2.517,-14.6070,-00.7070,-18.7990,+01.354334,+05.901061,+00.562738
+092.534,-014.228,+010.120,+0.722,+1.162,+2.548,-17.5680,-06.1070,-23.0590,+01.601915,+06.483842,+00.407271
+093.589,-006.888,+011.523,+0.450,+1.210,+2.584,-19.4100,-08.9430,-15.7410,+01.216183,+06.303095,-00.827864
+093.224,-000.001,+012.476,+0.243,+1.227,+2.618,-22.4510,-07.5820,-11.7980,+00.508047,+05.497623,-01.940987
+091.808,+006.139,+012.308,-0.034,+1.254,+2.574,-25.1370,-03.5600,-05.9280,-00.322179,+04.635263,-02.532512
+090.378,+011.151,+011.891,-0.251,+1.217,+2.570,-29.4780,+03.0650,+04.6110,+00.005885,+03.531334,-01.704405
+089.801,+014.130,+012.320,-0.361,+1.222,+2.554,-31.6860,+04.0830,+10.3580,+00.660661,+01.749132,-00.712888
+089.204,+014.867,+012.537,-0.398,+1.247,+2.536,-29.6610,-00.7320,+08.1100,-00.058385,-00.228700,-00.722427
+088.061,+013.131,+011.241,-0.357,+1.183,+2.565,-17.7560,+11.0930,+07.4450,-01.483762,-02.916355,-00.279861
+088.094,+010.186,+010.234,-0.269,+1.168,+2.617,+26.9530,+07.7030,-20.3500,-00.754191,-02.732366,+01.496035
+088.872,+004.714,+009.701,-0.052,+1.171,+2.638,-22.7780,-01.1590,-05.0460,+00.528971,-05.341037,+00.647694
+087.815,-000.054,+010.175,+0.128,+1.198,+2.635,-04.9690,+04.1600,-19.5820,+00.783277,-03.635248,-00.402699
+086.837,-003.970,+011.968,+0.238,+1.217,+2.629,-03.2330,-05.7620,-11.9150,+01.693927,-03.441409,-00.098731
+085.656,-008.052,+014.233,+0.395,+1.347,+2.517,-04.4490,-07.1810,-14.1280,+01.782708,-03.878706,-00.222444
+084.661,-011.605,+015.491,+0.505,+1.341,+2.505,-14.1820,-02.3270,-18.3520,+00.721256,-02.463505,+00.113063
+084.250,-013.536,+015.174,+0.575,+1.321,+2.509,-05.8920,-01.8440,-13.8460,-00.702671,-01.166433,+00.144361
+084.310,-014.355,+014.270,+0.611,+1.306,+2.516,-02.9210,-02.6780,-10.0960,-00.774242,-00.527676,+00.269224
+084.671,-014.971,+013.341,+0.653,+1.291,+2.507,-01.8990,-01.0990,-09.4790,-00.700199,-00.455376,+00.557534
+085.314,-015.733,+012.389,+0.667,+1.232,+2.540,-02.5140,-02.7600,-09.0940,-00.663479,-00.554184,+00.688495
+085.885,-016.384,+011.599,+0.699,+1.212,+2.547,-02.9610,-02.1110,-09.2600,-00.490384,-00.400897,+00.507739
+086.267,-016.813,+011.022,+0.726,+1.172,+2.522,-02.6350,-01.4070,-08.7910,-00.354839,-00.273842,+00.352238
+086.584,-017.152,+010.597,+0.740,+1.187,+2.560,-03.0700,-01.2980,-08.8530,-00.258530,-00.228263,+00.288175
+086.806,-017.429,+010.270,+0.745,+1.172,+2.555,-03.2030,-01.4790,-08.9500,-00.208428,-00.179198,+00.198392
+087.014,-017.642,+009.996,+0.750,+1.167,+2.555,-02.7780,-01.2710,-08.8410,-00.174672,-00.144144,+00.216559
+087.274,-017.855,+009.703,+0.773,+1.177,+2.551,-02.9460,-01.5900,-08.7230,-00.186293,-00.144624,+00.258583
+087.554,-018.063,+009.423,+0.786,+1.142,+2.546,-02.7710,-01.2670,-08.7580,-00.157127,-00.141972,+00.257737
+087.856,-018.296,+009.173,+0.791,+1.137,+2.546,-02.9470,-01.2280,-08.7700,-00.124721,-00.167171,+00.292655
+088.200,-018.561,+008.928,+0.805,+1.152,+2.574,-02.9890,-01.1130,-08.7160,-00.115801,-00.198955,+00.326238
+088.539,-018.888,+008.675,+0.832,+1.107,+2.548,-02.9740,-01.2370,-08.8000,-00.129291,-00.267683,+00.322428
+088.892,-019.300,+008.428,+0.837,+1.092,+2.559,-03.1530,-01.2900,-08.7410,-00.097882,-00.338415,+00.349543
+089.244,-019.821,+008.211,+0.860,+1.097,+2.566,-03.3890,-01.4010,-08.7650,-00.082291,-00.458327,+00.353377
+089.625,-020.494,+007.979,+0.888,+1.087,+2.546,-03.1530,-01.4110,-08.7900,-00.102859,-00.600391,+00.427432
+090.059,-021.415,+007.673,+0.929,+1.091,+2.537,-02.9890,-00.9940,-08.9700,-00.166389,-00.855599,+00.463136
+090.372,-022.719,+007.262,+0.957,+1.047,+2.543,-03.5770,-01.1290,-08.8790,-00.299418,-01.252557,+00.347901
+090.441,-024.429,+006.855,+1.021,+1.031,+2.520,-04.0530,-00.8080,-08.7780,-00.348047,-01.610252,+00.137351
+090.094,-026.607,+006.546,+1.090,+1.016,+2.474,-03.9690,-00.9100,-08.6780,-00.445517,-02.128087,-00.200230
+089.121,-029.595,+006.427,+1.178,+1.010,+2.452,-05.0800,-01.6160,-08.7120,-00.538476,-03.099085,-00.619195
+087.540,-033.894,+006.448,+1.302,+1.047,+2.355,-05.3070,-01.4440,-09.6220,-00.717831,-04.370382,-00.833285
+085.263,-039.926,+007.238,+1.463,+1.006,+2.244,-04.0240,-01.4760,-11.8560,-00.409673,-06.090589,-00.939310
+082.900,-048.321,+008.293,+1.643,+1.008,+2.091,-00.9380,-00.6240,-14.4240,-00.744338,-08.269368,-00.072117
+081.239,-058.963,+009.959,+1.896,+1.009,+1.732,-10.9420,-00.0870,-09.6260,+01.110889,-09.986331,+00.854285
+078.348,-070.896,+015.107,+2.107,+0.990,+1.275,-07.7920,-02.0720,-12.5450,+02.139520,-10.373850,+01.444227
+072.163,-082.620,+024.712,+2.213,+0.928,+0.926,-16.8490,-09.2560,-28.1740,+03.075570,-09.276795,+02.190872
+030.411,-089.392,+067.326,+2.258,+0.842,+0.602,-23.4620,-06.8360,-45.6240,+00.153239,-02.775747,+02.343527
+113.811,-088.071,-016.013,+2.272,+0.788,+0.635,+00.4040,-06.2930,-24.6570,+00.192926,+02.683842,+00.727218
+107.628,-084.677,-010.046,+2.281,+0.784,+0.769,+04.3030,-03.7750,-08.1700,-00.281227,+02.832523,+00.152575
+103.121,-081.659,-005.809,+2.268,+0.794,+0.887,+03.2720,-02.5960,-07.8360,-00.129347,+02.653946,-00.234093
+099.063,-078.286,-001.869,+2.240,+0.785,+1.014,+00.5290,-03.2740,-14.4990,-00.087352,+03.321341,-00.532147
+095.498,-073.161,+001.221,+2.190,+0.792,+1.178,-02.4860,-03.0690,-18.1780,-00.405230,+05.223796,-00.869112
+092.819,-066.152,+003.369,+2.112,+0.853,+1.432,-03.3250,-00.4700,-11.5710,-00.151675,+06.411319,-01.157341
+090.939,-058.445,+005.207,+1.965,+0.934,+1.698,-05.3750,+00.9340,-10.1900,+00.281723,+06.754572,-01.283199
+090.012,-050.340,+006.244,+1.813,+0.942,+1.928,-07.3670,+01.9470,-12.4880,+00.195311,+07.143929,-01.076103
+090.085,-041.817,+006.498,+1.597,+0.984,+2.143,-09.0120,+03.1910,-12.6870,+00.335497,+07.530688,-00.582028
+091.040,-033.134,+006.625,+1.325,+1.037,+2.329,-09.7280,+03.2650,-10.3200,+00.821948,+07.580081,+00.029589
+092.426,-025.108,+007.406,+1.100,+1.025,+2.475,-10.7860,+01.6370,-10.6210,+01.563814,+06.682401,+00.241522
+093.688,-018.061,+008.496,+0.874,+1.097,+2.534,-12.9310,-01.9740,-20.7300,+01.167814,+06.102219,+00.120221
+094.604,-010.786,+009.479,+0.607,+1.174,+2.608,-17.3190,-05.3780,-24.8850,+01.044095,+06.625721,-00.577264
+094.414,-003.152,+010.776,+0.372,+1.176,+2.646,-21.6820,-04.3240,-15.5140,+01.061510,+06.282144,-01.746711
+093.183,+003.819,+010.857,+0.072,+1.204,+2.616,-27.1600,-07.2470,-12.3270,-00.683602,+05.463992,-02.435269
+091.165,+009.668,+008.761,-0.191,+1.113,+2.616,-31.5260,+00.1440,+00.2450,-01.819256,+04.215494,-02.517863
+089.936,+013.526,+007.491,-0.334,+1.060,+2.642,-35.5510,+08.2000,+09.3470,-00.054552,+02.533662,-00.797952
+090.044,+015.033,+008.411,-0.389,+1.105,+2.597,-34.2890,+00.5190,+10.0640,+00.823358,+00.553754,+00.092591
+089.607,+014.312,+008.272,-0.380,+1.085,+2.597,-28.6610,-02.0180,+03.5780,-00.551014,-01.337726,-00.572143
+088.395,+012.174,+007.052,-0.334,+1.080,+2.642,-07.5590,+06.2950,-04.6600,-00.963909,-02.017168,-00.797082
+088.692,+010.138,+007.589,-0.241,+1.099,+2.625,+38.1670,+09.2450,-11.7660,+01.563153,-01.858239,+01.728690
+089.235,+004.909,+010.396,-0.039,+1.180,+2.622,-25.7890,-13.5200,+04.1330,+01.189122,-05.586975,-00.330119
+087.229,-000.981,+012.639,+0.123,+1.228,+2.629,-11.9690,+09.2660,-25.4390,+01.779554,-04.855097,-00.232181
+086.527,-006.182,+015.530,+0.330,+1.343,+2.541,-08.6390,-09.9820,-16.3970,+02.520949,-04.456316,+00.633269
+085.220,-010.388,+017.308,+0.483,+1.391,+2.483,-13.3850,-06.2310,-20.0510,+00.738657,-03.190105,-00.178073
+084.342,-013.110,+017.604,+0.552,+1.385,+2.464,-05.2940,-04.0620,-14.4370,-00.228359,-02.066982,+00.117806
+083.949,-014.738,+016.867,+0.630,+1.384,+2.457,-02.8020,-01.9150,-10.9770,-00.877270,-01.249173,+00.135076
+083.956,-015.850,+016.019,+0.667,+1.379,+2.469,-03.6270,-01.6690,-10.5820,-00.567039,-00.749481,+00.337948
+084.197,-016.625,+015.523,+0.690,+1.344,+2.476,-03.2660,-01.7930,-09.8950,-00.254061,-00.472120,+00.350278
+084.360,-017.135,+015.424,+0.713,+1.329,+2.466,-03.8460,-02.6010,-09.3640,+00.063110,-00.320563,+00.163949
+084.359,-017.406,+015.454,+0.722,+1.354,+2.461,-03.5230,-02.0740,-09.1370,+00.016527,-00.176375,+00.009854
+084.304,-017.595,+015.442,+0.727,+1.334,+2.467,-02.7450,-02.8250,-08.5680,-00.074233,-00.187314,+00.016207
+084.353,-017.831,+015.198,+0.736,+1.324,+2.446,-02.7690,-02.5860,-08.6040,-00.267223,-00.180740,+00.159839
+084.603,-018.093,+014.695,+0.754,+1.304,+2.463,-03.1210,-02.2220,-08.7600,-00.418013,-00.152645,+00.308019
+084.995,-018.334,+014.003,+0.759,+1.285,+2.485,-03.2710,-02.3900,-08.6400,-00.529521,-00.114115,+00.396300
+085.444,-018.560,+013.374,+0.777,+1.265,+2.480,-03.2720,-01.9000,-08.7350,-00.351524,-00.086505,+00.410331
+085.933,-018.760,+012.884,+0.782,+1.240,+2.497,-03.0040,-01.8020,-08.7530,-00.257367,-00.078943,+00.440639
+086.418,-018.989,+012.481,+0.800,+1.235,+2.509,-03.0390,-01.8670,-08.7860,-00.188055,-00.133175,+00.429339
+086.866,-019.281,+012.083,+0.800,+1.225,+2.492,-03.0630,-01.7200,-08.5510,-00.286256,-00.197546,+00.416728
+087.409,-019.690,+011.433,+0.842,+1.210,+2.494,-02.9420,-02.4660,-08.3670,-00.450003,-00.302089,+00.588066
+088.168,-020.315,+010.752,+0.865,+1.175,+2.506,-03.2230,-01.9370,-08.6310,-00.302711,-00.470855,+00.762061
+088.954,-021.067,+010.119,+0.902,+1.165,+2.503,-03.4370,-01.1470,-08.7900,-00.327674,-00.555867,+00.693123
+089.434,-021.936,+009.466,+0.929,+1.126,+2.510,-03.4990,-00.9750,-08.8860,-00.485682,-00.747470,+00.367603
+089.368,-022.977,+008.823,+0.980,+1.101,+2.507,-03.8140,-01.1000,-08.7970,-00.653577,-01.025274,-00.045717
+088.802,-024.379,+008.199,+1.003,+1.085,+2.486,-03.7480,-01.2930,-08.6550,-00.773115,-01.454331,-00.379363
+087.822,-026.379,+007.769,+1.077,+1.065,+2.458,-04.0660,-01.2050,-08.8060,-00.741357,-02.067127,-00.602788
+086.413,-029.041,+007.633,+1.118,+1.045,+2.449,-05.0250,-00.7660,-08.9650,-00.616623,-02.677372,-00.889523
+083.927,-032.569,+008.487,+1.229,+1.053,+2.357,-06.2910,-01.3410,-08.5420,-00.187842,-03.748952,-01.786039
+080.185,-037.475,+010.919,+1.348,+1.130,+2.244,-01.9860,-00.4620,-11.4860,+00.566078,-05.294731,-01.911924
+075.403,-044.149,+015.271,+1.477,+1.182,+2.110,-04.0370,-00.6410,-12.3030,+01.381428,-07.045633,-01.456585
+069.414,-052.425,+022.218,+1.675,+1.272,+1.807,-08.0510,-00.0080,-11.1760,+02.602375,-08.360593,-00.824148
+060.172,-061.946,+033.480,+1.859,+1.337,+1.428,-06.9890,-02.6890,-16.6300,+03.822241,-10.054660,+00.822657
+041.298,-072.207,+054.902,+1.992,+1.314,+1.048,-17.8410,-06.0880,-20.2890,+03.171800,-10.804240,+01.358639
+001.094,-077.050,+097.245,+2.070,+1.266,+0.531,-19.8690,-08.0750,-32.9920,+02.114693,-08.050429,+01.552650
-014.336,-078.307,+113.637,+2.088,+1.172,+0.393,-20.6370,-03.2970,-55.5610,-00.018460,+00.682346,+01.354919
+002.013,-081.279,+098.173,+2.134,+1.113,+0.514,-00.9880,-02.4000,-20.6370,+00.244789,+04.148311,+01.885647
+039.843,-082.738,+060.368,+2.185,+1.040,+0.667,+02.6620,-01.9060,-05.0180,-00.568524,+04.034563,+02.037164
+072.678,-081.119,+026.930,+2.208,+0.942,+0.835,+01.1930,-03.2310,-05.4920,-00.892243,+03.630559,+01.804755
+089.065,-077.264,+009.669,+2.199,+0.884,+1.006,-01.8480,-05.0610,-14.3080,-01.110468,+04.427717,+01.286717
+095.171,-071.042,+002.354,+2.176,+0.846,+1.242,-03.9120,-05.9190,-13.8830,-01.240383,+06.142070,+00.619099
+095.994,-063.552,+000.334,+2.080,+0.819,+1.554,-04.4960,-05.8720,-08.3040,-00.962518,+06.636316,-00.176603
+094.683,-055.975,+000.488,+1.951,+0.817,+1.790,-05.5370,-05.4390,-08.7340,-00.815102,+06.593487,-00.854135
+092.851,-048.308,+001.074,+1.762,+0.839,+2.017,-07.5830,-03.3550,-11.1380,-00.684706,+06.767389,-01.129951
+091.413,-040.399,+001.668,+1.532,+0.863,+2.243,-08.5210,-01.2300,-11.7560,-00.119782,+06.920917,-00.961936
+090.767,-032.480,+002.445,+1.321,+0.905,+2.394,-09.2460,-00.4070,-10.5350,+00.667369,+06.796308,-00.506859
+090.767,-025.225,+003.873,+1.081,+0.937,+2.518,-10.3210,-01.8160,-11.3710,+01.382381,+05.996472,-00.295825
+091.031,-018.853,+005.606,+0.851,+0.979,+2.572,-12.1130,-02.8510,-18.7820,+01.871469,+05.435325,-00.229555
+091.257,-012.306,+008.387,+0.657,+1.070,+2.611,-16.8160,-04.8800,-22.5470,+02.824772,+05.903457,-00.786150
+090.847,-005.022,+011.448,+0.367,+1.235,+2.575,-22.8410,-07.0830,-20.5470,+02.284856,+06.301123,-01.799339
+089.940,+002.218,+012.796,+0.072,+1.243,+2.573,-25.9860,-05.4940,-09.5380,+00.469015,+05.670095,-02.248096
+088.643,+008.273,+012.347,-0.135,+1.245,+2.596,-31.8610,+01.5150,-03.1080,-00.508260,+04.535438,-02.075430
+088.364,+012.873,+011.865,-0.338,+1.227,+2.544,-34.1930,+05.4720,+10.6410,-00.109749,+03.299459,-00.420278
+089.069,+014.975,+012.612,-0.403,+1.223,+2.515,-34.9280,-00.4070,+10.7230,+00.608676,+01.113825,+00.327084
+088.802,+015.153,+012.299,-0.417,+1.257,+2.525,-30.4780,-06.3960,+04.6720,-00.824564,-00.515597,-00.756133
+086.938,+013.820,+009.793,-0.403,+1.149,+2.553,+05.4820,+05.8390,-14.1870,-02.405514,-01.712422,-01.488526
+086.814,+011.887,+009.182,-0.329,+1.095,+2.599,+31.7450,+10.2160,-05.0610,+00.648422,-02.169191,+01.417186
+086.891,+006.109,+010.096,-0.163,+1.142,+2.649,-27.0550,+07.3800,-10.6960,+01.471989,-05.802192,+00.442742
+085.935,+000.619,+011.662,+0.068,+1.209,+2.611,-06.1140,+05.6640,-25.4150,+01.445217,-04.263165,+00.422830
+085.231,-003.898,+013.574,+0.234,+1.271,+2.564,-06.1620,-13.0840,-10.9380,+01.702203,-03.963511,-00.046627
+083.746,-008.189,+015.426,+0.353,+1.318,+2.547,-08.1650,-00.8830,-16.3670,+01.513471,-03.828581,-00.161434
+082.668,-011.837,+016.648,+0.496,+1.376,+2.489,-07.7130,-06.4370,-13.7710,+00.569602,-02.909719,+00.000968
+082.034,-013.950,+016.350,+0.579,+1.355,+2.487,-04.1720,+00.9090,-12.2720,-00.784531,-01.256508,+00.065298
+081.956,-014.947,+015.541,+0.588,+1.321,+2.493,-02.3550,-02.6220,-09.3300,-00.668509,-00.701991,+00.238591
+082.194,-015.679,+014.925,+0.625,+1.315,+2.457,-02.8260,-00.9310,-09.6200,-00.328434,-00.489960,+00.405535
+082.448,-016.246,+014.709,+0.653,+1.310,+2.502,-04.0470,-02.6160,-09.9790,-00.015547,-00.322196,+00.265884
+082.616,-016.550,+014.493,+0.662,+1.286,+2.497,-03.0590,-02.0510,-08.9050,-00.194853,-00.173681,+00.180475
+082.715,-016.750,+014.194,+0.685,+1.315,+2.487,-02.7520,-02.0780,-08.7640,-00.272726,-00.142358,+00.106272
+082.851,-016.959,+013.712,+0.681,+1.300,+2.497,-02.6940,-02.2860,-08.7340,-00.444656,-00.152959,+00.198651
+083.171,-017.209,+013.019,+0.685,+1.246,+2.520,-02.4690,-02.5280,-08.6670,-00.567664,-00.158524,+00.388834
+083.703,-017.498,+012.308,+0.722,+1.206,+2.495,-03.2430,-01.7420,-08.6420,-00.441356,-00.130892,+00.505409
+084.186,-017.752,+011.768,+0.736,+1.192,+2.517,-03.0420,-01.4670,-08.7440,-00.302886,-00.135719,+00.396912
+084.570,-017.990,+011.330,+0.740,+1.182,+2.544,-03.0320,-01.6300,-08.7180,-00.279088,-00.155756,+00.332967
+084.940,-018.290,+010.871,+0.750,+1.187,+2.528,-02.8420,-01.7170,-08.6790,-00.310976,-00.223864,+00.387010
+085.399,-018.695,+010.315,+0.759,+1.142,+2.524,-03.1340,-01.9230,-08.7340,-00.357896,-00.314158,+00.472219
+085.935,-019.173,+009.790,+0.786,+1.147,+2.546,-03.2550,-01.3260,-08.8320,-00.265503,-00.347892,+00.524681
+086.492,-019.730,+009.385,+0.819,+1.127,+2.537,-03.2680,-01.2910,-08.8080,-00.149632,-00.438600,+00.533156
+087.009,-020.427,+009.057,+0.846,+1.146,+2.533,-03.4380,-00.8430,-08.8170,-00.119247,-00.589024,+00.484123
+087.353,-021.255,+008.757,+0.883,+1.087,+2.529,-03.2490,-01.0190,-08.8090,-00.198808,-00.714846,+00.316105
+087.429,-022.257,+008.410,+0.920,+1.096,+2.504,-03.4810,-01.3080,-08.8370,-00.321156,-00.957667,+00.132259
+087.214,-023.590,+008.077,+0.957,+1.081,+2.506,-04.0470,-00.9330,-08.7310,-00.368510,-01.318377,-00.080601
+086.624,-025.387,+007.836,+1.007,+1.056,+2.503,-03.5800,-01.0050,-08.7600,-00.473637,-01.814635,-00.364035
+085.489,-027.795,+007.784,+1.067,+1.055,+2.452,-02.9960,-00.6170,-08.5480,-00.534723,-02.431684,-00.701138
+083.682,-030.903,+008.044,+1.155,+1.064,+2.413,-04.5310,-00.9150,-08.7260,-00.550118,-03.212198,-01.258940
+080.501,-035.188,+009.382,+1.252,+1.058,+2.337,-03.7420,-01.0070,-10.4680,-00.124934,-04.542460,-01.922382
+076.158,-041.162,+012.538,+1.404,+1.149,+2.192,+00.7250,+00.3140,-14.1260,+00.679151,-06.373100,-01.742180
+071.166,-049.235,+017.597,+1.602,+1.200,+1.943,-05.5730,-02.2070,-15.5370,+01.392903,-08.336308,-00.760427
+064.568,-059.345,+026.220,+1.781,+1.280,+1.688,-10.7000,+01.7070,-09.7200,+03.396334,-10.370620,+00.597953
+050.654,-070.845,+043.454,+1.997,+1.290,+1.156,-12.1590,-08.5950,-16.9290,+03.379040,-11.206020,+02.088988
+015.496,-079.056,+082.375,+2.098,+1.183,+0.641,-12.8900,-04.8030,-30.4180,+04.706893,-09.289310,+02.838670
-020.032,-081.079,+120.664,+2.125,+1.064,+0.423,-53.4560,-21.9880,-20.0270,+02.029103,-03.510246,+02.150307
-003.438,-082.656,+104.427,+2.166,+1.068,+0.467,-03.5030,-05.8420,-18.9960,+00.435697,+03.215719,+00.770717
+028.532,-083.648,+071.836,+2.176,+1.005,+0.618,+03.2410,-00.4230,-05.2130,-00.773767,+02.969644,+01.162809
+058.140,-083.117,+041.550,+2.203,+0.961,+0.749,+02.1080,-01.0510,-06.1080,-00.605901,+02.669400,+01.259347
+079.337,-080.616,+020.128,+2.204,+0.913,+0.872,-00.9410,-04.2190,-14.3070,-00.306481,+03.673561,+01.024468
+089.654,-075.379,+009.449,+2.190,+0.870,+1.092,-03.1300,-06.8280,-15.0150,-00.675142,+05.582755,+00.373226
+092.332,-068.364,+006.023,+2.126,+0.862,+1.341,-03.1800,-05.2000,-07.8740,-00.705060,+06.327690,-00.365413
+092.080,-061.055,+005.635,+2.016,+0.928,+1.588,-04.5720,-04.2590,-08.0140,-00.437485,+06.362882,-00.937978
+091.054,-053.434,+006.042,+1.841,+0.941,+1.849,-06.9350,-02.8030,-11.3490,-00.390252,+06.734915,-01.249386
+090.306,-045.211,+006.510,+1.666,+0.959,+2.066,-09.2320,+00.2990,-13.6980,+00.154136,+07.319446,-01.121689
+090.458,-036.282,+007.258,+1.417,+1.021,+2.264,-11.8970,+02.5470,-13.7970,+01.088523,+08.027896,-00.592568
+091.513,-027.425,+008.455,+1.137,+1.094,+2.423,-11.8210,+01.2330,-07.2820,+01.723375,+07.280917,-00.143325
+092.667,-020.349,+009.658,+0.925,+1.121,+2.504,-12.9950,-01.4050,-16.4860,+01.187345,+05.767117,-00.040757
+093.739,-013.413,+010.715,+0.690,+1.173,+2.542,-18.4690,-06.0950,-27.0540,+01.183587,+06.465338,-00.452282
+093.907,-005.830,+011.841,+0.399,+1.235,+2.582,-20.4460,-05.9790,-16.1300,+00.904698,+06.330667,-01.563210
+093.005,+001.112,+012.430,+0.169,+1.271,+2.593,-24.7010,-06.9650,-12.9380,+00.105262,+05.427307,-02.281078
+091.344,+007.250,+011.568,-0.089,+1.225,+2.577,-28.1280,-04.8040,-02.3820,-00.908391,+04.571505,-02.605054
+089.807,+011.929,+011.032,-0.301,+1.178,+2.568,-33.4720,+04.0230,+07.8510,+00.288398,+03.200082,-01.653843
+088.996,+014.459,+011.665,-0.403,+1.193,+2.547,-34.3790,+00.3050,+11.4620,+00.603550,+01.247632,-00.936509
+087.663,+014.665,+010.833,-0.435,+1.164,+2.541,-31.4110,-00.2870,+07.4220,-01.032745,-00.810207,-01.328119
+086.429,+012.372,+009.197,-0.366,+1.119,+2.576,+01.1620,+05.8410,-13.9890,-00.617232,-02.861401,-00.031322
+087.419,+009.148,+009.096,-0.251,+1.089,+2.624,+15.2130,-01.4480,-13.3910,+00.952961,-03.056085,+02.174586
+086.820,+003.666,+009.815,-0.052,+1.151,+2.606,-22.1330,+02.8160,-14.0990,+00.896130,-05.357548,-00.732929
+085.664,-000.721,+011.134,+0.104,+1.174,+2.602,-02.8770,+15.6340,-17.1070,+01.589829,-03.448289,+00.477406
+085.511,-004.621,+013.379,+0.224,+1.236,+2.585,-04.0480,-20.1860,-09.5090,+01.879833,-03.339964,+00.091074
+084.079,-008.277,+014.902,+0.358,+1.304,+2.521,-05.4370,+00.6910,-14.0760,+00.962292,-03.248797,-00.379232
+083.130,-011.317,+015.758,+0.464,+1.332,+2.493,-06.5840,-06.3850,-12.5540,+00.495517,-02.433019,-00.087025
+082.497,-013.382,+015.595,+0.524,+1.321,+2.501,-05.0000,+02.3660,-15.1610,-00.328259,-01.415509,+00.118295
+082.381,-014.505,+015.080,+0.575,+1.311,+2.493,-02.1650,-04.9040,-09.3010,-00.659671,-00.842773,+00.156802
+082.506,-015.178,+014.478,+0.602,+1.281,+2.505,-02.1420,-00.9270,-09.0980,-00.372416,-00.487338,+00.267050
+082.610,-015.741,+014.307,+0.621,+1.296,+2.511,-03.2340,-01.7330,-09.5140,-00.045298,-00.414496,+00.178088
+082.647,-016.049,+014.266,+0.630,+1.286,+2.512,-02.9130,-01.9340,-09.0360,-00.031223,-00.200829,+00.064974
+082.636,-016.244,+014.182,+0.639,+1.266,+2.496,-02.5330,-02.6450,-08.6830,-00.105391,-00.160192,+00.035988
+082.689,-016.479,+013.959,+0.648,+1.261,+2.518,-02.3550,-02.7140,-08.5610,-00.232099,-00.212789,+00.136297
+082.913,-016.787,+013.554,+0.657,+1.246,+2.508,-02.8170,-02.0250,-08.8090,-00.332586,-00.211960,+00.303594
+083.247,-017.090,+013.054,+0.676,+1.212,+2.514,-03.4650,-01.7600,-09.0430,-00.330714,-00.171845,+00.334782
+083.595,-017.310,+012.573,+0.694,+1.202,+2.536,-03.0390,-01.8210,-08.8010,-00.316613,-00.112421,+00.317559
+083.945,-017.531,+012.084,+0.694,+1.221,+2.493,-02.5880,-01.9230,-08.6920,-00.363146,-00.151534,+00.346505
+084.379,-017.874,+011.520,+0.717,+1.197,+2.527,-02.9110,-01.8570,-08.6910,-00.385814,-00.253263,+00.448277
+084.877,-018.332,+010.944,+0.736,+1.157,+2.555,-03.1160,-01.7970,-08.7150,-00.327984,-00.349241,+00.482530
+085.415,-018.912,+010.384,+0.759,+1.162,+2.529,-03.0060,-01.8100,-08.9210,-00.339944,-00.468942,+00.560326
+085.941,-019.671,+009.786,+0.791,+1.147,+2.493,-03.4100,-01.3260,-08.7550,-00.426953,-00.633193,+00.517934
+086.361,-020.552,+009.083,+0.823,+1.122,+2.537,-03.3190,-00.8460,-08.9350,-00.522777,-00.722322,+00.394580
+086.474,-021.531,+008.399,+0.869,+1.082,+2.513,-03.4400,-01.0690,-08.8320,-00.584830,-00.898267,+00.116712
+086.317,-022.717,+007.744,+0.902,+1.047,+2.531,-03.6270,-01.1930,-08.6880,-00.647966,-01.140821,-00.031077
+085.936,-024.277,+007.099,+0.943,+1.032,+2.549,-03.4050,-01.2680,-08.7660,-00.723511,-01.558301,-00.178287
+085.252,-026.347,+006.592,+1.021,+1.007,+2.499,-04.9500,-00.8650,-08.6450,-00.669057,-02.034849,-00.455598
+084.113,-028.971,+006.387,+1.086,+1.001,+2.459,-05.7400,-00.9180,-08.7100,-00.568948,-02.602425,-00.787635
+081.897,-032.473,+007.239,+1.164,+1.010,+2.430,-04.9780,-01.2480,-08.5960,-00.067998,-03.674240,-01.593522
+078.496,-037.413,+009.508,+1.293,+1.067,+2.301,-05.3090,-01.4900,-08.3890,+00.432321,-05.311364,-01.966390
+074.000,-044.267,+013.412,+1.468,+1.133,+2.115,-04.3520,-01.9700,-09.0670,+00.922849,-07.233246,-01.802156
+068.707,-053.094,+019.350,+1.643,+1.175,+1.919,-07.9270,+01.0180,-13.1200,+02.139584,-08.784420,-00.323984
+060.536,-063.462,+029.988,+1.864,+1.239,+1.515,-08.8810,-06.3210,-18.6520,+03.684554,-10.158940,+00.853392
+043.059,-074.350,+050.389,+2.029,+1.255,+1.007,-15.1580,-04.8940,-17.6860,+03.073852,-10.614060,+01.881045
-006.008,-079.960,+102.755,+2.102,+1.139,+0.630,-17.2980,-07.5560,-31.5420,+04.090541,-08.998656,+02.206914
-036.740,-079.727,+136.186,+2.129,+1.068,+0.305,-32.3780,-16.9080,-66.2140,+00.272601,-00.417076,+00.804925
-023.260,-082.544,+124.507,+2.152,+1.009,+0.419,-03.0890,-06.4520,-22.5320,+01.057863,+04.210601,+00.629194
+019.777,-084.484,+081.830,+2.166,+1.005,+0.586,+01.0280,-03.2760,-07.7580,-00.319044,+04.233534,+00.613685
+059.667,-082.883,+041.088,+2.194,+1.011,+0.743,+00.0780,-02.7100,-08.2760,-01.191940,+03.908983,+00.657799
+079.705,-078.910,+019.682,+2.176,+0.933,+0.968,-02.1690,-03.2370,-12.1750,-01.370890,+04.671362,+00.622061
+088.167,-073.020,+010.195,+2.149,+0.895,+1.192,-03.5410,-03.4920,-10.9770,-00.897375,+05.817210,+00.265721
+091.162,-065.996,+006.789,+2.057,+0.898,+1.435,-04.2720,-03.9400,-08.9420,-00.339456,+06.340006,-00.164048
+091.849,-058.512,+005.836,+1.933,+0.890,+1.697,-06.3970,-03.9680,-10.8450,-00.270962,+06.665453,-00.590340
+091.639,-050.410,+005.709,+1.776,+0.908,+1.932,-08.1850,-02.5340,-12.9820,-00.170480,+07.251132,-00.902708
+091.340,-041.830,+005.960,+1.537,+0.946,+2.141,-08.5280,-01.3600,-10.3980,+00.170721,+07.439285,-00.930915
+091.279,-033.375,+006.597,+1.279,+0.974,+2.322,-09.9600,+00.7460,-12.5890,+00.808609,+07.309586,-00.731997
+091.891,-024.939,+007.812,+1.040,+1.001,+2.473,-12.5890,+01.8180,-14.6540,+01.655495,+07.326646,-00.274707
+093.075,-017.028,+009.352,+0.768,+1.103,+2.535,-13.6450,-02.3020,-17.3520,+01.519699,+06.722849,-00.028623
+094.063,-009.516,+010.567,+0.487,+1.145,+2.539,-19.3640,-03.9930,-21.6480,+01.229942,+06.624527,-00.576434
+094.235,-001.946,+011.939,+0.256,+1.172,+2.582,-24.4360,-04.9960,-15.2360,+01.103619,+06.288831,-01.464560
+093.478,+004.666,+012.224,-0.034,+1.190,+2.564,-28.2570,-08.6510,-07.7520,-00.322170,+04.971717,-02.091814
+091.743,+009.919,+010.820,-0.255,+1.158,+2.554,-33.5160,-03.4140,+00.9260,-01.169640,+03.741797,-02.476564
+090.068,+013.871,+010.092,-0.398,+1.080,+2.554,-38.1060,+02.9110,+09.8460,+00.170788,+02.668171,-01.721993
+088.570,+015.678,+010.076,-0.491,+1.091,+2.491,-34.8920,-00.7570,+11.4620,+00.114744,+00.414565,-01.599925
+086.311,+014.807,+008.902,-0.495,+1.071,+2.539,-25.7950,+06.8530,+15.2370,-01.144930,-02.221575,-01.441133
+085.588,+012.112,+007.986,-0.417,+0.997,+2.570,+35.8060,+13.0970,-29.6330,-00.028904,-02.142128,+00.692576
+086.513,+007.584,+008.966,-0.251,+1.054,+2.593,-11.6160,-04.6030,+21.1750,+00.294807,-05.317886,+00.408881
+085.291,+002.200,+010.274,-0.053,+1.116,+2.579,-11.5400,+04.4700,-27.8160,+00.751206,-03.958298,-00.296969
+084.725,-002.048,+011.584,+0.072,+1.130,+2.596,-04.2680,-09.6870,-13.6370,+01.138021,-03.643248,+00.165502
+083.642,-005.878,+012.454,+0.220,+1.177,+2.564,-05.3250,-01.8390,-12.5390,+00.537581,-03.380461,-00.287861
+082.737,-009.401,+013.064,+0.339,+1.176,+2.543,-05.2160,-05.9280,-12.1780,+00.367518,-03.027027,-00.048640
+081.970,-011.995,+013.459,+0.409,+1.190,+2.556,-06.0330,+02.7140,-16.0450,+00.198672,-01.713197,-00.014859
+081.856,-013.282,+013.544,+0.468,+1.209,+2.532,-02.3270,-04.5010,-09.3260,-00.052090,-00.881064,+00.174378
+081.999,-014.104,+013.358,+0.510,+1.189,+2.528,-02.7510,-00.7680,-09.6560,-00.061853,-00.553296,+00.338047
+082.151,-014.709,+013.318,+0.528,+1.194,+2.556,-02.9320,-01.2930,-09.6600,+00.042199,-00.421383,+00.188880
+082.215,-015.087,+013.424,+0.542,+1.184,+2.519,-02.6480,-02.4760,-08.8030,+00.088440,-00.253201,+00.096600
+082.267,-015.358,+013.364,+0.551,+1.179,+2.520,-02.5970,-01.9190,-08.7600,-00.137356,-00.184997,+00.102393
+082.380,-015.616,+012.965,+0.565,+1.184,+2.526,-02.6320,-02.9580,-08.6310,-00.420322,-00.197840,+00.175220
+082.650,-015.889,+012.273,+0.574,+1.159,+2.537,-02.1450,-02.0260,-09.2050,-00.556001,-00.182772,+00.358573
+083.221,-016.207,+011.469,+0.593,+1.119,+2.533,-02.3330,-01.8910,-08.8410,-00.580014,-00.182668,+00.614234
+083.959,-016.640,+010.594,+0.607,+1.090,+2.566,-03.7750,-02.0270,-08.4370,-00.560097,-00.272087,+00.678565
+084.628,-017.016,+009.902,+0.630,+1.080,+2.567,-02.5420,-01.5950,-08.8340,-00.376291,-00.216773,+00.573131
+085.207,-017.403,+009.388,+0.653,+1.065,+2.562,-03.1010,-01.1100,-08.8250,-00.270348,-00.276069,+00.480351
+085.701,-017.895,+008.945,+0.676,+1.035,+2.574,-02.8620,-01.3470,-08.8510,-00.249382,-00.409099,+00.482278
+086.202,-018.537,+008.520,+0.694,+1.055,+2.564,-02.9780,-01.4160,-08.9130,-00.219096,-00.538508,+00.509550
+086.762,-019.348,+008.112,+0.736,+1.020,+2.556,-03.0970,-00.9280,-08.9390,-00.180280,-00.690689,+00.576083
+087.210,-020.334,+007.722,+0.763,+0.995,+2.568,-03.0950,-00.7680,-08.9720,-00.238825,-00.850898,+00.395871
+087.447,-021.553,+007.309,+0.805,+1.024,+2.543,-03.3260,-01.0630,-08.8320,-00.330505,-01.141908,+00.282261
+087.494,-023.195,+006.824,+0.869,+0.974,+2.498,-03.9820,-00.8170,-08.7610,-00.457663,-01.581172,+00.157652
+087.207,-025.336,+006.310,+0.929,+0.929,+2.538,-04.2650,-00.9480,-08.8970,-00.572143,-02.089329,-00.152243
+086.350,-028.094,+006.004,+1.012,+0.928,+2.451,-04.0240,-00.3500,-08.4230,-00.609576,-02.706428,-00.559276
+084.902,-031.536,+006.072,+1.113,+0.946,+2.401,-05.4040,-00.4640,-09.0110,-00.495533,-03.434297,-01.020680
+082.272,-036.144,+007.205,+1.224,+0.935,+2.374,-04.9070,-00.8490,-10.0070,-00.124095,-04.726402,-01.619502
+078.818,-042.539,+009.634,+1.394,+0.997,+2.204,-00.2070,-00.6480,-13.6600,+00.415345,-06.549609,-01.261121
+075.187,-051.028,+013.404,+1.606,+1.038,+1.972,-05.9240,+01.9290,-19.3190,+01.598531,-08.253687,-00.231981
+070.058,-061.260,+020.398,+1.799,+1.059,+1.723,-10.5940,-00.1800,-13.0030,+02.672980,-10.142490,+00.521986
+059.477,-072.750,+034.332,+2.006,+1.099,+1.233,-14.6180,-04.6780,-20.1830,+03.461675,-10.458210,+01.762574
+026.859,-081.887,+070.380,+2.116,+1.021,+0.771,-15.2720,-07.8780,-27.7590,+02.922863,-08.669064,+02.562918
-013.742,-084.358,+112.440,+2.153,+0.946,+0.586,-29.4090,-11.9660,-66.1630,+00.206933,-01.036976,+00.944732
+004.494,-085.724,+095.112,+2.171,+0.907,+0.635,+00.4620,-06.1870,-23.1830,+00.376706,+02.791310,+00.644788
+051.295,-085.102,+048.253,+2.171,+0.864,+0.780,+03.3800,-02.6010,-09.5540,-00.411705,+03.209098,+00.448754
+074.379,-082.290,+024.649,+2.157,+0.810,+0.919,+01.9830,-01.9330,-07.8860,-00.625649,+03.320129,+00.269322
+083.860,-078.197,+014.422,+2.144,+0.821,+1.064,-01.0550,-02.2670,-13.7050,-00.847688,+04.252705,+00.068632
+088.560,-072.326,+008.996,+2.075,+0.793,+1.302,-03.5600,-02.0720,-13.7800,-00.649246,+05.798910,-00.095107
+090.365,-065.156,+006.952,+1.992,+0.786,+1.529,-03.9530,-02.0840,-08.2200,-00.110406,+06.409091,-00.432132
+090.669,-057.734,+006.684,+1.854,+0.842,+1.764,-05.3630,-02.2190,-09.2150,+00.002154,+06.475961,-00.741928
+090.609,-050.029,+006.692,+1.666,+0.816,+1.992,-07.8720,-00.6730,-13.0280,-00.003948,+06.854066,-00.820781
+090.842,-041.714,+006.874,+1.477,+0.833,+2.177,-09.4450,+01.6740,-13.3450,+00.576025,+07.407096,-00.602721
+091.810,-032.993,+007.538,+1.219,+0.861,+2.326,-11.5230,+03.2410,-12.7330,+01.389424,+07.749628,-00.044816
+093.544,-024.556,+008.946,+0.933,+0.919,+2.453,-13.0750,+01.7680,-11.5950,+02.198251,+07.196103,+00.384912
+095.357,-017.198,+010.521,+0.735,+0.965,+2.503,-14.0770,-02.2590,-16.5490,+01.591873,+06.254985,+00.314087
+096.754,-010.201,+011.777,+0.496,+1.032,+2.540,-18.7560,-03.9170,-22.4050,+01.420038,+06.339068,-00.341136
+097.221,-002.824,+013.243,+0.233,+1.015,+2.550,-21.4600,-04.4190,-14.9210,+01.162133,+06.211293,-01.363422
+096.763,+003.823,+013.677,+0.021,+1.017,+2.524,-24.5770,-06.6930,-10.3840,-00.112304,+05.133670,-01.952413
+095.375,+009.526,+012.762,-0.191,+1.009,+2.521,-27.9770,-05.7560,-01.2030,-00.843721,+04.190624,-02.490649
+093.618,+013.902,+012.155,-0.366,+0.957,+2.492,-32.5990,+02.4180,+05.6760,+00.201922,+02.941290,-02.043929
+092.049,+016.302,+012.229,-0.431,+0.933,+2.484,-31.7050,+00.9990,+09.9940,+00.244190,+00.941238,-01.642869
+089.942,+016.397,+010.907,-0.459,+0.908,+2.472,-29.7770,+02.1100,+03.7630,-01.046035,-00.923944,-01.782720
+088.044,+014.784,+009.230,-0.426,+0.849,+2.517,-04.6290,+14.5610,-04.6620,-01.015608,-01.931060,-00.791005
+088.786,+012.506,+009.468,-0.353,+0.859,+2.557,+32.6480,+06.9680,-11.5370,+00.600777,-02.068571,+02.240405
+089.596,+007.251,+011.130,-0.159,+0.925,+2.539,-19.7130,-09.7330,+01.1630,+01.442162,-05.607124,-00.015156
+087.814,+002.047,+013.164,+0.039,+1.017,+2.541,-10.6180,+14.7940,-25.2330,+01.508178,-04.190582,-00.126558
+087.685,-002.132,+015.713,+0.159,+1.084,+2.530,-05.4700,-14.8870,-11.3830,+02.356651,-03.348394,+00.557431
+086.261,-005.570,+017.590,+0.284,+1.127,+2.476,-05.0680,-05.9970,-16.2210,+00.957176,-03.076096,-00.537777
+085.279,-008.191,+018.401,+0.381,+1.146,+2.459,-03.8420,-04.4670,-12.1890,+00.491058,-02.162081,+00.039917
+084.494,-010.016,+018.431,+0.431,+1.135,+2.456,-04.4980,-00.8940,-12.4060,-00.289581,-01.439769,-00.156858
+084.124,-011.278,+018.095,+0.487,+1.145,+2.453,-01.2480,-03.8520,-09.1220,-00.419695,-01.073129,+00.132940
+084.056,-012.380,+017.211,+0.528,+1.105,+2.450,-01.9940,-02.2400,-09.0490,-00.913937,-00.874887,+00.279941
+084.084,-013.233,+016.418,+0.542,+1.085,+2.482,-03.5000,-01.3430,-10.6880,-00.494861,-00.560092,+00.187451
+084.059,-013.780,+015.993,+0.574,+1.060,+2.473,-02.8180,-02.2000,-09.5300,-00.306038,-00.396780,+00.098050
+084.026,-014.168,+015.765,+0.583,+1.036,+2.463,-02.2160,-02.2230,-08.8870,-00.160350,-00.319604,+00.055138
+084.031,-014.604,+015.580,+0.602,+1.045,+2.475,-01.9980,-02.7890,-08.6690,-00.154187,-00.405526,+00.144630
+084.193,-015.137,+015.272,+0.634,+1.045,+2.471,-02.2960,-02.6830,-08.3440,-00.341337,-00.412137,+00.338631
+084.620,-015.666,+014.564,+0.634,+1.045,+2.471,-02.7240,-01.5180,-08.9120,-00.573826,-00.293449,+00.547402
+085.260,-016.137,+013.606,+0.657,+0.966,+2.488,-02.8500,-03.0990,-08.8190,-00.712890,-00.265589,+00.654831
+086.040,-016.587,+012.662,+0.675,+0.961,+2.500,-02.9470,-02.5750,-08.9620,-00.560387,-00.229929,+00.723879
+086.809,-017.045,+011.930,+0.699,+0.951,+2.490,-03.1120,-01.4160,-08.9570,-00.361845,-00.284599,+00.696979
+087.394,-017.505,+011.399,+0.717,+0.912,+2.518,-03.1260,-01.4170,-08.8170,-00.299069,-00.312197,+00.472694
+087.751,-017.996,+010.929,+0.740,+0.911,+2.466,-03.0810,-01.6490,-08.7900,-00.322052,-00.394407,+00.334620
+088.064,-018.601,+010.398,+0.763,+0.877,+2.510,-02.8720,-02.0300,-08.7820,-00.394454,-00.523147,+00.398022
+088.548,-019.428,+009.815,+0.786,+0.852,+2.522,-03.0810,-01.6790,-08.7650,-00.348078,-00.693637,+00.575762
+089.131,-020.437,+009.218,+0.832,+0.846,+2.486,-03.0780,-00.8890,-08.9610,-00.354738,-00.838941,+00.607400
+089.538,-021.615,+008.591,+0.860,+0.836,+2.482,-03.2820,-00.9750,-08.8600,-00.469987,-01.062560,+00.410823
+089.603,-023.049,+007.962,+0.906,+0.782,+2.479,-03.7370,-00.7730,-08.6760,-00.553262,-01.321783,+00.106190
+089.203,-024.796,+007.441,+0.961,+0.776,+2.444,-03.4630,-00.9890,-08.7960,-00.631112,-01.693868,-00.243257
+088.380,-026.984,+007.055,+1.035,+0.755,+2.410,-03.5840,-00.6730,-08.4840,-00.659409,-02.174975,-00.508676
+087.305,-029.692,+006.822,+1.104,+0.725,+2.424,-05.5860,-00.8770,-08.5530,-00.578454,-02.655356,-00.665287
+085.408,-033.192,+007.329,+1.200,+0.753,+2.326,-04.1670,-00.6850,-09.3990,-00.281427,-03.610003,-01.271445
+082.480,-038.001,+009.137,+1.343,+0.781,+2.236,-03.8210,-00.9490,-10.7210,+00.364517,-05.000214,-01.490882
+078.587,-044.610,+012.388,+1.468,+0.813,+2.107,-02.0560,+01.0650,-13.2670,+00.972116,-06.790885,-01.088232
+073.697,-053.081,+017.584,+1.675,+0.908,+1.826,-08.8990,+01.5750,-15.1590,+01.724983,-08.309615,-00.417797
+066.186,-062.723,+026.385,+1.873,+0.934,+1.480,-09.5580,-00.7740,-14.0180,+02.549513,-09.784279,+00.368813
+051.499,-073.399,+043.915,+2.001,+0.936,+1.132,-12.5440,-05.5480,-20.3560,+03.313919,-09.893772,+01.576071
+014.594,-080.029,+085.212,+2.079,+0.918,+0.669,-16.2700,-00.4350,-33.5550,+04.538028,-07.452588,+02.004024
-009.705,-081.294,+111.866,+2.092,+0.804,+0.488,-17.5110,-11.1790,-68.8150,+00.640518,+00.371202,+00.483561
+006.285,-082.501,+096.353,+2.097,+0.789,+0.547,+01.4070,-04.5220,-17.4910,-00.485593,+02.870655,+00.439856
+031.457,-082.847,+070.293,+2.102,+0.790,+0.633,+03.6020,-00.3350,-07.0060,-01.140559,+02.562183,+00.735463
+054.803,-082.138,+045.840,+2.111,+0.702,+0.747,+01.8240,-00.0980,-09.4980,-00.976754,+02.715966,+00.944613
+074.902,-079.533,+025.211,+2.116,+0.717,+0.859,-01.0630,-02.0270,-15.2290,-00.530416,+04.000384,+00.937910
+086.875,-074.323,+013.101,+2.111,+0.664,+1.053,-02.5160,-04.7410,-14.5050,-00.335004,+05.598767,+00.578053
+091.350,-067.404,+008.303,+2.042,+0.641,+1.291,-04.2160,-05.1920,-10.7480,-00.571000,+06.417475,-00.137210
+092.251,-059.696,+006.679,+1.974,+0.658,+1.503,-05.7780,-04.2820,-10.4710,-00.761475,+06.867636,-00.744086
+091.889,-051.517,+006.216,+1.822,+0.715,+1.737,-07.1300,-02.1170,-10.9070,-00.554319,+07.179292,-01.075744
+091.506,-042.961,+006.264,+1.620,+0.757,+2.007,-10.0030,+00.6770,-14.1350,+00.049693,+07.591833,-00.954800
+091.837,-033.905,+006.616,+1.426,+0.780,+2.218,-11.3590,+01.6540,-13.4160,+00.672583,+07.979654,-00.432716
+093.056,-025.113,+007.188,+1.178,+0.857,+2.351,-12.3820,+01.9110,-11.8180,+01.298001,+07.462745,+00.255244
+094.737,-017.076,+008.417,+0.897,+0.915,+2.483,-14.8520,-02.0590,-19.8090,+01.625066,+07.085802,+00.401220
+096.189,-008.939,+009.756,+0.680,+0.961,+2.549,-18.1300,-05.3660,-22.2460,+01.339224,+07.262720,-00.189248
+096.804,-000.796,+011.085,+0.371,+1.082,+2.534,-22.8170,-05.5750,-17.5900,+01.103144,+06.861298,-01.064068
+096.631,+006.435,+011.686,+0.109,+1.080,+2.582,-26.6550,-09.0920,-09.7610,+00.165803,+05.659642,-01.600940
+095.571,+012.315,+011.387,-0.090,+1.072,+2.573,-31.4230,-02.7920,-00.0440,-00.031858,+04.386096,-02.064525
+094.512,+016.625,+012.168,-0.279,+1.118,+2.500,-35.3920,+02.3420,+11.2090,+01.265893,+02.743757,-01.331963
+093.350,+017.967,+012.739,-0.362,+1.148,+2.464,-33.7500,-03.1430,+10.8310,+00.271151,-00.151736,-01.333642
+090.926,+017.012,+011.397,-0.348,+1.085,+2.519,-29.9670,+00.2870,+01.0270,-00.812403,-01.728606,-01.983354
+088.615,+014.816,+009.329,-0.297,+1.055,+2.542,+21.6330,+02.9930,-33.0490,-01.360974,-02.170793,-01.019477
+089.385,+011.590,+009.137,-0.173,+1.044,+2.591,+06.3110,+06.0200,+07.8880,-00.050355,-03.871374,+01.808521
+089.395,+005.331,+009.433,+0.017,+1.017,+2.610,-24.5350,-03.7000,-28.0990,+00.791858,-04.912086,+00.194575
+088.645,+000.939,+010.013,+0.196,+1.075,+2.591,-00.8330,-03.6290,-12.8270,+00.963732,-03.665666,+00.219711
+087.551,-002.885,+011.241,+0.344,+1.117,+2.559,-04.1170,-05.1420,-12.5330,+00.921812,-03.364397,-00.521539
+086.673,-006.566,+012.566,+0.422,+1.136,+2.552,-02.5570,+00.5490,-11.7050,+01.251193,-03.376607,+00.178818
+085.750,-010.647,+014.147,+0.574,+1.208,+2.462,-03.9490,-09.1700,-11.1570,+00.808328,-03.802726,-00.182289
+085.005,-014.212,+014.844,+0.708,+1.226,+2.430,-05.0330,+00.2950,-14.3850,-00.169841,-02.579975,+00.464976
+085.148,-016.076,+014.026,+0.759,+1.181,+2.448,-04.8010,-01.0860,-12.6320,-00.679931,-01.019472,+00.610429
+085.733,-016.994,+013.616,+0.805,+1.186,+2.434,-02.7060,-02.8800,-08.6830,-00.298691,-00.623977,+00.600025
+086.111,-017.486,+013.162,+0.819,+1.136,+2.441,-03.8350,-01.4780,-09.7740,-00.257444,-00.237631,+00.272538
+086.226,-017.758,+012.907,+0.842,+1.156,+2.425,-03.5070,-01.3850,-09.0700,-00.159106,-00.194573,+00.083292
+086.229,-017.948,+012.738,+0.846,+1.156,+2.426,-03.0780,-02.1140,-08.7470,-00.178633,-00.155367,+00.024196
+086.262,-018.156,+012.442,+0.837,+1.121,+2.431,-02.5650,-02.4300,-08.7440,-00.297477,-00.179766,+00.127179
+086.542,-018.448,+011.955,+0.865,+1.092,+2.438,-03.0260,-02.2530,-08.5830,-00.347372,-00.207261,+00.363862
+087.021,-018.755,+011.407,+0.874,+1.101,+2.427,-03.1840,-01.6830,-08.7930,-00.342733,-00.166667,+00.472200
+087.542,-019.023,+010.872,+0.892,+1.087,+2.455,-03.4120,-01.3180,-08.8240,-00.301737,-00.139891,+00.448530
+087.966,-019.267,+010.423,+0.906,+1.047,+2.440,-03.2170,-01.4310,-08.6890,-00.253636,-00.155162,+00.350455
+088.356,-019.570,+010.023,+0.915,+1.042,+2.424,-03.0850,-01.5010,-08.5880,-00.240802,-00.242756,+00.379217
+088.792,-020.011,+009.591,+0.929,+1.032,+2.457,-03.4590,-01.4010,-08.6630,-00.235528,-00.360118,+00.442673
+089.284,-020.586,+009.232,+0.952,+1.002,+2.469,-03.5750,-01.3900,-08.7620,-00.121888,-00.469695,+00.482428
+089.728,-021.299,+008.923,+0.975,+1.007,+2.422,-02.9790,-00.8410,-08.7840,-00.160502,-00.618059,+00.425865
+090.020,-022.207,+008.521,+1.017,+0.997,+2.424,-03.2460,-01.1590,-08.8350,-00.311365,-00.833218,+00.307470
+090.087,-023.370,+008.083,+1.049,+0.972,+2.425,-03.7670,-01.1830,-08.6410,-00.384060,-01.114074,+00.149113
+089.956,-024.858,+007.624,+1.099,+0.956,+2.406,-04.4460,-01.0330,-08.6020,-00.489612,-01.426497,+00.016672
+089.511,-026.804,+007.186,+1.145,+0.936,+2.355,-04.3770,-01.1610,-08.6020,-00.560165,-01.931721,-00.209748
+088.661,-029.330,+006.892,+1.219,+0.940,+2.342,-03.9990,-00.6650,-08.4480,-00.623361,-02.457896,-00.446072
+087.185,-032.515,+007.066,+1.311,+0.929,+2.260,-04.9570,-00.7430,-08.7690,-00.487463,-03.189728,-01.002637
+084.204,-036.809,+008.410,+1.413,+0.962,+2.195,-05.0480,-01.0890,-09.8190,-00.125238,-04.543159,-01.914263
+079.923,-042.973,+011.543,+1.528,+0.995,+2.065,-01.8270,-00.7260,-12.5600,+00.682913,-06.579769,-01.695928
+074.743,-051.338,+016.961,+1.703,+1.085,+1.804,-05.4170,+00.2420,-16.1650,+01.695548,-08.494752,-00.992976
+067.411,-061.291,+026.295,+1.882,+1.135,+1.415,-09.6070,-01.4270,-15.3830,+03.181312,-10.168190,+00.278829
+052.231,-072.359,+044.399,+2.020,+1.132,+1.035,-14.2530,-04.0460,-14.9740,+03.143624,-11.005520,+01.597839
+010.191,-079.661,+089.494,+2.084,+1.075,+0.517,-15.3270,-06.3370,-31.1750,+03.509940,-09.555665,+02.269776
-025.146,-080.303,+127.207,+2.074,+0.970,+0.239,-32.9160,-13.0220,-62.8520,+01.476463,-01.238492,+01.330961
-020.027,-082.654,+123.274,+2.106,+0.921,+0.305,-01.0590,-05.8640,-23.4550,+00.646667,+03.005188,+01.213668
+012.371,-085.143,+091.000,+2.148,+0.877,+0.431,+02.1150,-03.8020,-09.0450,-00.388035,+03.507997,+01.049312
+059.105,-084.458,+043.744,+2.171,+0.828,+0.593,+02.1760,-03.0790,-05.6680,-00.612643,+03.563682,+00.766370
+081.219,-081.105,+021.251,+2.176,+0.829,+0.765,+00.7410,-03.6330,-07.7190,-00.345125,+03.870894,+00.313337
+088.853,-076.146,+013.536,+2.171,+0.835,+0.936,-02.8260,-05.7410,-13.7730,-00.229800,+05.046089,-00.292301
+090.980,-069.428,+010.819,+2.098,+0.861,+1.196,-03.8530,-05.2670,-10.8130,-00.777635,+06.177149,-00.910306
+090.955,-061.953,+009.771,+2.015,+0.883,+1.433,-05.5730,-03.8100,-09.8510,-00.957984,+06.532938,-01.304988
+090.431,-053.918,+009.301,+1.878,+0.945,+1.700,-08.2260,-01.5620,-12.6550,-00.659170,+07.117589,-01.393325
+090.440,-045.192,+008.984,+1.661,+0.973,+1.948,-10.2110,+00.7970,-13.0090,+00.008631,+07.721567,-01.049188
+091.330,-036.111,+009.044,+1.459,+1.030,+2.126,-11.5780,+02.0120,-12.1570,+00.816674,+08.003469,-00.378524
+093.153,-027.482,+009.678,+1.215,+1.068,+2.319,-12.2250,+01.6820,-07.8950,+01.747644,+07.226699,+00.379568
+095.195,-020.292,+010.740,+0.980,+1.110,+2.421,-13.7430,-03.8920,-17.2200,+01.443819,+06.133893,+00.488884
+096.814,-013.108,+011.786,+0.786,+1.132,+2.498,-18.3020,-08.1950,-25.8970,+01.289926,+06.729922,-00.303026
+097.255,-005.140,+013.121,+0.496,+1.214,+2.512,-21.1060,-07.1750,-16.1850,+01.196618,+06.734400,-01.583393
+096.556,+002.247,+013.936,+0.215,+1.256,+2.531,-24.8440,-07.4500,-11.6660,+00.292201,+05.729602,-02.365603
+094.931,+008.576,+013.311,-0.016,+1.229,+2.554,-28.1270,-04.8730,-02.8440,-00.726382,+04.587247,-02.789539
+093.365,+013.398,+012.734,-0.232,+1.231,+2.512,-33.3340,+03.9950,+07.3270,+00.168359,+03.244938,-01.767929
+092.566,+015.808,+013.446,-0.338,+1.222,+2.470,-34.0850,-00.2980,+10.4780,+00.780257,+01.068866,-00.963689
+091.010,+015.951,+012.918,-0.366,+1.222,+2.490,-30.3780,-02.6520,+06.6640,-00.658811,-00.931966,-01.557681
+089.414,+013.122,+011.201,-0.288,+1.168,+2.531,-00.6080,+05.7990,-21.7030,-00.795199,-02.949408,-00.331607
+089.854,+009.644,+010.483,-0.149,+1.137,+2.575,+08.7070,+06.9150,-02.7900,-00.753329,-03.644598,+01.872298
+089.472,+003.346,+010.465,+0.035,+1.170,+2.594,-19.7010,-03.3540,-23.3950,+00.916996,-05.375205,-00.113731
+088.537,-001.351,+011.321,+0.220,+1.187,+2.575,-02.1560,+05.1640,-12.5590,+01.391758,-03.862221,+00.364011
+087.947,-005.681,+012.953,+0.376,+1.240,+2.539,-03.9050,-16.1360,-10.2750,+01.259688,-03.860035,-00.048666
+086.679,-010.052,+013.912,+0.501,+1.243,+2.512,-05.5330,+02.1130,-16.2030,+00.314614,-03.931833,+00.019517
+086.094,-013.883,+014.290,+0.634,+1.266,+2.464,-10.1610,-04.1840,-21.4140,-00.008513,-02.624880,+00.369349
+086.277,-015.596,+013.662,+0.713,+1.260,+2.446,-05.0520,-02.9180,-12.1910,-00.427023,-00.883725,+00.592806
+086.804,-016.376,+012.852,+0.745,+1.206,+2.464,-04.3130,+00.0080,-11.0210,-00.405170,-00.348299,+00.600409
+087.339,-016.705,+012.156,+0.763,+1.201,+2.475,-02.7850,-01.6950,-09.4500,-00.453895,-00.175938,+00.454296
+087.751,-017.015,+011.450,+0.763,+1.162,+2.486,-03.3520,-02.4770,-08.7960,-00.566391,-00.189279,+00.343681
+088.085,-017.312,+010.740,+0.796,+1.142,+2.477,-03.2060,-01.7960,-08.7260,-00.508360,-00.197390,+00.306379
+088.357,-017.581,+010.198,+0.805,+1.132,+2.483,-03.1250,-01.6140,-08.7480,-00.342043,-00.193895,+00.245366
+088.591,-017.859,+009.766,+0.814,+1.102,+2.489,-02.8790,-01.7750,-08.8420,-00.306575,-00.204437,+00.246726
+088.879,-018.147,+009.348,+0.823,+1.137,+2.521,-02.8530,-01.3510,-08.7630,-00.279382,-00.213454,+00.290814
+089.222,-018.488,+008.904,+0.846,+1.082,+2.507,-03.0350,-01.3180,-08.7720,-00.302707,-00.270906,+00.344898
+089.619,-018.876,+008.432,+0.860,+1.072,+2.491,-03.1640,-01.3300,-08.9020,-00.299408,-00.288188,+00.396699
+090.087,-019.287,+007.961,+0.874,+1.062,+2.508,-03.1800,-01.3160,-08.8360,-00.255884,-00.308288,+00.455975
+090.627,-019.746,+007.539,+0.915,+1.027,+2.489,-03.2660,-01.0150,-08.7570,-00.183556,-00.358826,+00.517832
+091.194,-020.282,+007.158,+0.929,+1.027,+2.489,-03.4410,-00.9300,-08.6770,-00.159722,-00.445245,+00.508957
+091.722,-020.927,+006.806,+0.943,+1.003,+2.512,-03.4730,-00.7940,-08.6520,-00.136044,-00.547765,+00.486615
+092.168,-021.740,+006.483,+0.984,+1.007,+2.481,-03.5310,-00.5540,-08.6820,-00.141856,-00.727179,+00.402746
+092.415,-022.686,+006.209,+0.998,+1.002,+2.444,-03.7840,-00.9270,-08.7390,-00.165629,-00.864132,+00.236952
+092.466,-023.885,+005.947,+1.044,+0.967,+2.473,-03.6620,-00.8060,-08.6880,-00.250742,-01.138546,+00.092631
+092.262,-025.383,+005.657,+1.095,+0.981,+2.433,-04.1670,-00.5770,-08.7380,-00.370724,-01.431532,-00.084286
+091.818,-027.241,+005.348,+1.150,+0.980,+2.392,-04.4610,-00.6760,-08.5710,-00.464817,-01.790030,-00.252682
+091.063,-029.582,+005.134,+1.215,+0.950,+2.395,-04.7690,-00.5200,-08.2600,-00.522017,-02.294599,-00.486915
+089.890,-032.532,+005.056,+1.298,+0.944,+2.313,-05.9190,-00.6100,-08.6740,-00.569084,-02.920551,-00.848181
+087.826,-036.477,+005.708,+1.394,+0.953,+2.253,-04.9960,-00.5880,-09.3800,-00.307434,-03.989976,-01.324633
+084.932,-041.911,+007.593,+1.505,+0.990,+2.156,-03.0720,-01.6060,-11.8840,+00.324828,-05.620859,-01.255599
+081.791,-049.563,+010.378,+1.685,+1.017,+1.933,-04.8290,-02.0530,-13.5020,+00.356369,-07.604511,-00.399767
+078.518,-059.132,+014.122,+1.882,+1.018,+1.609,-11.1780,+00.2620,-08.2840,+01.559691,-09.031980,+00.246598
+072.391,-070.236,+022.542,+2.034,+1.045,+1.304,-09.3540,-06.0120,-11.5840,+02.494660,-10.231620,+01.266209
+055.773,-081.084,+041.649,+2.144,+0.992,+0.800,-11.6840,-07.1960,-19.7100,+02.862503,-09.605564,+02.092966
-027.105,-085.781,+125.831,+2.162,+0.891,+0.442,-02.6140,-01.2290,-32.7700,+00.361171,-05.620797,+02.570394
-061.205,-085.279,+160.505,+2.166,+0.832,+0.373,-02.3920,-04.3710,-37.3300,+00.611943,+00.636542,+01.140945
-058.256,-088.288,+158.305,+2.203,+0.822,+0.433,+00.1100,-04.9550,-14.9480,+00.374989,+02.988304,+00.521597
+090.315,-087.997,+009.872,+2.208,+0.774,+0.589,+01.2030,-03.6620,-08.5330,-00.123273,+03.158147,+00.100470
+095.656,-084.334,+004.123,+2.222,+0.779,+0.724,+01.1520,-02.6300,-06.7560,-00.450327,+03.232687,-00.194867
+094.617,-080.475,+004.766,+2.195,+0.829,+0.857,-00.3780,-02.3630,-09.4080,-00.258216,+03.485244,-00.507582
+092.822,-075.490,+006.173,+2.162,+0.811,+1.027,-05.1610,-03.0720,-18.7000,-00.371201,+05.021173,-00.867055
+091.544,-068.297,+006.740,+2.117,+0.886,+1.277,-05.8690,-02.1520,-13.3470,-00.650581,+06.710932,-01.176966
+090.212,-060.209,+007.339,+1.984,+0.938,+1.555,-06.5460,-00.1900,-09.6780,-00.410286,+07.001925,-01.439346
+089.359,-051.798,+007.789,+1.800,+0.966,+1.820,-09.3700,+01.4230,-12.9490,-00.132034,+07.415788,-01.266440
+089.437,-042.876,+007.748,+1.625,+0.993,+2.043,-10.1490,+01.9520,-12.2230,+00.105976,+07.838669,-00.814863
+090.294,-033.923,+007.595,+1.358,+1.066,+2.234,-10.6480,+02.6630,-10.5110,+00.509198,+07.763297,-00.229449
+091.730,-025.629,+007.967,+1.104,+1.040,+2.401,-11.0940,+01.1680,-09.3590,+01.230348,+06.919449,+00.226756
+093.105,-018.558,+008.757,+0.915,+1.087,+2.499,-12.3770,-02.0720,-17.2040,+00.960335,+05.967070,+00.160634
+094.217,-011.512,+009.620,+0.671,+1.129,+2.547,-18.7270,-04.2780,-25.1450,+01.061289,+06.551160,-00.307736
+094.573,-003.699,+010.659,+0.376,+1.176,+2.577,-22.5240,-05.7480,-16.4530,+00.744408,+06.704221,-01.264313
+093.934,+003.631,+010.498,+0.127,+1.164,+2.603,-26.7460,-07.4190,-10.3090,-00.671155,+05.813962,-01.971118
+092.376,+009.977,+008.838,-0.145,+1.127,+2.570,-30.8670,-03.9180,-03.4430,-01.477563,+04.882340,-02.384062
+090.973,+015.201,+007.585,-0.352,+1.065,+2.578,-35.7110,+05.2590,+09.2440,-00.278927,+03.791053,-01.304258
+090.511,+017.504,+007.831,-0.449,+1.081,+2.552,-34.2870,+01.5460,+12.5790,+00.410120,+00.786579,-00.464524
+089.741,+016.939,+007.518,-0.445,+1.086,+2.552,-29.1020,+02.5570,+03.9220,-00.370130,-01.219163,-00.577272
+089.877,+014.236,+007.275,-0.343,+1.055,+2.578,+23.8220,+08.0020,-32.8730,-00.450376,-01.887212,+01.110403
+091.633,+010.063,+008.399,-0.214,+1.074,+2.611,+01.8150,-13.2290,+16.8400,+00.598444,-04.796928,+01.331624
+090.603,+004.363,+009.436,+0.003,+1.145,+2.587,-16.2110,+03.3010,-29.7320,+00.829927,-04.300869,-00.477126
+090.078,+000.077,+010.859,+0.160,+1.193,+2.573,-01.8890,-06.2570,-12.5180,+01.695645,-03.678763,+00.356384
+089.001,-004.184,+013.167,+0.289,+1.246,+2.567,-03.1640,-07.1860,-08.4860,+02.109228,-04.037328,-00.346276
+087.716,-008.747,+015.732,+0.455,+1.337,+2.466,-09.6250,-03.6670,-20.8660,+01.737349,-03.983605,+00.193238
+086.676,-011.985,+016.543,+0.565,+1.365,+2.428,-04.7990,-02.9460,-12.7750,-00.201402,-02.383682,-00.171402
+086.256,-013.700,+016.016,+0.616,+1.345,+2.452,-04.1720,-03.3500,-11.0070,-00.687570,-01.130967,+00.147231
+086.211,-014.610,+015.038,+0.667,+1.330,+2.433,-02.8790,-00.8400,-10.1110,-00.837672,-00.590339,+00.261754
+086.383,-015.237,+014.243,+0.676,+1.280,+2.444,-02.8980,-01.2500,-09.7690,-00.533791,-00.445447,+00.254807
+086.540,-015.697,+013.881,+0.690,+1.266,+2.472,-03.0850,-01.5850,-09.4680,-00.144353,-00.315264,+00.186850
+086.607,-015.973,+013.771,+0.699,+1.256,+2.446,-02.9110,-01.9820,-08.8800,-00.093084,-00.167034,+00.079296
+086.663,-016.175,+013.606,+0.713,+1.265,+2.457,-02.4380,-02.2110,-08.7280,-00.151649,-00.175167,+00.109029
+086.833,-016.463,+013.292,+0.722,+1.251,+2.463,-03.2800,-02.4410,-08.8470,-00.300847,-00.188700,+00.245936
+087.178,-016.746,+012.730,+0.736,+1.240,+2.437,-02.7730,-03.0520,-08.7380,-00.407822,-00.175630,+00.383364
+087.617,-017.021,+012.216,+0.745,+1.211,+2.475,-03.0440,-01.5730,-08.9160,-00.291925,-00.138649,+00.402374
+087.980,-017.249,+011.821,+0.759,+1.206,+2.475,-03.0110,-01.4130,-08.7260,-00.239265,-00.134546,+00.295816
+088.261,-017.486,+011.450,+0.773,+1.216,+2.465,-02.5510,-01.8400,-08.7670,-00.257324,-00.181716,+00.272361
+088.618,-017.840,+010.940,+0.787,+1.171,+2.482,-02.9230,-02.0880,-08.7720,-00.408410,-00.277387,+00.407075
+089.131,-018.298,+010.312,+0.814,+1.201,+2.499,-03.1570,-01.9690,-08.6920,-00.370787,-00.329860,+00.526216
+089.750,-018.848,+009.790,+0.842,+1.156,+2.485,-03.2350,-01.3660,-08.9440,-00.225021,-00.421814,+00.613854
+090.415,-019.521,+009.309,+0.865,+1.146,+2.486,-03.1920,-01.2980,-08.8780,-00.224966,-00.539851,+00.631335
+091.032,-020.364,+008.799,+0.902,+1.111,+2.493,-03.1980,-01.0970,-08.8970,-00.270072,-00.731598,+00.586100
+091.455,-021.429,+008.266,+0.938,+1.081,+2.463,-03.0190,-01.2810,-08.9520,-00.366788,-00.968508,+00.416172
+091.660,-022.821,+007.652,+0.989,+1.046,+2.449,-03.5250,-01.1400,-08.7710,-00.506604,-01.312551,+00.255977
+091.564,-024.645,+007.048,+1.035,+1.026,+2.462,-04.1510,-00.9880,-09.0250,-00.581176,-01.782907,+00.010126
+090.973,-027.054,+006.599,+1.104,+1.030,+2.401,-05.0480,-01.0210,-08.6940,-00.600392,-02.354527,-00.422894
+089.744,-030.052,+006.448,+1.201,+0.994,+2.368,-05.6830,-00.8120,-08.5520,-00.627880,-02.967521,-00.879317
+087.326,-034.066,+007.105,+1.284,+1.028,+2.333,-04.8760,-00.9550,-09.0490,-00.456434,-04.160363,-01.711697
+083.571,-039.548,+009.442,+1.422,+1.075,+2.173,-04.8700,-01.3150,-11.5670,+00.577163,-05.778803,-01.941616
+079.125,-047.131,+013.642,+1.593,+1.146,+1.960,-04.5540,-01.0440,-11.8860,+01.337980,-07.843528,-01.090907
+073.335,-056.493,+020.581,+1.745,+1.217,+1.709,-10.2390,-01.0530,-08.3220,+02.663136,-09.297930,-00.347687
+063.122,-067.572,+033.481,+1.942,+1.257,+1.250,-07.5740,-06.4210,-13.8090,+03.680192,-10.932900,+01.419268
+036.017,-077.674,+063.544,+2.066,+1.213,+0.714,-10.5850,-03.0610,-26.1230,+03.743147,-10.724740,+01.798858
-011.212,-080.765,+112.537,+2.079,+1.128,+0.431,-09.1430,+06.0580,-39.7940,+01.406545,-04.271558,+02.858313
-009.872,-082.774,+111.934,+2.116,+1.044,+0.401,-02.3910,-03.7310,-33.8930,+00.772589,+02.695353,+01.556998
+026.346,-084.835,+076.069,+2.158,+0.995,+0.564,+03.8950,-02.8350,-07.4100,-00.156798,+03.365009,+01.394342
+064.142,-084.173,+037.962,+2.176,+0.947,+0.683,+03.6100,-03.2190,-02.5320,-00.508278,+02.659001,+01.085124
+082.237,-081.930,+019.282,+2.190,+0.913,+0.775,+01.3320,-04.3630,-08.8860,-00.629520,+02.709367,+00.525677
+089.268,-078.161,+011.325,+2.190,+0.913,+0.952,-01.7470,-05.7130,-15.9210,-01.061699,+04.040085,-00.075236
+091.104,-072.327,+008.438,+2.140,+0.895,+1.149,-03.6000,-04.1350,-13.5790,-00.807810,+05.623197,-00.696286
+090.720,-065.094,+008.094,+2.043,+0.981,+1.396,-05.6220,-03.6890,-11.3160,-00.548533,+06.511428,-01.181028
+089.933,-057.188,+008.065,+1.901,+0.974,+1.680,-07.0500,-02.9920,-11.3250,-00.706127,+06.926998,-01.336244
+089.440,-048.909,+007.712,+1.744,+0.992,+1.909,-09.3970,-00.8780,-13.2650,-00.519101,+07.278526,-01.141324
+089.645,-039.978,+007.565,+1.519,+1.039,+2.140,-11.4320,+00.3210,-15.1010,+00.322452,+07.999511,-00.721049
+090.660,-030.666,+007.858,+1.224,+1.053,+2.341,-12.4260,+00.3910,-11.8710,+01.025891,+08.103216,-00.152401
+092.114,-022.020,+008.864,+0.994,+1.095,+2.460,-13.4990,-01.9720,-15.2910,+01.626302,+07.333440,+00.098094
+093.419,-013.900,+010.154,+0.713,+1.197,+2.500,-16.0470,-06.1940,-21.8460,+01.335861,+07.155196,-00.305872
+094.043,-005.632,+011.466,+0.413,+1.215,+2.557,-21.4330,-04.8960,-19.0430,+01.288897,+07.152329,-01.147451
+093.970,+002.277,+012.830,+0.160,+1.281,+2.572,-26.0100,-05.1840,-13.3690,+00.931758,+06.384487,-01.645976
+093.421,+008.983,+012.818,-0.117,+1.274,+2.528,-29.4460,-06.0770,-04.9430,-00.448334,+05.092854,-01.887261
+092.598,+014.179,+012.334,-0.325,+1.242,+2.497,-36.7230,+03.2740,+03.4590,+00.107005,+03.797950,-01.288104
+092.504,+017.096,+012.859,-0.412,+1.247,+2.483,-37.0900,-00.5500,+13.2630,+00.458232,+01.495165,-00.368069
+091.695,+017.268,+012.510,-0.449,+1.248,+2.444,-34.6100,-03.1980,+06.3650,-00.503788,-00.772503,-01.031618
+089.833,+015.497,+010.919,-0.408,+1.188,+2.494,-25.4050,+04.5960,-00.9490,-01.035993,-02.375109,-01.090378
+089.065,+013.515,+009.250,-0.371,+1.124,+2.566,+41.5270,+10.5710,-25.8880,-00.264776,-01.456932,+00.745069
+090.126,+009.033,+010.767,-0.195,+1.201,+2.546,+01.1030,-12.2480,+21.2050,+01.047427,-05.797909,+00.888805
+088.182,+003.159,+012.708,+0.012,+1.283,+2.528,-22.8190,+06.2800,-24.9370,+01.468411,-04.919594,-00.802550
+087.540,-001.140,+014.338,+0.132,+1.296,+2.528,-04.9130,-07.0030,-14.7900,+01.455422,-03.344834,+00.485180
+086.442,-004.604,+015.775,+0.257,+1.368,+2.484,-04.9890,-04.0300,-15.6820,+00.974262,-02.970229,-00.336733
+085.609,-007.499,+016.731,+0.367,+1.387,+2.457,-04.9020,-05.8780,-13.9390,+00.643178,-02.418387,+00.152424
+084.694,-009.877,+017.098,+0.441,+1.406,+2.460,-03.9060,-01.8570,-12.4490,+00.041711,-02.051608,-00.195242
+084.182,-012.039,+017.323,+0.506,+1.405,+2.420,-01.4160,-04.6500,-08.7810,-00.000540,-01.937485,+00.287724
+084.039,-014.090,+016.461,+0.589,+1.394,+2.418,-02.7100,-02.3990,-09.2530,-01.188537,-01.538990,+00.489769
+084.288,-015.560,+015.267,+0.639,+1.335,+2.453,-04.8940,-01.5580,-12.1390,-00.735355,-00.829996,+00.516640
+084.492,-016.149,+014.922,+0.653,+1.335,+2.432,-03.8090,-01.6970,-10.0860,-00.051676,-00.298324,+00.182427
+084.524,-016.413,+014.917,+0.685,+1.315,+2.434,-02.8010,-02.2240,-08.8730,-00.014540,-00.195056,+00.056820
+084.532,-016.664,+014.853,+0.681,+1.349,+2.455,-02.6220,-02.6170,-08.5760,-00.071768,-00.222108,+00.075146
+084.635,-016.992,+014.644,+0.694,+1.329,+2.418,-02.4450,-02.2770,-08.7380,-00.211158,-00.270640,+00.223652
+084.922,-017.372,+014.222,+0.718,+1.285,+2.452,-02.8140,-02.0670,-08.7080,-00.338131,-00.256774,+00.351765
+085.310,-017.775,+013.709,+0.722,+1.265,+2.468,-03.1150,-01.7120,-08.8250,-00.328898,-00.265867,+00.433425
+085.802,-018.199,+013.218,+0.745,+1.265,+2.448,-03.0960,-02.3080,-08.6610,-00.255221,-00.272014,+00.509375
+086.379,-018.657,+012.733,+0.764,+1.245,+2.443,-03.0110,-01.9750,-08.7500,-00.239377,-00.303143,+00.593311
+087.004,-019.202,+012.310,+0.791,+1.215,+2.450,-03.4550,-01.8490,-08.7090,-00.170662,-00.381063,+00.594783
+087.542,-019.847,+011.901,+0.823,+1.215,+2.446,-03.4070,-01.6270,-08.4400,-00.240006,-00.530333,+00.515237
+087.974,-020.674,+011.364,+0.851,+1.195,+2.437,-02.8260,-01.6800,-08.9350,-00.371809,-00.704954,+00.494071
+088.325,-021.702,+010.806,+0.888,+1.180,+2.460,-03.6660,-01.5560,-08.7420,-00.371801,-00.866036,+00.352926
+088.320,-022.889,+010.327,+0.939,+1.175,+2.441,-03.5830,-01.5930,-08.6690,-00.463560,-01.139849,+00.112501
+088.091,-024.465,+009.841,+0.994,+1.139,+2.422,-03.8360,-01.5540,-08.6090,-00.540280,-01.534212,+00.006328
+087.461,-026.507,+009.461,+1.035,+1.144,+2.440,-04.8480,-01.2750,-08.7520,-00.551518,-02.037473,-00.366028
+086.201,-029.076,+009.360,+1.109,+1.128,+2.363,-05.4640,-01.2890,-08.5540,-00.581002,-02.579010,-00.760498
