Yaw,Pitch,Roll,MagX,MagY,MagZ,AccelX,AccelY,AccelZ,GyroX,GyroY,GyroZ
+137.210,-017.685,+003.960,-0.154,+0.417,+2.613,-02.8830,-00.5990,-08.9610,-00.002153,-00.002558,+00.003894
+137.212,-017.687,+003.958,-0.158,+0.414,+2.599,-02.8620,-00.6370,-08.9490,+00.000266,-00.001821,+00.001658
+137.212,-017.690,+003.958,-0.163,+0.437,+2.639,-02.8680,-00.6200,-08.9570,-00.000747,-00.001540,+00.000496
+137.212,-017.692,+003.957,-0.149,+0.432,+2.629,-02.8890,-00.6080,-08.9230,-00.000337,+00.000290,-00.000701
+137.212,-017.694,+003.955,-0.156,+0.407,+2.610,-02.8980,-00.6190,-08.9650,-00.001651,-00.000853,-00.000024
+137.214,-017.696,+003.953,-0.154,+0.397,+2.640,-02.8480,-00.6500,-08.9480,-00.003077,-00.002169,+00.004094
+137.217,-017.698,+003.949,-0.158,+0.407,+2.640,-02.8460,-00.6250,-08.9620,-00.002809,-00.001700,+00.003530
+137.219,-017.701,+003.945,-0.163,+0.404,+2.610,-02.8820,-00.6140,-09.0020,-00.002041,-00.001736,+00.003120
+137.222,-017.703,+003.942,-0.158,+0.382,+2.645,-02.8510,-00.6210,-09.0010,-00.002132,-00.001315,+00.003899
+137.224,-017.706,+003.938,-0.154,+0.397,+2.629,-02.8840,-00.6110,-08.9590,-00.001795,-00.005525,+00.002615
+137.227,-017.708,+003.938,-0.161,+0.402,+2.607,-02.8750,-00.6070,-08.9860,+00.003445,+00.002790,+00.003169
+137.229,-017.709,+003.937,-0.158,+0.377,+2.645,-02.8590,-00.6330,-08.9730,-00.003260,-00.002229,+00.004506
+137.230,-017.714,+003.932,-0.154,+0.392,+2.634,-02.8750,-00.6260,-08.9770,-00.003469,-00.002525,+00.002885
+137.231,-017.715,+003.928,-0.161,+0.400,+2.629,-02.8590,-00.6120,-08.9440,-00.002367,-00.000790,+00.002173
+137.232,-017.718,+003.923,-0.154,+0.377,+2.613,-02.8580,-00.6120,-08.9640,-00.002915,-00.004869,+00.002491
+137.229,-017.721,+003.925,-0.149,+0.402,+2.640,-02.8940,-00.6200,-08.9970,+00.001953,+00.001269,-00.000893
+137.225,-017.721,+003.929,-0.151,+0.399,+2.621,-02.8700,-00.6050,-08.9510,+00.002662,+00.002928,-00.002311
+137.222,-017.717,+003.933,-0.163,+0.392,+2.645,-02.8600,-00.6120,-08.9650,+00.000015,+00.001563,-00.001548
+137.220,-017.717,+003.932,-0.158,+0.407,+2.618,-02.8610,-00.6120,-08.9510,-00.002759,+00.001327,-00.000523
+137.219,-017.716,+003.930,-0.165,+0.405,+2.623,-02.8490,-00.6110,-08.9380,-00.002647,+00.000050,-00.000731
+137.219,-017.714,+003.927,-0.163,+0.382,+2.629,-02.8700,-00.6060,-08.9390,-00.002268,-00.000445,+00.000188
+137.218,-017.714,+003.924,-0.158,+0.397,+2.634,-02.8450,-00.6320,-08.9690,-00.001652,-00.000793,+00.002284
+137.217,-017.714,+003.924,-0.161,+0.395,+2.626,-02.8570,-00.6340,-08.9680,-00.001518,-00.000993,+00.002636
+137.219,-017.714,+003.920,-0.149,+0.412,+2.640,-02.8800,-00.6130,-09.0070,-00.001719,-00.001372,+00.002696
+137.221,-017.714,+003.919,-0.154,+0.437,+2.607,-02.8660,-00.6400,-08.9980,-00.000761,+00.000290,+00.001074
+137.221,-017.714,+003.918,-0.156,+0.414,+2.618,-02.8690,-00.6230,-08.9790,-00.000563,-00.000221,+00.001020
+137.220,-017.715,+003.919,-0.158,+0.387,+2.634,-02.8500,-00.6480,-08.9730,-00.000120,-00.001049,-00.000759
+137.218,-017.717,+003.921,-0.163,+0.402,+2.645,-02.8970,-00.6260,-08.9780,+00.000328,-00.002322,-00.000381
+137.216,-017.722,+003.926,-0.154,+0.432,+2.607,-02.8860,-00.6460,-08.9800,+00.000685,-00.001803,+00.000088
+137.216,-017.724,+003.927,-0.154,+0.407,+2.651,-02.8870,-00.6050,-08.9790,+00.000340,-00.002450,+00.000179
+137.214,-017.727,+003.928,-0.168,+0.387,+2.639,-02.8590,-00.6290,-08.9710,+00.001105,-00.002686,-00.000083
+137.214,-017.730,+003.928,-0.151,+0.414,+2.613,-02.8830,-00.6250,-08.9780,-00.000254,-00.002022,+00.001339
+137.213,-017.731,+003.929,-0.163,+0.392,+2.650,-02.8780,-00.6060,-08.9470,+00.000360,-00.001333,-00.000579
+137.211,-017.732,+003.932,-0.158,+0.397,+2.613,-02.8640,-00.6370,-08.9970,+00.000464,-00.001495,+00.001281
+137.209,-017.733,+003.933,-0.154,+0.392,+2.616,-02.8800,-00.6110,-08.9600,+00.000613,-00.000921,-00.000460
+137.208,-017.735,+003.934,-0.158,+0.372,+2.651,-02.8870,-00.6250,-08.9570,-00.001010,-00.000473,+00.001739
+137.207,-017.734,+003.935,-0.154,+0.422,+2.613,-02.8690,-00.6040,-08.9570,-00.001780,+00.000322,+00.000206
+137.209,-017.734,+003.931,-0.156,+0.414,+2.626,-02.8650,-00.6250,-08.9900,-00.001642,-00.000417,+00.002656
+137.210,-017.736,+003.929,-0.158,+0.372,+2.634,-02.8950,-00.6150,-08.9740,-00.001229,+00.000034,+00.002442
+137.209,-017.736,+003.925,-0.158,+0.412,+2.629,-02.8750,-00.6020,-08.9700,-00.002092,-00.000743,+00.000631
+137.209,-017.736,+003.923,-0.158,+0.387,+2.615,-02.8700,-00.6060,-08.9460,-00.000956,-00.000253,+00.001455
+137.208,-017.737,+003.922,-0.158,+0.397,+2.650,-02.8710,-00.6200,-08.9870,-00.001390,-00.000818,+00.000258
+137.207,-017.739,+003.921,-0.168,+0.412,+2.623,-02.8880,-00.6330,-08.9620,-00.001455,-00.000117,+00.001484
+137.206,-017.738,+003.919,-0.151,+0.399,+2.618,-02.8670,-00.6110,-08.9500,-00.001535,-00.000258,+00.000760
+137.205,-017.738,+003.919,-0.158,+0.387,+2.645,-02.8540,-00.6170,-08.9680,-00.001110,-00.000218,-00.000155
+137.205,-017.738,+003.916,-0.149,+0.392,+2.629,-02.8680,-00.5960,-08.9510,-00.000824,-00.000464,+00.000590
+137.204,-017.739,+003.913,-0.161,+0.397,+2.612,-02.8770,-00.6040,-08.9630,-00.001110,-00.000414,-00.001042
+137.203,-017.737,+003.912,-0.163,+0.402,+2.639,-02.8730,-00.6140,-08.9340,-00.000686,+00.000329,-00.001926
+137.201,-017.736,+003.911,-0.154,+0.412,+2.623,-02.8720,-00.6070,-08.9800,-00.001844,-00.000031,-00.001831
+137.197,-017.735,+003.910,-0.156,+0.399,+2.615,-02.8820,-00.6080,-08.9440,-00.000298,+00.001206,-00.002515
+137.195,-017.732,+003.911,-0.144,+0.397,+2.651,-02.8620,-00.6140,-08.9920,-00.000256,+00.001577,-00.001693
+137.191,-017.731,+003.912,-0.158,+0.417,+2.640,-02.8810,-00.6240,-08.9760,-00.000780,+00.002245,-00.001513
+137.188,-017.729,+003.912,-0.156,+0.412,+2.621,-02.8600,-00.5980,-08.9870,+00.000273,+00.001994,-00.000866
+137.187,-017.728,+003.909,-0.154,+0.392,+2.645,-02.8950,-00.6250,-08.9680,-00.001715,+00.003039,-00.001018
+137.183,-017.725,+003.910,-0.149,+0.397,+2.635,-02.8860,-00.6120,-08.9720,+00.000735,+00.001427,-00.002481
+137.179,-017.722,+003.911,-0.158,+0.409,+2.615,-02.8870,-00.6050,-09.0100,-00.001554,+00.002386,-00.002527
+137.175,-017.720,+003.911,-0.163,+0.377,+2.640,-02.8630,-00.6330,-08.9550,-00.002656,+00.004449,-00.003619
+137.170,-017.717,+003.910,-0.158,+0.402,+2.623,-02.8690,-00.5410,-08.9740,+00.000567,+00.002415,-00.002983
+137.164,-017.712,+003.913,-0.156,+0.407,+2.626,-02.8790,-00.5910,-08.9610,+00.001768,+00.002129,-00.004162
+137.157,-017.709,+003.919,-0.172,+0.402,+2.617,-02.8520,-00.6850,-08.9750,+00.003335,+00.001908,-00.004117
+137.150,-017.705,+003.924,-0.158,+0.407,+2.629,-02.8180,-00.5560,-09.0060,+00.005938,+00.002313,-00.004286
+137.146,-017.703,+003.928,-0.161,+0.419,+2.623,-02.8520,-00.6050,-08.9710,+00.002812,+00.001858,-00.003131
+137.143,-017.702,+003.935,-0.154,+0.392,+2.634,-02.8530,-00.6160,-08.9660,+00.004321,-00.001069,-00.001571
+137.139,-017.704,+003.940,-0.149,+0.402,+2.635,-02.8550,-00.6480,-08.9390,+00.003164,-00.002135,-00.002207
+137.137,-017.704,+003.945,-0.156,+0.402,+2.621,-02.8650,-00.6310,-08.9970,+00.002357,+00.000326,+00.000702
+137.135,-017.704,+003.948,-0.163,+0.377,+2.623,-02.8470,-00.6310,-08.9950,+00.002421,+00.000466,+00.001305
+137.135,-017.703,+003.950,-0.154,+0.422,+2.629,-02.8530,-00.6080,-08.9770,+00.002459,+00.000249,+00.001035
+137.133,-017.704,+003.954,-0.161,+0.409,+2.629,-02.8620,-00.6180,-08.9790,+00.003758,-00.000101,-00.002181
+137.130,-017.704,+003.957,-0.154,+0.387,+2.640,-02.8610,-00.6120,-08.9620,+00.001494,-00.001139,-00.001457
+137.127,-017.704,+003.960,-0.168,+0.407,+2.623,-02.8590,-00.6400,-08.9700,+00.001925,-00.000276,-00.002264
+137.125,-017.704,+003.961,-0.154,+0.389,+2.618,-02.8600,-00.6300,-08.9810,+00.000359,-00.000498,+00.000537
+137.124,-017.705,+003.961,-0.168,+0.387,+2.656,-02.8830,-00.6440,-08.9410,-00.000103,-00.000172,+00.001131
+137.124,-017.705,+003.960,-0.154,+0.397,+2.629,-02.8600,-00.6130,-08.9740,-00.000295,-00.001617,+00.002130
+137.124,-017.706,+003.958,-0.156,+0.399,+2.629,-02.8810,-00.6140,-08.9950,-00.000241,-00.001993,+00.000705
+137.125,-017.707,+003.958,-0.168,+0.452,+2.650,-02.8820,-00.6300,-08.9570,-00.000329,-00.000381,-00.000208
+137.126,-017.707,+003.957,-0.154,+0.402,+2.640,-02.8580,-00.6340,-08.9660,-00.001152,-00.001318,+00.002112
+137.129,-017.711,+003.952,-0.165,+0.419,+2.620,-02.8970,-00.5950,-08.9640,-00.001536,-00.002316,+00.001747
+137.132,-017.712,+003.950,-0.168,+0.437,+2.650,-02.8670,-00.6460,-08.9690,-00.002234,-00.000998,+00.002630
+137.138,-017.714,+003.945,-0.168,+0.392,+2.623,-02.8590,-00.6140,-08.9910,-00.005687,-00.002508,+00.005785
+137.142,-017.716,+003.938,-0.149,+0.392,+2.629,-02.8750,-00.6260,-08.9700,-00.003747,-00.002217,+00.005613
+137.147,-017.721,+003.933,-0.154,+0.382,+2.640,-02.8780,-00.6300,-08.9690,-00.002037,-00.001630,+00.002451
+137.149,-017.724,+003.928,-0.154,+0.447,+2.612,-02.8930,-00.6210,-08.9600,-00.002034,-00.001084,+00.002588
+137.152,-017.726,+003.925,-0.151,+0.402,+2.621,-02.8610,-00.6240,-08.9640,-00.001100,-00.001614,+00.002042
+137.153,-017.726,+003.923,-0.158,+0.387,+2.651,-02.8780,-00.6430,-08.9690,-00.001477,-00.001287,+00.000155
+137.154,-017.726,+003.920,-0.163,+0.397,+2.607,-02.8820,-00.5800,-08.9550,-00.001067,-00.000380,+00.002207
+137.155,-017.729,+003.919,-0.151,+0.417,+2.588,-02.8690,-00.6090,-08.9920,-00.000344,-00.004367,+00.000627
+137.155,-017.732,+003.919,-0.163,+0.392,+2.634,-02.8900,-00.6410,-08.9620,-00.000095,-00.001908,+00.000032
+137.154,-017.734,+003.921,-0.144,+0.407,+2.624,-02.8660,-00.6390,-08.9670,+00.002583,-00.001085,+00.001705
+137.154,-017.737,+003.924,-0.163,+0.405,+2.629,-02.8690,-00.6410,-08.9600,+00.002684,-00.000618,-00.001511
+137.154,-017.738,+003.925,-0.149,+0.362,+2.640,-02.9030,-00.5760,-08.9400,+00.002582,-00.000040,-00.000607
+137.153,-017.736,+003.926,-0.163,+0.387,+2.623,-02.8470,-00.6300,-08.9500,+00.001007,+00.000238,-00.000555
+137.153,-017.736,+003.927,-0.154,+0.412,+2.615,-02.8690,-00.6020,-08.9520,+00.001787,+00.000057,+00.000284
+137.151,-017.738,+003.928,-0.168,+0.397,+2.645,-02.8790,-00.6140,-08.9730,+00.001409,-00.001958,-00.000998
+137.148,-017.741,+003.932,-0.149,+0.402,+2.618,-02.9210,-00.6820,-08.9610,+00.000335,-00.001679,-00.002827
+137.147,-017.740,+003.932,-0.151,+0.414,+2.626,-02.8850,-00.5950,-08.9820,+00.001227,-00.000742,+00.001985
+137.147,-017.739,+003.932,-0.158,+0.382,+2.651,-02.8770,-00.5900,-08.9610,+00.000626,-00.000152,-00.001265
+137.143,-017.739,+003.934,-0.149,+0.402,+2.629,-02.8760,-00.6040,-08.9670,+00.001343,+00.000248,-00.003107
+137.137,-017.739,+003.936,-0.158,+0.392,+2.621,-02.9100,-00.6050,-08.9860,-00.000070,+00.000304,-00.003167
+137.132,-017.737,+003.940,-0.154,+0.392,+2.656,-02.8610,-00.6280,-08.9480,+00.002161,+00.003142,-00.003459
+137.126,-017.734,+003.944,-0.163,+0.457,+2.628,-02.8840,-00.6330,-08.9560,+00.001577,+00.001490,-00.004444
+137.122,-017.730,+003.945,-0.156,+0.399,+2.621,-02.8820,-00.5860,-08.9820,+00.000420,+00.002326,-00.003867
+137.118,-017.727,+003.946,-0.149,+0.387,+2.651,-02.8500,-00.6030,-08.9590,+00.000669,+00.003046,-00.002365
+137.114,-017.724,+003.948,-0.163,+0.397,+2.623,-02.8900,-00.6440,-08.9630,+00.000993,+00.001944,-00.001044
+137.115,-017.723,+003.949,-0.154,+0.407,+2.621,-02.8570,-00.6080,-08.9460,+00.000745,-00.001282,+00.001917
+137.113,-017.725,+003.950,-0.168,+0.382,+2.623,-02.8790,-00.6160,-08.9780,+00.000513,-00.001329,+00.000040
+137.111,-017.725,+003.951,-0.158,+0.427,+2.612,-02.8580,-00.6490,-08.9580,+00.000862,-00.000122,-00.000988
+137.110,-017.723,+003.952,-0.158,+0.397,+2.610,-02.8530,-00.6210,-09.0040,+00.000877,+00.000834,+00.000316
+137.110,-017.723,+003.953,-0.154,+0.417,+2.640,-02.8950,-00.6080,-08.9600,-00.000056,-00.000981,+00.001132
+137.110,-017.724,+003.954,-0.149,+0.397,+2.624,-02.8780,-00.6420,-08.9700,-00.000513,-00.000053,+00.000805
+137.111,-017.725,+003.953,-0.154,+0.404,+2.621,-02.8590,-00.6030,-09.0170,+00.001364,-00.001902,+00.002484
+137.112,-017.728,+003.953,-0.154,+0.392,+2.645,-02.8850,-00.6500,-08.9730,-00.000069,-00.000869,+00.002606
+137.112,-017.731,+003.954,-0.154,+0.387,+2.629,-02.8790,-00.6330,-08.9590,+00.001283,-00.002522,+00.001146
+137.113,-017.734,+003.954,-0.163,+0.402,+2.626,-02.8850,-00.6250,-08.9530,+00.001033,-00.002456,+00.001637
+137.115,-017.736,+003.955,-0.154,+0.422,+2.650,-02.8650,-00.6230,-08.9680,+00.002760,-00.002653,+00.001665
+137.118,-017.740,+003.954,-0.158,+0.412,+2.629,-02.8710,-00.5920,-08.9720,-00.000771,-00.003481,+00.003723
+137.119,-017.744,+003.953,-0.151,+0.385,+2.624,-02.8840,-00.6030,-08.9710,-00.001154,-00.001416,+00.001873
+137.120,-017.746,+003.951,-0.154,+0.392,+2.629,-02.8760,-00.6180,-08.9420,-00.001453,-00.002303,+00.003239
+137.118,-017.749,+003.948,-0.163,+0.422,+2.618,-02.8920,-00.5800,-08.9680,-00.000546,+00.000786,+00.000164
+137.119,-017.751,+003.946,-0.144,+0.402,+2.619,-02.8770,-00.5960,-08.9700,-00.000680,-00.001977,+00.000860
+137.118,-017.753,+003.947,-0.144,+0.392,+2.651,-02.8930,-00.6270,-08.9800,+00.001095,-00.001075,-00.000395
+137.117,-017.754,+003.947,-0.149,+0.397,+2.629,-02.8960,-00.6140,-08.9820,-00.000290,-00.000560,+00.000768
+137.117,-017.756,+003.944,-0.158,+0.417,+2.602,-02.9040,-00.6280,-08.9760,-00.001172,+00.000588,+00.002096
+137.118,-017.757,+003.942,-0.158,+0.392,+2.634,-02.8790,-00.6210,-08.9650,-00.001030,-00.000224,+00.000842
+137.117,-017.755,+003.939,-0.158,+0.397,+2.623,-02.8770,-00.6040,-08.9460,-00.000046,+00.000744,-00.001842
+137.114,-017.754,+003.939,-0.151,+0.392,+2.618,-02.8780,-00.6130,-08.9910,+00.000808,-00.000230,-00.001989
+137.110,-017.752,+003.939,-0.140,+0.387,+2.657,-02.8490,-00.6020,-08.9730,-00.000943,+00.000965,-00.001726
+137.110,-017.753,+003.939,-0.158,+0.417,+2.607,-02.8740,-00.6090,-09.0050,+00.001012,+00.001536,+00.000879
+137.110,-017.754,+003.939,-0.149,+0.407,+2.616,-02.8670,-00.6430,-08.9530,+00.000135,-00.001300,+00.001352
+137.110,-017.756,+003.937,-0.149,+0.412,+2.618,-02.8650,-00.6380,-08.9610,-00.000743,-00.002901,+00.002394
+137.110,-017.758,+003.937,-0.158,+0.407,+2.629,-02.8620,-00.6250,-08.9620,-00.001623,-00.002206,+00.001035
+137.110,-017.762,+003.936,-0.156,+0.395,+2.623,-02.8880,-00.6450,-08.9810,-00.001164,-00.005240,+00.003954
+137.111,-017.766,+003.934,-0.158,+0.382,+2.656,-02.8640,-00.6230,-08.9530,-00.001352,-00.003914,+00.000554
+137.112,-017.771,+003.932,-0.154,+0.387,+2.618,-02.8590,-00.6300,-08.9830,-00.000751,-00.004306,+00.003511
+137.112,-017.776,+003.930,-0.151,+0.395,+2.632,-02.8390,-00.5890,-08.9920,+00.000105,-00.005306,+00.001395
+137.111,-017.781,+003.928,-0.158,+0.377,+2.651,-02.8710,-00.5630,-08.9310,-00.000311,-00.003971,+00.000948
+137.112,-017.785,+003.928,-0.144,+0.407,+2.618,-02.8820,-00.6300,-08.9840,-00.000130,-00.001563,+00.000824
+137.110,-017.783,+003.929,-0.149,+0.407,+2.624,-02.8530,-00.6370,-08.9400,+00.000409,+00.002462,-00.001210
+137.108,-017.782,+003.931,-0.140,+0.412,+2.657,-02.8400,-00.6220,-08.9920,+00.001072,+00.000745,-00.002445
+137.104,-017.780,+003.936,-0.158,+0.387,+2.629,-02.8550,-00.6250,-08.9760,+00.003115,+00.000206,-00.000812
+137.102,-017.780,+003.939,-0.158,+0.402,+2.596,-02.8850,-00.6220,-08.9640,+00.002796,-00.000902,-00.001609
+137.100,-017.783,+003.941,-0.149,+0.377,+2.624,-02.8780,-00.6200,-08.9970,+00.002631,-00.002317,-00.000342
+137.099,-017.786,+003.943,-0.149,+0.402,+2.618,-02.8830,-00.6270,-08.9570,+00.000613,-00.001369,-00.000059
+137.100,-017.788,+003.943,-0.154,+0.419,+2.596,-02.8720,-00.6490,-08.9580,-00.001310,-00.002582,+00.002180
+137.101,-017.791,+003.943,-0.149,+0.402,+2.651,-02.8830,-00.6110,-08.9460,+00.001305,-00.002768,+00.001330
+137.101,-017.792,+003.944,-0.144,+0.402,+2.629,-02.8820,-00.6190,-08.9140,+00.001360,+00.000491,+00.000084
+137.101,-017.795,+003.946,-0.149,+0.394,+2.610,-02.9030,-00.6140,-08.9750,+00.003117,-00.002660,-00.001005
+137.097,-017.796,+003.950,-0.154,+0.377,+2.624,-02.8880,-00.6290,-08.9580,+00.002828,-00.003089,-00.001380
+137.095,-017.799,+003.953,-0.154,+0.392,+2.613,-02.9230,-00.6270,-08.9360,+00.001704,-00.000045,-00.000149
+137.094,-017.801,+003.955,-0.151,+0.402,+2.618,-02.8780,-00.6210,-08.9900,+00.001724,-00.001529,-00.000043
+137.094,-017.800,+003.956,-0.158,+0.372,+2.640,-02.8790,-00.6140,-08.9760,+00.001203,+00.000915,+00.000985
+137.092,-017.800,+003.957,-0.168,+0.402,+2.612,-02.8920,-00.6240,-08.9660,+00.002336,+00.002518,-00.001899
+137.089,-017.799,+003.959,-0.154,+0.412,+2.615,-02.8930,-00.5900,-08.9770,+00.002504,+00.000793,-00.003021
+137.085,-017.797,+003.962,-0.163,+0.387,+2.639,-02.8850,-00.6140,-08.9570,+00.001943,+00.002496,-00.003936
+137.080,-017.796,+003.965,-0.158,+0.397,+2.618,-02.8950,-00.6300,-08.9410,+00.002640,+00.001894,-00.003902
+137.075,-017.793,+003.969,-0.156,+0.399,+2.607,-02.8530,-00.6070,-08.9970,+00.001373,+00.000271,-00.000779
+137.074,-017.793,+003.971,-0.154,+0.407,+2.661,-02.8640,-00.6350,-08.9710,+00.001293,-00.002089,+00.000536
+137.075,-017.796,+003.972,-0.140,+0.426,+2.591,-02.8840,-00.6230,-08.9870,+00.002126,-00.001966,+00.000184
+137.075,-017.798,+003.974,-0.154,+0.404,+2.632,-02.8910,-00.6090,-08.9950,+00.002222,-00.001241,+00.000802
+137.076,-017.800,+003.974,-0.154,+0.397,+2.656,-02.8810,-00.6100,-09.0010,-00.000997,-00.001086,+00.000868
+137.077,-017.800,+003.974,-0.149,+0.417,+2.624,-02.8800,-00.6270,-08.9630,+00.001326,+00.000113,+00.001821
+137.077,-017.800,+003.974,-0.158,+0.402,+2.623,-02.8930,-00.5820,-08.9640,+00.003377,-00.000372,-00.003518
+137.071,-017.801,+003.982,-0.154,+0.402,+2.640,-02.8970,-00.6620,-08.9460,+00.002582,-00.000607,-00.002360
+137.066,-017.801,+003.987,-0.149,+0.387,+2.624,-02.8760,-00.6250,-08.9290,+00.003286,+00.000036,-00.002605
+137.062,-017.801,+003.992,-0.154,+0.399,+2.629,-02.8900,-00.6390,-08.9600,+00.002125,+00.000380,-00.000395
+137.061,-017.804,+003.992,-0.163,+0.382,+2.645,-02.9170,-00.6110,-08.9380,+00.002439,-00.000928,-00.002577
+137.060,-017.802,+003.995,-0.154,+0.402,+2.618,-02.8390,-00.6530,-08.9610,+00.001518,-00.000320,+00.002274
+137.061,-017.804,+003.994,-0.158,+0.402,+2.610,-02.8980,-00.6330,-08.9440,-00.000270,-00.002422,+00.001885
+137.061,-017.804,+003.992,-0.149,+0.397,+2.651,-02.8750,-00.6150,-08.9900,+00.000375,-00.000659,+00.000872
+137.059,-017.805,+003.994,-0.144,+0.427,+2.613,-02.9050,-00.6290,-08.9940,+00.001595,-00.000358,-00.002235
+137.057,-017.805,+003.994,-0.156,+0.399,+2.623,-02.8790,-00.6210,-08.9630,+00.001284,+00.001400,+00.000118
+137.057,-017.804,+003.995,-0.149,+0.387,+2.662,-02.8770,-00.6220,-08.9560,+00.001345,+00.000901,+00.000040
+137.059,-017.804,+003.994,-0.154,+0.417,+2.613,-02.8890,-00.6740,-08.9610,+00.001051,+00.000171,+00.000938
+137.058,-017.803,+003.995,-0.156,+0.424,+2.626,-02.8730,-00.6250,-08.9500,+00.001324,-00.000320,-00.000100
+137.057,-017.806,+003.995,-0.154,+0.392,+2.640,-02.8930,-00.5870,-08.9570,+00.001343,+00.000089,-00.001252
+137.055,-017.806,+003.996,-0.144,+0.407,+2.624,-02.8880,-00.6250,-08.9370,+00.001180,+00.000398,-00.000657
+137.054,-017.805,+003.997,-0.151,+0.434,+2.629,-02.8760,-00.6220,-08.9760,+00.000298,+00.002550,-00.001338
+137.052,-017.803,+003.999,-0.154,+0.392,+2.640,-02.9020,-00.6650,-08.9520,+00.000808,+00.001598,-00.000892
+137.052,-017.801,+004.000,-0.158,+0.407,+2.629,-02.8690,-00.6360,-08.9450,+00.000470,+00.001027,+00.001201
+137.051,-017.799,+004.003,-0.156,+0.397,+2.629,-02.8600,-00.6460,-08.9810,+00.001725,+00.000775,+00.000719
+137.053,-017.799,+004.004,-0.158,+0.397,+2.650,-02.8640,-00.6150,-08.9690,-00.001595,-00.000533,+00.003807
+137.055,-017.799,+004.001,-0.144,+0.407,+2.640,-02.8960,-00.6250,-08.9780,-00.000319,+00.000672,+00.000948
+137.054,-017.797,+003.998,-0.154,+0.402,+2.615,-02.8840,-00.6360,-09.0020,-00.001091,+00.001257,-00.001873
+137.051,-017.796,+003.998,-0.158,+0.397,+2.640,-02.8780,-00.6370,-08.9430,-00.000884,-00.000260,-00.000854
+137.051,-017.795,+003.997,-0.144,+0.437,+2.640,-02.8950,-00.6120,-08.9540,-00.000640,-00.000067,+00.001148
+137.052,-017.796,+003.994,-0.161,+0.444,+2.623,-02.9060,-00.6280,-08.9540,-00.001907,+00.000460,+00.002233
+137.055,-017.797,+003.992,-0.154,+0.372,+2.645,-02.8900,-00.6180,-08.9400,+00.000024,-00.001108,+00.003361
+137.056,-017.798,+003.990,-0.158,+0.412,+2.629,-02.8980,-00.6020,-08.9590,+00.000098,-00.000645,-00.000325
+137.056,-017.798,+003.990,-0.149,+0.414,+2.610,-02.8750,-00.6140,-08.9860,+00.000262,-00.001764,+00.000419
+137.056,-017.798,+003.990,-0.154,+0.377,+2.640,-02.8880,-00.6100,-08.9430,+00.000388,-00.000754,-00.000261
+137.054,-017.801,+003.992,-0.149,+0.412,+2.591,-02.8950,-00.6270,-08.9400,+00.001954,-00.001396,+00.000115
+137.052,-017.803,+003.996,-0.149,+0.389,+2.616,-02.8860,-00.6360,-08.9740,+00.002717,-00.001540,+00.000722
+137.053,-017.806,+003.996,-0.149,+0.382,+2.646,-02.8680,-00.6100,-08.9480,+00.002818,-00.002560,-00.000046
+137.051,-017.808,+004.000,-0.144,+0.417,+2.618,-02.8830,-00.6100,-08.9930,+00.003189,-00.002611,-00.000321
+137.049,-017.809,+004.005,-0.158,+0.404,+2.612,-02.9080,-00.6430,-08.9490,+00.002502,-00.000792,-00.001337
+137.047,-017.812,+004.007,-0.163,+0.372,+2.650,-02.8860,-00.6420,-08.9400,+00.001184,-00.001987,+00.000035
+137.046,-017.813,+004.009,-0.154,+0.407,+2.629,-02.8950,-00.6220,-08.9610,+00.000019,-00.000847,-00.000809
+137.042,-017.814,+004.013,-0.149,+0.412,+2.610,-02.8860,-00.6420,-08.9500,+00.001868,-00.000619,-00.001707
+137.042,-017.813,+004.014,-0.158,+0.417,+2.629,-02.8870,-00.6440,-08.9590,-00.000078,+00.000618,+00.000780
+137.041,-017.814,+004.013,-0.163,+0.412,+2.634,-02.9080,-00.6090,-08.9590,-00.002454,+00.000209,+00.000863
+137.041,-017.813,+004.010,-0.149,+0.404,+2.629,-02.8940,-00.6250,-08.9440,-00.002151,+00.000740,+00.001103
+137.042,-017.813,+004.008,-0.158,+0.392,+2.618,-02.9110,-00.6330,-08.9520,-00.003160,+00.000346,+00.000863
+137.042,-017.812,+004.003,-0.144,+0.397,+2.629,-02.8800,-00.6140,-08.9750,-00.002862,+00.003521,+00.000293
+137.042,-017.809,+003.999,-0.147,+0.387,+2.627,-02.8750,-00.6060,-08.9470,-00.001141,+00.002027,-00.000426
+137.041,-017.808,+003.996,-0.154,+0.377,+2.629,-02.8830,-00.6170,-08.9650,+00.000197,+00.000422,+00.000120
+137.039,-017.808,+003.995,-0.144,+0.397,+2.624,-02.8840,-00.6240,-08.9550,-00.001039,-00.000258,-00.001057
+137.038,-017.809,+003.994,-0.151,+0.402,+2.624,-02.9270,-00.6320,-08.9450,-00.002215,+00.000508,-00.000024
+137.037,-017.808,+003.992,-0.149,+0.402,+2.640,-02.8980,-00.6120,-08.9630,-00.001703,+00.001182,+00.000698
+137.036,-017.806,+003.989,-0.163,+0.402,+2.629,-02.8790,-00.6930,-08.9770,-00.003703,+00.002299,+00.000626
+137.035,-017.802,+003.983,-0.156,+0.404,+2.621,-02.9090,-00.7200,-08.9640,-00.004525,+00.004506,+00.000456
+137.035,-017.797,+003.977,-0.154,+0.377,+2.651,-02.9110,-00.5980,-08.9820,-00.004142,+00.005161,-00.003245
+137.031,-017.792,+003.973,-0.154,+0.387,+2.624,-02.8790,-00.5300,-08.9520,-00.004107,+00.004483,-00.004240
+137.024,-017.788,+003.974,-0.154,+0.419,+2.604,-02.8810,-00.6830,-08.9710,-00.002049,+00.002064,-00.003655
+137.020,-017.783,+003.970,-0.163,+0.387,+2.640,-02.8850,-00.6490,-08.9870,-00.005584,+00.005444,-00.001371
+137.021,-017.778,+003.963,-0.149,+0.397,+2.635,-02.8910,-00.5770,-08.9710,-00.006313,+00.005440,+00.001345
+137.019,-017.774,+003.956,-0.154,+0.390,+2.621,-02.8750,-00.5930,-08.9600,-00.003565,+00.003274,-00.000822
+137.015,-017.770,+003.953,-0.144,+0.372,+2.651,-02.8520,-00.6150,-08.9360,-00.002063,+00.002916,-00.002176
+137.012,-017.768,+003.951,-0.154,+0.417,+2.618,-02.8910,-00.5840,-08.9580,-00.001637,+00.002452,-00.003054
+137.009,-017.764,+003.950,-0.151,+0.402,+2.618,-02.8880,-00.6090,-08.9680,-00.000850,+00.004722,-00.002336
+137.004,-017.758,+003.951,-0.154,+0.367,+2.640,-02.9040,-00.5940,-08.9550,-00.000495,+00.004747,-00.003730
+137.000,-017.752,+003.953,-0.154,+0.397,+2.629,-02.8770,-00.6180,-08.9590,+00.002560,+00.005849,-00.003965
+136.991,-017.745,+003.960,-0.158,+0.389,+2.610,-02.8540,-00.6050,-08.9720,+00.007629,+00.005497,-00.007305
+136.983,-017.738,+003.973,-0.168,+0.402,+2.628,-02.8550,-00.6830,-08.9860,+00.006193,+00.003923,-00.004420
+136.981,-017.733,+003.980,-0.149,+0.402,+2.613,-02.8450,-00.6350,-08.9700,+00.004168,+00.003786,-00.000128
+136.978,-017.728,+003.986,-0.156,+0.394,+2.621,-02.8660,-00.5880,-08.9480,+00.006426,+00.003557,-00.002493
+136.973,-017.725,+003.995,-0.158,+0.417,+2.640,-02.8380,-00.5610,-08.9970,+00.007987,+00.000939,-00.003175
+136.970,-017.723,+004.005,-0.172,+0.392,+2.612,-02.8510,-00.6560,-08.9530,+00.005537,-00.001670,+00.000087
+136.969,-017.725,+004.011,-0.156,+0.390,+2.626,-02.8750,-00.6490,-08.9540,+00.005082,-00.002347,-00.000185
+136.968,-017.728,+004.016,-0.158,+0.407,+2.645,-02.8860,-00.6310,-08.9650,+00.002725,-00.002480,+00.000841
+136.968,-017.730,+004.019,-0.158,+0.407,+2.618,-02.8780,-00.6420,-08.9350,+00.001819,-00.000773,+00.002222
+136.967,-017.731,+004.022,-0.156,+0.395,+2.626,-02.8690,-00.6010,-08.9970,+00.004595,-00.001653,-00.002308
+136.962,-017.732,+004.027,-0.163,+0.417,+2.623,-02.8880,-00.6090,-08.9560,+00.004133,+00.000782,-00.004074
+136.957,-017.731,+004.033,-0.158,+0.422,+2.602,-02.8620,-00.6130,-08.9670,+00.003942,-00.000184,-00.002966
+136.952,-017.731,+004.038,-0.158,+0.395,+2.621,-02.8770,-00.6510,-08.9370,+00.002574,-00.001282,-00.002330
+136.951,-017.731,+004.040,-0.163,+0.397,+2.639,-02.8830,-00.6510,-08.9970,+00.000925,-00.000503,+00.000809
+136.952,-017.731,+004.040,-0.154,+0.412,+2.618,-02.8630,-00.6240,-08.9850,+00.000190,+00.000827,+00.003114
+136.955,-017.732,+004.038,-0.158,+0.399,+2.621,-02.8740,-00.6420,-08.9650,-00.001052,-00.001867,+00.003392
+136.957,-017.736,+004.035,-0.158,+0.382,+2.640,-02.8640,-00.6320,-08.9670,-00.000908,-00.002377,+00.003173
+136.957,-017.739,+004.032,-0.154,+0.397,+2.624,-02.8850,-00.6290,-08.9480,-00.001255,-00.001870,+00.001488
+136.957,-017.742,+004.030,-0.158,+0.409,+2.618,-02.8810,-00.6310,-08.9490,-00.000813,-00.002191,+00.002139
+136.961,-017.745,+004.028,-0.168,+0.397,+2.645,-02.8810,-00.6520,-08.9420,-00.003781,-00.003453,+00.004744
+136.964,-017.747,+004.022,-0.154,+0.412,+2.624,-02.8650,-00.6400,-08.9390,-00.002745,-00.002601,+00.003235
+136.966,-017.750,+004.020,-0.158,+0.404,+2.623,-02.8940,-00.6720,-08.9780,-00.002553,-00.001898,+00.002096
+136.970,-017.753,+004.016,-0.154,+0.402,+2.629,-02.8510,-00.6370,-08.9640,-00.002240,-00.001300,+00.004631
+136.973,-017.754,+004.011,-0.149,+0.397,+2.608,-02.8820,-00.6180,-08.9300,-00.002009,-00.000778,+00.003157
+136.976,-017.757,+004.007,-0.158,+0.414,+2.618,-02.9120,-00.6520,-08.9620,-00.000533,-00.001788,+00.001492
+136.977,-017.759,+004.004,-0.154,+0.382,+2.618,-02.8770,-00.6120,-08.9390,-00.001268,-00.001280,+00.000442
+136.976,-017.759,+004.003,-0.154,+0.397,+2.629,-02.8850,-00.5960,-08.9810,-00.001237,-00.000081,+00.000796
+136.975,-017.759,+004.000,-0.154,+0.407,+2.624,-02.8990,-00.6330,-08.9610,-00.001879,+00.000630,-00.000148
+136.976,-017.758,+003.998,-0.168,+0.367,+2.634,-02.8670,-00.6120,-08.9480,-00.001170,+00.000801,+00.001471
+136.979,-017.757,+003.996,-0.149,+0.412,+2.624,-02.8830,-00.6110,-08.9510,-00.001614,-00.000918,+00.002563
+136.980,-017.759,+003.996,-0.158,+0.412,+2.626,-02.8630,-00.6340,-08.9810,+00.001163,-00.002604,+00.001703
+136.981,-017.760,+003.997,-0.154,+0.382,+2.651,-02.8730,-00.6290,-08.9610,-00.000343,-00.002343,+00.002598
+136.983,-017.764,+003.995,-0.154,+0.432,+2.602,-02.8940,-00.6010,-08.9600,+00.001575,-00.001763,+00.002098
+136.985,-017.767,+003.995,-0.158,+0.424,+2.607,-02.8810,-00.6270,-08.9560,-00.000761,-00.001805,+00.001856
+136.986,-017.769,+003.997,-0.163,+0.397,+2.639,-02.8720,-00.6100,-08.9650,+00.001436,-00.001853,+00.000679
+136.987,-017.772,+003.998,-0.158,+0.452,+2.628,-02.8960,-00.6190,-08.9910,+00.000828,-00.002125,+00.001598
+136.988,-017.773,+003.999,-0.161,+0.417,+2.599,-02.8930,-00.6280,-08.9820,+00.001288,-00.002476,+00.001391
+136.991,-017.777,+003.996,-0.158,+0.402,+2.629,-02.8890,-00.6100,-08.9410,-00.001786,-00.001168,+00.002671
+136.993,-017.780,+003.992,-0.154,+0.417,+2.629,-02.8880,-00.6000,-08.9510,-00.001135,-00.001000,+00.001647
+136.994,-017.780,+003.992,-0.156,+0.404,+2.632,-02.9130,-00.6220,-08.9640,+00.000854,-00.001704,+00.001399
+136.994,-017.781,+003.993,-0.158,+0.387,+2.634,-02.9050,-00.6540,-08.9810,-00.000724,-00.000815,+00.000543
+136.993,-017.782,+003.992,-0.149,+0.397,+2.629,-02.9060,-00.6500,-08.9470,-00.000448,-00.000784,+00.001106
+136.994,-017.783,+003.991,-0.149,+0.402,+2.621,-02.8810,-00.6570,-08.9510,-00.000932,+00.000361,+00.002346
+136.994,-017.783,+003.992,-0.154,+0.377,+2.635,-02.8670,-00.6430,-08.9740,+00.000334,-00.001138,+00.000756
+136.994,-017.784,+003.989,-0.154,+0.422,+2.634,-02.9070,-00.6010,-08.9730,+00.000886,-00.000735,+00.002100
+136.995,-017.785,+003.988,-0.158,+0.397,+2.615,-02.9020,-00.6030,-08.9530,-00.000140,-00.000937,-00.000349
+136.993,-017.786,+003.989,-0.149,+0.387,+2.646,-02.8720,-00.6310,-08.9360,+00.000623,-00.000739,-00.000700
+136.993,-017.784,+003.987,-0.154,+0.437,+2.623,-02.8560,-00.6240,-08.9600,-00.000922,+00.000307,+00.001767
+136.995,-017.785,+003.986,-0.154,+0.404,+2.615,-02.8950,-00.5880,-08.9660,+00.000562,-00.000044,-00.000657
+136.993,-017.783,+003.987,-0.158,+0.402,+2.640,-02.8660,-00.5830,-08.9750,+00.000755,+00.001873,-00.001079
+136.992,-017.782,+003.989,-0.154,+0.402,+2.618,-02.8670,-00.6470,-08.9490,+00.000717,+00.000094,+00.000831
+136.995,-017.784,+003.986,-0.151,+0.407,+2.607,-02.8780,-00.6390,-08.9290,-00.002428,+00.000160,+00.002570
+136.996,-017.783,+003.982,-0.168,+0.427,+2.617,-02.9030,-00.6320,-08.9340,-00.001888,+00.001982,+00.001142
+136.997,-017.781,+003.980,-0.158,+0.437,+2.623,-02.8830,-00.6380,-08.9680,-00.001635,+00.002045,-00.000243
+136.998,-017.778,+003.976,-0.149,+0.397,+2.616,-02.8580,-00.5150,-08.9950,+00.001383,+00.001707,+00.002200
+136.997,-017.776,+003.980,-0.154,+0.397,+2.645,-02.8630,-00.6290,-08.9800,+00.006761,+00.000334,-00.000032
+137.002,-017.780,+003.997,-0.154,+0.407,+2.613,-02.8980,-00.6760,-08.9360,+00.013305,-00.003630,+00.005234
+137.005,-017.783,+004.011,-0.156,+0.399,+2.621,-02.8790,-00.6750,-08.9670,+00.012018,-00.000738,+00.005671
+137.011,-017.786,+004.020,-0.158,+0.392,+2.629,-02.8910,-00.6460,-08.9420,+00.010036,-00.001099,+00.003072
+137.013,-017.788,+004.025,-0.144,+0.402,+2.629,-02.8720,-00.6320,-08.9550,+00.004704,-00.001726,+00.001902
+137.013,-017.789,+004.029,-0.156,+0.402,+2.615,-02.8730,-00.6420,-08.9370,+00.003621,-00.001274,+00.002596
+137.013,-017.789,+004.032,-0.163,+0.407,+2.639,-02.8900,-00.6400,-08.9920,+00.003866,-00.000916,+00.001349
+137.013,-017.789,+004.035,-0.163,+0.387,+2.623,-02.9050,-00.6340,-08.9590,+00.001748,+00.000441,+00.000674
+137.014,-017.789,+004.033,-0.154,+0.404,+2.626,-02.8750,-00.6250,-08.9600,-00.003102,-00.000058,+00.001741
+137.017,-017.788,+004.027,-0.163,+0.392,+2.645,-02.8750,-00.6100,-08.9380,-00.003849,+00.000978,+00.002543
+137.018,-017.789,+004.021,-0.149,+0.412,+2.635,-02.8920,-00.6300,-08.9620,-00.003893,-00.000062,+00.001934
+137.018,-017.788,+004.017,-0.158,+0.399,+2.623,-02.8550,-00.6040,-08.9850,-00.002307,+00.000254,+00.000529
+137.018,-017.787,+004.015,-0.158,+0.387,+2.634,-02.8710,-00.6230,-08.9730,-00.000463,+00.001821,+00.000442
+137.017,-017.785,+004.014,-0.158,+0.412,+2.623,-02.8860,-00.6420,-08.9670,-00.003023,+00.001991,+00.000006
+137.016,-017.782,+004.012,-0.156,+0.399,+2.621,-02.8770,-00.6000,-08.9820,-00.000277,+00.001834,+00.000189
+137.014,-017.779,+004.012,-0.158,+0.397,+2.640,-02.8790,-00.6330,-08.9890,+00.000406,+00.001804,-00.000658
+137.013,-017.776,+004.013,-0.158,+0.417,+2.623,-02.8740,-00.6380,-08.9860,+00.001309,+00.002263,-00.000576
+137.011,-017.773,+004.014,-0.149,+0.404,+2.621,-02.8960,-00.6650,-08.9820,+00.001053,+00.002816,-00.003349
+137.008,-017.769,+004.016,-0.144,+0.387,+2.646,-02.9080,-00.6780,-08.9650,-00.001556,+00.004388,-00.002005
+137.005,-017.764,+004.014,-0.149,+0.427,+2.634,-02.9030,-00.6660,-08.9600,-00.003799,+00.006865,-00.002166
+137.002,-017.756,+004.010,-0.156,+0.399,+2.624,-02.8620,-00.6260,-09.0030,-00.005197,+00.007374,-00.001589
+137.000,-017.745,+004.004,-0.158,+0.417,+2.645,-02.8710,-00.6460,-08.9440,-00.008784,+00.011042,-00.001864
+137.000,-017.729,+003.992,-0.168,+0.387,+2.612,-02.8690,-00.6170,-08.9760,-00.012006,+00.016137,+00.000868
+137.008,-017.709,+003.976,-0.158,+0.404,+2.623,-02.8560,-00.6740,-09.0010,-00.015077,+00.017342,+00.008914
+137.019,-017.689,+003.957,-0.158,+0.387,+2.656,-02.8380,-00.6980,-08.9640,-00.010013,+00.021222,+00.012651
+137.039,-017.667,+003.947,-0.163,+0.402,+2.629,-02.8660,-00.6610,-08.9440,-00.006332,+00.021231,+00.012107
+137.049,-017.646,+003.933,-0.147,+0.397,+2.632,-02.8040,-00.5560,-08.9330,-00.008652,+00.014085,+00.005727
+137.052,-017.632,+003.928,-0.168,+0.407,+2.645,-02.8500,-00.6020,-08.9190,-00.004492,+00.006530,-00.000621
+137.054,-017.618,+003.931,-0.172,+0.402,+2.623,-02.8900,-00.6460,-08.9410,+00.010039,+00.016150,+00.002191
+137.051,-017.591,+003.943,-0.158,+0.402,+2.623,-02.8410,-00.6830,-08.9500,+00.003007,+00.027636,-00.006643
+137.039,-017.556,+003.953,-0.168,+0.387,+2.645,-02.8470,-00.6200,-08.9310,+00.010068,+00.031856,-00.011474
+137.014,-017.516,+004.005,-0.172,+0.402,+2.628,-02.8830,-00.5940,-08.9450,+00.048466,+00.036855,-00.034883
+136.957,-017.464,+004.091,-0.163,+0.402,+2.607,-02.6430,-00.4100,-08.9260,+00.075628,+00.041605,-00.055309
+136.887,-017.412,+004.221,-0.177,+0.427,+2.649,-02.8910,-00.7350,-08.9230,+00.096651,+00.035942,-00.067447
+136.816,-017.371,+004.358,-0.172,+0.437,+2.623,-02.9310,-00.7240,-08.9950,+00.090730,+00.037837,-00.061144
+136.755,-017.310,+004.467,-0.182,+0.424,+2.609,-02.7390,-00.6240,-09.0260,+00.083959,+00.057687,-00.048467
+136.703,-017.239,+004.578,-0.172,+0.417,+2.644,-02.7130,-00.7400,-09.0350,+00.080412,+00.056636,-00.046474
+136.661,-017.178,+004.675,-0.186,+0.407,+2.622,-02.7790,-00.7670,-08.9810,+00.073482,+00.051245,-00.036085
+136.634,-017.131,+004.764,-0.172,+0.444,+2.609,-02.7220,-00.6590,-08.9820,+00.071305,+00.031178,-00.014490
+136.636,-017.105,+004.870,-0.182,+0.407,+2.633,-02.6840,-00.7320,-09.0310,+00.118207,+00.025241,+00.005805
+136.636,-017.081,+004.995,-0.186,+0.437,+2.606,-02.7530,-00.8600,-08.9960,+00.123556,+00.013667,-00.007295
+136.620,-017.068,+005.141,-0.179,+0.442,+2.592,-02.7670,-00.8610,-08.9460,+00.121493,+00.009867,-00.016264
+136.597,-017.044,+005.319,-0.191,+0.427,+2.616,-02.9020,-00.8510,-08.8950,+00.169152,+00.020277,-00.019652
+136.571,-017.013,+005.527,-0.182,+0.442,+2.611,-02.6270,-00.8920,-08.9640,+00.163462,+00.028436,-00.019529
+136.577,-016.981,+005.674,-0.191,+0.482,+2.624,-02.6840,-00.9070,-08.9750,+00.108779,+00.031338,+00.014515
+136.611,-016.930,+005.749,-0.191,+0.472,+2.621,-02.5790,-00.9220,-09.0370,+00.054915,+00.058825,+00.034385
+136.661,-016.870,+005.764,-0.191,+0.457,+2.616,-02.7920,-00.8020,-08.9230,+00.014548,+00.056125,+00.032555
+136.696,-016.794,+005.769,-0.196,+0.457,+2.611,-02.7380,-00.8040,-09.0500,+00.021128,+00.075564,+00.019247
+136.735,-016.713,+005.764,-0.200,+0.492,+2.621,-02.6560,-00.9530,-09.0500,-00.003285,+00.071768,+00.036602
+136.791,-016.641,+005.741,-0.200,+0.467,+2.621,-02.7370,-00.8430,-09.0050,-00.007408,+00.067284,+00.031073
+136.813,-016.581,+005.718,-0.196,+0.479,+2.578,-02.6120,-00.8840,-08.9740,-00.022753,+00.040945,+00.012815
+136.854,-016.557,+005.646,-0.200,+0.442,+2.638,-02.7190,-01.0260,-08.9170,-00.069334,+00.012869,+00.045557
+136.936,-016.563,+005.511,-0.210,+0.457,+2.604,-02.8210,-01.0510,-08.8650,-00.104567,-00.002681,+00.083429
+137.039,-016.578,+005.353,-0.189,+0.442,+2.611,-02.7050,-00.8790,-08.9770,-00.112273,-00.007492,+00.092995
+137.138,-016.609,+005.214,-0.200,+0.427,+2.632,-02.6400,-00.7020,-09.0650,-00.084261,-00.027235,+00.078239
+137.213,-016.663,+005.096,-0.191,+0.447,+2.611,-02.7840,-00.7710,-08.9580,-00.100353,-00.043623,+00.055068
+137.252,-016.710,+004.908,-0.193,+0.427,+2.603,-02.8760,-00.7780,-08.9360,-00.180418,-00.027798,+00.031152
+137.266,-016.752,+004.664,-0.196,+0.432,+2.649,-02.7980,-00.8140,-08.9570,-00.221886,-00.040452,+00.011846
+137.283,-016.831,+004.389,-0.191,+0.412,+2.622,-02.6280,-00.8060,-08.8840,-00.245563,-00.083616,+00.044282
+137.410,-016.958,+004.060,-0.186,+0.407,+2.609,-02.6180,-00.8080,-09.0390,-00.261022,-00.112270,+00.153739
+137.627,-017.110,+003.673,-0.182,+0.392,+2.639,-02.6280,-00.7500,-09.0400,-00.289931,-00.127292,+00.207358
+137.851,-017.283,+003.311,-0.172,+0.387,+2.623,-02.7120,-00.4210,-09.0480,-00.233656,-00.143811,+00.180118
+138.012,-017.450,+003.035,-0.172,+0.382,+2.626,-02.7900,-00.2940,-08.8990,-00.182945,-00.135913,+00.111988
+138.100,-017.642,+002.768,-0.158,+0.357,+2.656,-02.7640,-00.5260,-08.9970,-00.216086,-00.191383,+00.082432
+138.221,-017.941,+002.512,-0.158,+0.367,+2.618,-02.7540,-00.4600,-08.9590,-00.174558,-00.295508,+00.127405
+138.362,-018.363,+002.260,-0.133,+0.369,+2.625,-02.9390,-00.2030,-08.9550,-00.183251,-00.406170,+00.119442
+138.417,-018.936,+002.069,-0.121,+0.377,+2.663,-02.7420,-00.1170,-08.8140,-00.142634,-00.539309,+00.024894
+138.364,-019.641,+001.961,-0.098,+0.367,+2.632,-03.4980,-00.2690,-09.0640,-00.065407,-00.689366,-00.099883
+138.242,-020.512,+001.937,-0.063,+0.349,+2.641,-02.9100,-00.2630,-08.8880,-00.029798,-00.834760,-00.086699
+138.045,-021.642,+002.056,-0.028,+0.356,+2.673,-03.3280,-00.5110,-08.9350,+00.090228,-01.122610,-00.181204
+137.861,-023.140,+002.294,+0.033,+0.410,+2.621,-03.2920,-00.4420,-09.0180,+00.196177,-01.430354,-00.043956
+137.679,-025.066,+002.701,+0.086,+0.387,+2.642,-03.3000,-00.3570,-08.9790,+00.335772,-01.842307,-00.105896
+137.349,-027.546,+003.240,+0.177,+0.369,+2.649,-03.8130,-00.5440,-08.8850,+00.302466,-02.383035,-00.194564
+136.858,-030.682,+003.839,+0.284,+0.403,+2.643,-03.1420,-00.5450,-09.0090,+00.283785,-02.998177,-00.231737
+136.286,-034.625,+004.391,+0.424,+0.411,+2.624,-02.5640,-00.7300,-09.4570,+00.184438,-03.785362,-00.080696
+136.030,-039.655,+004.582,+0.577,+0.400,+2.601,-05.2850,-01.4420,-08.3060,-00.104328,-04.808547,+00.283483
+136.432,-046.041,+003.968,+0.801,+0.397,+2.519,-06.3580,-00.5350,-09.5200,-00.116939,-06.026090,+00.899266
+137.493,-053.909,+003.051,+1.040,+0.357,+2.413,-07.9290,-01.2470,-07.4390,-00.065500,-07.304642,+01.130224
+139.503,-062.632,+001.468,+1.289,+0.326,+2.281,-06.7360,-00.9660,-08.9960,+00.260614,-07.754127,+01.388809
+144.372,-071.906,-002.872,+1.545,+0.308,+2.032,-11.9920,-01.0290,-10.6970,+00.130855,-08.294026,+01.702797
+159.272,-080.717,-017.039,+1.733,+0.270,+1.756,-12.8470,-01.6880,-19.5670,+00.041192,-07.999220,+01.721113
-149.333,-084.791,-068.742,+1.847,+0.198,+1.570,-05.1450,-02.8070,-27.2670,-00.343177,-04.029214,+01.934857
-156.726,-082.965,-061.749,+1.842,+0.193,+1.499,-03.5840,-02.9520,-23.6800,-00.110181,+02.679064,+00.928240
-171.145,-080.066,-048.222,+1.802,+0.119,+1.563,+00.3060,-03.0130,-05.7290,-00.795853,+02.770264,+01.006883
-179.154,-077.023,-041.042,+1.786,+0.070,+1.644,-00.7060,-03.4500,-10.7860,-00.392625,+03.094651,+00.777727
+172.473,-073.181,-033.118,+1.744,+0.066,+1.712,-01.4040,-04.5120,-12.8810,-00.067206,+04.239128,+00.348916
+164.355,-068.307,-025.492,+1.663,+0.025,+1.855,-02.6140,-04.0060,-10.7460,-00.018081,+05.151074,-00.154562
+157.506,-062.701,-019.079,+1.563,+0.030,+2.041,-03.5030,-02.7260,-08.9420,+00.289388,+05.598082,-00.589263
+152.087,-056.688,-013.805,+1.401,+0.092,+2.271,-04.3760,-02.1230,-08.2300,+00.636276,+05.734363,-00.927763
+147.793,-050.468,-009.415,+1.184,+0.115,+2.424,-05.9030,-00.1910,-09.9190,+00.917154,+05.789309,-01.136600
+144.653,-043.958,-005.868,+0.959,+0.132,+2.544,-07.7130,+01.6050,-11.4450,+01.191285,+05.932884,-01.027624
+142.616,-037.192,-003.027,+0.712,+0.214,+2.603,-08.7360,+02.1350,-12.1620,+01.383816,+06.001240,-00.785604
+141.470,-030.435,-000.753,+0.486,+0.234,+2.645,-09.5240,+00.6680,-12.1810,+01.427446,+05.845614,-00.563858
+140.681,-024.076,+001.246,+0.265,+0.269,+2.648,-10.0300,-01.2070,-10.9710,+01.416837,+05.307240,-00.737853
+139.736,-018.499,+003.106,+0.121,+0.319,+2.544,-11.7520,-01.3630,-13.9660,+01.306279,+04.592565,-01.070789
+138.649,-013.316,+005.061,+0.051,+0.350,+2.530,-14.6770,+00.3130,-15.4600,+01.580953,+04.393188,-01.299175
+137.586,-008.376,+007.305,-0.023,+0.386,+2.602,-16.3240,-00.3370,-12.6300,+01.791984,+04.035314,-01.406596
+136.654,-003.948,+009.098,-0.177,+0.472,+2.671,-16.4520,-00.1550,-11.2510,+01.264483,+03.517041,-01.276347
+136.037,-000.038,+010.403,-0.370,+0.541,+2.732,-16.6300,+00.7480,-09.9900,+01.097342,+03.153874,-01.009718
+135.557,+003.427,+011.576,-0.558,+0.595,+2.734,-16.7040,+00.3200,-05.2090,+00.957967,+02.682097,-01.034363
+134.828,+006.288,+012.280,-0.735,+0.641,+2.667,-18.6590,+01.6260,-02.3980,+00.429713,+02.119025,-01.164282
+133.965,+008.430,+012.168,-0.840,+0.627,+2.603,-18.0050,+03.7200,+03.9650,-00.151307,+01.300096,-01.079811
+133.061,+009.137,+012.050,-0.889,+0.618,+2.574,-17.7210,+04.7990,+02.2270,+00.214328,-00.011437,-00.738815
+132.314,+008.790,+012.418,-0.898,+0.657,+2.578,-14.6320,+02.0720,+00.5090,+00.447814,-00.713887,-00.495753
+131.478,+007.368,+012.371,-0.887,+0.635,+2.625,-10.0790,-00.0560,-02.6610,-00.196990,-01.758289,-00.407246
+130.684,+005.475,+012.323,-0.838,+0.642,+2.706,+14.6690,-07.2250,-27.4290,+00.963650,-01.729432,-00.222627
+131.645,+003.026,+012.338,-0.782,+0.687,+2.729,+06.4090,-03.0530,+01.7050,-00.483827,-02.769616,+01.937548
+132.090,-000.983,+011.686,-0.672,+0.721,+2.804,-11.2670,-00.2710,-15.1050,-00.462435,-03.162692,+00.717196
+132.014,-004.044,+010.666,-0.595,+0.666,+2.895,-03.3960,+07.2650,-11.0090,-00.811071,-02.783709,+00.590476
+132.039,-007.693,+010.343,-0.479,+0.705,+2.932,-03.1990,-05.2200,-09.8980,+00.061233,-03.245940,+00.376742
+131.532,-011.408,+010.538,-0.374,+0.729,+2.996,-05.1240,-02.2730,-10.8190,+00.119886,-03.244412,+00.182625
+130.962,-014.373,+009.244,-0.283,+0.678,+3.066,-14.7770,+02.3680,-24.4730,-00.972236,-00.989848,-00.138145
+130.695,-015.324,+007.825,-0.241,+0.633,+3.062,-03.4680,+02.6390,-10.8090,-00.463065,-00.499051,+00.008335
+130.601,-015.617,+007.409,-0.225,+0.606,+3.063,-02.7150,-00.7370,-09.3570,-00.253420,-00.140594,-00.012859
+130.697,-015.664,+006.982,-0.227,+0.579,+3.085,-02.7180,-01.2320,-09.2470,-00.418989,+00.033870,+00.140871
+130.877,-015.642,+006.448,-0.227,+0.608,+3.058,-02.5690,-00.5740,-09.4060,-00.384538,+00.021932,+00.138783
+131.016,-015.625,+006.045,-0.241,+0.576,+3.071,-02.7260,-00.4810,-09.2830,-00.260291,+00.037011,+00.092203
+131.118,-015.595,+005.760,-0.251,+0.554,+3.106,-02.6280,-00.9040,-09.1490,-00.213873,+00.027712,+00.083506
+131.229,-015.579,+005.490,-0.241,+0.584,+3.079,-02.7480,-00.8880,-09.0320,-00.205416,+00.017514,+00.092812
+131.332,-015.583,+005.237,-0.251,+0.524,+3.090,-02.6740,-00.7430,-09.0920,-00.188520,-00.001643,+00.077372
+131.421,-015.615,+005.009,-0.237,+0.534,+3.107,-02.5440,-00.8330,-09.1030,-00.173326,-00.028760,+00.080187
+131.536,-015.664,+004.806,-0.251,+0.534,+3.100,-02.5420,-00.7970,-09.1120,-00.127995,-00.041463,+00.115063
+131.672,-015.750,+004.678,-0.241,+0.539,+3.087,-02.6140,-00.7580,-09.0870,-00.047593,-00.085337,+00.119368
+131.784,-015.885,+004.644,-0.237,+0.495,+3.123,-02.6990,-00.6550,-08.9980,+00.022356,-00.124748,+00.089784
+131.879,-016.067,+004.667,-0.232,+0.519,+3.091,-02.6060,-00.7670,-08.9590,+00.049785,-00.169763,+00.104323
+131.992,-016.305,+004.663,-0.227,+0.519,+3.077,-02.6530,-00.8020,-08.8540,-00.008929,-00.214776,+00.112567
+132.135,-016.629,+004.481,-0.199,+0.519,+3.108,-02.4990,-00.6780,-08.6600,-00.216734,-00.316597,+00.163354
+132.373,-017.103,+003.977,-0.204,+0.519,+3.103,-02.9240,-00.8680,-09.7830,-00.376422,-00.386144,+00.270124
+132.702,-017.420,+003.644,-0.174,+0.504,+3.091,-02.8850,-00.7370,-09.1080,-00.193878,-00.223626,+00.300074
+133.041,-017.664,+003.284,-0.167,+0.469,+3.143,-02.8200,-00.5590,-09.0010,-00.237788,-00.181936,+00.287385
+133.360,-017.908,+002.902,-0.162,+0.469,+3.105,-02.8170,-00.4820,-09.0150,-00.253491,-00.217669,+00.271844
+133.675,-018.243,+002.510,-0.151,+0.466,+3.100,-02.8610,-00.4180,-08.9350,-00.260461,-00.324861,+00.270217
+133.936,-018.695,+002.144,-0.125,+0.459,+3.128,-03.0550,-00.2380,-08.9530,-00.231242,-00.429528,+00.205141
+134.113,-019.274,+001.856,-0.092,+0.449,+3.135,-03.0070,-00.0920,-08.8650,-00.188027,-00.539416,+00.138908
+134.229,-019.986,+001.606,-0.069,+0.446,+3.131,-03.1230,-00.2340,-08.9350,-00.180276,-00.667323,+00.103197
+134.299,-020.848,+001.421,-0.032,+0.413,+3.165,-03.1160,-00.1940,-09.0010,-00.119327,-00.794954,+00.066754
+134.309,-021.896,+001.364,+0.010,+0.433,+3.140,-02.7890,-00.1770,-08.9680,-00.020405,-00.976888,+00.009716
+134.214,-023.233,+001.473,+0.068,+0.444,+3.134,-04.1280,-00.3400,-08.9970,+00.110378,-01.263497,-00.044662
+134.069,-024.883,+001.769,+0.140,+0.412,+3.162,-03.1410,-00.4710,-08.9690,+00.245252,-01.532149,-00.088808
+133.775,-026.990,+002.259,+0.229,+0.460,+3.117,-03.7990,-00.4100,-08.9780,+00.326866,-02.068252,-00.234528
+133.347,-029.872,+002.802,+0.341,+0.459,+3.119,-02.3990,-00.6970,-09.2930,+00.266970,-02.838363,-00.178919
+132.974,-033.919,+003.157,+0.499,+0.457,+3.101,-02.5070,-01.2220,-09.7980,+00.072333,-03.975402,-00.008982
+133.058,-039.522,+002.904,+0.708,+0.445,+3.008,-03.3390,-01.6720,-09.9310,-00.297785,-05.455269,+00.549160
+134.238,-047.034,+001.676,+0.985,+0.402,+2.893,-05.7090,+01.2240,-14.2190,+00.001711,-07.203506,+01.284216
+136.467,-056.479,+000.075,+1.304,+0.373,+2.736,-05.1980,-00.1220,-11.3180,+00.044246,-08.500062,+01.269288
+141.072,-066.543,-003.697,+1.629,+0.319,+2.431,-11.5360,+00.3970,-12.7080,+00.589586,-09.190331,+01.768435
+152.651,-076.238,-013.190,+1.871,+0.260,+2.088,-08.6590,-01.2890,-16.8610,+01.332617,-08.682308,+02.107595
-172.131,-082.338,-047.006,+2.019,+0.198,+1.805,-10.3610,-03.1970,-27.7240,+00.183230,-05.789347,+02.340690
-158.278,-081.905,-059.873,+2.028,+0.112,+1.659,-03.9820,-05.6960,-30.0880,+00.528306,+00.432529,+01.033942
-167.464,-079.833,-050.315,+2.014,+0.090,+1.681,+00.5170,-02.9420,-11.9130,+00.479363,+02.580449,+00.558858
-177.201,-077.359,-040.112,+1.991,+0.059,+1.777,+00.9480,-01.9600,-08.2390,+00.521066,+02.770210,+00.259432
+174.469,-074.251,-031.741,+1.940,+0.110,+1.953,-00.4070,-01.5590,-12.3320,+00.070759,+03.624467,+00.087157
+166.912,-069.969,-024.692,+1.794,+0.127,+2.150,-01.0120,-01.2870,-09.5110,-00.154918,+04.537214,-00.121492
+160.592,-065.003,-018.770,+1.568,+0.150,+2.322,-02.6720,-01.0630,-09.7460,+00.260585,+04.962920,-00.514663
+154.984,-059.343,-013.330,+1.308,+0.223,+2.418,-04.1450,-01.6150,-11.1500,+00.441136,+05.620429,-01.021858
+150.043,-053.005,-008.810,+1.080,+0.255,+2.467,-05.8070,-00.8400,-10.5630,+00.303680,+05.989108,-01.444690
+145.978,-046.297,-005.402,+0.838,+0.253,+2.522,-07.2410,+00.8030,-11.0340,+00.265408,+06.134532,-01.570560
+142.980,-039.338,-002.980,+0.619,+0.299,+2.512,-08.4880,+01.5360,-11.7040,+00.368688,+06.210610,-01.383278
+141.045,-032.378,-001.282,+0.416,+0.311,+2.514,-09.3220,+01.9990,-10.9980,+00.574214,+06.028434,-00.964360
+140.107,-025.943,+000.185,+0.270,+0.333,+2.485,-10.7640,+01.2120,-09.6230,+01.059103,+05.320487,-00.513077
+139.748,-020.506,+001.731,+0.135,+0.413,+2.463,-12.5790,-00.2740,-13.6410,+01.385522,+04.449832,-00.276652
+139.562,-015.588,+003.683,+0.051,+0.478,+2.448,-14.0350,-02.4610,-14.4070,+01.784221,+04.167670,-00.458890
+139.136,-011.125,+005.946,-0.093,+0.540,+2.511,-15.0530,-03.5910,-13.8130,+01.868226,+03.675073,-00.833629
+138.439,-006.861,+007.832,-0.284,+0.626,+2.459,-17.1650,-02.7400,-15.6670,+01.322435,+03.659684,-01.118408
+137.743,-002.490,+009.140,-0.449,+0.667,+2.397,-16.8030,+00.0890,-09.5750,+01.049130,+03.618282,-01.187807
+136.978,+001.426,+010.328,-0.605,+0.688,+2.358,-16.5340,+01.1750,-04.9730,+00.974560,+02.998020,-01.249305
+136.262,+004.643,+011.206,-0.726,+0.724,+2.249,-17.6400,+02.9810,-01.8470,+00.698315,+02.452627,-01.019505
+135.822,+006.966,+011.890,-0.773,+0.706,+2.174,-16.6800,+03.4020,+04.4710,+00.648643,+01.492015,-00.650614
+135.194,+007.891,+012.666,-0.787,+0.709,+2.171,-17.1270,-00.4520,+04.1090,+00.790837,+00.218115,-00.816468
+133.870,+007.739,+013.138,-0.796,+0.714,+2.127,-16.8810,-01.8860,+01.5790,+00.322138,-00.711472,-01.229026
+132.136,+006.713,+012.673,-0.775,+0.696,+2.136,-15.7130,+01.3410,-00.7330,-00.474278,-01.482014,-01.146657
+131.157,+004.256,+011.328,-0.731,+0.639,+2.185,+13.2980,-00.2550,-23.3610,-01.379347,-01.801687,+00.023018
+131.480,+000.608,+010.127,-0.633,+0.678,+2.205,-04.0660,+03.9960,+00.3620,-00.935909,-03.447888,+01.130978
+131.279,-003.664,+009.415,-0.519,+0.632,+2.246,-09.1920,+08.3430,-15.9530,-00.832013,-03.548034,+00.425319
+131.328,-007.480,+009.224,-0.414,+0.626,+2.296,-04.6670,-07.4640,-11.2090,+00.161702,-03.262871,+00.263293
+130.592,-011.137,+009.321,-0.317,+0.635,+2.306,-03.8840,-04.0720,-14.6980,-00.263709,-03.225953,-00.163455
+129.978,-013.851,+008.305,-0.244,+0.637,+2.314,-03.0340,+00.5460,-09.5350,-01.055816,-01.627908,-00.142286
+129.988,-014.961,+007.692,-0.214,+0.595,+2.332,-02.9330,-02.2200,-09.2880,-00.371308,-00.672489,+00.171707
+130.100,-015.528,+007.331,-0.200,+0.590,+2.338,-03.6420,-00.9420,-10.1320,-00.282958,-00.385009,+00.123980
+130.209,-015.701,+006.992,-0.186,+0.602,+2.328,-02.4640,-00.4960,-09.4930,-00.274097,-00.084030,+00.133837
+130.349,-015.825,+006.669,-0.186,+0.565,+2.355,-02.6550,-01.0760,-09.0580,-00.252847,-00.098819,+00.121441
+130.464,-015.960,+006.313,-0.177,+0.565,+2.345,-02.5610,-01.0420,-09.0040,-00.316499,-00.117786,+00.099897
+130.594,-016.169,+005.899,-0.168,+0.565,+2.359,-02.5020,-01.2850,-08.7170,-00.294897,-00.190313,+00.145702
+130.707,-016.336,+005.634,-0.163,+0.530,+2.378,-02.7170,-00.7330,-09.0360,-00.153716,-00.112652,+00.076014
+130.725,-016.489,+005.497,-0.163,+0.535,+2.362,-02.8410,-00.9220,-09.0320,-00.100168,-00.130462,+00.010227
+130.706,-016.677,+005.404,-0.158,+0.535,+2.354,-02.7790,-00.7680,-09.1800,-00.090566,-00.131004,+00.004423
+130.754,-016.772,+005.266,-0.163,+0.530,+2.389,-02.5680,-00.8290,-08.9940,-00.151135,-00.087455,+00.065356
+130.898,-016.903,+004.926,-0.149,+0.584,+2.352,-02.8150,-01.1390,-09.1110,-00.297103,-00.102398,+00.172376
+131.160,-017.026,+004.493,-0.145,+0.547,+2.333,-02.9350,-00.7580,-09.1040,-00.303015,-00.075949,+00.248152
+131.467,-017.121,+004.084,-0.144,+0.515,+2.396,-02.7810,-00.7030,-08.9900,-00.261371,-00.065189,+00.267087
+131.789,-017.211,+003.720,-0.140,+0.520,+2.369,-02.8450,-00.6410,-08.8600,-00.210105,-00.052313,+00.272831
+132.090,-017.255,+003.423,-0.128,+0.507,+2.372,-02.7770,-00.5210,-08.9870,-00.164182,-00.018960,+00.233408
+132.348,-017.304,+003.170,-0.130,+0.540,+2.385,-02.8320,-00.4270,-08.9880,-00.140758,-00.032252,+00.204679
+132.572,-017.367,+002.949,-0.126,+0.519,+2.348,-02.7630,-00.4820,-08.9490,-00.134040,-00.053771,+00.184752
+132.785,-017.447,+002.737,-0.124,+0.480,+2.370,-02.8380,-00.5280,-09.0600,-00.126954,-00.067094,+00.182443
+133.022,-017.537,+002.520,-0.117,+0.485,+2.386,-02.9390,-00.4570,-08.9990,-00.125629,-00.067955,+00.206869
+133.264,-017.622,+002.311,-0.117,+0.505,+2.381,-02.9120,-00.2860,-08.9300,-00.114203,-00.064888,+00.203242
+133.493,-017.710,+002.120,-0.119,+0.497,+2.375,-02.7800,-00.2090,-08.9100,-00.097715,-00.074703,+00.193802
+133.731,-017.817,+001.934,-0.121,+0.480,+2.402,-02.8310,-00.3320,-08.8870,-00.102092,-00.091646,+00.207008
+133.981,-017.953,+001.731,-0.098,+0.504,+2.381,-02.7790,-00.3380,-08.8570,-00.119556,-00.125274,+00.224427
+134.292,-018.136,+001.464,-0.110,+0.500,+2.370,-02.8910,-00.3270,-08.9040,-00.157421,-00.175905,+00.280460
+134.664,-018.404,+001.163,-0.093,+0.475,+2.398,-03.2590,-00.1640,-08.8310,-00.161918,-00.265424,+00.330830
+135.036,-018.831,+000.848,-0.084,+0.485,+2.393,-02.7350,-00.0070,-08.9810,-00.171893,-00.426082,+00.277559
+135.164,-019.396,+000.634,-0.065,+0.469,+2.383,-03.0950,+00.4460,-08.8070,-00.145876,-00.584783,+00.023794
+134.919,-020.284,+000.475,-0.037,+0.449,+2.406,-02.6810,-00.0750,-08.9450,-00.251202,-00.949210,-00.321739
+134.296,-021.776,+000.379,+0.005,+0.474,+2.386,-02.8340,+00.1210,-09.4360,-00.263937,-01.523763,-00.585078
+133.563,-023.878,+000.523,+0.056,+0.451,+2.380,-03.3770,-00.1570,-09.6980,+00.041440,-02.040122,-00.544527
+132.749,-026.791,+001.236,+0.140,+0.448,+2.430,-02.4830,-00.3390,-09.7160,+00.442645,-02.751551,-00.526250
+132.053,-030.604,+002.164,+0.270,+0.471,+2.398,-04.3990,-00.7420,-09.3220,+00.530638,-03.752877,-00.326962
+131.680,-035.768,+002.730,+0.414,+0.479,+2.369,-03.0150,-00.8360,-09.4030,+00.233490,-05.032077,+00.109139
+132.075,-042.743,+002.165,+0.600,+0.443,+2.331,-05.5130,-00.3190,-12.8710,-00.517987,-06.802100,+00.865544
+134.149,-051.675,+000.481,+0.889,+0.469,+2.230,-07.7990,-00.6690,-11.4410,-00.108526,-08.213471,+01.571660
+138.540,-061.165,-003.321,+1.124,+0.402,+2.081,-09.8410,-00.5200,-11.4640,+00.085594,-08.611578,+02.149392
+148.589,-070.545,-011.444,+1.359,+0.388,+1.877,-09.3840,-00.8000,-16.9040,+01.016021,-08.566671,+02.700626
+169.396,-076.332,-029.775,+1.530,+0.316,+1.636,-02.9540,+03.1050,-33.4280,+01.872800,-04.355384,+03.360692
-179.411,-075.174,-038.055,+1.551,+0.271,+1.578,+00.6050,-09.9180,-22.6070,+02.074966,+00.530537,+02.166257
-178.480,-072.811,-037.784,+1.553,+0.181,+1.557,+02.0390,-09.2570,-08.6750,+00.589037,+01.723859,+00.950477
+178.286,-071.106,-034.485,+1.572,+0.161,+1.476,+02.0170,-07.0980,-06.0810,+00.043817,+01.712235,-00.277559
+172.032,-069.773,-028.362,+1.644,+0.115,+1.423,+00.6850,-04.6660,-10.0800,+00.300604,+02.184137,-01.314799
+163.345,-067.565,-020.009,+1.795,+0.074,+1.476,-01.4600,-01.9110,-14.3050,+00.126561,+03.359863,-01.907618
+154.752,-063.570,-012.100,+1.986,+0.044,+1.701,-03.6290,+01.4820,-13.2770,+00.081575,+04.672781,-02.039907
+148.325,-058.063,-006.205,+2.008,+0.016,+2.152,-04.3400,+04.1420,-10.0300,+00.342896,+05.379872,-01.827254
+144.488,-051.852,-002.497,+1.732,+0.090,+2.633,-05.1600,+05.0920,-09.1100,+00.545119,+05.617122,-01.285939
+142.605,-045.418,-000.467,+1.262,+0.146,+2.845,-06.0680,+03.2380,-10.3200,+00.502101,+05.647540,-00.763816
+141.649,-038.852,+000.738,+0.917,+0.135,+2.911,-07.5350,+01.7130,-12.0840,+00.509379,+05.778761,-00.599062
+141.080,-032.133,+001.799,+0.596,+0.103,+2.946,-09.0260,+02.0420,-12.2180,+00.725623,+05.853179,-00.473565
+140.872,-025.709,+002.870,+0.303,+0.180,+2.916,-10.1320,+00.8500,-10.5470,+00.900101,+05.334793,-00.359560
+140.673,-020.137,+003.977,+0.056,+0.198,+2.897,-13.0200,-00.0590,-16.5860,+00.916953,+04.669074,-00.516105
+140.378,-014.697,+005.094,-0.196,+0.250,+2.861,-14.9740,-00.8200,-16.1180,+00.846381,+04.690554,-00.683945
+139.954,-009.597,+005.887,-0.414,+0.276,+2.743,-16.3790,-01.8900,-11.5350,+00.465881,+04.169502,-00.834973
+139.411,-005.215,+006.398,-0.559,+0.250,+2.669,-17.0300,-01.2730,-08.1600,+00.421870,+03.502948,-00.885794
+138.807,-001.655,+007.124,-0.675,+0.273,+2.623,-15.4670,-00.0270,-04.7180,+00.727224,+02.709604,-00.902611
+138.029,+000.971,+008.057,-0.778,+0.338,+2.532,-14.2470,+01.1910,-04.9170,+00.800531,+01.898421,-01.011302
+137.169,+003.060,+008.808,-0.838,+0.348,+2.480,-14.5680,+03.4700,-05.5090,+00.631744,+01.638508,-00.965506
+136.541,+004.784,+009.338,-0.890,+0.379,+2.445,-13.0930,+04.2450,-00.3770,+00.420331,+01.168821,-00.641102
+136.146,+005.547,+009.617,-0.913,+0.374,+2.423,-12.7200,+03.2650,+00.7430,+00.169043,+00.246970,-00.367101
+135.746,+005.406,+009.437,-0.906,+0.349,+2.385,-12.0330,+01.8990,-01.9410,-00.309692,-00.390062,-00.313800
+135.244,+004.706,+008.858,-0.894,+0.304,+2.418,-11.1960,+01.4220,-04.7610,-00.515937,-00.791108,-00.349477
+134.654,+003.660,+008.213,-0.871,+0.324,+2.414,-09.0480,+02.9270,-04.6980,-00.530426,-01.078976,-00.342427
+135.000,+001.896,+009.101,-0.824,+0.333,+2.435,+12.2660,-04.6270,-14.4900,+00.857948,-01.512465,+01.045201
+136.022,-001.031,+009.950,-0.741,+0.347,+2.484,-04.8820,-10.2890,-06.2880,+00.609783,-02.537699,+01.092946
+135.787,-003.935,+009.576,-0.652,+0.386,+2.499,-06.3610,+02.3620,-15.3610,-00.325885,-02.503486,+00.205446
+135.682,-006.562,+009.671,-0.571,+0.326,+2.538,-02.5910,-00.4940,-09.4140,+00.357117,-02.299007,+00.261564
+135.348,-009.239,+010.356,-0.484,+0.326,+2.588,-04.1680,-04.1220,-12.7580,+00.531855,-02.310508,+00.073540
+134.783,-012.096,+010.748,-0.396,+0.374,+2.597,-02.5990,-06.5070,-11.9930,-00.093487,-02.773263,-00.083541
+134.275,-014.023,+009.921,-0.333,+0.324,+2.619,-02.9520,+01.6530,-10.3580,-00.997706,-01.111541,-00.122518
+134.069,-014.735,+009.465,-0.312,+0.279,+2.639,-02.7370,-00.2290,-10.4090,-00.245632,-00.473868,-00.054363
+133.961,-015.076,+009.446,-0.298,+0.319,+2.629,-02.8570,-01.6580,-09.6360,+00.027811,-00.257031,-00.027583
+133.919,-015.256,+009.488,-0.287,+0.314,+2.613,-02.6910,-01.3090,-09.3030,-00.007104,-00.084143,-00.010635
+133.889,-015.295,+009.460,-0.284,+0.274,+2.651,-02.3570,-01.1450,-09.1540,-00.027665,-00.023051,-00.021735
+133.871,-015.330,+009.414,-0.280,+0.339,+2.629,-02.3250,-01.5230,-08.9290,-00.063747,-00.045282,+00.004466
+133.908,-015.407,+009.301,-0.291,+0.292,+2.618,-02.7090,-01.6910,-09.0680,-00.103602,-00.061994,+00.060983
+133.977,-015.473,+009.183,-0.284,+0.289,+2.640,-02.6070,-01.4440,-09.0380,-00.083458,-00.040763,+00.059778
+134.034,-015.533,+009.053,-0.280,+0.274,+2.624,-02.5720,-01.4080,-08.9420,-00.113974,-00.048946,+00.054066
+134.081,-015.616,+008.893,-0.273,+0.301,+2.633,-02.5870,-01.5550,-08.8330,-00.140943,-00.082185,+00.050382
+134.142,-015.752,+008.661,-0.275,+0.264,+2.641,-02.6250,-01.4340,-08.8860,-00.205766,-00.121211,+00.081123
+134.233,-015.923,+008.334,-0.275,+0.254,+2.625,-02.5800,-01.4370,-08.7240,-00.312893,-00.142216,+00.113921
+134.375,-016.125,+007.881,-0.266,+0.244,+2.617,-02.5260,-01.2530,-09.0270,-00.362003,-00.162542,+00.154531
+134.533,-016.295,+007.428,-0.266,+0.215,+2.680,-02.7670,-01.0640,-09.1220,-00.371658,-00.109013,+00.140866
+134.684,-016.396,+006.939,-0.261,+0.214,+2.642,-02.7260,-01.0750,-09.1500,-00.385463,-00.050521,+00.136804
+134.875,-016.485,+006.436,-0.256,+0.207,+2.642,-02.6120,-01.1080,-09.1090,-00.403357,-00.066850,+00.194789
+135.175,-016.634,+005.831,-0.238,+0.194,+2.670,-02.8800,-01.5920,-08.8100,-00.464710,-00.119618,+00.311591
+135.558,-016.773,+005.270,-0.243,+0.175,+2.648,-02.6910,-00.7230,-09.0080,-00.350176,-00.067746,+00.327708
+135.842,-016.846,+004.870,-0.243,+0.177,+2.646,-02.6950,-00.4080,-09.0440,-00.227220,-00.030258,+00.174134
+135.943,-016.896,+004.575,-0.242,+0.170,+2.659,-02.6280,-00.5850,-08.9880,-00.236833,-00.037906,+00.052405
+135.992,-016.965,+004.287,-0.238,+0.155,+2.660,-02.6260,-00.7930,-08.9480,-00.243374,-00.072430,+00.059329
+136.117,-017.089,+003.971,-0.233,+0.135,+2.619,-02.7610,-00.6450,-08.9660,-00.242307,-00.113796,+00.141067
+136.306,-017.260,+003.659,-0.233,+0.110,+2.660,-02.6860,-00.6810,-08.9870,-00.211519,-00.160916,+00.187895
+136.540,-017.497,+003.353,-0.229,+0.120,+2.649,-02.7960,-00.4700,-08.9830,-00.204334,-00.220792,+00.217886
+136.778,-017.829,+003.043,-0.219,+0.115,+2.650,-02.8960,+00.0040,-09.1040,-00.205341,-00.302712,+00.193642
+136.968,-018.323,+002.761,-0.205,+0.139,+2.661,-02.7700,-00.3280,-09.0190,-00.200972,-00.511960,+00.150942
+137.026,-019.107,+002.545,-0.173,+0.114,+2.657,-03.2470,-00.4340,-08.8190,-00.143389,-00.784413,+00.034217
+136.920,-020.174,+002.438,-0.136,+0.099,+2.654,-02.7410,-00.1930,-09.0870,-00.090361,-01.032802,-00.096175
+136.618,-021.616,+002.515,-0.089,+0.119,+2.693,-02.9400,-00.3220,-09.2740,+00.031778,-01.439409,-00.258217
+136.148,-023.664,+002.911,-0.019,+0.098,+2.686,-02.7810,-00.3370,-08.9260,+00.248059,-01.967371,-00.265637
+135.615,-026.345,+003.590,+0.076,+0.119,+2.663,-03.2200,-00.9640,-09.2930,+00.439899,-02.625841,-00.319466
+134.913,-029.953,+004.396,+0.195,+0.116,+2.711,-01.9650,-01.0010,-09.6450,+00.379055,-03.562216,-00.301598
+134.259,-034.865,+005.031,+0.381,+0.149,+2.676,-02.1900,-02.1270,-09.6930,+00.184828,-04.807361,+00.044503
+134.239,-041.511,+005.006,+0.596,+0.151,+2.620,-01.6740,-02.1570,-11.1100,-00.246258,-06.338740,+00.820280
+135.415,-050.192,+004.077,+0.861,+0.138,+2.589,-07.8070,-00.5980,-08.6510,-00.088985,-08.135356,+01.448466
+137.561,-060.075,+002.300,+1.177,+0.164,+2.386,-09.2500,-04.4260,-12.2670,-00.006972,-08.635478,+01.679878
+142.408,-070.446,-001.663,+1.468,+0.123,+2.176,-11.9480,-02.8380,-16.1780,+00.977315,-08.892630,+01.877068
+157.521,-080.472,-015.545,+1.707,+0.087,+1.960,-10.7900,-03.7570,-20.5070,+00.250663,-08.913877,+02.160478
-163.198,-084.173,-054.535,+1.828,+0.050,+1.711,-25.1550,-09.4820,-64.8950,+00.458733,-00.692607,+01.080567
-175.165,-082.249,-041.857,+1.775,+0.086,+1.749,-00.8380,-06.1410,-19.8710,+00.810091,+03.220056,+00.038896
+169.106,-079.171,-025.776,+1.665,+0.102,+1.833,+02.0570,-03.3610,-03.1710,+00.282877,+03.283346,-00.521296
+160.089,-076.332,-017.207,+1.596,+0.142,+1.851,+00.6230,-02.1550,-05.0880,-00.499634,+02.799130,-00.714222
+153.505,-072.885,-011.730,+1.524,+0.195,+1.856,-02.1960,-01.0270,-13.8810,-00.871637,+03.791535,-00.703744
+148.645,-067.671,-007.987,+1.428,+0.184,+1.952,-03.4520,+00.2090,-11.9630,-00.558238,+05.199968,-00.592649
+145.513,-061.416,-005.425,+1.317,+0.226,+2.028,-03.8660,+00.4690,-06.6370,-00.053653,+05.647573,-00.490687
+143.525,-055.080,-003.537,+1.224,+0.279,+2.064,-04.6220,-00.4520,-06.6310,+00.255836,+05.531079,-00.481952
+142.014,-048.730,-002.050,+1.168,+0.287,+2.178,-06.8570,-00.8850,-11.2590,+00.251613,+05.665519,-00.571040
+140.776,-041.933,-000.827,+1.056,+0.364,+2.325,-08.8380,-01.0460,-12.4290,+00.343979,+06.113969,-00.640103
+139.772,-034.934,+000.334,+0.861,+0.416,+2.516,-09.2560,+00.1440,-09.0570,+00.564036,+06.018273,-00.637219
+139.310,-028.476,+001.489,+0.605,+0.454,+2.667,-09.8660,+01.6180,-07.8970,+00.968598,+05.338353,-00.258150
+139.418,-023.011,+002.755,+0.317,+0.527,+2.659,-11.9350,-00.6070,-14.1510,+01.224371,+04.516708,-00.019738
+139.602,-017.745,+004.171,+0.112,+0.578,+2.585,-13.9600,-03.1080,-17.4950,+01.295539,+04.656396,-00.264266
+139.353,-012.378,+005.720,-0.028,+0.619,+2.514,-15.8770,-04.4500,-16.4520,+01.253660,+04.637782,-00.841779
+138.559,-007.112,+006.995,-0.140,+0.644,+2.416,-17.2390,-03.8630,-10.9770,+00.829310,+04.314609,-01.359656
+137.505,-002.570,+007.964,-0.216,+0.650,+2.383,-17.3160,-00.8680,-07.5490,+00.832590,+03.498259,-01.402839
+136.553,+001.188,+009.144,-0.289,+0.680,+2.399,-17.0780,+00.3580,-06.8950,+01.102098,+02.912592,-01.263036
+135.621,+004.295,+010.222,-0.386,+0.731,+2.362,-16.3840,+01.5610,-03.3670,+00.844299,+02.287615,-01.254850
+134.715,+006.602,+010.921,-0.463,+0.759,+2.372,-17.1700,+03.0790,+00.3730,+00.598351,+01.542727,-01.056076
+133.878,+007.756,+011.444,-0.507,+0.752,+2.405,-17.2420,+02.7250,+03.9410,+00.506513,+00.389903,-00.831478
+132.906,+007.485,+011.685,-0.517,+0.737,+2.399,-17.3360,+01.8300,+03.3990,+00.200591,-00.865001,-00.741261
+131.799,+006.018,+011.533,-0.463,+0.734,+2.423,-14.6130,+01.2850,+00.3180,-00.153773,-01.741172,-00.597630
+130.912,+003.782,+010.240,-0.386,+0.687,+2.492,+13.6190,+00.0980,-21.8020,-00.997356,-01.689369,-00.105857
+131.199,+000.481,+009.172,-0.251,+0.685,+2.536,-01.2780,+04.0110,-01.9890,-01.012084,-03.177640,+01.241736
+131.288,-003.358,+008.332,-0.121,+0.697,+2.550,-06.4810,+01.3450,-11.3140,-00.864743,-03.138479,+00.247819
+130.949,-007.058,+007.851,+0.019,+0.683,+2.645,-03.8530,+00.6750,-13.0780,+00.039651,-03.276089,+00.097478
+130.472,-010.783,+008.642,+0.173,+0.746,+2.641,-04.0220,-00.4650,-10.5940,+00.868969,-03.376842,+00.126663
+129.918,-014.218,+008.509,+0.317,+0.705,+2.636,-27.4870,-05.5150,-40.3340,-00.285632,-01.492219,-00.252278
+129.686,-015.293,+007.982,+0.359,+0.690,+2.682,-04.5070,+01.8460,-13.7140,+00.083959,-00.454611,+00.050499
+129.618,-015.649,+007.864,+0.368,+0.705,+2.644,-03.7010,-00.1310,-09.8030,-00.048957,-00.208321,-00.023472
+129.537,-015.711,+007.926,+0.382,+0.697,+2.645,-02.6780,-01.1000,-09.2710,+00.066457,+00.025269,-00.052176
+129.571,-015.628,+007.999,+0.364,+0.735,+2.649,-02.9540,-00.7150,-09.4860,+00.137982,+00.104028,+00.038612
+129.546,-015.509,+008.385,+0.368,+0.730,+2.666,-02.5470,-00.9550,-09.1140,+00.397774,+00.085538,-00.088275
+129.421,-015.423,+008.891,+0.375,+0.732,+2.647,-02.4470,-01.5190,-08.8900,+00.396566,+00.045863,-00.116524
+129.319,-015.363,+009.273,+0.368,+0.735,+2.660,-02.4670,-01.6750,-08.8530,+00.249156,+00.038700,-00.075938
+129.295,-015.330,+009.473,+0.364,+0.759,+2.660,-02.5360,-01.6060,-08.9800,+00.154802,+00.010578,+00.005580
+129.328,-015.338,+009.562,+0.364,+0.747,+2.630,-02.4160,-01.5680,-08.8990,+00.041392,-00.007211,+00.041650
+129.388,-015.363,+009.598,+0.387,+0.734,+2.645,-02.5870,-01.3780,-08.9870,+00.044702,-00.014713,+00.045380
+129.420,-015.386,+009.606,+0.368,+0.754,+2.633,-02.4260,-01.6270,-08.8780,-00.005709,-00.019662,+00.032991
+129.478,-015.436,+009.530,+0.373,+0.772,+2.628,-02.4630,-01.5310,-08.9370,-00.084271,-00.044319,+00.072358
+129.577,-015.499,+009.369,+0.373,+0.720,+2.666,-02.6370,-01.5450,-08.9140,-00.142871,-00.037629,+00.094638
+129.704,-015.557,+009.129,+0.382,+0.779,+2.644,-02.6190,-01.4870,-08.9950,-00.198705,-00.027921,+00.125787
+129.845,-015.606,+008.820,+0.373,+0.722,+2.658,-02.6110,-01.4610,-08.8580,-00.265585,-00.022919,+00.119595
+129.969,-015.659,+008.443,+0.382,+0.705,+2.677,-02.5160,-01.3580,-08.9240,-00.320913,-00.035501,+00.106390
+130.092,-015.727,+007.984,+0.387,+0.749,+2.655,-02.5200,-01.1340,-08.9160,-00.419237,-00.049665,+00.113336
+130.243,-015.824,+007.386,+0.387,+0.670,+2.656,-02.5060,-00.9280,-09.0220,-00.513971,-00.085765,+00.154503
+130.464,-016.008,+006.749,+0.387,+0.660,+2.662,-02.7840,-00.7820,-09.0540,-00.467249,-00.153744,+00.221344
+130.713,-016.204,+006.158,+0.396,+0.670,+2.646,-02.6460,-01.0870,-09.2110,-00.447108,-00.140838,+00.228645
+130.932,-016.361,+005.642,+0.413,+0.640,+2.671,-02.6420,-00.8440,-09.0790,-00.362021,-00.109655,+00.173286
+131.064,-016.484,+005.247,+0.419,+0.605,+2.696,-02.5830,-00.6420,-09.0460,-00.301005,-00.094142,+00.092757
+131.156,-016.615,+004.863,+0.419,+0.615,+2.685,-02.7450,-00.7830,-08.9570,-00.318617,-00.120889,+00.090352
+131.283,-016.784,+004.466,+0.436,+0.592,+2.672,-02.7500,-00.8770,-08.9130,-00.302844,-00.148061,+00.138207
+131.476,-016.987,+004.093,+0.438,+0.560,+2.692,-02.6750,-00.6710,-08.9990,-00.261066,-00.181456,+00.196631
+131.728,-017.248,+003.730,+0.443,+0.600,+2.670,-02.6330,-00.7520,-08.9530,-00.248843,-00.230511,+00.243891
+132.043,-017.580,+003.343,+0.464,+0.560,+2.685,-02.6960,-00.3640,-09.0410,-00.254753,-00.291920,+00.281889
+132.371,-017.989,+002.986,+0.475,+0.545,+2.710,-02.9230,-00.5480,-08.9870,-00.214240,-00.401765,+00.294851
+132.653,-018.630,+002.655,+0.512,+0.540,+2.668,-02.7930,-00.3680,-08.9820,-00.207253,-00.629776,+00.219507
+132.780,-019.618,+002.368,+0.538,+0.522,+2.661,-03.1730,-00.3890,-09.0660,-00.211281,-01.009801,+00.123524
+132.882,-021.139,+002.167,+0.596,+0.499,+2.677,-02.4400,-00.2570,-09.4440,-00.104064,-01.498725,+00.128689
+132.701,-023.321,+002.270,+0.671,+0.528,+2.669,-01.4700,-00.0940,-09.1390,+00.098752,-02.210851,-00.236448
+132.335,-026.246,+002.634,+0.752,+0.534,+2.622,-02.7640,-00.5220,-09.4270,+00.226656,-02.845709,-00.159318
+131.919,-030.129,+003.031,+0.876,+0.541,+2.613,-03.0490,-00.5580,-09.3060,+00.127935,-03.792456,-00.143791
+131.652,-035.284,+003.134,+1.048,+0.534,+2.529,-03.9450,-00.7040,-08.8640,-00.072573,-05.027946,+00.233989
+132.064,-042.132,+002.420,+1.238,+0.519,+2.415,-04.9390,-01.3570,-10.2360,-00.639627,-06.591144,+00.801205
+133.679,-050.782,+001.074,+1.490,+0.459,+2.305,-08.0720,-00.7170,-09.9310,-00.049537,-07.964379,+01.257341
+136.469,-060.152,-001.052,+1.741,+0.415,+2.078,-08.4850,+00.9100,-10.4100,+00.388611,-08.421978,+01.534337
+142.432,-069.632,-004.882,+1.947,+0.400,+1.832,-07.4090,-00.7680,-14.1100,+01.767304,-08.336173,+01.811318
+158.092,-078.419,-017.988,+2.103,+0.350,+1.601,-08.4460,-02.4140,-18.8500,+01.614201,-07.792377,+02.392202
-176.437,-081.070,-041.588,+2.177,+0.279,+1.502,-11.7350,-06.7290,-43.0560,+00.987752,-00.689449,+01.687633
-176.994,-078.812,-040.081,+2.098,+0.280,+1.637,-01.0000,-06.7930,-19.3090,+00.528769,+02.678356,+00.883866
+175.105,-075.768,-032.116,+1.936,+0.308,+1.822,+01.8390,-04.6910,-05.0020,+00.066133,+03.027060,+00.040430
+168.043,-073.073,-025.507,+1.722,+0.301,+1.932,+00.9300,-03.4610,-05.1440,-00.256980,+02.812040,-00.533139
+160.906,-070.038,-019.150,+1.531,+0.312,+1.950,-01.1300,-02.4410,-11.1610,-00.448835,+03.560267,-00.943838
+154.114,-065.664,-013.371,+1.359,+0.289,+1.959,-02.4840,-01.2000,-10.9940,-00.423966,+04.681164,-01.153312
+148.612,-060.307,-008.811,+1.279,+0.300,+1.901,-03.1590,+00.0630,-07.4390,-00.207350,+05.107539,-01.272893
+144.576,-054.590,-005.343,+1.258,+0.310,+1.979,-04.3350,+01.0840,-08.5070,+00.220571,+05.233922,-01.247141
+141.717,-048.505,-002.703,+1.205,+0.312,+2.120,-06.3540,+01.0640,-12.7030,+00.369421,+05.560889,-01.121278
+139.819,-041.710,-000.903,+1.108,+0.388,+2.283,-08.4380,+01.4580,-14.3940,+00.431705,+06.197464,-00.892937
+138.770,-034.471,+000.482,+0.968,+0.435,+2.448,-09.3290,+02.2630,-10.7240,+00.792182,+06.280434,-00.562721
+138.501,-027.717,+001.822,+0.769,+0.547,+2.668,-10.2800,+01.4090,-09.3780,+01.171246,+05.572337,-00.190696
+138.533,-021.924,+003.121,+0.429,+0.730,+2.820,-11.9350,-01.8590,-14.2720,+01.053020,+04.802372,-00.249229
+138.286,-016.451,+004.218,+0.075,+0.805,+2.812,-13.7480,-03.2430,-18.5390,+00.812135,+04.800964,-00.704966
+137.591,-010.901,+005.256,-0.213,+0.820,+2.688,-14.1000,-02.4960,-14.7680,+00.731712,+04.688638,-01.119586
+136.765,-005.846,+006.142,-0.451,+0.881,+2.509,-13.5880,-01.2800,-10.9370,+00.648739,+04.056685,-01.111601
+136.149,-001.624,+006.994,-0.558,+0.812,+2.405,-12.9090,-00.3140,-08.3550,+00.777137,+03.326127,-00.845813
+135.780,+001.791,+008.269,-0.642,+0.813,+2.334,-12.9690,+01.6530,-08.4900,+01.335718,+02.722309,-00.647762
+135.700,+004.915,+010.078,-0.731,+0.877,+2.221,-14.6000,+02.8920,-08.6480,+01.608966,+02.730851,-00.387909
+135.957,+007.775,+011.430,-0.770,+0.865,+2.141,-13.9390,+01.1120,+01.2700,+00.838171,+02.177710,-00.212345
+135.927,+009.384,+012.094,-0.801,+0.877,+2.093,-14.1690,+01.1840,+02.8350,+00.547064,+00.906486,-00.398071
+135.382,+009.935,+012.447,-0.791,+0.862,+2.067,-13.9470,+00.5250,+00.3260,+00.219187,+00.092778,-00.642151
+134.436,+009.647,+012.126,-0.782,+0.857,+2.072,-12.3150,+00.3800,-00.9220,-00.267677,-00.734146,-00.796457
+133.092,+008.738,+011.770,-0.764,+0.827,+2.074,-11.8130,-01.7050,-04.0780,-00.047358,-01.134558,-01.106918
+131.461,+007.348,+011.390,-0.722,+0.777,+2.076,+05.8450,+01.2500,-06.7220,+00.032668,-01.805456,-00.997777
+130.976,+004.750,+011.259,-0.668,+0.784,+2.073,+16.6620,-02.3790,-06.3340,-00.422143,-03.094600,+00.720641
+131.085,+000.281,+010.670,-0.540,+0.751,+2.160,-10.8170,-00.5240,-10.3200,-00.398158,-03.887791,+00.483868
+130.593,-003.536,+009.421,-0.433,+0.725,+2.143,-04.4450,+09.0620,-16.8830,-00.535919,-03.192838,+00.410890
+130.773,-006.985,+009.420,-0.333,+0.702,+2.172,-04.7810,-01.1970,-10.4400,+00.266700,-02.871532,+00.635151
+130.464,-010.142,+009.857,-0.252,+0.704,+2.189,-05.5660,-07.0230,-13.8310,+00.190189,-02.660550,-00.009992
+129.879,-013.015,+009.574,-0.168,+0.688,+2.160,-06.8690,-06.7290,-19.8090,-00.967176,-02.525881,-00.125492
+129.434,-014.628,+008.688,-0.121,+0.650,+2.163,-03.7730,+00.3400,-16.8950,-00.817584,-01.095571,-00.094537
+129.292,-015.303,+008.331,-0.093,+0.613,+2.207,-03.8220,-00.6380,-11.2350,-00.214874,-00.415238,-00.034549
+129.201,-015.600,+008.236,-0.093,+0.672,+2.164,-02.9940,-01.4620,-09.5580,-00.055785,-00.190785,-00.020845
+129.211,-015.709,+008.133,-0.086,+0.630,+2.175,-02.9250,-01.2940,-09.3670,-00.109549,-00.036497,+00.039784
+129.259,-015.727,+007.964,-0.079,+0.627,+2.192,-02.6340,-00.9370,-09.1690,-00.140299,-00.003530,+00.038969
+129.281,-015.741,+007.801,-0.089,+0.613,+2.191,-02.6450,-01.1400,-09.1460,-00.131234,-00.012390,+00.012183
+129.287,-015.775,+007.606,-0.093,+0.615,+2.186,-02.3540,-01.0680,-08.9730,-00.182070,-00.041919,+00.015203
+129.298,-015.845,+007.385,-0.079,+0.608,+2.197,-02.4350,-01.0860,-08.9700,-00.193374,-00.072288,+00.023272
+129.331,-015.956,+007.144,-0.075,+0.608,+2.187,-02.5520,-00.9280,-08.8760,-00.231829,-00.100072,+00.044218
+129.375,-016.092,+006.849,-0.079,+0.595,+2.181,-02.4980,-01.0590,-08.9140,-00.265185,-00.127590,+00.063219
+129.468,-016.257,+006.482,-0.061,+0.578,+2.209,-02.9570,-00.6390,-09.1470,-00.327213,-00.122982,+00.104084
+129.620,-016.403,+006.023,-0.065,+0.578,+2.198,-02.8010,-00.9140,-09.1450,-00.381942,-00.113830,+00.168881
+129.884,-016.567,+005.490,-0.065,+0.595,+2.198,-02.7540,-01.3390,-09.0530,-00.389463,-00.117936,+00.278997
+130.232,-016.679,+005.018,-0.051,+0.588,+2.220,-02.7930,-00.4210,-08.9850,-00.281874,-00.040774,+00.287547
+130.504,-016.748,+004.657,-0.056,+0.588,+2.209,-02.7510,-00.5400,-08.9740,-00.236127,-00.050149,+00.198211
+130.690,-016.820,+004.342,-0.059,+0.555,+2.204,-02.6410,-00.6520,-08.9400,-00.236212,-00.050426,+00.151100
+130.896,-016.907,+003.998,-0.056,+0.538,+2.226,-02.7140,-00.6850,-08.9520,-00.254642,-00.069871,+00.196787
+131.161,-017.021,+003.605,-0.052,+0.518,+2.215,-02.7790,-00.6110,-09.0170,-00.280086,-00.091911,+00.247309
+131.451,-017.145,+003.226,-0.047,+0.528,+2.210,-02.9340,-00.2350,-08.9660,-00.232541,-00.090140,+00.231947
+131.687,-017.253,+002.935,-0.038,+0.533,+2.237,-02.8530,-00.2380,-08.9560,-00.170037,-00.077669,+00.186324
+131.888,-017.340,+002.711,-0.038,+0.508,+2.211,-02.8500,-00.3440,-09.0200,-00.146102,-00.060500,+00.164670
+132.089,-017.429,+002.474,-0.033,+0.515,+2.219,-02.9190,-00.3720,-08.9790,-00.150079,-00.084508,+00.173010
+132.296,-017.559,+002.252,-0.028,+0.538,+2.200,-02.8650,-00.3350,-08.9550,-00.135657,-00.122142,+00.174786
+132.522,-017.738,+002.053,-0.019,+0.543,+2.200,-02.8860,-00.3180,-08.9790,-00.099968,-00.163292,+00.206919
+132.758,-017.957,+001.882,-0.014,+0.510,+2.214,-03.0270,-00.2680,-09.0020,-00.086336,-00.198170,+00.192505
+132.938,-018.237,+001.732,0.000,+0.493,+2.223,-02.8130,+00.1140,-09.1120,-00.096587,-00.261658,+00.116616
+133.029,-018.644,+001.561,+0.004,+0.532,+2.223,-03.0260,-00.1780,-08.9420,-00.137289,-00.419619,+00.073235
+133.092,-019.287,+001.399,+0.014,+0.515,+2.210,-02.6960,-00.1650,-08.9040,-00.123911,-00.636204,+00.067942
+133.131,-020.187,+001.258,+0.046,+0.468,+2.236,-03.1770,-00.2220,-09.1910,-00.102521,-00.888657,+00.014609
+133.059,-021.496,+001.211,+0.083,+0.487,+2.216,-02.6160,-00.1810,-09.2140,-00.026634,-01.301100,-00.043290
+132.938,-023.357,+001.379,+0.130,+0.499,+2.226,-07.7670,-01.1020,-09.2130,+00.207607,-01.895041,-00.176118
+132.670,-025.917,+001.823,+0.205,+0.496,+2.238,-03.0670,-00.3910,-09.6130,+00.369226,-02.489246,-00.166025
+132.283,-029.407,+002.387,+0.302,+0.500,+2.220,-04.3680,-01.0330,-09.4430,+00.302734,-03.452541,-00.177716
+131.905,-034.155,+002.770,+0.430,+0.511,+2.169,-02.7420,-01.2560,-09.6070,+00.071976,-04.635521,+00.042816
+132.084,-040.529,+002.546,+0.610,+0.521,+2.185,-01.8480,-01.7760,-10.8690,-00.285885,-06.076768,+00.655336
+133.434,-048.760,+001.645,+0.866,+0.523,+2.071,-08.1050,-00.6440,-08.4010,+00.114216,-07.738618,+01.249716
+135.779,-058.122,+000.166,+1.107,+0.488,+1.930,-07.6930,-03.0440,-11.4460,+00.357160,-08.206316,+01.386019
+140.658,-067.936,-002.938,+1.326,+0.462,+1.751,-11.0070,-01.7920,-15.0160,+01.686886,-08.501873,+01.876215
+153.516,-077.562,-013.334,+1.582,+0.459,+1.480,-10.1330,-02.4340,-16.6930,+01.437805,-08.764334,+02.308806
-173.473,-082.212,-044.596,+1.716,+0.402,+1.281,-18.4480,-04.3190,-52.7810,+01.338433,-02.541479,+02.269141
-175.066,-079.997,-041.601,+1.795,+0.346,+1.301,-01.0300,-07.1630,-23.3480,+01.126026,+02.847639,+00.804324
+174.570,-076.633,-030.949,+1.837,+0.342,+1.438,+01.7030,-05.4410,-05.4020,+00.095172,+03.450543,-00.050198
+166.526,-073.616,-023.583,+1.854,+0.372,+1.566,+00.8510,-03.8270,-03.8680,-00.551763,+03.012471,-00.583134
+159.275,-070.374,-017.267,+1.843,+0.403,+1.709,-02.1910,-02.6260,-13.5120,-00.440234,+03.723654,-00.988081
+152.403,-065.489,-011.394,+1.759,+0.459,+1.910,-03.0240,-01.6990,-12.2660,-00.441327,+05.149618,-01.195283
+147.117,-059.526,-007.109,+1.652,+0.481,+2.171,-03.3560,-00.1710,-07.2710,-00.274344,+05.553336,-01.291467
+143.474,-053.335,-003.946,+1.457,+0.494,+2.444,-04.7230,+02.0790,-08.3550,+00.384385,+05.541687,-01.167195
+141.205,-046.794,-001.510,+1.104,+0.548,+2.618,-06.8610,+02.2220,-13.3070,+00.618863,+05.964779,-00.879831
+140.134,-039.654,-000.131,+0.729,+0.555,+2.685,-08.3760,+03.0910,-11.0710,+00.542259,+06.318331,-00.409933
+140.023,-032.673,+000.758,+0.396,+0.516,+2.620,-08.8120,+03.3510,-07.7840,+00.838304,+05.869764,+00.075236
+140.613,-026.578,+001.654,+0.214,+0.492,+2.476,-09.6290,+01.4850,-07.6810,+01.095489,+04.969209,+00.450498
+141.397,-021.609,+002.527,+0.161,+0.465,+2.439,-11.4570,-00.0430,-16.7170,+01.090271,+04.167737,+00.475183
+142.135,-016.575,+003.762,+0.116,+0.483,+2.450,-12.9860,-01.5100,-18.2450,+01.421245,+04.532030,+00.266884
+142.547,-011.360,+005.243,+0.028,+0.568,+2.457,-13.4450,-03.4000,-15.1750,+01.295952,+04.546518,-00.183357
+142.531,-006.324,+006.621,-0.109,+0.639,+2.523,-13.2910,-03.1300,-11.9390,+01.207040,+04.228452,-00.622404
+142.220,-001.682,+008.148,-0.293,+0.721,+2.566,-12.8830,-00.9860,-11.1930,+01.383880,+03.845982,-00.845774
+141.838,+002.515,+009.731,-0.507,+0.827,+2.491,-11.0560,+00.4590,-08.9770,+01.363105,+03.361622,-00.949822
+141.241,+006.142,+011.005,-0.672,+0.865,+2.405,-10.7830,+01.5660,-07.4650,+00.983080,+02.819019,-01.131146
+140.645,+009.145,+011.842,-0.791,+0.874,+2.348,-11.6980,+03.1880,-03.9160,+00.731680,+02.239596,-00.910721
+140.331,+011.251,+012.770,-0.870,+0.958,+2.252,-12.1200,+03.7210,-00.5430,+00.966599,+01.415226,-00.495546
+140.212,+012.333,+013.971,-0.905,+0.944,+2.194,-12.5830,+01.7860,-00.6640,+01.100846,+00.616620,-00.262323
+139.835,+012.629,+015.052,-0.917,+0.944,+2.174,-11.9400,-00.5830,-00.0230,+00.891005,-00.113823,-00.493167
+138.866,+012.192,+015.260,-0.908,+0.973,+2.169,-11.1480,-01.2050,-02.2500,+00.016961,-00.848609,-00.779711
+137.524,+011.173,+014.645,-0.901,+0.921,+2.175,-10.3530,-01.7730,-04.3600,-00.384282,-01.317683,-00.946462
+135.786,+009.694,+013.862,-0.880,+0.879,+2.252,-08.8230,-04.3560,-03.8370,-00.494645,-01.785901,-01.280113
+134.234,+008.104,+013.132,-0.842,+0.839,+2.276,+16.5820,-06.8130,-19.9890,-00.570541,-01.502435,-00.378743
+134.062,+005.072,+012.089,-0.763,+0.809,+2.304,-03.9520,+00.3480,-00.2550,-01.076882,-03.016323,+00.319192
+133.406,+001.565,+011.213,-0.665,+0.773,+2.382,-08.4400,+07.4660,-15.0830,-00.776724,-02.864628,-00.023675
+133.115,-001.784,+011.084,-0.563,+0.797,+2.380,-02.3860,+02.9970,-13.9530,+00.515121,-03.043527,+00.476238
+132.820,-004.838,+012.160,-0.465,+0.779,+2.412,-04.9710,-05.1260,-12.2350,+00.960627,-02.542491,+00.163626
+132.214,-007.490,+012.982,-0.391,+0.786,+2.437,-03.5690,-06.4630,-10.8720,+00.437528,-02.263571,-00.048630
+131.488,-010.014,+013.213,-0.312,+0.785,+2.440,-03.9550,-02.1530,-13.2920,-00.074036,-02.276042,-00.061797
+130.971,-012.313,+012.921,-0.239,+0.772,+2.463,-07.0270,-04.5270,-16.1460,-00.813401,-01.818486,+00.021588
+130.679,-013.417,+011.865,-0.209,+0.725,+2.499,-02.7620,-01.6960,-11.2570,-01.118261,-00.774149,-00.001511
+130.637,-013.986,+010.861,-0.186,+0.690,+2.484,-02.7940,-01.5200,-09.8140,-00.770669,-00.392718,+00.083974
+130.684,-014.337,+010.165,-0.170,+0.677,+2.496,-02.7850,-00.9210,-09.8210,-00.466648,-00.230234,+00.100111
+130.736,-014.588,+009.810,-0.158,+0.635,+2.502,-02.5220,-01.4020,-09.3360,-00.244163,-00.207680,+00.070291
+130.752,-014.801,+009.590,-0.153,+0.699,+2.507,-02.4840,-01.1550,-09.3920,-00.143268,-00.162013,+00.033583
+130.742,-014.953,+009.420,-0.151,+0.652,+2.494,-02.5680,-01.6990,-09.0890,-00.184881,-00.112789,+00.003052
+130.727,-015.064,+009.126,-0.139,+0.640,+2.530,-02.3710,-01.0690,-08.9090,-00.338786,-00.086879,+00.002068
+130.736,-015.212,+008.530,-0.139,+0.645,+2.519,-02.3570,-01.3970,-08.9580,-00.597054,-00.140092,+00.069146
+130.884,-015.485,+007.790,-0.140,+0.595,+2.517,-02.2300,-01.3240,-08.9200,-00.610802,-00.264683,+00.221959
+131.266,-015.863,+006.980,-0.126,+0.585,+2.531,-02.5570,-01.7470,-08.7490,-00.580856,-00.280703,+00.422532
+131.701,-016.108,+006.255,-0.116,+0.565,+2.526,-02.7610,-00.8370,-09.1510,-00.480507,-00.128529,+00.355406
+132.021,-016.275,+005.708,-0.109,+0.540,+2.527,-02.8950,-00.6990,-09.1250,-00.358231,-00.106510,+00.234665
+132.204,-016.387,+005.348,-0.102,+0.525,+2.554,-02.7200,-00.4660,-09.0390,-00.210294,-00.070784,+00.123541
+132.331,-016.459,+005.148,-0.102,+0.550,+2.538,-02.5670,-00.8190,-09.0290,-00.116475,-00.051323,+00.118254
+132.514,-016.552,+004.942,-0.098,+0.537,+2.522,-02.7640,-00.8990,-09.0050,-00.144880,-00.070530,+00.180335
+132.712,-016.641,+004.709,-0.093,+0.510,+2.560,-02.8900,-00.5890,-09.0020,-00.152092,-00.058595,+00.158326
+132.849,-016.705,+004.542,-0.088,+0.550,+2.544,-02.7760,-00.3380,-09.0390,-00.080897,-00.034966,+00.094016
+132.925,-016.701,+004.460,-0.088,+0.540,+2.509,-02.5750,-00.4690,-09.0480,-00.032768,+00.029939,+00.053814
+132.980,-016.675,+004.451,-0.093,+0.495,+2.571,-02.7820,-00.6990,-08.9740,+00.028724,+00.015504,+00.033895
+132.993,-016.676,+004.521,-0.093,+0.520,+2.560,-02.8550,-00.7710,-08.9980,+00.080704,-00.006969,-00.000626
+132.995,-016.699,+004.635,-0.084,+0.518,+2.542,-02.7620,-00.7850,-09.0430,+00.107248,-00.026479,+00.009116
+133.018,-016.762,+004.755,-0.098,+0.550,+2.554,-02.6950,-00.8160,-09.0400,+00.108305,-00.071696,+00.036700
+133.072,-016.892,+004.845,-0.084,+0.585,+2.538,-02.7200,-00.9050,-08.9600,+00.081537,-00.132634,+00.065203
+133.175,-017.099,+004.877,-0.079,+0.547,+2.531,-02.6200,-00.7970,-08.9670,+00.031042,-00.199914,+00.115147
+133.290,-017.380,+004.835,-0.074,+0.520,+2.528,-02.7800,-00.8850,-08.9950,-00.025400,-00.254297,+00.118196
+133.352,-017.756,+004.785,-0.051,+0.525,+2.540,-02.8820,-00.5940,-08.9200,-00.025325,-00.363215,+00.033903
+133.236,-018.260,+004.788,-0.044,+0.530,+2.543,-02.9060,-00.6460,-08.9800,-00.039076,-00.501158,-00.116511
+132.972,-018.938,+004.809,-0.023,+0.519,+2.542,-03.4480,-00.7670,-08.9910,-00.045186,-00.675697,-00.194421
+132.619,-019.809,+004.915,+0.009,+0.539,+2.543,-03.1820,-00.7170,-08.9990,+00.006250,-00.851942,-00.253141
+132.056,-020.975,+005.169,+0.044,+0.526,+2.525,-05.7620,-01.2910,-09.3670,+00.129871,-01.250719,-00.447136
+131.302,-022.671,+005.655,+0.093,+0.504,+2.579,-03.3170,-00.9050,-09.2290,+00.228796,-01.697766,-00.481128
+130.330,-024.881,+006.445,+0.168,+0.542,+2.523,-03.7700,-00.8490,-08.9830,+00.442586,-02.222557,-00.649085
+129.026,-027.788,+007.652,+0.259,+0.566,+2.540,-02.7420,-00.7960,-09.1170,+00.622719,-02.948629,-00.707930
+127.430,-031.717,+009.147,+0.377,+0.580,+2.521,-02.1610,-00.7290,-09.8630,+00.635722,-03.973525,-00.634089
+125.908,-037.121,+010.924,+0.559,+0.647,+2.490,-03.6850,-00.9190,-09.3210,+00.979807,-05.387366,-00.033258
+124.766,-044.332,+013.079,+0.787,+0.667,+2.397,-05.1110,-01.2440,-11.8770,+01.483701,-06.919277,+00.997262
+123.540,-053.419,+015.566,+1.062,+0.706,+2.290,-04.3820,-01.3110,-14.6260,+01.230221,-08.036859,+01.368292
+121.990,-063.289,+018.107,+1.355,+0.692,+2.064,-12.1730,-07.0680,-14.6100,+00.897722,-08.590171,+01.800562
+118.692,-073.303,+022.719,+1.592,+0.684,+1.820,-09.6110,-02.2220,-15.2750,+01.674195,-08.610182,+02.252631
+112.232,-082.149,+031.603,+1.782,+0.666,+1.579,-06.4550,+00.6360,-31.5780,+02.461610,-05.386708,+02.701250
+126.484,-083.228,+019.627,+1.824,+0.635,+1.484,-00.5550,-04.4170,-28.5610,+01.950000,+01.332087,+01.672160
+142.459,-080.713,+004.742,+1.829,+0.623,+1.528,+01.7610,-05.9020,-10.1160,+00.200928,+02.825833,+01.268133
+148.694,-077.516,-001.921,+1.833,+0.576,+1.609,+01.6500,-04.4700,-05.5680,-00.738509,+02.767556,+00.794653
+150.114,-074.066,-004.109,+1.838,+0.532,+1.680,+00.3600,-03.7010,-09.2870,-00.546936,+03.212981,+00.272815
+149.033,-069.682,-003.422,+1.850,+0.512,+1.806,-01.6280,-03.8740,-11.4070,-00.186906,+04.251597,-00.221342
+146.967,-064.275,-001.732,+1.815,+0.529,+2.069,-02.5930,-03.7380,-08.5760,-00.224175,+04.939495,-00.645560
+144.761,-058.481,-000.094,+1.704,+0.601,+2.367,-04.1420,-03.0520,-08.5160,-00.235419,+05.141528,-00.936616
+142.631,-052.308,+001.550,+1.455,+0.667,+2.646,-05.9450,-03.1940,-10.7960,-00.028269,+05.521924,-01.245779
+140.651,-045.704,+003.100,+1.113,+0.693,+2.839,-07.7320,-02.3020,-12.1870,+00.102736,+05.829697,-01.410710
+139.132,-038.733,+004.357,+0.774,+0.776,+2.900,-09.0390,-00.9130,-11.7690,+00.294709,+06.064528,-01.309786
+138.324,-031.779,+005.517,+0.446,+0.807,+2.977,-09.9630,+00.0680,-10.0690,+00.791232,+05.884403,-00.930969
+138.159,-025.516,+006.746,+0.085,+0.819,+3.021,-10.8900,-01.9170,-10.0390,+01.012902,+05.086749,-00.625734
+138.139,-020.033,+007.736,-0.390,+0.783,+2.919,-13.7420,-05.0960,-19.6740,+00.820245,+04.726886,-00.670592
+137.860,-014.195,+008.743,-0.731,+0.678,+2.591,-14.5580,-05.5930,-17.8520,+00.825819,+05.091644,-01.134637
+137.324,-008.369,+009.772,-0.829,+0.561,+2.262,-15.2720,-04.7730,-14.8120,+00.760840,+04.825686,-01.299707
+136.922,-002.963,+010.690,-0.746,+0.450,+2.055,-16.1210,-02.8680,-11.8550,+00.829014,+04.423818,-01.067898
+136.874,+001.780,+012.020,-0.662,+0.446,+2.013,-15.2240,+00.5350,-06.9830,+01.400941,+03.773076,-00.737229
+137.021,+005.526,+013.896,-0.648,+0.548,+2.097,-14.5540,+03.2690,-05.0950,+01.674724,+02.880839,-00.512554
+137.400,+008.310,+015.368,-0.699,+0.683,+2.131,-15.0820,+02.0980,-02.5840,+00.919005,+02.182692,-00.195289
+137.767,+010.178,+016.236,-0.764,+0.758,+2.169,-14.1590,+03.1460,+02.3620,+00.705450,+01.288849,-00.118364
+137.870,+010.881,+017.033,-0.805,+0.804,+2.213,-14.1460,+02.0190,+01.2840,+00.603248,+00.247672,-00.077117
+137.591,+010.741,+017.267,-0.810,+0.853,+2.245,-12.9640,-00.8530,+00.7890,-00.005781,-00.462050,-00.315230
+136.521,+009.814,+016.624,-0.812,+0.836,+2.293,-11.7980,-02.1710,-01.3300,-00.571268,-01.370492,-00.853069
+134.554,+008.395,+015.579,-0.782,+0.804,+2.398,-12.2750,-04.0170,-05.9110,-00.666551,-01.772545,-01.584374
+131.833,+007.151,+014.364,-0.740,+0.735,+2.487,+12.1290,-05.2630,-21.2950,-00.302034,-01.601219,-02.194039
+130.626,+004.983,+013.476,-0.698,+0.730,+2.562,+13.4830,+02.5910,-07.5730,-01.177619,-02.987490,+00.477456
+130.327,+001.168,+012.586,-0.586,+0.749,+2.661,-12.8000,+05.1090,-07.8310,-00.657039,-03.177548,+00.197779
+130.009,-001.911,+012.056,-0.488,+0.734,+2.774,-03.3620,+07.4440,-15.2430,-00.197375,-02.551071,+00.557968
+129.880,-004.894,+012.511,-0.379,+0.765,+2.827,-04.5210,-06.8900,-11.9800,+00.566591,-02.527161,+00.104988
+129.242,-007.542,+013.317,-0.269,+0.836,+2.886,-04.5530,-02.8000,-13.2980,+00.581479,-02.282646,+00.075993
+128.648,-010.079,+013.884,-0.162,+0.855,+2.896,-02.2110,-06.6360,-09.1260,+00.185654,-02.363564,-00.037030
+128.055,-012.585,+013.858,-0.071,+0.864,+2.943,-05.8450,-00.5260,-16.0160,-00.370650,-01.978967,+00.125793
+127.848,-013.715,+012.741,-0.022,+0.819,+2.984,-02.6660,-02.3410,-08.9170,-01.117595,-00.696905,+00.036386
+127.769,-014.270,+011.424,+0.001,+0.785,+2.990,-03.9710,+00.3900,-12.0900,-00.921099,-00.313324,+00.097264
+127.795,-014.539,+010.649,+0.010,+0.762,+3.002,-02.8960,-01.4820,-09.7880,-00.550328,-00.187437,+00.042343
+127.806,-014.729,+010.234,+0.020,+0.730,+3.029,-02.2370,-01.4470,-08.9980,-00.283488,-00.175565,+00.037277
+127.814,-014.962,+009.971,+0.024,+0.755,+3.008,-02.5560,-01.0630,-09.3020,-00.168578,-00.194307,+00.043517
+127.801,-015.102,+009.794,+0.027,+0.727,+3.013,-02.6050,-01.6050,-09.1010,-00.148240,-00.097201,+00.008130
+127.796,-015.189,+009.541,+0.034,+0.720,+3.025,-02.7270,-01.6650,-09.0880,-00.289357,-00.060214,+00.006109
+127.804,-015.255,+009.036,+0.029,+0.735,+3.024,-02.6860,-01.7100,-08.8500,-00.545667,-00.064842,+00.023444
+127.823,-015.301,+008.327,+0.045,+0.677,+3.015,-02.8110,-01.1770,-09.2940,-00.613115,+00.006427,+00.015076
+127.878,-015.282,+007.654,+0.038,+0.655,+3.058,-02.3710,-00.8930,-09.1160,-00.548736,+00.015911,+00.071667
+128.029,-015.370,+006.997,+0.029,+0.670,+3.036,-01.9360,-01.1430,-08.7450,-00.536233,-00.115830,+00.181595
+128.337,-015.655,+006.309,+0.050,+0.591,+3.042,-01.9020,-01.3640,-08.8360,-00.514030,-00.279641,+00.356114
+128.797,-016.070,+005.609,+0.061,+0.576,+3.081,-03.0910,-01.0230,-09.1940,-00.488981,-00.311383,+00.438936
+129.296,-016.429,+004.944,+0.089,+0.561,+3.055,-02.8650,-00.6710,-09.0660,-00.433986,-00.244090,+00.445983
+129.733,-016.685,+004.400,+0.089,+0.553,+3.053,-02.7430,-00.4200,-09.0400,-00.314363,-00.165796,+00.336684
+130.068,-016.860,+004.019,+0.099,+0.501,+3.083,-02.4570,-00.5120,-08.8940,-00.214240,-00.118669,+00.272320
+130.394,-017.006,+003.687,+0.103,+0.526,+3.062,-02.8930,-00.4790,-09.0020,-00.207821,-00.098136,+00.279014
+130.678,-017.105,+003.378,+0.113,+0.523,+3.067,-02.9860,-00.3640,-08.9470,-00.185928,-00.058627,+00.218029
+130.899,-017.171,+003.129,+0.108,+0.501,+3.084,-02.9010,-00.0920,-08.9120,-00.138350,-00.043669,+00.166738
+131.068,-017.235,+002.962,+0.122,+0.506,+3.046,-02.6850,-00.2560,-08.8810,-00.087730,-00.051106,+00.135787
+131.232,-017.308,+002.832,+0.124,+0.513,+3.065,-02.6810,-00.2040,-08.8850,-00.062902,-00.060450,+00.142936
+131.438,-017.402,+002.692,+0.126,+0.471,+3.090,-02.7120,-00.4290,-08.9210,-00.076076,-00.083315,+00.202972
+131.713,-017.523,+002.518,+0.122,+0.511,+3.073,-02.8740,-00.3250,-08.8530,-00.076517,-00.101166,+00.248047
+132.020,-017.670,+002.363,+0.129,+0.518,+3.065,-02.8310,-00.4740,-08.9890,-00.042558,-00.127110,+00.274570
+132.421,-017.864,+002.147,+0.164,+0.525,+3.086,-02.9270,-00.4380,-08.8650,-00.102367,-00.167403,+00.378465
+132.932,-018.110,+001.863,+0.164,+0.490,+3.075,-03.0390,-00.5050,-08.9800,-00.116294,-00.222333,+00.458949
+133.532,-018.448,+001.550,+0.168,+0.480,+3.070,-03.0970,-00.1120,-08.8430,-00.095987,-00.320955,+00.522149
+134.125,-018.929,+001.250,+0.192,+0.480,+3.093,-02.9860,-00.1900,-09.0690,-00.104108,-00.470616,+00.470419
+134.600,-019.688,+000.893,+0.229,+0.490,+3.078,-03.0770,+00.6910,-08.8610,-00.232130,-00.760835,+00.342814
+134.969,-020.872,+000.464,+0.273,+0.469,+3.072,-02.7170,-00.0630,-09.1580,-00.292295,-01.198868,+00.279278
+135.087,-022.611,+000.036,+0.355,+0.429,+3.111,-02.4880,+00.0790,-09.3930,-00.342283,-01.736909,-00.009971
+134.930,-024.994,-000.232,+0.429,+0.453,+3.082,-03.4510,+00.3700,-09.4940,-00.217080,-02.276085,-00.176539
+134.780,-028.085,-000.071,+0.566,+0.447,+3.055,-04.0400,-00.9090,-09.5740,+00.178740,-02.992059,-00.054502
+134.732,-032.341,+000.003,+0.699,+0.450,+3.039,-03.8340,-00.1590,-09.5120,-00.072467,-04.118699,+00.060986
+135.161,-037.851,-000.803,+0.936,+0.472,+2.974,-04.1280,-01.5270,-09.3950,-00.627774,-05.352233,+00.512313
+137.102,-045.025,-002.681,+1.174,+0.415,+2.884,-08.2760,-01.6480,-08.5430,-00.452202,-06.941269,+01.322738
+140.592,-053.634,-005.562,+1.462,+0.406,+2.732,-08.3630,+01.0420,-11.5900,+00.087518,-08.009314,+01.528569
+146.782,-062.773,-010.240,+1.769,+0.382,+2.496,-09.4190,-00.2150,-13.5260,+00.962137,-08.312232,+01.930347
+159.739,-071.002,-020.342,+1.983,+0.347,+2.224,-09.8940,-01.7040,-17.3380,+01.343449,-07.821431,+02.587883
-178.034,-075.122,-040.523,+2.122,+0.317,+2.063,-03.5870,+01.3360,-38.3560,+00.884828,-03.836057,+03.288933
-171.671,-073.043,-044.639,+2.048,+0.323,+2.076,+01.4640,-07.2980,-23.0320,+01.864004,+01.581531,+01.944809
-174.690,-070.302,-040.123,+1.887,+0.347,+2.169,+03.3750,-08.9550,-05.9430,+01.149355,+02.362958,+00.376503
+179.454,-068.655,-033.883,+1.704,+0.431,+2.255,+02.4330,-06.2680,-05.5740,+00.421722,+02.160674,-01.085371
+171.169,-067.144,-025.818,+1.522,+0.557,+2.224,-00.2770,-02.0230,-13.3590,+00.288955,+02.880474,-01.985827
+161.747,-063.936,-017.017,+1.359,+0.539,+2.244,-01.9580,+02.1390,-14.5440,+00.120897,+04.398335,-02.165590
+154.355,-058.874,-010.331,+1.201,+0.556,+2.275,-03.5140,+05.7570,-09.8910,+00.246441,+05.289471,-01.759833
+150.030,-052.944,-006.067,+1.071,+0.572,+2.286,-04.2860,+06.8290,-08.9840,+00.796191,+05.470840,-01.099183
+147.964,-046.578,-003.388,+1.015,+0.565,+2.345,-06.2860,+05.2270,-12.0670,+00.975966,+05.758324,-00.482545
+147.141,-039.796,-001.830,+0.959,+0.510,+2.530,-07.7790,+02.7640,-11.3990,+00.804985,+05.987446,-00.179860
+146.690,-033.081,-000.628,+0.736,+0.548,+2.769,-08.4030,+01.5840,-08.4150,+00.836676,+05.702547,-00.215005
+146.285,-027.148,+000.559,+0.410,+0.604,+2.917,-09.2920,+00.0200,-07.8100,+00.854323,+04.815690,-00.391974
+145.590,-022.228,+001.571,+0.099,+0.699,+2.946,-10.8720,-01.5110,-16.9710,+00.549994,+04.140998,-00.760064
+144.529,-017.060,+002.475,-0.232,+0.821,+2.833,-12.0870,-02.9020,-18.5620,+00.466003,+04.643733,-01.219251
+143.016,-011.609,+003.310,-0.460,+0.869,+2.650,-12.3410,-03.3430,-14.4290,+00.329843,+04.643860,-01.669652
+141.228,-006.383,+003.875,-0.632,+0.868,+2.577,-12.5150,-03.8910,-13.1180,+00.196945,+04.329254,-01.886728
+139.370,-001.570,+004.141,-0.758,+0.780,+2.469,-12.6050,-04.2010,-10.4260,+00.137913,+03.900927,-01.921049
+137.451,+002.616,+004.556,-0.866,+0.738,+2.392,-11.5820,-03.1600,-07.3280,+00.550849,+03.252376,-01.964142
+135.344,+006.036,+005.279,-0.949,+0.751,+2.369,-11.1870,-02.6630,-06.4440,+00.852252,+02.566697,-02.199754
+132.816,+008.869,+005.580,-1.043,+0.672,+2.295,-12.1040,-01.6310,-05.2330,+00.227695,+02.071910,-02.493026
+130.146,+011.025,+004.915,-1.108,+0.608,+2.290,-12.5490,+02.2550,-01.7780,-00.257104,+01.400351,-02.381599
+127.850,+012.282,+004.516,-1.131,+0.539,+2.303,-12.3960,+04.7040,+00.4420,+00.308111,+00.645178,-01.801788
+126.134,+012.496,+004.776,-1.150,+0.539,+2.281,-11.1390,+02.4780,+00.7750,+00.593863,-00.290378,-01.329519
+124.545,+011.773,+004.796,-1.124,+0.512,+2.317,-10.3990,-01.0550,-04.3990,+00.067149,-00.933819,-01.337803
+122.633,+010.775,+004.095,-1.090,+0.445,+2.371,-09.8330,-02.9960,-06.2700,-00.427026,-01.021876,-01.723285
+120.117,+009.590,+003.204,-1.062,+0.435,+2.399,-09.8530,-03.8570,-05.5630,-00.251649,-01.280324,-02.310268
+117.975,+008.313,+005.045,-1.022,+0.454,+2.433,+11.7460,+04.4140,-16.4960,+02.105298,-01.308082,-00.897937
+118.669,+005.529,+006.825,-0.936,+0.474,+2.529,+00.0640,-00.6050,-01.1280,+01.953801,-02.798927,+01.409135
+119.087,+002.221,+008.133,-0.805,+0.597,+2.593,-10.6480,-07.3120,-18.8170,+00.838620,-02.483904,+00.466184
+118.920,-000.654,+009.059,-0.717,+0.639,+2.648,-03.3630,-01.5490,-13.2560,+00.909556,-02.604229,+00.299026
+118.699,-003.469,+010.071,-0.619,+0.660,+2.709,-03.3470,-03.0420,-11.4650,+00.915897,-02.389803,+00.133304
+118.234,-006.171,+011.300,-0.507,+0.724,+2.762,-02.8280,-04.8420,-10.7040,+01.066206,-02.400554,-00.006961
+117.593,-008.987,+012.494,-0.395,+0.760,+2.797,-02.7710,-03.8460,-11.0030,+00.924610,-02.660919,-00.004645
+116.943,-012.144,+013.559,-0.283,+0.802,+2.853,-05.4990,-02.6050,-14.6390,+00.604109,-02.749722,+00.155314
+116.597,-013.988,+013.206,-0.185,+0.845,+2.862,-03.7180,-03.4070,-10.9400,-00.786205,-01.097585,+00.055598
+116.501,-014.861,+012.267,-0.160,+0.810,+2.845,-02.5700,-00.4990,-11.1730,-00.796528,-00.648238,+00.124319
+116.526,-015.540,+011.553,-0.129,+0.780,+2.898,-02.7940,-02.3780,-09.4130,-00.661100,-00.554863,+00.127919
+116.647,-015.935,+010.888,-0.116,+0.760,+2.898,-03.0460,-01.9750,-09.7260,-00.505909,-00.237371,+00.160083
+116.801,-016.151,+010.370,-0.106,+0.728,+2.896,-02.7190,-01.6590,-09.1550,-00.381174,-00.114824,+00.161803
+116.980,-016.266,+009.943,-0.097,+0.740,+2.927,-02.8630,-01.5310,-08.9810,-00.320536,-00.065692,+00.158493
+117.150,-016.375,+009.530,-0.097,+0.730,+2.910,-02.8980,-01.4690,-08.9810,-00.323125,-00.065160,+00.162902
+117.384,-016.481,+008.988,-0.092,+0.698,+2.924,-02.5890,-01.9560,-08.7780,-00.482638,-00.063805,+00.249567
+117.749,-016.636,+008.195,-0.083,+0.661,+2.944,-02.7790,-01.4510,-09.0680,-00.627741,-00.100859,+00.353478
+118.139,-016.802,+007.497,-0.074,+0.641,+2.934,-03.0700,-00.7110,-09.1760,-00.417065,-00.083814,+00.320029
+118.430,-016.891,+007.022,-0.074,+0.619,+2.939,-02.9210,-00.7270,-09.0130,-00.295310,-00.030225,+00.203400
+118.561,-016.917,+006.724,-0.065,+0.596,+2.929,-02.8980,-00.9050,-08.9490,-00.190201,-00.004335,+00.068607
+118.618,-016.931,+006.503,-0.064,+0.606,+2.951,-02.7810,-01.1500,-08.9460,-00.183784,-00.008567,+00.054777
+118.746,-016.952,+006.197,-0.071,+0.589,+2.942,-02.7750,-01.1210,-08.9820,-00.265026,-00.007565,+00.146702
+118.967,-016.985,+005.795,-0.065,+0.577,+2.962,-02.8200,-00.9440,-08.9920,-00.305464,-00.010644,+00.203180
+119.226,-017.033,+005.356,-0.060,+0.576,+2.946,-02.7890,-00.7500,-09.0380,-00.311850,-00.022953,+00.221558
+119.438,-017.079,+004.965,-0.055,+0.551,+2.941,-02.8660,-00.5680,-09.0260,-00.269284,-00.022332,+00.148226
+119.572,-017.118,+004.648,-0.060,+0.537,+2.973,-02.7110,-00.6990,-09.0030,-00.238172,-00.028777,+00.109057
+119.700,-017.169,+004.345,-0.060,+0.546,+2.913,-02.8960,-00.6720,-08.9790,-00.230871,-00.041334,+00.107074
+119.812,-017.232,+004.065,-0.055,+0.534,+2.951,-02.8450,-00.6570,-09.0080,-00.210367,-00.056186,+00.097763
+119.944,-017.316,+003.789,-0.051,+0.532,+2.973,-02.8690,-00.4870,-08.9850,-00.202106,-00.068791,+00.118665
+120.064,-017.401,+003.540,-0.041,+0.522,+2.958,-02.9120,-00.4030,-08.9940,-00.174336,-00.065435,+00.094993
+120.131,-017.463,+003.349,-0.034,+0.507,+2.953,-02.9770,-00.2830,-08.9370,-00.133072,-00.040432,+00.030874
+120.129,-017.505,+003.226,-0.027,+0.507,+2.980,-02.8450,-00.3410,-08.9190,-00.098176,-00.036932,-00.007577
+120.131,-017.566,+003.106,-0.046,+0.507,+2.957,-02.7250,-00.5090,-09.0510,-00.105025,-00.059151,+00.013455
+120.140,-017.635,+002.967,-0.039,+0.489,+2.952,-02.7570,-00.3210,-09.0490,-00.122765,-00.055943,+00.003185
+120.127,-017.684,+002.830,-0.037,+0.492,+2.969,-02.9890,-00.1110,-08.9540,-00.132347,-00.030061,-00.017889
+120.071,-017.692,+002.730,-0.046,+0.487,+2.952,-02.9590,-00.3420,-08.9530,-00.085257,-00.005600,-00.051427
+120.041,-017.702,+002.628,-0.020,+0.469,+2.956,-02.8430,-00.5340,-08.8870,-00.100517,-00.020031,+00.001423
+120.103,-017.762,+002.462,-0.027,+0.457,+2.969,-03.0180,-00.3760,-08.7960,-00.134397,-00.065879,+00.071442
+120.198,-017.858,+002.278,-0.018,+0.487,+2.970,-02.9720,-00.0840,-08.8890,-00.131821,-00.089168,+00.079426
+120.257,-017.976,+002.113,-0.020,+0.459,+2.962,-02.7300,-00.2250,-08.9590,-00.118788,-00.110592,+00.043358
+120.322,-018.152,+001.931,-0.023,+0.447,+2.986,-02.6970,-00.1800,-08.7960,-00.143380,-00.187573,+00.073079
+120.440,-018.469,+001.699,+0.001,+0.492,+2.970,-02.8830,-00.0200,-08.9920,-00.194003,-00.323812,+00.118854
+120.448,-018.950,+001.516,+0.015,+0.449,+2.969,-03.2250,-00.2010,-08.8050,-00.153625,-00.503061,-00.050318
+120.196,-019.806,+001.357,+0.047,+0.412,+2.995,-02.8050,-00.4550,-09.2420,-00.237782,-00.954439,-00.253432
+119.832,-021.445,+001.232,+0.112,+0.456,+2.954,-02.8150,-00.9620,-09.3250,-00.184855,-01.754746,-00.214166
+119.699,-023.861,+001.176,+0.208,+0.413,+2.985,-02.9490,-01.2310,-10.0540,-00.047917,-02.357249,+00.035404
+119.969,-027.136,+000.878,+0.317,+0.394,+2.985,-04.6370,-02.6530,-09.8940,-00.326510,-03.200239,+00.379584
+121.133,-031.475,-000.793,+0.517,+0.362,+2.956,-04.4310,-03.6320,-09.9630,-01.517051,-04.163225,+01.207983
+123.734,-036.942,-005.916,+0.717,+0.253,+2.903,-05.5530,-06.1140,-10.0530,-04.497804,-05.330937,+01.839958
+128.635,-042.794,-016.081,+0.931,-0.035,+2.820,-08.0480,-03.5970,-15.0680,-06.547163,-05.765695,+02.574966
+135.738,-046.797,-027.961,+1.107,-0.306,+2.646,-13.3280,-07.4180,-16.7150,-06.163425,-04.222592,+02.548563
+140.251,-048.929,-038.768,+1.181,-0.563,+2.494,-03.0790,-20.1400,-24.1570,-06.413291,-01.984700,-00.112087
+135.757,-050.383,-039.098,+1.171,-0.630,+2.450,-04.0710,-21.1280,-13.8010,-03.412091,+01.576592,-04.099194
+127.388,-052.202,-036.380,+1.153,-0.595,+2.373,-02.0770,-05.1690,-05.8090,-03.358475,+01.348974,-04.645597
+119.083,-053.611,-033.085,+1.157,-0.623,+2.322,-02.0960,+00.7350,-10.5890,-02.569156,+01.685838,-03.977829
+111.431,-053.399,-029.047,+1.125,-0.650,+2.313,-01.2930,+00.9190,-10.6680,-01.470947,+02.515330,-02.885665
+104.858,-051.676,-025.180,+1.050,-0.619,+2.315,-01.2180,-03.6630,-09.5290,-01.070538,+03.150502,-02.236778
+098.686,-049.053,-021.470,+0.971,-0.693,+2.342,-01.8550,-06.9610,-08.0760,-00.796373,+03.611478,-02.330273
+092.282,-045.953,-017.334,+0.882,-0.732,+2.368,-03.7790,-08.4450,-08.6440,-00.344840,+03.929183,-02.894538
+085.562,-042.424,-012.836,+0.864,-0.751,+2.389,-05.6940,-07.5360,-08.6780,-00.055892,+04.125682,-03.452275
+078.997,-038.498,-008.496,+0.899,-0.820,+2.510,-07.1190,-05.8990,-08.4570,+00.140781,+04.168185,-03.718924
+073.108,-034.280,-004.611,+0.897,-0.824,+2.721,-08.4090,-04.4310,-09.2130,+00.480676,+04.086227,-03.635437
+068.066,-029.927,-001.215,+0.753,-0.688,+2.979,-09.7320,-05.6170,-11.4340,+00.625110,+03.930655,-03.477952
+063.656,-025.534,+001.305,+0.558,-0.546,+3.086,-10.6840,-06.0750,-10.9110,+00.272949,+03.742030,-03.374566
+059.703,-021.297,+003.188,+0.353,-0.440,+3.085,-11.4190,-04.9440,-11.9610,+00.364028,+03.480879,-03.264065
+056.158,-017.125,+004.993,+0.148,-0.305,+2.918,-11.4330,-04.5780,-11.9970,+00.638645,+03.370612,-03.108460
+053.066,-013.129,+006.688,+0.015,-0.319,+2.785,-11.3550,-03.8430,-12.2510,+00.831838,+03.124556,-02.835569
+050.491,-009.301,+008.170,-0.052,-0.348,+2.698,-10.6950,-02.6520,-11.7090,+00.871975,+02.968940,-02.477645
+048.462,-005.662,+009.583,-0.094,-0.398,+2.642,-10.3550,-00.3210,-11.0940,+01.124243,+02.808084,-02.055479
+047.012,-002.265,+011.258,-0.157,-0.400,+2.650,-10.1800,+00.2240,-09.9480,+01.493397,+02.598310,-01.620572
+045.965,+000.771,+013.084,-0.248,-0.347,+2.673,-09.6550,+00.2300,-09.2430,+01.589054,+02.268090,-01.377975
+045.064,+003.554,+014.659,-0.364,-0.306,+2.608,-09.8480,+00.3870,-10.1700,+01.220140,+02.151156,-01.331413
+044.279,+006.241,+015.504,-0.409,-0.284,+2.533,-11.0040,+01.2450,-05.8090,+00.515313,+01.986343,-01.200707
+043.630,+008.319,+015.703,-0.439,-0.316,+2.507,-12.2390,+02.1030,-01.7440,+00.203952,+01.336847,-00.928792
+043.020,+009.514,+016.006,-0.444,-0.321,+2.459,-13.0310,+01.7980,-00.2680,+00.421773,+00.562279,-00.725001
+042.272,+009.825,+016.252,-0.406,-0.319,+2.460,-12.7560,+00.8310,-00.4380,+00.215170,-00.209475,-00.698248
+041.218,+009.331,+016.104,-0.369,-0.336,+2.462,-11.9930,+00.4720,-02.5260,-00.060996,-00.915068,-00.796802
+039.918,+008.293,+015.719,-0.304,-0.387,+2.449,-11.0640,+00.5930,-05.9670,-00.243252,-01.287040,-00.815177
+039.023,+006.279,+014.975,-0.220,-0.415,+2.428,+02.3180,-01.0340,-09.5520,-00.682313,-02.467294,+00.139060
+039.650,+003.586,+013.619,-0.155,-0.468,+2.429,+08.6670,-04.7820,-09.7070,-01.450379,-02.549882,+01.429576
+039.967,-000.181,+012.337,-0.034,-0.534,+2.375,-07.9950,-04.6880,-09.6770,-00.967005,-03.190964,+00.518780
+039.430,-003.403,+010.587,+0.080,-0.622,+2.332,-06.1170,+07.1830,-14.0190,-01.575482,-02.676836,+00.258767
+039.268,-006.666,+009.185,+0.184,-0.690,+2.310,-01.8980,-05.1940,-07.8770,-00.969047,-02.999037,+00.179911
+038.354,-010.240,+008.417,+0.324,-0.722,+2.235,-02.9820,+00.6380,-08.5660,-00.675333,-03.315069,-00.393352
+037.584,-013.583,+006.802,+0.444,-0.770,+2.165,-32.8780,-02.0280,-65.8130,-01.578351,-00.980579,-00.200711
+037.448,-014.786,+006.588,+0.477,-0.818,+2.183,-05.7060,+00.2710,-11.8040,+00.057061,-00.391441,+00.045870
+037.478,-015.054,+006.374,+0.486,-0.808,+2.151,-03.3800,-00.9040,-09.6240,-00.177892,-00.141974,+00.015065
+037.453,-015.181,+006.196,+0.503,-0.813,+2.154,-02.9250,-01.0240,-09.2740,-00.167563,-00.095557,-00.006773
+037.493,-015.228,+006.008,+0.482,-0.848,+2.162,-02.7050,-00.9870,-09.1640,-00.168023,-00.021279,+00.062141
+037.554,-015.249,+005.763,+0.496,-0.843,+2.146,-02.8800,-00.5810,-09.1580,-00.206567,+00.004569,+00.040468
+037.596,-015.256,+005.486,+0.498,-0.826,+2.124,-02.3440,-00.7960,-09.1940,-00.244205,-00.011315,+00.053426
+037.724,-015.293,+005.126,+0.500,-0.858,+2.152,-02.4320,-01.0650,-09.1260,-00.308303,-00.035822,+00.152706
+037.978,-015.397,+004.687,+0.481,-0.863,+2.091,-02.7490,-01.0280,-09.0470,-00.334390,-00.095980,+00.256216
+038.310,-015.523,+004.221,+0.495,-0.868,+2.095,-02.8940,-00.2140,-08.9380,-00.311749,-00.070035,+00.278661
+038.576,-015.617,+003.853,+0.491,-0.878,+2.124,-02.6640,+00.0790,-08.9220,-00.227076,-00.067989,+00.191301
+038.725,-015.706,+003.625,+0.491,-0.878,+2.086,-02.5080,-00.2400,-08.8950,-00.127025,-00.073906,+00.099318
+038.853,-015.803,+003.473,+0.484,-0.890,+2.075,-02.6730,-00.3350,-08.9010,-00.072723,-00.069574,+00.124218
+039.015,-015.882,+003.357,+0.491,-0.903,+2.114,-02.8050,-00.3660,-09.0600,-00.082966,-00.051342,+00.144895
+039.164,-015.949,+003.210,+0.481,-0.918,+2.086,-02.8710,-00.3940,-08.9600,-00.091806,-00.064988,+00.112937
+039.267,-016.026,+003.114,+0.488,-0.910,+2.089,-02.7920,-00.2680,-08.9710,-00.036775,-00.050300,+00.078995
+039.345,-016.064,+003.099,+0.486,-0.932,+2.114,-02.7540,-00.3510,-09.0080,+00.021071,-00.023735,+00.059362
+039.369,-016.089,+003.098,+0.486,-0.903,+2.092,-02.9440,-00.4180,-09.0060,-00.001792,-00.013495,-00.006968
+039.349,-016.094,+003.110,+0.486,-0.913,+2.067,-02.9020,-00.5330,-08.9850,+00.001636,-00.007695,-00.014929
+039.359,-016.119,+003.077,+0.491,-0.932,+2.119,-02.8930,-00.5320,-09.0560,-00.041659,-00.028010,+00.029863
+039.425,-016.160,+002.993,+0.486,-0.903,+2.076,-02.8670,-00.5430,-09.0340,-00.065869,-00.037366,+00.075283
+039.547,-016.218,+002.877,+0.493,-0.933,+2.076,-02.8450,-00.4910,-08.9740,-00.072061,-00.049084,+00.120062
+039.720,-016.298,+002.740,+0.486,-0.923,+2.097,-02.7550,-00.3900,-08.9620,-00.079009,-00.070863,+00.167350
+039.921,-016.392,+002.596,+0.486,-0.923,+2.076,-02.8280,-00.3310,-08.9700,-00.072028,-00.074316,+00.167802
+040.100,-016.505,+002.467,+0.491,-0.918,+2.057,-02.7030,-00.3940,-08.9880,-00.065308,-00.107986,+00.152315
+040.290,-016.675,+002.343,+0.491,-0.948,+2.087,-02.8780,-00.2770,-08.9270,-00.060547,-00.162006,+00.173499
+040.482,-016.909,+002.219,+0.500,-0.903,+2.076,-02.8960,-00.2190,-09.0090,-00.058429,-00.219024,+00.159668
+040.596,-017.205,+002.126,+0.488,-0.928,+2.057,-02.8390,-00.3920,-08.9910,-00.050409,-00.286944,+00.071597
+040.602,-017.627,+002.087,+0.495,-0.938,+2.065,-02.9650,-00.2250,-08.9530,-00.022542,-00.414252,-00.017817
+040.466,-018.235,+002.149,+0.514,-0.918,+2.044,-02.9830,-00.3010,-08.9960,+00.033806,-00.619576,-00.141372
+040.137,-019.122,+002.305,+0.544,-0.941,+2.049,-03.0800,-00.2500,-09.1210,+00.049368,-00.890693,-00.296236
+039.691,-020.369,+002.547,+0.579,-0.934,+2.058,-03.4250,-00.4330,-08.9750,+00.112417,-01.245706,-00.343080
+039.093,-022.017,+003.015,+0.635,-0.900,+2.039,-01.8680,+00.0970,-08.8510,+00.304484,-01.624347,-00.516699
+038.264,-024.064,+003.791,+0.707,-0.898,+2.007,-03.1340,-00.4280,-09.2820,+00.496248,-01.954956,-00.592743
+037.125,-026.625,+004.948,+0.770,-0.886,+2.028,-02.8540,-00.4790,-09.3440,+00.635260,-02.487456,-00.748181
+035.753,-029.965,+006.371,+0.882,-0.823,+2.000,-02.8060,-00.5070,-09.5720,+00.674180,-03.313469,-00.722554
+034.554,-034.418,+007.819,+1.014,-0.824,+1.963,-03.9810,-01.2660,-08.7510,+00.679071,-04.369312,-00.215347
+033.881,-040.258,+008.923,+1.133,-0.796,+1.881,-04.1120,-01.4770,-11.3680,+00.614157,-05.559049,+00.626230
+033.742,-047.740,+010.005,+1.296,-0.778,+1.780,-07.0530,-01.6790,-09.6080,+00.635235,-07.008343,+01.122024
+033.782,-056.520,+010.658,+1.454,-0.781,+1.632,-06.5520,-01.0100,-07.4040,+00.610262,-07.779503,+01.642731
+034.113,-065.953,+011.374,+1.598,-0.807,+1.501,-09.7110,-01.4490,-15.5720,+01.301703,-08.072795,+01.907980
+036.358,-075.581,+011.024,+1.733,-0.855,+1.274,-13.4050,-03.6020,-16.5290,+01.588782,-08.288585,+02.465197
+047.571,-081.241,+002.567,+1.786,-0.875,+1.192,-15.4230,-02.8840,-58.7210,+02.369699,-00.701420,+02.363428
+055.851,-078.343,-003.187,+1.803,-0.875,+1.369,+01.9200,-08.0190,-14.3910,+01.574590,+03.101069,+01.075381
+057.816,-075.051,-005.063,+1.784,-0.884,+1.504,+02.7400,-06.1030,-04.2520,-00.602330,+02.544808,+00.316890
+056.599,-072.260,-005.031,+1.768,-0.893,+1.587,+01.3670,-03.6490,-09.3190,-00.989365,+02.564183,-00.327817
+053.411,-068.685,-002.726,+1.756,-0.858,+1.703,+00.1840,-02.1540,-13.0150,-00.465157,+03.585714,-00.894331
+050.245,-063.885,-000.505,+1.724,-0.762,+1.831,-00.5740,-00.6030,-09.8130,-00.700111,+04.495650,-01.007995
+047.914,-058.526,+000.770,+1.669,-0.684,+2.020,-01.9690,+00.8170,-07.0580,-00.577887,+04.728815,-00.962670
+046.254,-053.011,+001.780,+1.525,-0.629,+2.271,-03.5370,+00.2920,-08.6490,-00.193449,+04.848447,-00.908481
+044.980,-047.241,+002.521,+1.204,-0.531,+2.413,-05.2730,-00.3490,-11.8300,-00.243536,+05.133085,-00.893960
+044.090,-040.981,+002.932,+0.852,-0.527,+2.422,-07.5540,+00.4860,-12.7720,-00.080855,+05.593684,-00.746443
+043.651,-034.341,+003.399,+0.608,-0.590,+2.344,-09.5130,-00.7170,-11.1680,+00.285770,+05.801828,-00.557977
+043.423,-028.016,+003.803,+0.477,-0.639,+2.257,-10.3290,-02.7950,-08.8080,+00.196391,+05.230612,-00.528590
+042.954,-022.563,+004.145,+0.433,-0.792,+2.224,-11.6340,-04.6500,-12.6660,+00.139258,+04.470470,-00.824030
+042.054,-017.240,+004.652,+0.542,-0.907,+2.262,-14.5050,-05.9480,-16.9200,+00.156008,+04.720163,-01.271182
+040.707,-011.738,+005.023,+0.603,-0.951,+2.531,-15.3970,-05.3660,-11.4800,-00.053302,+04.563612,-01.682122
+039.078,-006.694,+005.136,+0.487,-0.939,+2.810,-15.6710,-03.7530,-10.2360,-00.135326,+04.089479,-01.807305
+037.522,-002.188,+005.223,+0.231,-0.955,+2.980,-15.4050,-01.8580,-08.3760,+00.069808,+03.605698,-01.610485
+036.175,+001.664,+005.588,-0.072,-0.918,+2.945,-15.0140,-01.4440,-07.1500,+00.451342,+03.011705,-01.440585
+034.713,+004.892,+006.052,-0.249,-0.914,+2.907,-14.6280,-02.9280,-06.5040,+00.413098,+02.482661,-01.674877
+032.807,+007.574,+006.215,-0.346,-0.901,+2.824,-14.4790,-01.2110,-03.2430,+00.282893,+01.935126,-02.002254
+030.704,+009.348,+006.304,-0.393,-0.940,+2.774,-13.6170,+01.1000,+00.2140,+00.444090,+00.941631,-01.900510
+028.784,+009.951,+006.808,-0.377,-0.921,+2.739,-12.6750,+01.8350,-01.5360,+00.874256,+00.016992,-01.572695
+027.057,+009.711,+007.326,-0.356,-0.931,+2.765,-11.9700,-00.7130,-03.4740,+00.528289,-00.612145,-01.415806
+025.397,+008.397,+007.880,-0.286,-0.897,+2.762,-10.9740,+06.0900,+10.5050,+01.669390,-02.505060,-00.892926
+024.278,+005.767,+009.294,-0.202,-0.858,+2.801,+05.8340,+00.7710,-21.6010,+00.908290,-02.227719,-00.377543
+024.488,+003.168,+010.050,-0.146,-0.838,+2.816,-00.7040,+01.5910,-03.9890,+00.425801,-02.525396,+01.061301
+024.653,+000.351,+010.625,-0.062,-0.794,+2.831,-07.2370,-04.8330,-15.1460,+00.157565,-02.081635,+00.170036
+024.623,-001.833,+010.788,-0.011,-0.810,+2.814,-03.7200,+00.2740,-14.1950,+00.257745,-01.757602,+00.442371
+024.696,-003.867,+011.256,+0.031,-0.790,+2.835,-02.3170,-05.4940,-10.7340,+00.390922,-01.768283,+00.296008
+024.429,-005.840,+011.592,+0.101,-0.786,+2.816,-01.9180,-02.8940,-09.2020,+00.234329,-01.752703,+00.063512
+024.138,-008.060,+011.809,+0.159,-0.784,+2.810,-02.3380,-02.3900,-08.8120,+00.143899,-02.068508,+00.202442
+023.638,-010.637,+011.654,+0.236,-0.778,+2.816,-05.5580,-04.4860,-14.1780,-00.591365,-02.275469,-00.060973
+023.246,-012.607,+010.449,+0.305,-0.843,+2.782,-01.9740,-02.7940,-09.8170,-01.455502,-01.498279,+00.101466
+023.385,-013.940,+009.222,+0.343,-0.903,+2.738,-03.6040,+00.3460,-11.5060,-00.599951,-00.939611,+00.405263
+023.637,-014.608,+008.527,+0.356,-0.948,+2.753,-03.4960,-00.7230,-10.3050,-00.483855,-00.293387,+00.264480
+023.905,-014.806,+007.988,+0.352,-0.928,+2.720,-02.7320,-01.4740,-09.4080,-00.378047,-00.100911,+00.239348
+024.153,-014.904,+007.466,+0.347,-0.933,+2.706,-02.7850,-01.4100,-09.1470,-00.397258,-00.039602,+00.199068
+024.362,-014.950,+006.981,+0.342,-0.988,+2.687,-02.9680,-00.7650,-09.1630,-00.338722,-00.004749,+00.176092
+024.548,-014.989,+006.570,+0.338,-0.943,+2.687,-02.7380,-00.9910,-09.0970,-00.295708,-00.027742,+00.153466
+024.726,-015.061,+006.195,+0.349,-1.008,+2.682,-02.7940,-01.0630,-09.0510,-00.281939,-00.052610,+00.158383
+024.920,-015.142,+005.842,+0.338,-1.017,+2.693,-02.7610,-00.9490,-09.0750,-00.251921,-00.052366,+00.177727
+025.136,-015.214,+005.509,+0.324,-1.012,+2.665,-02.8100,-00.9520,-09.0990,-00.232227,-00.039589,+00.189135
+025.348,-015.263,+005.198,+0.338,-1.030,+2.658,-02.7680,-00.7590,-09.0500,-00.219977,-00.014593,+00.168417
+025.518,-015.283,+004.918,+0.333,-1.047,+2.666,-02.7800,-00.7540,-09.0320,-00.195009,-00.005567,+00.129628
+025.660,-015.308,+004.662,+0.328,-0.993,+2.660,-02.8540,-00.8170,-09.0220,-00.197509,-00.013370,+00.110807
+025.796,-015.333,+004.392,+0.326,-1.065,+2.644,-02.6240,-00.7680,-09.0450,-00.207166,-00.013306,+00.127897
+025.957,-015.364,+004.099,+0.319,-1.062,+2.665,-02.8120,-00.6340,-09.0040,-00.222838,-00.020179,+00.136051
+026.093,-015.400,+003.795,+0.324,-1.067,+2.644,-02.7500,-00.5240,-09.0300,-00.239723,-00.025789,+00.107063
+026.219,-015.445,+003.487,+0.312,-1.082,+2.616,-02.7140,-00.5620,-09.0460,-00.241154,-00.035639,+00.115611
+026.377,-015.503,+003.167,+0.314,-1.092,+2.638,-02.6980,-00.4730,-09.0500,-00.245451,-00.049159,+00.145924
+026.537,-015.575,+002.842,+0.314,-1.077,+2.622,-02.7940,-00.3130,-09.0470,-00.245564,-00.057700,+00.120741
+026.633,-015.639,+002.521,+0.312,-1.104,+2.608,-02.8320,-00.4020,-09.0100,-00.268214,-00.047797,+00.072513
+026.704,-015.692,+002.240,+0.305,-1.122,+2.616,-02.8380,-00.3360,-09.0260,-00.197833,-00.044200,+00.061315
+026.776,-015.741,+002.046,+0.305,-1.137,+2.595,-02.8760,-00.2210,-09.0790,-00.122375,-00.033210,+00.054142
+026.807,-015.767,+001.943,+0.314,-1.097,+2.597,-02.7060,-00.2100,-09.0700,-00.073291,-00.016602,+00.009742
+026.849,-015.807,+001.825,+0.314,-1.142,+2.606,-02.4980,-00.2230,-08.9750,-00.104311,-00.052172,+00.066904
+026.943,-015.897,+001.671,+0.305,-1.097,+2.589,-02.6560,-00.1570,-08.9720,-00.118605,-00.083958,+00.087191
+027.033,-016.001,+001.507,+0.302,-1.129,+2.589,-02.8100,+00.0080,-08.9780,-00.128008,-00.090751,+00.062419
+027.078,-016.109,+001.361,+0.323,-1.142,+2.606,-02.8050,-00.0700,-08.9760,-00.118032,-00.098387,+00.037616
+027.118,-016.245,+001.208,+0.314,-1.157,+2.563,-02.8150,-00.0680,-08.9810,-00.130137,-00.131172,+00.042820
+027.234,-016.451,+001.003,+0.321,-1.157,+2.571,-02.7680,-00.0240,-08.9180,-00.159144,-00.221360,+00.144406
+027.472,-016.786,+000.730,+0.323,-1.177,+2.585,-02.6880,+00.0370,-08.9610,-00.187738,-00.348520,+00.243947
+027.776,-017.306,+000.415,+0.328,-1.152,+2.547,-02.9360,-00.0940,-08.9180,-00.203425,-00.540596,+00.297620
+028.167,-018.125,+000.029,+0.351,-1.180,+2.529,-02.9220,+00.0110,-08.8430,-00.253976,-00.842765,+00.334597
+028.561,-019.426,-000.395,+0.379,-1.212,+2.555,-02.7170,-00.0400,-08.8820,-00.268516,-01.313842,+00.298561
+028.938,-021.335,-000.831,+0.440,-1.188,+2.541,-02.6170,-00.1520,-09.4980,-00.222232,-01.890361,+00.258812
+029.360,-023.879,-001.106,+0.507,-1.221,+2.496,-02.9110,-01.1880,-09.7510,-00.064723,-02.448593,+00.378974
+030.170,-027.183,-001.826,+0.593,-1.210,+2.499,-03.2920,-02.0070,-10.2070,-00.562148,-03.230979,+00.716576
+031.751,-031.477,-004.195,+0.709,-1.281,+2.380,-03.8470,-01.6790,-08.9700,-02.027432,-04.185645,+01.142728
+034.575,-036.959,-009.411,+0.825,-1.384,+2.226,-06.8010,-05.0290,-11.1570,-04.200111,-05.444573,+01.650011
+039.618,-042.683,-018.744,+0.918,-1.558,+1.985,-08.3330,-02.5530,-15.1920,-05.622592,-05.725389,+02.369797
+046.135,-046.717,-029.323,+0.959,-1.734,+1.647,-12.8190,-04.7280,-16.9200,-05.570100,-04.169420,+01.858304
+049.733,-049.081,-038.733,+0.993,-1.810,+1.373,-01.4460,-19.5170,-28.0690,-05.592830,-01.750005,-00.556231
+045.234,-050.667,-038.869,+1.112,-1.812,+1.243,-01.7460,-15.2270,-10.8450,-03.331016,+01.060017,-03.867626
+038.139,-052.592,-036.875,+1.289,-1.745,+1.088,-01.4420,-02.2560,-08.6570,-03.025974,+00.994000,-04.032347
+030.998,-053.643,-034.113,+1.438,-1.687,+0.993,-01.5770,+02.4960,-12.6950,-02.277331,+01.782130,-03.192698
+024.561,-052.895,-030.928,+1.536,-1.599,+0.984,-00.6950,+01.0430,-10.7610,-01.460959,+02.657528,-02.079333
+019.021,-050.729,-027.879,+1.605,-1.530,+0.975,-01.7090,-03.8880,-10.3880,-00.994600,+03.385518,-01.529736
+013.524,-047.719,-024.719,+1.687,-1.449,+1.005,-02.5210,-08.9460,-07.6890,-00.846529,+03.887978,-01.810063
+007.438,-044.619,-021.275,+1.797,-1.387,+1.086,-03.8010,-11.2370,-06.0670,-00.787438,+03.908541,-02.685141
+000.534,-041.663,-017.265,+1.932,-1.274,+1.183,-05.6580,-09.8810,-07.2630,-00.476487,+03.882195,-03.623433
-006.679,-038.503,-012.860,+2.088,-1.148,+1.384,-07.1440,-07.1960,-08.0650,-00.077076,+03.924749,-04.034274
-013.321,-034.969,-008.728,+2.212,-1.021,+1.659,-08.4760,-05.3360,-09.6630,+00.235433,+03.885648,-03.902445
-018.932,-031.091,-005.359,+2.292,-0.807,+2.018,-09.4910,-04.9620,-10.3390,+00.246847,+03.829451,-03.495871
-023.473,-027.104,-002.887,+2.172,-0.598,+2.372,-10.3720,-03.8860,-10.7800,+00.281946,+03.640167,-03.022797
-027.108,-023.069,-000.662,+1.889,-0.388,+2.588,-11.9430,-04.8350,-13.5300,+00.786656,+03.623798,-02.638071
-030.251,-018.926,+001.511,+1.600,-0.271,+2.607,-12.2620,-06.3700,-12.8920,+00.921587,+03.543279,-02.581582
-033.177,-014.858,+003.356,+1.463,-0.212,+2.603,-12.7020,-06.0670,-12.7190,+00.843742,+03.397809,-02.600186
-035.874,-010.863,+004.995,+1.349,-0.100,+2.616,-12.0560,-03.2600,-11.4470,+00.999443,+03.240788,-02.475051
-038.055,-007.035,+006.810,+1.279,-0.044,+2.635,-11.8140,+00.2180,-10.5420,+01.454633,+03.054888,-02.007210
-039.465,-003.539,+008.779,+1.221,+0.049,+2.664,-11.1210,+00.4840,-09.3150,+01.654037,+02.716833,-01.413348
-040.383,-000.574,+010.661,+1.163,+0.136,+2.769,-09.9390,-00.4200,-07.9910,+01.577789,+02.226227,-01.166880
-041.274,+001.836,+012.424,+1.103,+0.271,+2.793,-09.3750,+00.0330,-08.7460,+01.581278,+01.757305,-01.205844
-042.162,+004.053,+014.230,+1.024,+0.396,+2.821,-09.9270,+01.4560,-07.9790,+01.595578,+01.690454,-01.136764
-042.759,+005.962,+015.782,+0.950,+0.506,+2.855,-09.2290,+01.9930,-04.0460,+01.322077,+01.279671,-00.813181
-043.246,+007.267,+017.145,+0.871,+0.587,+2.845,-09.5940,+01.5490,-05.3010,+01.128394,+00.848653,-00.708182
-043.720,+008.285,+017.955,+0.836,+0.629,+2.841,-09.2410,+02.1250,-04.7330,+00.545010,+00.640597,-00.626854
-044.242,+008.923,+018.304,+0.806,+0.632,+2.858,-08.7980,+02.3510,-03.2940,+00.367212,+00.201626,-00.596188
-044.956,+009.070,+018.756,+0.783,+0.716,+2.835,-09.4060,+01.3760,-05.5080,+00.597309,-00.186336,-00.642311
-045.800,+008.962,+019.044,+0.792,+0.711,+2.827,-08.8100,-00.2170,-04.0090,+00.094086,-00.454312,-00.638000
-046.166,+006.773,+017.503,+0.862,+0.656,+2.839,-02.6180,+03.0620,-07.4220,-02.100343,-02.380883,+00.747772
-045.563,+003.840,+014.964,+0.964,+0.566,+2.795,+10.5170,-09.1450,-11.6550,-03.001867,-02.604141,+01.195404
-045.669,-000.149,+012.302,+1.099,+0.455,+2.753,-07.5790,+01.6660,-10.2660,-02.071799,-03.555795,+00.302901
-045.928,-003.662,+009.587,+1.210,+0.359,+2.737,-05.0050,+11.0000,-12.7120,-02.466647,-02.815960,+00.619254
-046.025,-007.101,+007.656,+1.331,+0.278,+2.656,-02.3890,-11.5230,-07.5640,-01.388213,-03.179045,-00.173925
-047.130,-010.375,+006.300,+1.436,+0.262,+2.585,-04.2500,+04.9400,-12.9220,-01.242218,-02.762829,-00.570977
-047.766,-013.450,+005.229,+1.540,+0.201,+2.525,-04.2870,+02.3520,-30.2610,-01.204043,-02.633618,-00.199161
-047.984,-014.573,+004.215,+1.573,+0.201,+2.489,-09.0940,+00.9710,-26.6610,-00.542818,-00.699238,+00.056654
-047.931,-014.812,+003.736,+1.580,+0.198,+2.470,-03.0500,-02.1320,-08.0510,-00.406121,-00.059938,+00.085232
-047.678,-014.920,+003.183,+1.587,+0.141,+2.490,-02.8150,-00.9990,-09.7160,-00.454379,-00.088221,+00.289336
-047.223,-015.076,+002.597,+1.582,+0.176,+2.478,-02.6860,+00.1310,-09.0910,-00.357804,-00.130613,+00.393422
-046.909,-015.223,+002.206,+1.591,+0.126,+2.441,-02.6980,-00.2650,-09.0460,-00.233435,-00.110965,+00.201737
-046.753,-015.310,+001.981,+1.596,+0.116,+2.479,-02.9940,-00.4890,-09.1190,-00.126566,-00.042540,+00.100980
-046.645,-015.357,+001.825,+1.596,+0.101,+2.458,-02.8760,-00.5590,-09.2290,-00.107758,-00.031891,+00.086075
-046.539,-015.381,+001.661,+1.603,+0.093,+2.472,-02.6160,-00.6490,-09.1240,-00.121485,-00.011442,+00.105193
-046.392,-015.382,+001.476,+1.596,+0.081,+2.442,-02.7400,-00.4240,-09.0800,-00.112973,+00.028653,+00.137388
