Yaw,Pitch,Roll,MagX,MagY,MagZ,AccelX,AccelY,AccelZ,GyroX,GyroY,GyroZ
-166.468,-029.419,+009.999,+0.196,+0.508,+2.661,-04.6510,-01.4470,-08.0940,+00.006283,-00.018536,-00.003941
-166.476,-029.437,+010.010,+0.191,+0.493,+2.656,-04.6340,-01.4580,-08.1030,+00.006112,-00.013843,-00.000884
-166.482,-029.457,+010.020,+0.196,+0.478,+2.629,-04.6500,-01.4320,-08.1550,+00.006547,-00.017016,-00.000738
-166.487,-029.474,+010.029,+0.182,+0.478,+2.644,-04.6700,-01.4680,-08.1560,+00.005916,-00.013107,+00.001868
-166.489,-029.486,+010.037,+0.200,+0.493,+2.656,-04.7080,-01.4130,-08.0980,+00.006583,-00.006639,+00.001012
-166.491,-029.492,+010.043,+0.196,+0.513,+2.661,-04.6660,-01.4260,-08.1330,+00.006091,-00.004231,+00.000022
-166.492,-029.496,+010.049,+0.205,+0.493,+2.667,-04.6700,-01.4530,-08.1250,+00.004789,-00.002951,+00.000991
-166.494,-029.502,+010.056,+0.196,+0.483,+2.645,-04.6860,-01.4200,-08.1130,+00.006717,-00.004825,+00.000148
-166.499,-029.509,+010.067,+0.200,+0.483,+2.651,-04.6800,-01.4080,-08.1620,+00.010482,-00.005907,-00.002138
-166.507,-029.522,+010.081,+0.196,+0.468,+2.656,-04.6720,-01.4350,-08.1240,+00.010621,-00.017967,-00.002201
-166.514,-029.540,+010.093,+0.205,+0.488,+2.645,-04.6480,-01.4640,-08.1020,+00.006314,-00.017856,-00.000761
-166.520,-029.564,+010.102,+0.205,+0.473,+2.635,-04.6830,-01.4420,-08.1180,+00.007010,-00.019610,+00.000012
-166.527,-029.586,+010.115,+0.186,+0.459,+2.672,-04.6960,-01.3980,-08.1290,+00.011540,-00.021725,-00.001907
-166.539,-029.611,+010.136,+0.210,+0.513,+2.645,-04.7270,-01.4400,-08.1460,+00.014564,-00.022493,-00.005663
-166.555,-029.635,+010.162,+0.186,+0.503,+2.644,-04.7270,-01.4500,-08.1310,+00.017393,-00.019535,-00.009826
-166.573,-029.649,+010.192,+0.200,+0.478,+2.656,-04.7000,-01.4320,-08.1240,+00.021625,-00.014675,-00.011494
-166.596,-029.666,+010.228,+0.200,+0.503,+2.640,-04.7330,-01.4140,-08.1260,+00.024999,-00.014456,-00.016748
-166.627,-029.685,+010.270,+0.200,+0.488,+2.634,-04.6970,-01.4400,-08.0570,+00.024075,-00.026138,-00.020166
-166.662,-029.720,+010.311,+0.200,+0.483,+2.661,-04.7400,-01.5000,-08.1320,+00.023150,-00.029726,-00.019841
-166.693,-029.746,+010.354,+0.210,+0.513,+2.651,-04.7070,-01.4580,-08.1290,+00.027526,-00.026772,-00.019068
-166.726,-029.770,+010.401,+0.205,+0.513,+2.645,-04.6800,-01.4630,-08.1030,+00.030155,-00.022948,-00.019377
-166.760,-029.797,+010.452,+0.205,+0.488,+2.635,-04.7140,-01.5010,-08.0950,+00.029477,-00.026462,-00.019645
-166.792,-029.827,+010.499,+0.205,+0.498,+2.645,-04.7790,-01.5100,-08.1260,+00.028859,-00.034338,-00.017402
-166.822,-029.842,+010.546,+0.214,+0.493,+2.635,-04.7220,-01.4990,-08.0530,+00.028081,-00.016823,-00.018405
-166.852,-029.854,+010.587,+0.200,+0.488,+2.656,-04.7470,-01.5310,-08.0650,+00.023270,-00.015398,-00.017209
-166.875,-029.864,+010.618,+0.214,+0.498,+2.635,-04.7310,-01.5370,-08.0560,+00.012907,-00.003815,-00.012847
-166.894,-029.863,+010.643,+0.210,+0.493,+2.629,-04.7550,-01.4990,-08.0980,+00.014527,+00.000270,-00.012987
-166.915,-029.851,+010.667,+0.210,+0.493,+2.656,-04.7390,-01.5010,-08.0710,+00.012862,+00.017855,-00.017535
-166.941,-029.827,+010.696,+0.214,+0.513,+2.613,-04.8090,-01.5230,-08.0930,+00.014195,+00.020792,-00.024168
-166.973,-029.794,+010.727,+0.210,+0.503,+2.645,-04.8250,-01.4860,-08.1250,+00.014520,+00.030404,-00.032463
-167.015,-029.755,+010.767,+0.200,+0.488,+2.661,-04.6580,-01.5560,-08.0700,+00.021012,+00.026200,-00.036436
-167.054,-029.728,+010.809,+0.210,+0.508,+2.651,-04.6800,-01.5620,-08.0750,+00.020485,+00.014805,-00.028591
-167.085,-029.706,+010.844,+0.200,+0.533,+2.634,-04.6690,-01.5950,-08.0920,+00.015303,+00.016320,-00.024452
-167.114,-029.685,+010.873,+0.205,+0.488,+2.656,-04.7300,-01.5790,-08.0910,+00.012247,+00.015223,-00.022575
-167.144,-029.660,+010.901,+0.200,+0.513,+2.623,-04.7370,-01.5490,-08.0820,+00.013514,+00.022260,-00.027286
-167.174,-029.626,+010.929,+0.200,+0.503,+2.618,-04.7310,-01.5660,-08.1200,+00.011822,+00.027245,-00.026950
-167.203,-029.585,+010.953,+0.200,+0.508,+2.661,-04.6550,-01.5580,-08.0920,+00.007933,+00.031979,-00.026963
-167.229,-029.545,+010.974,+0.200,+0.518,+2.650,-04.6590,-01.5710,-08.1070,+00.006542,+00.032435,-00.021548
-167.252,-029.506,+010.989,+0.196,+0.498,+2.629,-04.6450,-01.6190,-08.0770,+00.003795,+00.029422,-00.021007
-167.272,-029.468,+011.003,+0.200,+0.488,+2.651,-04.6910,-01.5970,-08.0920,+00.002855,+00.026030,-00.018711
-167.294,-029.441,+011.019,+0.191,+0.508,+2.650,-04.6720,-01.6300,-08.1550,+00.004962,+00.031547,-00.016554
-167.305,-029.409,+011.025,+0.200,+0.518,+2.667,-04.6220,-01.5580,-08.0930,+00.001086,+00.017759,-00.010897
-167.310,-029.381,+011.026,+0.200,+0.493,+2.651,-04.6320,-01.5810,-08.1270,-00.001407,+00.025641,-00.004162
-167.315,-029.353,+011.026,+0.191,+0.513,+2.650,-04.6490,-01.5670,-08.1180,+00.000979,+00.023953,-00.007608
-167.320,-029.323,+011.032,+0.196,+0.498,+2.645,-04.6380,-01.5960,-08.0650,+00.002290,+00.026890,-00.006818
-167.321,-029.294,+011.033,+0.182,+0.503,+2.677,-04.6330,-01.5900,-08.1020,-00.000349,+00.023170,-00.004827
-167.320,-029.270,+011.028,+0.186,+0.513,+2.650,-04.6290,-01.5710,-08.1090,-00.004783,+00.018176,-00.002110
-167.320,-029.251,+011.022,+0.186,+0.508,+2.644,-04.6100,-01.5760,-08.1010,-00.003286,+00.015024,+00.000261
-167.322,-029.242,+011.019,+0.191,+0.493,+2.634,-04.6400,-01.5650,-08.1150,-00.001180,+00.009216,-00.001922
-167.325,-029.235,+011.021,+0.196,+0.538,+2.639,-04.6390,-01.5700,-08.1140,+00.002405,+00.003402,-00.002175
-167.329,-029.224,+011.026,+0.200,+0.513,+2.629,-04.6460,-01.5980,-08.0960,+00.003908,+00.009252,-00.002520
-167.331,-029.213,+011.034,+0.177,+0.489,+2.677,-04.6280,-01.5480,-08.1440,+00.009075,+00.009747,-00.005023
-167.337,-029.200,+011.044,+0.196,+0.538,+2.650,-04.6050,-01.5600,-08.1330,+00.010148,+00.010558,-00.006396
-167.344,-029.189,+011.058,+0.191,+0.483,+2.634,-04.6180,-01.6060,-08.1200,+00.010466,+00.005864,-00.004933
-167.351,-029.182,+011.073,+0.186,+0.488,+2.666,-04.6560,-01.5770,-08.1240,+00.012435,+00.006028,-00.005551
-167.362,-029.175,+011.095,+0.186,+0.508,+2.639,-04.6230,-01.5890,-08.1230,+00.018311,+00.006239,-00.009187
-167.373,-029.167,+011.119,+0.186,+0.508,+2.655,-04.6270,-01.6140,-08.1560,+00.016783,+00.004848,-00.006424
-167.384,-029.162,+011.142,+0.187,+0.518,+2.677,-04.6480,-01.6050,-08.1630,+00.017282,+00.004046,-00.007773
-167.397,-029.160,+011.167,+0.186,+0.518,+2.633,-04.6360,-01.6040,-08.0960,+00.017065,+00.000361,-00.008782
-167.412,-029.161,+011.193,+0.177,+0.498,+2.617,-04.5990,-01.5960,-08.1310,+00.019129,-00.003824,-00.008202
-167.427,-029.165,+011.218,+0.186,+0.493,+2.644,-04.5970,-01.6110,-08.0940,+00.016482,-00.004906,-00.007906
-167.439,-029.164,+011.243,+0.196,+0.548,+2.650,-04.6160,-01.6070,-08.0910,+00.015547,-00.001891,-00.008138
-167.450,-029.163,+011.266,+0.196,+0.513,+2.639,-04.6240,-01.6470,-08.0740,+00.013960,-00.002202,-00.007299
-167.459,-029.164,+011.282,+0.196,+0.533,+2.672,-04.6070,-01.6280,-08.1140,+00.009226,+00.001634,-00.005300
-167.467,-029.157,+011.298,+0.182,+0.528,+2.649,-04.6010,-01.6650,-08.1160,+00.007562,+00.007273,-00.003770
-167.474,-029.151,+011.309,+0.186,+0.488,+2.645,-04.5980,-01.6440,-08.1230,+00.003888,+00.003934,-00.002085
-167.477,-029.152,+011.313,+0.177,+0.513,+2.666,-04.6080,-01.5990,-08.1040,+00.004653,-00.007423,-00.001532
-167.478,-029.143,+011.313,+0.191,+0.518,+2.639,-04.6170,-01.5870,-08.1060,+00.003781,-00.000244,-00.001389
-167.482,-029.142,+011.316,+0.186,+0.508,+2.639,-04.6140,-01.6840,-08.1240,-00.000635,+00.005207,+00.001065
-167.484,-029.140,+011.315,+0.182,+0.513,+2.666,-04.6290,-01.6240,-08.1350,-00.000502,+00.002454,+00.000714
-167.483,-029.136,+011.310,+0.182,+0.518,+2.650,-04.6430,-01.6280,-08.1190,-00.002969,+00.006028,+00.003284
-167.483,-029.132,+011.305,+0.173,+0.528,+2.633,-04.6320,-01.6430,-08.1480,-00.003945,+00.003008,+00.002965
-167.482,-029.132,+011.301,+0.186,+0.508,+2.666,-04.5860,-01.6340,-08.1020,-00.003598,-00.000788,+00.003171
-167.480,-029.130,+011.294,+0.191,+0.518,+2.661,-04.6170,-01.6250,-08.1250,-00.006142,+00.005306,+00.004308
-167.480,-029.128,+011.286,+0.172,+0.503,+2.644,-04.5910,-01.6360,-08.1160,-00.005791,+00.003850,+00.002727
-167.478,-029.125,+011.281,+0.177,+0.518,+2.687,-04.6210,-01.6070,-08.1320,+00.000062,+00.002074,+00.001762
-167.480,-029.126,+011.282,+0.182,+0.533,+2.639,-04.6390,-01.5990,-08.1480,+00.005279,-00.000573,-00.000437
-167.485,-029.127,+011.292,+0.186,+0.513,+2.639,-04.6310,-01.6200,-08.1380,+00.008823,-00.001336,-00.001219
-167.494,-029.126,+011.314,+0.186,+0.483,+2.655,-04.6450,-01.5950,-08.1370,+00.022267,+00.001719,-00.008948
-167.507,-029.124,+011.344,+0.191,+0.528,+2.628,-04.6310,-01.6510,-08.1290,+00.022572,-00.000592,-00.008077
-167.522,-029.128,+011.378,+0.186,+0.523,+2.639,-04.6550,-01.5860,-08.1710,+00.030607,-00.004348,-00.012716
-167.544,-029.122,+011.433,+0.182,+0.518,+2.671,-04.5910,-01.6620,-08.1170,+00.042838,+00.003356,-00.016095
-167.569,-029.119,+011.488,+0.191,+0.513,+2.645,-04.6410,-01.6400,-08.1760,+00.039984,-00.008992,-00.015455
-167.593,-029.103,+011.541,+0.182,+0.513,+2.639,-04.6170,-01.6490,-08.1080,+00.040653,+00.009902,-00.018044
-167.620,-029.097,+011.595,+0.182,+0.508,+2.639,-04.5830,-01.7110,-08.1370,+00.034050,+00.004493,-00.014764
-167.634,-029.088,+011.632,+0.173,+0.518,+2.633,-04.6070,-01.6730,-08.1350,+00.022119,+00.005480,-00.008702
-167.645,-029.077,+011.654,+0.173,+0.518,+2.633,-04.6110,-01.6750,-08.1300,+00.015349,+00.011809,-00.005645
-167.656,-029.062,+011.684,+0.186,+0.513,+2.655,-04.5890,-01.7050,-08.1060,+00.022130,+00.011577,-00.007843
-167.665,-029.050,+011.705,+0.186,+0.538,+2.639,-04.5870,-01.6830,-08.1390,+00.013108,+00.007964,-00.004390
-167.672,-029.042,+011.724,+0.182,+0.533,+2.644,-04.6160,-01.6710,-08.1190,+00.016142,+00.006975,-00.006321
-167.682,-029.034,+011.744,+0.177,+0.513,+2.660,-04.6130,-01.7000,-08.0890,+00.015688,+00.006796,-00.004480
-167.690,-029.025,+011.765,+0.177,+0.553,+2.649,-04.5610,-01.6780,-08.1050,+00.015690,+00.007068,-00.006427
-167.699,-029.021,+011.781,+0.177,+0.513,+2.639,-04.5810,-01.6700,-08.0900,+00.010113,-00.000164,-00.005322
-167.709,-029.022,+011.797,+0.177,+0.533,+2.671,-04.6010,-01.6650,-08.1520,+00.015234,-00.000490,-00.005297
-167.723,-029.021,+011.825,+0.186,+0.528,+2.644,-04.6380,-01.7050,-08.1060,+00.024195,+00.001586,-00.009631
-167.738,-029.015,+011.860,+0.187,+0.548,+2.655,-04.5990,-01.6700,-08.0860,+00.028066,+00.003103,-00.011275
-167.757,-029.008,+011.906,+0.182,+0.528,+2.660,-04.6230,-01.6570,-08.1450,+00.041233,+00.003164,-00.016791
-167.788,-028.997,+011.979,+0.187,+0.563,+2.633,-04.6050,-01.7140,-08.1590,+00.060611,+00.008177,-00.025090
-167.820,-028.984,+012.064,+0.177,+0.518,+2.628,-04.6170,-01.7240,-08.1030,+00.063261,+00.008136,-00.024990
-167.857,-028.967,+012.162,+0.186,+0.518,+2.661,-04.5860,-01.7720,-08.1870,+00.073836,+00.010676,-00.029765
-167.894,-028.947,+012.273,+0.177,+0.543,+2.638,-04.6470,-01.7320,-08.1500,+00.092846,+00.014926,-00.030648
-167.930,-028.919,+012.392,+0.182,+0.523,+2.633,-04.5680,-01.8340,-08.0370,+00.084675,+00.019949,-00.027719
-167.960,-028.891,+012.500,+0.173,+0.538,+2.671,-04.6190,-01.7760,-08.1230,+00.084779,+00.021809,-00.027429
-167.990,-028.861,+012.609,+0.177,+0.583,+2.633,-04.5510,-01.8410,-08.0710,+00.079408,+00.020781,-00.023813
-168.011,-028.836,+012.689,+0.177,+0.573,+2.633,-04.5010,-01.8680,-08.0640,+00.048614,+00.014810,-00.013521
-168.017,-028.823,+012.724,+0.177,+0.543,+2.644,-04.5520,-01.8980,-08.1020,+00.018152,+00.010221,-00.001475
-168.021,-028.809,+012.750,+0.177,+0.588,+2.649,-04.5730,-01.8520,-08.1520,+00.026284,+00.014843,-00.005469
-168.029,-028.790,+012.789,+0.177,+0.563,+2.633,-04.5370,-01.8680,-08.0760,+00.029158,+00.014731,-00.007528
-168.033,-028.776,+012.812,+0.173,+0.548,+2.638,-04.5480,-01.8540,-08.0530,+00.011401,+00.008848,-00.001031
-168.040,-028.766,+012.830,+0.177,+0.563,+2.649,-04.5650,-01.8120,-08.1240,+00.018952,+00.012262,-00.007869
-168.045,-028.758,+012.847,+0.182,+0.583,+2.644,-04.5840,-01.8710,-08.0950,+00.009939,+00.006514,+00.000267
-168.045,-028.753,+012.844,+0.177,+0.553,+2.665,-04.5510,-01.8830,-08.0550,-00.009084,+00.001418,+00.006188
-168.040,-028.750,+012.828,+0.168,+0.568,+2.632,-04.5680,-01.8290,-08.1070,-00.009822,+00.003419,+00.004514
-168.034,-028.745,+012.814,+0.177,+0.553,+2.644,-04.5530,-01.8390,-08.1230,-00.010444,+00.007342,+00.008033
-168.028,-028.738,+012.794,+0.173,+0.543,+2.660,-04.5410,-01.8550,-08.0860,-00.016269,+00.005522,+00.006918
-168.022,-028.731,+012.778,+0.173,+0.548,+2.627,-04.5870,-01.8390,-08.1190,-00.007040,+00.007435,+00.005111
-168.019,-028.721,+012.770,+0.173,+0.543,+2.627,-04.5390,-01.8740,-08.0960,-00.008794,+00.011904,+00.004638
-168.012,-028.712,+012.750,+0.163,+0.558,+2.659,-04.5300,-01.8590,-08.0760,-00.018840,+00.010364,+00.010968
-167.998,-028.703,+012.711,+0.173,+0.553,+2.643,-04.5140,-01.8310,-08.0760,-00.030781,+00.008759,+00.014319
-167.982,-028.696,+012.668,+0.168,+0.548,+2.643,-04.5250,-01.8290,-08.0970,-00.029466,+00.008985,+00.013549
-167.966,-028.688,+012.631,+0.168,+0.538,+2.643,-04.5600,-01.8010,-08.1450,-00.020597,+00.012087,+00.012083
-167.951,-028.678,+012.603,+0.163,+0.553,+2.648,-04.5930,-01.8100,-08.1160,-00.015195,+00.009557,+00.009965
-167.943,-028.669,+012.583,+0.177,+0.543,+2.655,-04.5250,-01.8490,-08.1010,-00.012353,+00.007877,+00.007372
-167.936,-028.662,+012.559,+0.163,+0.543,+2.665,-04.5170,-01.7930,-08.1160,-00.017907,+00.008380,+00.006876
-167.929,-028.657,+012.534,+0.163,+0.548,+2.638,-04.5570,-01.8140,-08.1060,-00.018850,+00.006060,+00.005990
-167.923,-028.654,+012.509,+0.168,+0.538,+2.627,-04.5660,-01.8020,-08.1470,-00.014225,+00.004545,+00.006254
-167.917,-028.648,+012.492,+0.177,+0.593,+2.654,-04.5540,-01.8110,-08.1210,-00.009469,+00.006012,+00.006426
-167.910,-028.641,+012.478,+0.168,+0.558,+2.622,-04.5240,-01.7780,-08.0880,-00.007109,+00.008206,+00.003658
-167.903,-028.635,+012.457,+0.159,+0.538,+2.621,-04.5180,-01.8150,-08.1130,-00.018624,+00.007130,+00.007103
-167.896,-028.633,+012.433,+0.173,+0.533,+2.660,-04.5290,-01.8010,-08.1520,-00.016424,+00.003859,+00.007633
-167.889,-028.635,+012.405,+0.182,+0.558,+2.644,-04.5600,-01.7860,-08.1220,-00.022181,-00.000271,+00.008688
-167.880,-028.638,+012.371,+0.177,+0.543,+2.633,-04.5320,-01.8090,-08.1030,-00.030795,-00.001370,+00.010635
-167.867,-028.642,+012.322,+0.163,+0.563,+2.675,-04.5290,-01.8080,-08.1100,-00.040304,-00.001524,+00.015919
-167.847,-028.648,+012.258,+0.168,+0.553,+2.638,-04.5630,-01.8080,-08.1400,-00.052309,-00.002081,+00.021637
-167.819,-028.657,+012.170,+0.168,+0.568,+2.643,-04.4330,-01.7860,-08.0940,-00.080398,-00.007395,+00.031114
-167.780,-028.673,+012.046,+0.173,+0.523,+2.671,-04.4990,-01.7610,-08.0510,-00.103736,-00.008917,+00.037315
-167.732,-028.699,+011.880,+0.177,+0.533,+2.638,-04.5050,-01.6930,-08.1030,-00.135915,-00.016267,+00.049126
-167.680,-028.727,+011.710,+0.177,+0.508,+2.622,-04.5810,-01.6970,-08.1860,-00.119398,-00.016207,+00.047714
-167.635,-028.753,+011.570,+0.168,+0.499,+2.665,-04.6040,-01.6590,-08.2000,-00.093542,-00.012830,+00.037303
-167.599,-028.772,+011.462,+0.173,+0.528,+2.665,-04.5720,-01.6150,-08.1780,-00.069155,-00.008999,+00.029524
-167.569,-028.784,+011.375,+0.168,+0.508,+2.638,-04.5760,-01.6050,-08.1940,-00.054319,-00.007015,+00.024944
-167.545,-028.796,+011.305,+0.173,+0.523,+2.676,-04.6050,-01.6540,-08.1720,-00.048074,-00.003989,+00.021895
-167.523,-028.805,+011.243,+0.187,+0.533,+2.655,-04.5800,-01.5790,-08.1490,-00.038277,-00.003581,+00.018483
-167.505,-028.812,+011.196,+0.172,+0.503,+2.633,-04.5320,-01.5930,-08.1400,-00.029743,-00.003879,+00.016070
-167.484,-028.827,+011.150,+0.172,+0.493,+2.644,-04.5980,-01.5990,-08.1750,-00.030740,-00.013282,+00.021258
-167.464,-028.842,+011.110,+0.186,+0.508,+2.655,-04.6250,-01.5650,-08.2050,-00.023469,-00.007011,+00.016846
-167.452,-028.851,+011.080,+0.182,+0.508,+2.644,-04.6210,-01.5600,-08.1570,-00.015395,-00.003883,+00.011952
-167.443,-028.858,+011.059,+0.173,+0.498,+2.665,-04.6040,-01.5840,-08.1610,-00.011165,-00.004108,+00.008299
-167.436,-028.864,+011.042,+0.177,+0.513,+2.633,-04.6190,-01.5530,-08.1270,-00.009372,-00.002784,+00.004580
-167.430,-028.870,+011.030,+0.173,+0.503,+2.660,-04.5520,-01.5800,-08.1150,-00.006842,-00.004151,+00.005678
-167.423,-028.879,+011.015,+0.182,+0.474,+2.661,-04.5690,-01.6290,-08.1520,-00.009208,-00.007587,+00.009138
-167.415,-028.890,+010.998,+0.177,+0.508,+2.655,-04.5960,-01.5360,-08.1970,-00.007843,-00.006934,+00.006918
-167.408,-028.899,+010.984,+0.177,+0.503,+2.655,-04.5920,-01.5290,-08.1700,-00.004864,-00.005077,+00.006355
-167.405,-028.908,+010.976,+0.177,+0.479,+2.671,-04.6000,-01.5640,-08.1260,-00.002601,-00.006530,+00.004979
-167.402,-028.916,+010.969,+0.177,+0.508,+2.649,-04.5960,-01.5840,-08.1100,-00.003422,-00.004308,+00.005022
-167.399,-028.922,+010.962,+0.196,+0.493,+2.634,-04.5810,-01.5860,-08.1410,-00.004584,-00.003576,+00.005679
-167.392,-028.928,+010.950,+0.168,+0.494,+2.665,-04.5830,-01.5890,-08.1430,-00.007759,-00.005277,+00.008928
-167.381,-028.936,+010.933,+0.173,+0.528,+2.644,-04.6170,-01.5620,-08.1540,-00.007946,-00.005239,+00.009047
-167.373,-028.945,+010.920,+0.177,+0.498,+2.649,-04.6450,-01.5510,-08.1460,-00.005865,-00.004464,+00.006125
-167.367,-028.952,+010.909,+0.168,+0.518,+2.665,-04.6030,-01.5520,-08.1450,-00.004496,-00.005830,+00.005722
-167.362,-028.957,+010.901,+0.186,+0.503,+2.644,-04.6070,-01.5430,-08.1450,-00.002490,-00.002463,+00.003481
-167.364,-028.963,+010.896,+0.182,+0.493,+2.644,-04.5860,-01.5370,-08.1490,-00.000716,-00.007065,+00.000279
-167.366,-028.974,+010.895,+0.177,+0.508,+2.671,-04.6000,-01.5440,-08.1640,-00.000191,-00.005495,-00.000388
-167.369,-028.981,+010.893,+0.177,+0.488,+2.660,-04.5860,-01.5650,-08.1240,-00.002125,-00.003485,-00.000564
-167.372,-028.986,+010.887,+0.182,+0.488,+2.655,-04.6280,-01.5270,-08.1370,-00.002606,+00.000341,-00.000406
-167.374,-028.988,+010.881,+0.173,+0.489,+2.676,-04.5890,-01.5510,-08.1420,-00.004038,+00.000384,+00.001549
-167.373,-028.986,+010.870,+0.177,+0.503,+2.649,-04.5640,-01.5720,-08.1350,-00.009930,+00.000759,+00.005363
-167.367,-028.985,+010.854,+0.182,+0.488,+2.650,-04.5860,-01.5700,-08.1310,-00.009888,+00.001910,+00.008639
-167.357,-028.984,+010.833,+0.172,+0.493,+2.655,-04.6030,-01.5550,-08.1410,-00.012664,+00.003699,+00.009071
-167.344,-028.982,+010.809,+0.173,+0.503,+2.649,-04.6090,-01.5520,-08.1750,-00.014574,+00.003602,+00.010947
-167.330,-028.980,+010.783,+0.168,+0.493,+2.649,-04.5920,-01.5530,-08.1490,-00.016308,+00.002114,+00.013221
-167.311,-028.977,+010.752,+0.182,+0.523,+2.677,-04.5520,-01.5680,-08.0990,-00.019651,+00.004804,+00.015476
-167.289,-028.976,+010.718,+0.177,+0.543,+2.649,-04.5500,-01.5890,-08.1400,-00.022199,+00.006047,+00.018313
-167.264,-028.976,+010.677,+0.186,+0.498,+2.672,-04.5960,-01.4780,-08.1430,-00.022704,+00.004561,+00.019167
-167.241,-028.978,+010.642,+0.177,+0.478,+2.644,-04.6060,-01.4820,-08.1880,-00.016374,+00.002545,+00.015986
-167.223,-028.981,+010.617,+0.177,+0.493,+2.644,-04.5920,-01.4710,-08.1520,-00.010172,-00.000479,+00.012999
-167.211,-028.988,+010.601,+0.177,+0.513,+2.655,-04.5950,-01.4960,-08.1690,-00.004981,-00.005517,+00.010439
-167.200,-029.000,+010.589,+0.173,+0.489,+2.676,-04.5940,-01.5030,-08.1160,-00.003106,-00.010300,+00.009787
-167.188,-029.016,+010.577,+0.173,+0.508,+2.660,-04.5850,-01.4950,-08.1530,-00.003350,-00.012758,+00.013689
-167.174,-029.037,+010.564,+0.177,+0.503,+2.644,-04.6150,-01.5340,-08.1260,-00.003984,-00.017994,+00.016095
-167.157,-029.060,+010.549,+0.182,+0.478,+2.655,-04.6200,-01.4990,-08.1460,-00.005014,-00.017996,+00.016519
-167.141,-029.083,+010.533,+0.177,+0.533,+2.671,-04.6140,-01.5140,-08.1280,-00.007238,-00.018904,+00.017938
-167.122,-029.109,+010.515,+0.186,+0.498,+2.661,-04.5800,-01.5130,-08.1340,-00.005601,-00.020996,+00.019687
-167.104,-029.140,+010.504,+0.182,+0.483,+2.655,-04.6060,-01.4760,-08.1330,+00.001471,-00.027165,+00.016596
-167.091,-029.173,+010.500,+0.182,+0.513,+2.644,-04.6490,-01.4590,-08.1660,+00.005529,-00.025152,+00.011897
-167.084,-029.201,+010.500,+0.177,+0.483,+2.633,-04.6390,-01.4610,-08.1500,+00.007215,-00.021104,+00.007442
-167.080,-029.225,+010.504,+0.187,+0.528,+2.671,-04.6100,-01.5130,-08.1300,+00.006229,-00.018419,+00.007425
-167.075,-029.244,+010.505,+0.191,+0.498,+2.650,-04.6700,-01.5020,-08.1690,+00.003787,-00.012194,+00.006106
-167.071,-029.258,+010.502,+0.177,+0.488,+2.644,-04.6650,-01.4610,-08.1240,+00.000315,-00.009780,+00.005461
-167.068,-029.269,+010.500,+0.186,+0.498,+2.666,-04.6330,-01.5080,-08.1120,+00.001214,-00.009164,+00.004318
-167.066,-029.285,+010.500,+0.182,+0.498,+2.660,-04.6610,-01.4980,-08.1390,+00.003756,-00.012943,+00.004749
-167.062,-029.299,+010.498,+0.177,+0.474,+2.650,-04.6590,-01.5020,-08.1450,+00.002795,-00.009644,+00.004879
-167.060,-029.310,+010.496,+0.186,+0.484,+2.677,-04.6420,-01.4830,-08.1210,+00.000997,-00.005283,+00.002563
-167.058,-029.318,+010.495,+0.191,+0.518,+2.655,-04.6480,-01.4830,-08.1320,+00.003252,-00.005176,+00.001709
-167.057,-029.326,+010.498,+0.186,+0.478,+2.650,-04.6560,-01.4870,-08.1270,+00.004645,-00.006551,+00.000779
-167.060,-029.336,+010.504,+0.182,+0.469,+2.661,-04.6110,-01.5140,-08.1140,+00.006847,-00.011255,+00.001302
-167.064,-029.353,+010.515,+0.196,+0.508,+2.639,-04.6380,-01.4970,-08.1090,+00.010318,-00.014185,+00.000217
-167.069,-029.370,+010.530,+0.191,+0.483,+2.634,-04.6640,-01.4930,-08.1480,+00.014727,-00.014681,-00.002328
-167.074,-029.386,+010.547,+0.182,+0.488,+2.671,-04.6530,-01.5040,-08.1000,+00.013904,-00.015286,-00.002203
-167.082,-029.404,+010.566,+0.200,+0.503,+2.650,-04.6560,-01.5220,-08.1240,+00.014317,-00.017089,-00.003035
-167.090,-029.424,+010.584,+0.191,+0.508,+2.650,-04.6740,-01.5330,-08.1300,+00.013483,-00.017655,-00.002104
-167.095,-029.444,+010.602,+0.191,+0.493,+2.666,-04.6460,-01.5080,-08.1170,+00.014706,-00.017508,-00.001229
-167.100,-029.466,+010.619,+0.196,+0.498,+2.661,-04.6220,-01.5450,-08.0940,+00.012403,-00.020119,+00.002195
-167.105,-029.489,+010.634,+0.196,+0.488,+2.645,-04.6770,-01.5180,-08.1170,+00.012946,-00.020769,+00.001304
-167.109,-029.512,+010.649,+0.196,+0.483,+2.661,-04.6750,-01.5120,-08.1150,+00.012967,-00.018634,+00.002480
-167.113,-029.536,+010.665,+0.196,+0.523,+2.639,-04.6870,-01.5160,-08.1180,+00.014227,-00.022394,+00.002813
-167.116,-029.561,+010.682,+0.200,+0.508,+2.645,-04.6980,-01.5470,-08.0910,+00.013191,-00.020845,+00.003165
-167.120,-029.587,+010.696,+0.196,+0.488,+2.677,-04.6750,-01.5120,-08.0970,+00.013280,-00.021728,+00.002690
-167.124,-029.613,+010.711,+0.196,+0.508,+2.650,-04.6910,-01.4850,-08.0680,+00.012622,-00.023604,+00.002967
-167.127,-029.637,+010.724,+0.191,+0.503,+2.639,-04.7040,-01.5360,-08.0840,+00.009803,-00.019663,+00.003598
-167.129,-029.659,+010.735,+0.196,+0.518,+2.677,-04.6740,-01.5390,-08.0670,+00.010161,-00.018512,+00.004981
-167.126,-029.680,+010.742,+0.205,+0.508,+2.629,-04.7260,-01.5250,-08.0900,+00.008056,-00.014506,+00.006037
-167.125,-029.696,+010.747,+0.205,+0.538,+2.650,-04.7460,-01.5110,-08.0760,+00.006278,-00.009644,+00.003245
-167.123,-029.704,+010.752,+0.205,+0.498,+2.651,-04.7220,-01.5130,-08.0800,+00.005528,-00.003643,+00.001070
-167.126,-029.709,+010.757,+0.205,+0.503,+2.656,-04.7040,-01.5180,-08.0840,+00.004894,-00.003530,+00.001409
-167.130,-029.712,+010.761,+0.191,+0.503,+2.628,-04.7000,-01.5210,-08.1100,+00.004259,-00.001998,-00.000805
-167.131,-029.714,+010.765,+0.210,+0.518,+2.667,-04.7120,-01.5420,-08.0940,+00.003739,-00.000095,-00.000400
-167.133,-029.715,+010.769,+0.196,+0.533,+2.645,-04.7170,-01.4860,-08.0790,+00.004141,+00.000703,-00.002385
-167.141,-029.711,+010.778,+0.200,+0.493,+2.661,-04.7330,-01.5450,-08.1390,+00.006203,+00.005827,-00.005579
-167.149,-029.705,+010.785,+0.196,+0.498,+2.661,-04.6900,-01.5540,-08.0920,+00.001758,+00.007975,-00.003417
-167.153,-029.697,+010.785,+0.196,+0.503,+2.645,-04.7280,-01.5520,-08.0600,-00.001073,+00.009470,-00.001857
-167.154,-029.689,+010.782,+0.205,+0.503,+2.651,-04.7080,-01.5700,-08.0820,-00.003155,+00.007260,-00.001546
-167.153,-029.676,+010.774,+0.205,+0.488,+2.656,-04.7070,-01.4730,-08.0750,-00.004461,+00.012668,-00.002407
-167.156,-029.662,+010.768,+0.205,+0.503,+2.640,-04.6530,-01.5440,-08.0790,-00.005305,+00.011127,-00.000960
-167.154,-029.654,+010.759,+0.196,+0.493,+2.640,-04.7080,-01.5450,-08.0570,-00.005978,+00.006808,+00.002629
-167.152,-029.648,+010.750,+0.205,+0.498,+2.672,-04.6880,-01.5380,-08.1080,-00.005538,+00.005332,+00.002022
-167.151,-029.645,+010.741,+0.196,+0.513,+2.623,-04.7020,-01.5270,-08.0670,-00.006090,+00.002094,+00.002216
-167.149,-029.646,+010.734,+0.186,+0.488,+2.634,-04.7160,-01.5020,-08.1190,-00.003186,-00.000733,+00.002715
-167.150,-029.646,+010.731,+0.205,+0.483,+2.672,-04.7190,-01.5540,-08.0990,-00.000067,+00.000100,-00.000362
-167.153,-029.647,+010.733,+0.210,+0.513,+2.656,-04.6890,-01.5530,-08.0720,+00.002113,+00.000684,-00.002197
-167.156,-029.649,+010.737,+0.205,+0.503,+2.651,-04.7020,-01.4970,-08.1020,+00.004117,-00.002946,-00.001789
-167.162,-029.653,+010.742,+0.200,+0.523,+2.672,-04.7180,-01.4850,-08.1090,+00.005860,-00.001278,-00.005548
-167.172,-029.654,+010.754,+0.200,+0.498,+2.634,-04.6510,-01.4980,-08.1140,+00.009982,-00.005197,-00.006993
-167.184,-029.660,+010.769,+0.214,+0.513,+2.646,-04.6790,-01.5310,-08.0610,+00.009804,-00.005534,-00.006484
-167.193,-029.671,+010.782,+0.191,+0.513,+2.666,-04.7100,-01.5820,-08.0840,+00.006337,-00.010263,-00.003304
-167.202,-029.680,+010.791,+0.205,+0.503,+2.634,-04.7170,-01.5270,-08.0880,+00.003791,-00.004587,-00.002560
-167.207,-029.684,+010.796,+0.205,+0.498,+2.634,-04.6990,-01.5040,-08.0940,+00.005786,-00.001565,-00.004705
-167.216,-029.687,+010.808,+0.200,+0.488,+2.651,-04.6610,-01.5410,-08.1110,+00.008638,-00.006163,-00.005005
-167.226,-029.695,+010.821,+0.200,+0.508,+2.640,-04.7070,-01.5590,-08.1100,+00.008498,-00.006351,-00.003427
-167.235,-029.703,+010.833,+0.196,+0.498,+2.656,-04.6770,-01.5510,-08.1000,+00.008765,-00.006383,-00.003438
-167.246,-029.715,+010.846,+0.200,+0.498,+2.661,-04.6940,-01.5350,-08.1040,+00.009473,-00.013364,-00.004379
-167.255,-029.728,+010.860,+0.205,+0.518,+2.624,-04.7240,-01.5360,-08.0800,+00.009912,-00.012027,-00.003194
-167.268,-029.740,+010.878,+0.205,+0.508,+2.656,-04.7460,-01.5110,-08.1000,+00.014373,-00.008820,-00.009971
-167.291,-029.749,+010.906,+0.205,+0.513,+2.667,-04.7520,-01.4810,-08.0600,+00.019292,-00.011023,-00.017150
-167.316,-029.754,+010.939,+0.205,+0.513,+2.624,-04.6930,-01.5760,-08.0810,+00.020520,-00.006640,-00.015193
-167.342,-029.757,+010.975,+0.196,+0.503,+2.639,-04.7040,-01.5470,-08.0720,+00.021085,-00.005925,-00.019326
-167.373,-029.762,+011.014,+0.205,+0.518,+2.661,-04.7340,-01.5600,-08.0670,+00.023680,-00.007844,-00.023163
-167.404,-029.764,+011.053,+0.214,+0.552,+2.634,-04.7190,-01.5940,-08.0730,+00.018537,-00.002534,-00.018912
-167.427,-029.759,+011.082,+0.210,+0.518,+2.651,-04.6910,-01.5950,-08.0720,+00.013747,+00.004193,-00.014308
-167.445,-029.751,+011.103,+0.210,+0.488,+2.646,-04.7370,-01.5840,-08.0800,+00.010435,+00.006953,-00.013157
-167.463,-029.735,+011.122,+0.196,+0.523,+2.634,-04.7050,-01.6170,-08.0640,+00.011449,+00.012380,-00.014760
-167.479,-029.716,+011.141,+0.200,+0.508,+2.645,-04.7240,-01.6150,-08.0920,+00.007317,+00.017840,-00.011713
-167.491,-029.691,+011.151,+0.214,+0.498,+2.657,-04.7190,-01.6070,-08.0760,+00.003021,+00.022620,-00.010397
-167.501,-029.660,+011.156,+0.205,+0.508,+2.629,-04.7120,-01.5750,-08.0820,-00.001905,+00.028299,-00.010878
-167.508,-029.626,+011.157,+0.205,+0.513,+2.645,-04.7230,-01.6080,-08.0820,-00.002241,+00.028916,-00.010471
-167.518,-029.590,+011.156,+0.186,+0.503,+2.666,-04.6990,-01.5730,-08.0170,-00.004610,+00.034831,-00.013869
-167.527,-029.551,+011.154,+0.186,+0.513,+2.644,-04.5530,-01.6720,-08.0960,-00.007421,+00.026984,-00.007359
-167.524,-029.530,+011.140,+0.200,+0.508,+2.650,-04.5810,-01.6160,-08.0930,-00.013082,+00.013762,+00.005331
-167.510,-029.522,+011.113,+0.205,+0.493,+2.651,-04.6980,-01.5720,-08.0810,-00.017947,+00.008946,+00.008675
-167.500,-029.513,+011.089,+0.191,+0.513,+2.655,-04.6780,-01.6210,-08.0990,-00.013581,+00.009075,+00.007396
-167.488,-029.505,+011.065,+0.196,+0.523,+2.656,-04.5950,-01.6040,-08.0250,-00.014987,+00.007129,+00.010587
-167.468,-029.508,+011.032,+0.182,+0.513,+2.650,-04.7050,-01.5810,-08.1390,-00.021832,-00.002178,+00.019818
-167.446,-029.515,+010.997,+0.200,+0.513,+2.629,-04.7230,-01.5270,-08.0840,-00.016091,-00.003146,+00.016120
-167.434,-029.518,+010.978,+0.205,+0.513,+2.645,-04.7230,-01.5440,-08.1000,-00.007035,-00.000199,+00.006708
-167.432,-029.514,+010.970,+0.205,+0.478,+2.662,-04.7120,-01.5200,-08.0980,-00.002242,+00.007331,+00.001117
-167.434,-029.503,+010.969,+0.196,+0.518,+2.650,-04.6700,-01.4940,-08.0940,+00.002862,+00.008878,-00.004263
-167.440,-029.497,+010.979,+0.200,+0.498,+2.640,-04.5920,-01.6570,-08.0580,+00.006621,-00.000193,-00.000813
-167.439,-029.496,+010.977,+0.200,+0.493,+2.667,-04.6700,-01.6210,-08.0760,-00.003418,+00.003916,+00.004488
-167.432,-029.490,+010.965,+0.191,+0.533,+2.650,-04.6670,-01.5620,-08.1210,-00.006482,+00.008568,+00.006109
-167.425,-029.481,+010.954,+0.196,+0.498,+2.645,-04.6890,-01.5310,-08.1150,-00.004687,+00.010839,+00.003618
-167.421,-029.469,+010.943,+0.200,+0.488,+2.640,-04.6640,-01.5770,-08.0980,-00.007566,+00.011312,+00.003843
-167.420,-029.459,+010.944,+0.196,+0.533,+2.655,-04.7520,-01.4630,-08.1850,+00.019307,+00.002463,-00.003862
-167.440,-029.462,+011.009,+0.191,+0.493,+2.650,-04.7540,-01.6730,-08.0950,+00.060296,-00.004011,-00.016377
-167.462,-029.454,+011.094,+0.191,+0.488,+2.666,-04.8000,-01.5690,-08.1440,+00.076650,+00.011178,-00.020325
-167.485,-029.426,+011.221,+0.196,+0.518,+2.629,-04.7370,-01.7590,-08.0360,+00.103446,+00.025395,-00.016535
-167.488,-029.393,+011.369,+0.186,+0.508,+2.639,-04.9570,-01.0430,-08.3940,+00.165157,+00.037024,+00.012493
-167.479,-029.343,+011.568,+0.191,+0.528,+2.666,-04.5480,-01.7740,-08.0440,+00.173896,+00.025187,+00.007767
-167.466,-029.317,+011.817,+0.187,+0.563,+2.639,-04.4520,-01.6200,-08.0310,+00.240190,+00.012448,+00.006308
-167.474,-029.345,+012.102,+0.200,+0.528,+2.618,-04.5160,-01.2440,-07.9230,+00.260688,-00.045962,+00.005304
-167.417,-029.447,+012.408,+0.205,+0.553,+2.650,-04.7820,-01.1690,-08.0520,+00.317893,-00.090363,+00.103405
-167.179,-029.604,+012.702,+0.205,+0.567,+2.634,-04.5620,+00.0520,-07.9710,+00.377442,-00.098669,+00.317355
-166.429,-029.827,+012.895,+0.219,+0.612,+2.618,-05.3370,+01.0460,-08.0290,+00.632761,-00.017250,+00.811094
-164.660,-029.984,+013.121,+0.228,+0.607,+2.646,-03.7540,+00.3970,-07.8380,+00.954189,+00.230792,+01.654679
-162.211,-030.012,+013.193,+0.224,+0.661,+2.618,-04.3110,-02.7660,-07.9570,+01.159724,+00.473447,+01.853215
-160.012,-030.023,+012.952,+0.233,+0.691,+2.607,-05.2320,-05.7180,-06.0280,+00.423199,+00.255423,+01.324631
-159.549,-029.917,+012.871,+0.219,+0.646,+2.607,-04.9410,-03.5630,-08.2520,+00.180548,+00.180748,-00.226240
-159.723,-029.631,+013.233,+0.215,+0.706,+2.606,-05.8280,-00.4740,-09.5760,+00.314469,+00.287825,-00.156220
-159.925,-029.242,+013.811,+0.210,+0.706,+2.595,-04.2750,-02.0570,-08.0150,+00.429629,+00.266230,-00.235930
-160.134,-028.929,+014.393,+0.191,+0.706,+2.600,-04.4680,-02.7260,-07.9030,+00.417365,+00.184038,-00.213000
-160.351,-028.737,+014.958,+0.187,+0.771,+2.594,-04.3820,-03.1450,-07.7070,+00.399215,+00.087640,-00.200584
-160.581,-028.627,+015.529,+0.182,+0.746,+2.572,-04.4320,-02.6120,-07.8070,+00.400525,+00.021246,-00.192327
-160.828,-028.538,+016.108,+0.178,+0.776,+2.588,-04.5000,-02.2110,-07.9010,+00.397503,+00.021672,-00.208421
-161.093,-028.451,+016.687,+0.173,+0.781,+2.577,-04.4210,-02.3060,-07.8490,+00.394720,+00.009216,-00.218240
-161.402,-028.396,+017.293,+0.164,+0.825,+2.576,-04.7800,-02.1500,-08.2580,+00.413584,-00.024160,-00.252568
-161.718,-028.320,+017.912,+0.154,+0.811,+2.587,-04.4200,-02.5680,-07.8790,+00.396779,-00.005102,-00.245318
-162.028,-028.242,+018.473,+0.164,+0.830,+2.560,-04.4600,-02.7930,-07.9460,+00.349825,-00.012942,-00.247859
-162.347,-028.128,+019.027,+0.168,+0.830,+2.544,-04.5990,-02.5460,-08.0510,+00.348200,+00.035595,-00.258123
-162.631,-028.009,+019.498,+0.164,+0.840,+2.560,-03.9600,-03.2920,-07.4310,+00.233300,+00.002636,-00.213052
-162.852,-027.933,+019.781,+0.150,+0.860,+2.554,-04.1600,-02.8570,-07.4280,+00.102621,+00.006164,-00.167289
-163.022,-027.867,+019.879,+0.154,+0.875,+2.570,-04.4250,-02.5940,-07.8840,-00.009337,+00.016928,-00.133522
-163.144,-027.817,+019.833,+0.150,+0.850,+2.581,-04.1770,-03.7670,-07.5860,-00.175143,-00.008506,-00.074614
-163.218,-027.821,+019.592,+0.159,+0.865,+2.565,-04.4020,-03.0180,-07.9730,-00.269356,-00.028942,-00.030570
-163.259,-027.831,+019.323,+0.145,+0.845,+2.554,-04.6350,-02.9460,-07.9260,-00.235954,-00.013245,-00.015060
-163.276,-027.822,+019.066,+0.140,+0.821,+2.597,-04.5430,-02.8120,-08.0900,-00.223295,+00.005283,-00.010636
-163.297,-027.836,+018.828,+0.154,+0.825,+2.581,-04.3360,-02.5640,-08.0700,-00.209321,-00.030885,-00.008259
-163.314,-027.908,+018.602,+0.145,+0.840,+2.570,-04.2780,-02.7140,-07.9720,-00.207308,-00.084534,+00.021110
-163.292,-028.025,+018.332,+0.150,+0.816,+2.608,-04.2480,-02.8500,-07.8180,-00.246788,-00.098432,+00.074331
-163.172,-028.215,+017.865,+0.164,+0.801,+2.576,-04.1850,-03.2240,-07.5850,-00.426618,-00.151021,+00.179536
-162.971,-028.464,+017.237,+0.168,+0.766,+2.582,-04.3370,-02.6440,-07.8800,-00.487445,-00.171039,+00.234477
-162.696,-028.737,+016.534,+0.173,+0.746,+2.593,-04.5460,-02.0670,-08.4170,-00.492685,-00.135567,+00.291947
-162.314,-028.988,+015.739,+0.196,+0.761,+2.589,-04.3300,-02.7270,-07.8270,-00.567119,-00.097633,+00.376323
-161.798,-029.219,+014.759,+0.173,+0.696,+2.605,-04.4300,-02.5930,-08.0140,-00.687697,-00.083267,+00.470468
-161.198,-029.349,+013.767,+0.196,+0.672,+2.627,-04.9240,-02.4750,-08.2800,-00.569952,+00.061578,+00.461748
-160.613,-029.361,+012.894,+0.196,+0.701,+2.622,-04.8460,-01.9910,-08.0440,-00.477033,+00.105139,+00.415273
-160.135,-029.331,+012.203,+0.187,+0.657,+2.627,-04.7160,-01.2840,-07.9230,-00.361964,+00.110477,+00.310398
-159.783,-029.308,+011.702,+0.196,+0.632,+2.639,-04.6900,-01.4090,-07.9770,-00.244214,+00.040091,+00.224160
-159.543,-029.347,+011.380,+0.191,+0.647,+2.627,-04.5400,-01.4120,-07.8390,-00.141131,-00.024590,+00.162496
-159.377,-029.437,+011.189,+0.201,+0.627,+2.612,-04.5260,-01.5300,-08.0800,-00.081404,-00.065175,+00.133081
-159.220,-029.565,+011.001,+0.196,+0.622,+2.649,-04.5190,-01.6130,-08.0860,-00.097229,-00.095176,+00.142380
-159.064,-029.745,+010.831,+0.201,+0.647,+2.612,-04.5200,-01.4860,-07.9910,-00.067210,-00.155248,+00.142357
-158.928,-029.992,+010.690,+0.210,+0.657,+2.634,-04.5860,-01.5330,-08.1070,-00.067433,-00.216956,+00.146982
-158.796,-030.307,+010.565,+0.228,+0.627,+2.635,-04.9100,-01.3560,-08.1860,-00.026839,-00.265526,+00.135941
-158.684,-030.690,+010.504,+0.238,+0.636,+2.619,-04.6980,-01.5790,-08.1190,+00.016063,-00.339536,+00.149140
-158.572,-031.146,+010.495,+0.252,+0.617,+2.636,-04.9900,-01.5200,-08.1490,+00.046038,-00.395282,+00.161728
-158.444,-031.678,+010.499,+0.266,+0.616,+2.653,-04.9010,-01.4150,-08.0790,+00.076429,-00.470441,+00.185141
-158.280,-032.329,+010.525,+0.298,+0.621,+2.621,-04.8700,-01.2540,-08.3270,+00.132239,-00.569214,+00.264841
-158.091,-033.219,+010.558,+0.317,+0.621,+2.606,-05.0540,-01.7950,-07.7260,+00.114150,-00.842403,+00.271159
-157.967,-034.482,+010.625,+0.363,+0.620,+2.630,-04.5090,-01.6080,-08.1710,+00.117591,-01.212155,+00.305115
-157.880,-036.184,+010.729,+0.419,+0.634,+2.578,-04.9940,-01.3540,-07.5310,+00.124674,-01.634282,+00.358759
-157.860,-038.547,+010.813,+0.498,+0.634,+2.587,-05.0870,-01.3970,-07.7690,+00.052906,-02.245709,+00.442418
-157.746,-041.634,+010.809,+0.596,+0.638,+2.569,-04.9790,-01.2750,-07.6970,+00.118935,-02.843671,+00.693622
-157.361,-045.288,+010.695,+0.717,+0.656,+2.521,-05.9170,-01.6510,-07.9870,+00.115882,-03.214196,+00.895506
-156.789,-049.366,+010.365,+0.865,+0.620,+2.473,-06.3100,-01.6680,-07.7480,+00.075493,-03.596961,+01.039271
-156.106,-054.056,+010.030,+0.986,+0.598,+2.425,-07.5440,-01.6440,-07.3640,+00.263785,-04.203204,+01.112165
-155.504,-059.395,+009.922,+1.153,+0.606,+2.297,-08.5980,-02.0290,-07.6420,+00.396174,-04.749152,+01.100320
-154.973,-065.415,+010.212,+1.325,+0.579,+2.142,-08.8870,-02.3280,-07.8130,+00.738770,-05.389477,+01.186958
-154.279,-072.182,+010.447,+1.474,+0.567,+2.024,-11.1270,-02.7430,-08.5470,+00.719068,-05.965257,+01.350762
-152.795,-079.261,+009.590,+1.627,+0.564,+1.815,-11.9940,-01.6350,-08.8150,+00.369853,-06.014634,+01.381339
-150.148,-085.726,+008.156,+1.747,+0.512,+1.571,-13.8250,-02.1780,-12.9800,+01.653461,-05.194168,+00.995365
-004.047,-089.221,-135.567,+1.807,+0.501,+1.450,-05.1130,-03.3670,-16.4140,+01.932652,-03.096373,+01.339645
-037.791,-088.328,-100.620,+1.812,+0.510,+1.369,-09.7340,-08.2310,-23.7810,+00.629837,+01.826223,+00.708979
-092.928,-086.488,-045.387,+1.765,+0.447,+1.416,+01.9130,-03.2710,-07.4220,-00.141793,+02.393430,+00.835305
-103.879,-083.943,-034.701,+1.742,+0.412,+1.458,-00.9030,-02.7810,-07.8540,-00.193669,+02.198499,+00.736345
-111.858,-081.142,-026.950,+1.738,+0.388,+1.502,-03.1820,-03.9750,-10.5240,-00.135362,+02.849652,+00.302355
-119.704,-077.627,-019.442,+1.700,+0.369,+1.587,-02.2930,-04.0100,-08.9860,-00.204029,+03.528303,-00.096160
-126.167,-073.614,-013.337,+1.663,+0.350,+1.699,-03.4660,-03.9630,-08.9360,-00.062153,+03.894902,-00.538851
-132.009,-069.112,-007.783,+1.589,+0.441,+1.808,-04.1230,-04.5980,-08.1450,+00.029214,+04.289016,-01.084119
-137.181,-064.353,-003.124,+1.501,+0.442,+1.967,-03.9340,-04.6580,-06.1010,-00.138923,+04.226745,-01.547803
-141.799,-059.719,+000.846,+1.399,+0.518,+2.113,-07.6490,-03.9590,-08.2700,-00.023014,+04.053473,-01.973041
-146.045,-054.852,+004.544,+1.223,+0.555,+2.257,-09.3440,-03.9450,-09.0400,+00.166143,+04.195282,-02.305145
-149.600,-049.859,+007.588,+1.032,+0.578,+2.329,-09.4270,-03.2790,-08.0290,+00.218797,+04.030506,-02.328263
-152.350,-045.074,+009.885,+0.879,+0.624,+2.403,-12.0360,-04.1950,-09.8100,+00.230397,+03.824175,-02.183741
-154.505,-040.204,+011.664,+0.693,+0.606,+2.433,-15.0130,-04.1890,-11.5020,+00.317701,+04.011471,-02.153539
-156.260,-035.155,+013.140,+0.530,+0.608,+2.426,-15.3110,-05.0840,-09.8500,+00.321702,+04.026962,-02.111912
-157.829,-030.014,+014.099,+0.400,+0.609,+2.431,-15.5640,-06.9690,-09.5560,-00.052664,+04.134849,-02.264877
-159.668,-024.791,+014.725,+0.307,+0.645,+2.411,-13.4100,-06.6040,-07.1750,-00.230176,+03.948557,-02.677460
-162.022,-019.876,+015.329,+0.200,+0.641,+2.449,-12.9700,-07.5180,-05.6500,-00.265440,+03.441432,-03.114124
-164.997,-015.500,+015.848,+0.112,+0.642,+2.516,-12.7530,-08.0950,-03.2410,-00.362879,+02.719496,-03.597963
-168.783,-011.965,+016.343,-0.013,+0.698,+2.596,-12.6620,-07.4370,-00.6950,-00.290921,+01.646365,-04.161185
-173.435,-009.224,+017.115,-0.157,+0.645,+2.655,-18.2490,-06.1270,-03.3570,+00.030459,+00.999890,-04.677289
-178.117,-006.600,+017.816,-0.250,+0.627,+2.668,-18.1870,-00.5440,+00.5540,+00.073581,+00.902036,-04.335001
+177.997,-004.824,+018.484,-0.367,+0.658,+2.679,-16.7470,+03.2750,+06.2570,+00.353028,+00.023216,-03.268799
+174.878,-004.651,+018.962,-0.409,+0.613,+2.683,-17.8050,+00.8300,+06.1250,-00.033770,-01.141311,-02.240620
+172.443,-005.827,+018.532,-0.367,+0.569,+2.733,-15.2580,-00.5270,+03.1220,-00.809454,-01.910289,-01.370425
+170.755,-007.743,+018.274,-0.306,+0.558,+2.741,+04.5630,+11.9810,-05.9760,+00.913903,-01.971192,-00.299450
+169.060,-009.867,+019.649,-0.236,+0.592,+2.782,+05.0690,-02.3750,-06.7990,+00.837336,-02.689321,-00.576544
+167.570,-013.994,+020.668,-0.111,+0.651,+2.831,-04.9050,-02.8280,-09.2000,+00.305079,-04.183079,+00.628029
+167.003,-018.335,+021.274,+0.047,+0.679,+2.837,-07.9960,+02.7650,-10.4260,+00.516657,-03.574356,+00.983850
+166.912,-022.848,+021.773,+0.210,+0.702,+2.844,-12.8110,-06.1190,-14.7370,+00.237793,-03.539063,+01.430634
+167.028,-026.511,+020.880,+0.303,+0.667,+2.892,-17.2890,-08.0090,-15.5060,-01.170443,-02.474906,+01.141530
+167.483,-028.267,+018.959,+0.387,+0.616,+2.901,-04.7590,+00.2800,-10.0880,-01.176086,-01.116142,+00.727293
+167.742,-029.341,+017.662,+0.410,+0.552,+2.924,-05.9280,-02.4410,-08.0140,-01.064800,-00.730997,+00.443904
+168.024,-029.942,+016.594,+0.433,+0.522,+2.936,-05.4710,-03.5440,-08.1070,-00.701105,-00.335519,+00.325135
+168.326,-030.246,+015.780,+0.452,+0.527,+2.916,-05.2450,-02.4980,-07.9160,-00.501607,-00.122355,+00.259336
+168.568,-030.448,+015.163,+0.447,+0.482,+2.905,-05.1760,-01.7210,-08.3460,-00.377060,-00.126917,+00.200621
+168.737,-030.609,+014.774,+0.456,+0.467,+2.916,-05.0360,-02.0490,-08.1260,-00.230972,-00.093629,+00.142063
+168.856,-030.732,+014.497,+0.461,+0.472,+2.927,-04.9570,-01.8580,-07.9980,-00.159669,-00.076274,+00.099825
+168.965,-030.858,+014.289,+0.461,+0.447,+2.917,-05.0550,-02.1580,-07.7180,-00.111465,-00.094649,+00.105029
+169.071,-030.975,+014.155,+0.466,+0.442,+2.922,-04.9870,-02.0990,-07.8220,-00.051740,-00.080512,+00.102870
+169.186,-031.091,+014.053,+0.475,+0.457,+2.917,-04.9850,-02.0500,-07.9160,-00.032922,-00.075815,+00.117114
+169.325,-031.198,+013.953,+0.470,+0.432,+2.879,-05.0370,-01.6170,-08.0660,-00.014781,-00.055934,+00.118343
+169.421,-031.276,+013.914,+0.475,+0.437,+2.950,-05.0630,-01.7970,-07.9130,+00.014167,-00.046300,+00.070518
+169.506,-031.321,+013.856,+0.484,+0.457,+2.901,-04.9190,-01.9320,-07.9060,-00.034227,-00.001606,+00.080054
+169.654,-031.324,+013.698,+0.475,+0.422,+2.901,-04.9600,-01.9450,-07.9220,-00.093323,+00.039817,+00.126520
+169.857,-031.289,+013.460,+0.475,+0.442,+2.933,-04.9980,-01.9490,-07.6920,-00.123134,+00.079853,+00.145096
+170.053,-031.243,+013.226,+0.466,+0.437,+2.917,-05.0270,-01.6750,-07.8400,-00.106945,+00.064288,+00.115272
+170.177,-031.240,+013.066,+0.480,+0.447,+2.928,-04.9370,-01.7040,-07.9070,-00.070303,-00.005827,+00.078647
+170.258,-031.288,+012.958,+0.466,+0.403,+2.950,-04.9410,-01.7940,-07.9570,-00.055423,-00.035841,+00.066989
+170.347,-031.344,+012.841,+0.480,+0.417,+2.907,-04.9620,-01.8410,-07.8650,-00.063934,-00.031030,+00.080207
+170.443,-031.414,+012.721,+0.480,+0.407,+2.928,-04.9910,-01.7150,-07.9010,-00.060092,-00.056902,+00.078583
+170.515,-031.502,+012.623,+0.475,+0.452,+2.944,-05.1130,-01.5790,-07.9210,-00.039359,-00.078587,+00.059232
+170.562,-031.591,+012.560,+0.470,+0.417,+2.923,-05.0960,-01.6930,-07.9150,-00.035916,-00.067290,+00.049101
+170.610,-031.670,+012.500,+0.484,+0.397,+2.918,-05.1410,-01.6620,-07.8720,-00.032924,-00.053662,+00.051535
+170.667,-031.731,+012.437,+0.489,+0.398,+2.945,-04.9790,-01.6490,-07.8520,-00.020960,-00.046163,+00.054156
+170.734,-031.795,+012.362,+0.489,+0.407,+2.918,-05.0160,-01.6800,-07.9100,-00.038463,-00.040287,+00.069053
+170.825,-031.858,+012.249,+0.489,+0.392,+2.907,-05.0860,-01.5360,-07.8280,-00.070023,-00.038525,+00.075788
+170.901,-031.913,+012.109,+0.498,+0.402,+2.935,-05.1190,-01.5910,-07.8900,-00.093157,-00.029818,+00.060313
+170.989,-031.950,+011.937,+0.498,+0.417,+2.929,-05.0580,-01.7860,-07.8530,-00.133803,-00.004127,+00.091048
+171.188,-031.949,+011.627,+0.489,+0.378,+2.935,-05.2380,-01.7130,-07.8300,-00.194579,+00.061902,+00.170097
+171.474,-031.888,+011.269,+0.489,+0.368,+2.924,-05.0160,-01.4460,-07.8100,-00.160285,+00.096309,+00.205750
+171.760,-031.828,+010.894,+0.484,+0.392,+2.913,-05.0280,-01.4940,-07.9030,-00.220396,+00.085777,+00.199066
+172.078,-031.782,+010.477,+0.489,+0.348,+2.929,-05.0240,-01.5130,-07.8910,-00.212121,+00.083879,+00.233482
+172.402,-031.762,+010.080,+0.475,+0.318,+2.934,-04.9790,-01.2650,-07.9290,-00.192861,+00.048903,+00.216959
+172.699,-031.815,+009.685,+0.479,+0.343,+2.929,-04.8760,-01.2680,-08.0740,-00.202066,-00.048947,+00.218852
+172.974,-032.054,+009.310,+0.470,+0.318,+2.929,-04.6620,-00.7160,-08.3460,-00.191277,-00.243586,+00.241819
+173.223,-032.552,+008.951,+0.503,+0.293,+2.936,-04.7380,-01.2410,-08.3100,-00.202152,-00.509264,+00.269262
+173.512,-033.453,+008.596,+0.545,+0.347,+2.921,-04.7760,-01.3320,-08.3600,-00.156202,-00.880952,+00.364603
+173.869,-034.840,+008.161,+0.586,+0.292,+2.907,-04.7740,-01.3270,-08.6520,-00.243344,-01.333695,+00.452898
+174.252,-036.863,+007.555,+0.656,+0.247,+2.900,-04.9020,-01.1160,-08.2000,-00.387746,-01.965626,+00.557550
+174.772,-039.760,+006.620,+0.758,+0.231,+2.845,-04.8510,-01.2300,-08.1240,-00.635556,-02.786514,+00.767156
+175.701,-043.548,+005.171,+0.893,+0.170,+2.808,-04.9300,-01.0490,-08.7060,-00.712883,-03.430469,+01.058450
+177.388,-047.867,+003.032,+1.027,+0.158,+2.738,-06.1640,-01.9090,-08.8470,-00.903959,-03.815026,+01.452921
-179.607,-052.503,-000.670,+1.176,+0.052,+2.621,-09.0980,-03.9330,-09.5100,-01.417885,-04.098777,+01.952351
-174.757,-057.389,-006.456,+1.343,-0.084,+2.483,-12.1440,-02.5600,-11.7430,-01.564424,-04.608587,+02.178395
-167.510,-061.975,-015.259,+1.449,-0.195,+2.364,-13.7220,-08.3040,-12.2220,-02.733150,-04.407331,+02.613413
-156.292,-065.050,-030.065,+1.551,-0.395,+2.164,-12.9250,-13.5560,-12.6210,-05.295114,-03.838959,+03.210578
-143.762,-065.865,-050.412,+1.583,-0.724,+1.892,-11.7420,-16.9720,-09.1130,-09.312477,-03.381746,+02.338614
-143.259,-067.327,-058.679,+1.592,-0.839,+1.758,-10.5630,-08.0640,-19.9620,-05.538544,+00.493814,-02.372459
-150.956,-069.730,-056.373,+1.624,-0.780,+1.657,-00.0550,-06.0880,-06.6140,-03.913275,+00.836291,-03.124278
-158.749,-071.854,-053.185,+1.643,-0.791,+1.544,-02.9320,-02.4590,-08.7690,-03.413427,+00.869452,-02.606174
-168.365,-072.928,-047.297,+1.652,-0.771,+1.560,-05.2430,-02.6560,-11.6250,-02.562914,+01.719905,-02.170594
-179.943,-072.408,-038.940,+1.643,-0.707,+1.532,-05.4000,-05.4070,-11.1450,-02.338325,+02.757937,-01.711735
+168.665,-070.332,-030.822,+1.606,-0.726,+1.569,-05.0270,-06.1610,-09.3720,-02.302101,+03.585363,-01.532474
+158.374,-067.119,-023.594,+1.555,-0.750,+1.637,-05.7680,-06.6040,-08.0990,-01.875884,+04.183594,-01.692616
+149.312,-063.049,-017.146,+1.518,-0.730,+1.689,-06.7320,-07.8110,-07.0780,-01.372895,+04.628121,-02.007221
+141.654,-058.512,-011.768,+1.466,-0.743,+1.785,-06.7600,-07.8430,-04.9220,-00.998769,+04.571719,-02.243480
+135.455,-054.027,-007.355,+1.443,-0.713,+1.875,-08.2790,-07.2660,-04.6820,-00.401627,+04.226705,-02.341113
+130.309,-049.814,-003.360,+1.444,-0.678,+1.989,-09.0330,-08.1110,-04.3090,+00.126473,+03.683803,-02.468369
+125.512,-045.897,+000.700,+1.370,-0.597,+2.131,-14.4570,-09.3480,-10.1140,+00.637511,+03.529949,-02.943483
+120.581,-041.334,+005.007,+1.263,-0.521,+2.250,-14.0400,-08.9660,-09.1380,+00.823901,+03.898105,-03.489624
+115.877,-036.684,+008.997,+1.170,-0.476,+2.240,-14.0170,-06.6890,-07.7810,+00.969920,+03.429410,-03.729129
+111.502,-032.271,+012.985,+1.221,-0.426,+2.302,-13.8700,-01.0760,-07.5230,+01.682325,+02.977416,-03.850260
+107.687,-028.057,+017.883,+1.310,-0.292,+2.489,-15.6790,-00.0750,-09.5950,+03.064759,+02.745554,-03.631017
+104.991,-023.559,+022.549,+1.255,+0.037,+2.738,-18.6710,-04.5650,-12.2240,+02.812122,+03.181610,-03.191717
+103.490,-018.443,+025.607,+1.033,+0.317,+2.883,-16.6030,-01.5270,-10.0100,+01.887914,+03.750671,-02.790186
+102.928,-013.260,+027.660,+0.810,+0.429,+2.948,-15.4980,+01.6190,-07.0510,+01.569296,+03.840927,-02.234012
+103.092,-008.520,+029.153,+0.554,+0.560,+2.925,-16.4160,+00.9490,-03.0320,+01.130630,+03.565850,-01.610619
+103.678,-004.686,+030.168,+0.340,+0.622,+2.910,-18.9510,+05.2270,+02.0080,+00.974332,+02.876881,-00.978402
+104.365,-002.037,+031.836,+0.210,+0.693,+2.931,-22.0320,+10.6170,+08.6170,+01.802151,+01.864736,-00.517725
+104.681,-001.247,+033.484,+0.150,+0.767,+2.884,-17.8860,+05.6810,+10.6290,+00.845478,-00.031776,+00.209535
+105.508,-004.956,+032.102,+0.266,+0.722,+2.906,+02.0730,+09.3600,+01.2520,-01.199591,-03.041799,+03.147360
+107.493,-009.066,+029.773,+0.354,+0.647,+2.921,-02.3060,-13.8230,-10.4360,-02.512486,-02.120413,+03.811372
+109.299,-014.153,+026.810,+0.512,+0.521,+2.929,-04.9040,-10.5310,-04.4800,-01.426182,-03.594801,+02.385933
+108.764,-018.931,+025.458,+0.693,+0.455,+2.905,-12.3860,+01.8110,-15.5290,-01.819922,-03.859847,+01.757708
+109.263,-022.979,+023.163,+0.796,+0.345,+2.905,-12.1190,+00.8580,-14.3290,-01.833951,-02.642942,+01.796484
+109.611,-025.900,+020.308,+0.912,+0.274,+2.862,-13.7180,-06.8820,-15.6310,-02.820018,-01.886096,+00.937995
+110.098,-027.443,+017.142,+0.967,+0.090,+2.833,-07.3130,+00.1450,-12.1960,-02.053406,-01.019166,+00.655666
+110.374,-028.215,+015.538,+0.967,+0.035,+2.844,-04.7850,-01.6620,-06.8490,-01.010315,-00.522962,+00.301802
+110.502,-028.641,+014.854,+0.995,+0.005,+2.797,-05.3090,-01.9810,-08.5270,-00.349060,-00.268676,+00.164042
+110.582,-028.938,+014.612,+0.990,-0.015,+2.786,-05.1690,-01.7840,-08.1700,-00.104652,-00.216582,+00.094834
+110.611,-029.161,+014.600,+0.999,-0.005,+2.824,-05.1780,-01.8490,-08.0260,+00.037733,-00.168456,+00.061498
+110.631,-029.327,+014.671,+1.013,-0.005,+2.798,-05.1450,-01.5970,-08.1210,+00.082912,-00.127900,+00.034589
+110.575,-029.488,+014.826,+1.013,-0.005,+2.798,-05.1250,-01.7860,-08.0430,+00.128422,-00.160959,-00.024830
+110.474,-029.656,+015.029,+1.018,0.000,+2.798,-05.1140,-02.1370,-07.9290,+00.131477,-00.158544,-00.035984
+110.388,-029.811,+015.216,+1.027,+0.010,+2.777,-04.7670,-02.2350,-07.8450,+00.119798,-00.149715,-00.015626
+110.340,-029.977,+015.339,+1.046,+0.015,+2.810,-05.0370,-02.2190,-07.8410,+00.065277,-00.145101,+00.016386
+110.325,-030.122,+015.396,+1.041,+0.015,+2.815,-05.0740,-02.0590,-07.8160,+00.033129,-00.118093,+00.019556
+110.300,-030.251,+015.442,+1.041,+0.049,+2.793,-05.0810,-02.0720,-07.8340,+00.025438,-00.111875,+00.012619
+110.302,-030.350,+015.446,+1.046,+0.009,+2.794,-05.0570,-02.1980,-07.7660,-00.016931,-00.063431,+00.037954
+110.392,-030.402,+015.323,+1.051,-0.001,+2.794,-05.0320,-02.1520,-07.8740,-00.104843,+00.007132,+00.104674
+110.610,-030.368,+015.013,+1.041,0.000,+2.794,-04.8980,-02.4390,-07.4540,-00.197696,+00.090506,+00.172531
+110.887,-030.314,+014.656,+1.041,-0.020,+2.772,-04.8570,-02.0360,-07.8280,-00.191620,+00.105610,+00.206313
+111.200,-030.258,+014.286,+1.032,-0.040,+2.810,-05.0040,-01.8630,-07.8340,-00.180313,+00.105894,+00.213019
+111.510,-030.209,+013.925,+1.027,-0.025,+2.783,-04.9930,-01.8140,-07.8910,-00.172622,+00.094562,+00.215204
+111.810,-030.168,+013.561,+1.032,-0.020,+2.804,-05.0250,-01.8170,-07.8610,-00.191353,+00.083743,+00.213023
+112.101,-030.116,+013.204,+1.023,-0.030,+2.815,-04.9410,-01.7950,-07.8690,-00.173409,+00.086136,+00.190789
+112.388,-030.082,+012.895,+1.023,-0.060,+2.793,-04.8630,-01.6530,-07.9650,-00.123367,+00.065101,+00.208703
+112.601,-030.154,+012.661,+1.013,-0.075,+2.788,-04.9270,-01.6210,-07.9820,-00.105588,-00.041289,+00.165376
+112.812,-030.280,+012.417,+1.023,-0.089,+2.821,-04.7320,-01.7150,-07.9390,-00.120028,-00.110322,+00.187857
+113.016,-030.517,+012.218,+1.027,-0.085,+2.767,-04.8900,-01.6640,-07.9370,-00.062950,-00.208728,+00.191062
+113.188,-030.843,+012.100,+1.013,-0.109,+2.804,-04.7830,-01.9120,-07.7520,-00.006762,-00.285653,+00.198947
+113.385,-031.262,+012.024,+1.032,-0.095,+2.810,-05.0330,-01.5930,-07.9430,+00.033124,-00.347793,+00.235631
+113.588,-031.805,+011.953,+1.060,-0.095,+2.768,-05.1170,-01.0300,-08.0540,+00.019849,-00.493314,+00.227334
+113.655,-032.519,+011.973,+1.087,-0.105,+2.753,-05.0460,-01.3730,-08.0630,+00.068475,-00.668262,+00.179249
+113.721,-033.516,+011.987,+1.115,-0.115,+2.760,-05.1380,-01.6150,-07.7990,+00.042331,-00.955249,+00.252251
+113.750,-034.881,+012.035,+1.162,-0.111,+2.719,-05.0290,-01.5730,-07.7280,+00.060984,-01.296555,+00.279900
+113.739,-036.751,+012.113,+1.213,-0.117,+2.683,-05.2000,-01.6500,-07.6660,+00.048224,-01.786919,+00.362087
+113.726,-039.325,+012.174,+1.297,-0.103,+2.665,-05.1540,-01.5020,-07.3830,+00.057689,-02.446935,+00.547638
+113.826,-042.676,+012.317,+1.399,-0.099,+2.572,-05.1200,-01.5540,-07.9050,+00.226266,-03.074789,+00.796585
+114.166,-046.727,+012.273,+1.529,-0.136,+2.454,-05.5710,-01.9320,-07.8070,+00.117890,-03.638449,+01.084300
+115.016,-051.607,+011.626,+1.622,-0.197,+2.372,-06.6070,-02.4460,-08.0110,-00.032750,-04.354301,+01.520749
+116.544,-057.530,+010.165,+1.770,-0.239,+2.173,-08.7060,-03.4780,-09.5110,-00.328099,-05.240700,+01.852125
+119.154,-064.562,+007.648,+1.923,-0.306,+1.985,-09.9150,-01.4840,-09.3720,-00.015982,-06.318099,+02.105515
+123.525,-072.846,+003.796,+2.030,-0.397,+1.769,-14.5560,-05.0070,-13.0880,+00.200740,-07.334671,+02.094364
+137.267,-080.760,-010.141,+2.136,-0.494,+1.433,-17.2390,-06.1580,-14.4970,-00.584428,-06.587874,+02.409359
-171.543,-084.801,-061.968,+2.154,-0.605,+1.138,-04.6690,-07.7090,-13.6700,-01.415324,-05.260635,+02.723478
-136.178,-082.206,-100.385,+2.126,-0.714,+0.991,-24.6790,-08.0660,-36.1110,-02.736765,-01.113308,+02.036800
-150.378,-081.292,-087.719,+2.075,-0.719,+0.978,-01.8110,-02.4170,-14.0210,-00.312036,+02.666544,+00.511932
-167.843,-080.279,-070.354,+2.019,-0.767,+1.052,+00.5000,-04.6060,-05.2570,+00.112537,+02.425586,+00.388035
+177.548,-078.613,-056.215,+1.996,-0.732,+1.132,-03.0520,-05.9280,-08.3200,-00.381292,+03.039441,+00.102147
+162.115,-075.945,-041.752,+1.959,-0.711,+1.233,-03.8290,-04.0450,-09.3780,-00.470599,+04.173220,-00.395338
+148.383,-071.994,-028.493,+1.926,-0.681,+1.399,-03.1760,-01.6990,-07.0210,+00.438311,+04.941075,-00.913371
+138.320,-067.134,-017.860,+1.876,-0.615,+1.564,-03.8380,-01.9790,-05.4330,+01.323047,+05.138218,-01.263270
+131.381,-061.769,-009.846,+1.792,-0.489,+1.775,-05.4340,-02.3500,-05.2790,+01.598554,+05.147356,-01.504680
+126.495,-056.424,-003.565,+1.677,-0.373,+1.975,-06.3340,+00.2720,-03.4550,+01.989860,+04.641617,-01.669996
+123.319,-051.619,+001.857,+1.565,-0.252,+2.126,-10.2900,+02.3330,-05.3190,+02.774251,+04.023427,-01.407641
+122.003,-047.021,+006.211,+1.412,-0.141,+2.227,-16.1280,+00.4470,-10.2420,+02.944774,+04.009501,-00.818285
+121.902,-042.207,+009.630,+1.231,-0.039,+2.337,-16.6730,+00.6560,-06.6160,+02.880750,+04.100809,-00.574037
+122.166,-037.920,+012.578,+1.092,+0.007,+2.412,-18.9440,+01.2500,-05.9840,+02.629010,+03.504561,-00.550454
+122.636,-033.916,+015.344,+0.953,+0.073,+2.427,-20.2290,+04.1080,-08.0370,+02.712953,+03.544352,-00.468824
+123.812,-029.942,+018.078,+0.809,+0.169,+2.447,-15.6010,+07.6700,-04.3750,+03.032204,+03.462149,+00.132498
+126.278,-026.777,+020.482,+0.720,+0.214,+2.481,-14.8250,+09.5970,-05.3590,+03.169014,+03.141161,+01.361905
+130.218,-024.470,+022.736,+0.628,+0.300,+2.476,-13.6220,+11.4450,-05.4270,+03.662159,+02.957329,+02.579213
+135.209,-022.955,+025.217,+0.516,+0.385,+2.519,-12.3270,+08.8850,-03.2470,+03.978830,+02.714148,+03.365874
+140.483,-022.382,+027.660,+0.456,+0.505,+2.543,-11.5950,+06.7510,-01.7050,+03.835357,+02.083744,+03.665687
+145.610,-022.811,+029.967,+0.438,+0.639,+2.503,-11.1550,+06.5380,-01.3120,+03.675325,+01.435438,+03.893859
+150.434,-024.429,+032.091,+0.447,+0.728,+2.481,-09.7730,+04.7470,+02.5890,+03.348782,+00.289693,+04.106072
+154.329,-027.185,+033.921,+0.494,+0.802,+2.466,-11.9730,+00.7450,-00.1530,+02.930219,-00.628457,+03.614021
+157.857,-029.518,+031.600,+0.563,+0.786,+2.432,-16.4500,-25.1600,-20.0830,-03.335774,+00.335837,+02.990990
+158.550,-030.194,+026.356,+0.572,+0.598,+2.482,-00.0560,-11.3470,-11.0970,-05.213887,-00.625935,+00.175629
+159.037,-030.562,+021.310,+0.595,+0.469,+2.527,-04.1480,+13.7970,-14.8740,-03.418432,+00.068564,+01.116072
+160.740,-030.784,+017.804,+0.595,+0.350,+2.517,-08.5440,-01.2400,-12.7360,-01.422780,+00.300742,+00.880538
+161.574,-030.553,+016.244,+0.577,+0.305,+2.539,-05.8360,-00.2680,-09.3590,-00.752586,+00.362627,+00.383491
+161.942,-030.394,+015.501,+0.567,+0.276,+2.560,-05.5450,-00.4810,-08.8120,-00.402874,+00.148427,+00.166258
+162.070,-030.309,+015.047,+0.567,+0.271,+2.544,-04.8210,-01.9810,-07.8880,-00.329226,+00.073041,+00.059388
+162.258,-030.244,+014.609,+0.572,+0.246,+2.550,-05.1100,-02.5460,-07.7260,-00.296756,+00.111694,+00.158910
+162.542,-030.144,+014.104,+0.553,+0.231,+2.565,-05.3390,-01.8110,-07.9680,-00.324434,+00.149444,+00.195801
+162.840,-030.028,+013.587,+0.558,+0.236,+2.549,-05.0580,-01.4700,-08.1440,-00.315216,+00.144826,+00.190784
+163.106,-029.913,+013.127,+0.549,+0.227,+2.576,-04.9930,-01.3690,-08.0370,-00.248800,+00.142991,+00.155355
+163.293,-029.804,+012.811,+0.549,+0.217,+2.570,-04.8500,-01.5440,-07.9920,-00.161824,+00.113268,+00.094077
+163.409,-029.729,+012.613,+0.539,+0.202,+2.543,-04.8120,-01.3280,-08.0820,-00.096934,+00.065980,+00.056818
+163.467,-029.690,+012.521,+0.530,+0.192,+2.548,-04.7860,-01.4660,-08.1120,-00.038037,+00.028786,+00.026195
+163.489,-029.677,+012.500,+0.539,+0.177,+2.581,-04.8000,-01.5750,-07.9880,+00.007476,+00.008952,+00.006622
+163.487,-029.681,+012.547,+0.539,+0.192,+2.538,-04.7400,-01.7060,-07.8940,+00.053474,-00.014760,-00.003662
+163.472,-029.709,+012.620,+0.539,+0.197,+2.559,-04.7850,-01.7430,-07.9430,+00.060736,-00.031333,-00.003602
+163.441,-029.762,+012.734,+0.544,+0.197,+2.570,-04.7370,-01.5400,-08.0250,+00.111623,-00.067985,-00.023992
+163.356,-029.841,+012.967,+0.544,+0.222,+2.554,-04.7960,-01.3680,-08.0560,+00.201895,-00.089233,-00.062583
+163.199,-029.929,+013.355,+0.544,+0.217,+2.554,-04.8110,-01.6260,-08.0580,+00.298453,-00.106033,-00.114578
+162.980,-030.009,+013.868,+0.553,+0.261,+2.587,-04.8790,-01.5090,-08.2810,+00.391946,-00.109976,-00.164784
+162.676,-030.076,+014.598,+0.567,+0.276,+2.549,-04.9490,-01.8890,-08.2380,+00.576628,-00.105395,-00.233656
+162.337,-030.103,+015.503,+0.572,+0.276,+2.544,-04.8530,-02.4090,-07.8150,+00.645941,-00.082572,-00.231288
+162.010,-030.105,+016.458,+0.572,+0.301,+2.571,-04.8610,-02.5870,-07.8860,+00.686823,-00.081978,-00.240161
+161.678,-030.096,+017.418,+0.563,+0.365,+2.538,-04.8830,-02.7480,-07.6380,+00.668287,-00.064776,-00.237086
+161.362,-030.095,+018.321,+0.577,+0.375,+2.554,-04.8510,-02.4360,-07.8330,+00.655073,-00.081564,-00.228080
+161.019,-030.112,+019.255,+0.572,+0.385,+2.549,-05.0390,-02.6640,-07.9990,+00.669680,-00.108313,-00.251958
+160.621,-030.131,+020.247,+0.577,+0.424,+2.527,-04.9950,-02.6450,-07.8910,+00.701028,-00.124573,-00.292610
+160.160,-030.122,+021.322,+0.581,+0.484,+2.532,-04.9640,-02.8870,-07.6410,+00.737557,-00.108100,-00.344532
+159.675,-030.094,+022.396,+0.577,+0.484,+2.537,-04.9900,-03.1000,-07.7710,+00.715538,-00.108268,-00.347240
+159.185,-030.019,+023.483,+0.577,+0.514,+2.521,-05.0220,-03.1370,-07.6360,+00.739654,-00.071148,-00.376164
+158.695,-029.893,+024.578,+0.581,+0.533,+2.510,-04.9380,-03.4350,-07.5180,+00.737574,-00.047149,-00.388790
+158.219,-029.736,+025.582,+0.577,+0.558,+2.526,-04.5850,-03.5880,-06.9910,+00.600296,-00.031172,-00.364189
+157.831,-029.655,+026.262,+0.577,+0.613,+2.498,-04.9140,-03.8020,-07.4940,+00.365264,-00.076540,-00.261388
+157.475,-029.509,+026.942,+0.558,+0.618,+2.503,-04.6470,-03.7920,-07.2260,+00.435796,+00.002620,-00.291206
+157.204,-029.427,+027.406,+0.577,+0.603,+2.499,-04.0030,-04.2710,-06.1800,+00.157341,-00.068713,-00.154609
+157.047,-029.469,+027.526,+0.572,+0.627,+2.471,-04.8980,-03.6600,-07.1810,+00.033635,-00.061872,-00.076460
+156.939,-029.504,+027.589,+0.563,+0.618,+2.498,-04.4480,-03.9550,-06.9160,-00.022900,-00.069698,-00.037174
+156.906,-029.625,+027.464,+0.577,+0.647,+2.504,-04.4370,-03.9660,-06.9270,-00.180258,-00.120253,+00.066758
+156.967,-029.761,+027.225,+0.591,+0.632,+2.499,-04.8900,-03.8320,-07.2260,-00.158456,-00.056015,+00.093178
+157.061,-029.898,+026.960,+0.591,+0.607,+2.488,-04.6150,-03.8910,-07.0990,-00.213159,-00.091797,+00.141772
+157.205,-030.095,+026.594,+0.586,+0.593,+2.515,-04.5530,-03.8050,-07.1330,-00.288506,-00.114306,+00.198060
+157.411,-030.363,+026.050,+0.600,+0.583,+2.494,-04.6190,-03.6470,-07.0760,-00.446873,-00.162089,+00.266358
+157.651,-030.724,+025.294,+0.600,+0.548,+2.489,-04.5430,-03.5580,-06.8630,-00.628867,-00.232454,+00.324233
+157.973,-031.201,+024.240,+0.623,+0.523,+2.528,-04.8220,-03.5540,-07.0960,-00.847195,-00.291686,+00.430772
+158.305,-031.716,+023.134,+0.642,+0.493,+2.508,-05.4750,-02.9200,-08.1340,-00.743694,-00.338647,+00.361082
+158.466,-032.189,+022.422,+0.656,+0.453,+2.498,-05.2110,-02.8650,-07.8210,-00.448125,-00.336312,+00.225107
+158.525,-032.650,+022.010,+0.670,+0.473,+2.531,-05.2070,-03.0940,-07.8110,-00.261557,-00.367133,+00.177795
+158.559,-033.117,+021.740,+0.684,+0.463,+2.504,-05.3460,-02.8810,-07.6370,-00.188331,-00.369876,+00.174615
+158.620,-033.617,+021.458,+0.707,+0.428,+2.489,-05.1590,-03.1210,-07.3690,-00.247783,-00.412997,+00.238889
+158.766,-034.214,+021.167,+0.711,+0.408,+2.522,-05.3530,-02.8200,-07.5510,-00.143756,-00.468031,+00.310289
+158.929,-034.918,+020.993,+0.739,+0.428,+2.491,-05.5700,-02.6970,-07.2930,-00.038740,-00.584636,+00.323843
+158.962,-035.798,+021.028,+0.772,+0.402,+2.476,-05.1670,-02.5590,-07.5590,+00.072895,-00.810223,+00.285048
+158.794,-036.964,+021.376,+0.800,+0.397,+2.488,-05.8520,-02.5690,-07.1670,+00.322193,-01.112530,+00.239109
+158.360,-038.491,+022.158,+0.865,+0.421,+2.453,-05.5370,-02.7160,-07.3190,+00.451416,-01.514390,+00.189473
+157.519,-040.543,+023.335,+0.911,+0.455,+2.428,-05.6400,-02.4880,-07.3990,+00.606860,-02.093084,+00.157567
+156.169,-043.231,+025.091,+0.990,+0.464,+2.404,-05.9760,-02.3150,-06.9980,+00.848481,-02.756465,+00.147285
+153.989,-046.531,+027.818,+1.102,+0.507,+2.317,-06.0100,-02.6790,-07.4130,+01.143804,-03.411754,+00.016907
+150.691,-050.345,+031.509,+1.223,+0.560,+2.230,-06.2190,-02.7770,-07.4270,+01.058108,-04.102785,-00.021027
+145.828,-054.676,+037.002,+1.353,+0.573,+2.122,-08.2770,-02.7480,-08.6510,+01.761774,-04.850421,-00.009253
+138.702,-059.192,+045.546,+1.506,+0.640,+1.955,-10.6010,-03.1730,-10.5990,+02.356042,-05.344531,+00.133121
+128.667,-063.072,+057.787,+1.655,+0.712,+1.766,-14.4630,-02.2360,-10.2390,+03.413978,-05.292367,-00.100925
+116.752,-065.318,+073.174,+1.738,+0.785,+1.596,-12.6690,-00.6950,-10.8180,+04.539398,-04.714678,-00.102270
+105.172,-065.883,+090.292,+1.803,+0.912,+1.360,-09.8860,-01.9960,-13.7290,+06.377828,-03.633933,-00.144587
+097.564,-065.918,+105.483,+1.845,+0.980,+1.129,-01.1010,+00.8850,-08.3200,+08.018601,-02.036721,+00.880831
+096.773,-068.385,+110.391,+1.887,+0.984,+1.103,-12.1490,-14.0350,-26.3950,+00.944362,+02.341874,+02.542654
+106.344,-073.034,+100.408,+1.905,+0.881,+1.224,+00.1610,+00.3130,-09.0270,-01.107399,+03.849712,+03.445423
+122.167,-077.488,+083.937,+1.915,+0.723,+1.404,-02.2400,-01.2630,-06.7860,-00.893865,+03.584795,+03.774483
+150.549,-079.943,+055.075,+1.905,+0.644,+1.561,-03.4150,-03.9850,-08.0690,-00.880406,+03.910049,+03.503940
-177.704,-078.580,+022.813,+1.854,+0.502,+1.728,-03.2810,-04.6540,-07.7830,-00.897822,+04.203940,+03.074159
-159.927,-074.379,+004.719,+1.752,+0.345,+1.935,-03.3540,-04.7180,-07.2400,-00.488970,+04.473281,+02.346249
-153.127,-069.132,-001.786,+1.599,+0.303,+2.113,-04.1160,-05.1360,-06.8740,+00.235547,+04.681198,+01.355603
-151.573,-063.719,-002.607,+1.394,+0.311,+2.234,-04.7480,-05.8470,-06.0560,+00.702410,+04.672286,+00.335174
-152.557,-058.570,-000.716,+1.181,+0.358,+2.316,-06.5080,-05.1050,-06.1520,+01.023315,+04.385042,-00.647609
-154.565,-053.686,+002.237,+1.046,+0.369,+2.348,-08.6820,-03.4680,-07.8070,+01.166546,+04.187097,-01.191304
-156.352,-048.944,+005.184,+0.897,+0.415,+2.352,-09.3630,-00.1130,-07.9040,+01.534913,+03.963715,-01.217969
-157.448,-044.375,+008.101,+0.749,+0.501,+2.344,-13.0850,-01.1030,-10.9490,+01.973577,+03.924246,-01.047877
-157.858,-039.657,+010.694,+0.660,+0.542,+2.351,-13.6980,-01.0430,-09.7560,+02.040979,+04.020312,-00.854406
-157.743,-035.146,+013.019,+0.567,+0.612,+2.352,-14.8540,-00.5110,-08.9480,+02.122917,+03.781984,-00.653583
-157.175,-030.866,+015.164,+0.475,+0.688,+2.401,-15.5530,-00.2910,-09.4800,+02.094763,+03.731384,-00.395990
-155.926,-026.600,+016.849,+0.377,+0.748,+2.440,-13.9620,+01.9540,-09.3270,+02.003618,+03.886492,+00.074900
-153.974,-022.555,+018.682,+0.275,+0.843,+2.446,-12.5190,+03.9110,-08.4150,+02.504360,+03.790773,+00.606790
-151.329,-018.925,+020.871,+0.145,+0.959,+2.412,-11.8590,+04.1020,-07.9270,+02.824070,+03.659348,+01.167125
-148.074,-015.914,+023.203,+0.080,+1.078,+2.435,-11.6070,+06.3610,-07.6260,+03.005831,+03.389282,+01.692717
-144.410,-013.383,+026.007,+0.001,+1.183,+2.345,-12.1470,+04.7710,-06.9030,+03.304469,+03.230473,+02.007050
-140.608,-011.307,+028.845,-0.059,+1.347,+2.281,-11.6730,+04.2400,-03.8180,+03.079471,+02.956394,+02.013251
-137.332,-009.982,+031.547,-0.087,+1.391,+2.231,-11.6540,+04.5760,+01.0230,+02.750499,+02.022375,+01.743025
-134.984,-009.586,+033.986,-0.101,+1.505,+2.148,-14.0190,+05.4150,+02.1920,+02.258993,+01.018188,+01.403208
-133.251,-010.563,+034.603,-0.045,+1.539,+2.134,-11.3660,-05.3020,+05.9400,-01.428046,-00.695614,+02.332320
-131.381,-014.059,+029.949,+0.062,+1.439,+2.237,-08.2050,+02.1060,-13.1970,-03.882685,-01.742184,+02.694670
-130.536,-016.629,+026.422,+0.187,+1.374,+2.303,+02.8950,-05.7130,-05.0870,-02.820952,-01.967094,+01.668275
-130.159,-020.093,+024.041,+0.317,+1.264,+2.347,-05.1670,+06.7780,-11.3520,-01.395035,-02.830777,+01.511583
-129.354,-023.650,+022.603,+0.434,+1.268,+2.406,-11.8580,+02.1500,-13.6280,-00.748993,-02.367947,+01.955983
-128.571,-026.361,+020.867,+0.545,+1.178,+2.390,-12.1450,-14.0390,-10.9220,-01.706256,-01.736941,+01.023787
-128.227,-028.118,+018.295,+0.624,+1.112,+2.405,-07.2420,+02.9360,-10.3890,-01.951916,-01.028704,+00.686151
-127.908,-029.363,+016.147,+0.671,+1.028,+2.462,-07.3400,-03.4250,-10.0870,-01.481569,-00.802018,+00.451829
-127.499,-030.039,+014.607,+0.708,+0.998,+2.453,-05.9820,-03.5380,-09.7750,-01.090270,-00.400446,+00.445869
-127.094,-030.404,+013.503,+0.722,+0.943,+2.475,-05.9660,+00.4810,-09.0090,-00.614118,-00.153692,+00.331284
-126.842,-030.580,+012.868,+0.736,+0.958,+2.492,-04.8600,-00.7250,-08.3050,-00.381921,-00.089433,+00.161471
-126.747,-030.690,+012.446,+0.740,+0.923,+2.460,-05.1780,-01.2070,-08.2340,-00.290202,-00.060901,+00.059715
-126.686,-030.774,+012.158,+0.740,+0.903,+2.476,-05.0300,-01.8530,-07.9740,-00.225711,-00.053011,+00.078287
-126.528,-030.842,+011.783,+0.749,+0.908,+2.509,-05.3100,-01.7250,-08.0440,-00.245649,-00.018716,+00.142538
-126.338,-030.865,+011.429,+0.745,+0.893,+2.477,-05.0260,-01.6930,-08.1290,-00.208148,+00.015059,+00.143825
-126.157,-030.887,+011.138,+0.745,+0.879,+2.493,-04.9260,-01.5620,-07.9810,-00.154298,+00.001459,+00.130707
-126.011,-030.912,+010.897,+0.749,+0.854,+2.515,-04.9430,-01.4410,-08.0520,-00.147790,-00.004798,+00.104007
-125.903,-030.945,+010.701,+0.759,+0.893,+2.494,-04.9590,-01.4910,-08.0630,-00.111608,-00.013938,+00.077070
-125.821,-030.973,+010.565,+0.745,+0.849,+2.499,-04.9650,-01.5010,-07.9640,-00.062383,-00.014584,+00.059280
-125.765,-031.003,+010.498,+0.759,+0.849,+2.510,-04.9840,-01.3950,-07.9920,-00.012343,-00.022994,+00.033760
-125.753,-031.036,+010.511,+0.749,+0.859,+2.493,-04.9410,-01.3570,-08.0530,+00.027998,-00.028394,+00.005710
-125.766,-031.078,+010.564,+0.749,+0.854,+2.477,-04.9230,-01.5150,-07.9890,+00.039821,-00.042270,-00.005809
-125.788,-031.127,+010.621,+0.759,+0.849,+2.516,-04.9380,-01.4080,-07.9500,+00.041380,-00.047477,-00.012041
-125.829,-031.181,+010.682,+0.763,+0.873,+2.488,-04.8910,-01.5470,-07.9600,+00.026720,-00.055715,-00.023213
-125.865,-031.229,+010.738,+0.759,+0.859,+2.488,-05.0010,-01.6470,-07.9290,+00.030148,-00.055466,-00.019349
-125.894,-031.265,+010.785,+0.759,+0.884,+2.504,-05.0150,-01.6180,-07.9020,+00.034779,-00.032985,-00.016906
-125.931,-031.285,+010.847,+0.759,+0.918,+2.499,-05.0070,-01.5790,-07.8010,+00.036141,-00.013448,-00.028572
-125.991,-031.325,+010.940,+0.763,+0.864,+2.478,-04.8900,-01.6020,-08.0190,+00.064044,-00.057981,-00.036195
-126.069,-031.384,+011.120,+0.773,+0.854,+2.489,-04.8940,-01.3860,-07.9470,+00.161832,-00.075918,-00.063151
-126.255,-031.513,+011.493,+0.759,+0.893,+2.488,-04.9620,-01.4850,-07.9310,+00.282889,-00.153369,-00.140948
-126.483,-031.654,+011.950,+0.773,+0.888,+2.483,-04.9820,-01.7870,-07.9380,+00.286902,-00.155548,-00.133683
-126.685,-031.783,+012.379,+0.777,+0.908,+2.483,-05.0490,-01.7620,-07.9020,+00.264450,-00.122501,-00.111968
-126.790,-031.880,+012.589,+0.773,+0.923,+2.483,-05.0180,-02.1350,-07.7320,+00.094310,-00.099902,-00.031055
-126.832,-031.987,+012.660,+0.782,+0.913,+2.462,-05.0680,-02.0690,-07.7910,+00.018210,-00.094423,-00.000003
-126.850,-032.089,+012.690,+0.787,+0.898,+2.484,-05.0510,-01.8170,-07.8250,+00.019224,-00.088094,+00.005683
-126.878,-032.210,+012.742,+0.787,+0.923,+2.440,-05.0480,-01.7320,-07.8470,+00.033641,-00.118041,+00.003193
-126.897,-032.351,+012.752,+0.796,+0.913,+2.468,-05.0450,-01.8020,-07.7830,-00.009907,-00.131130,+00.015991
-126.897,-032.516,+012.701,+0.791,+0.908,+2.489,-05.0870,-01.9790,-07.7510,-00.058769,-00.142803,+00.043809
-126.862,-032.695,+012.615,+0.810,+0.927,+2.458,-05.1240,-01.9090,-07.7840,-00.059145,-00.149298,+00.067691
-126.799,-032.897,+012.527,+0.814,+0.903,+2.463,-05.1030,-01.8430,-07.7750,-00.048328,-00.166473,+00.095405
-126.710,-033.127,+012.445,+0.824,+0.937,+2.469,-05.1240,-01.7090,-07.7930,-00.017070,-00.193608,+00.112846
-126.634,-033.396,+012.413,+0.824,+0.907,+2.453,-05.1370,-01.7540,-07.8060,+00.028960,-00.233358,+00.098818
-126.569,-033.709,+012.423,+0.847,+0.932,+2.454,-05.0000,-01.7270,-07.8820,+00.050871,-00.267668,+00.121232
-126.440,-034.066,+012.441,+0.852,+0.902,+2.460,-05.2750,-02.0010,-07.5510,+00.092545,-00.296706,+00.179239
-126.261,-034.435,+012.473,+0.861,+0.907,+2.428,-05.5290,-01.8130,-07.5420,+00.129339,-00.284085,+00.196863
-126.079,-034.792,+012.532,+0.870,+0.902,+2.412,-05.4750,-01.8200,-07.6620,+00.150993,-00.273342,+00.204412
-125.886,-035.165,+012.587,+0.893,+0.907,+2.451,-05.5890,-02.0310,-07.4790,+00.140671,-00.290994,+00.202308
-125.687,-035.562,+012.647,+0.907,+0.921,+2.413,-05.5950,-01.8370,-07.5400,+00.164322,-00.320922,+00.211401
-125.516,-035.990,+012.728,+0.931,+0.926,+2.409,-05.6740,-01.8060,-07.4270,+00.155518,-00.345723,+00.189966
-125.350,-036.451,+012.807,+0.921,+0.911,+2.436,-05.6190,-01.9120,-07.3760,+00.158411,-00.390279,+00.218237
-125.164,-036.982,+012.906,+0.959,+0.926,+2.383,-05.6690,-01.9460,-07.4190,+00.194676,-00.446738,+00.229087
-124.981,-037.653,+013.035,+0.986,+0.925,+2.363,-05.4890,-01.4290,-07.4750,+00.219608,-00.606679,+00.262344
-124.860,-038.562,+013.224,+1.005,+0.940,+2.401,-05.6100,-01.7370,-07.5250,+00.238991,-00.848368,+00.265571
-124.840,-039.755,+013.542,+1.051,+0.954,+2.344,-05.8860,-01.8660,-07.3060,+00.319153,-01.102045,+00.250895
-124.922,-041.253,+014.005,+1.089,+0.929,+2.329,-05.8720,-01.5530,-07.1390,+00.373068,-01.399615,+00.260353
-125.131,-043.113,+014.626,+1.144,+0.938,+2.299,-06.0150,-01.9010,-07.2180,+00.431678,-01.724048,+00.290294
-125.395,-045.349,+015.322,+1.205,+0.982,+2.237,-06.3240,-01.9630,-06.8100,+00.458282,-02.054679,+00.374101
-125.799,-047.966,+016.218,+1.288,+0.961,+2.192,-06.6780,-01.9840,-06.8230,+00.562391,-02.399594,+00.392319
-126.602,-050.929,+017.635,+1.363,+0.950,+2.119,-07.3650,-02.0370,-06.9980,+00.852460,-02.718241,+00.217961
-128.660,-054.037,+020.803,+1.456,+1.023,+2.020,-08.0840,-01.2100,-06.8530,+01.594345,-03.044035,-00.357746
-132.440,-057.149,+026.131,+1.539,+1.086,+1.888,-08.5430,-01.1150,-07.1050,+02.098051,-03.348412,-00.805853
-138.139,-060.013,+033.911,+1.586,+1.140,+1.792,-08.5630,-01.4620,-08.3280,+02.789794,-03.503388,-01.038562
-145.359,-062.434,+043.868,+1.641,+1.272,+1.583,-10.6270,-01.0800,-08.5820,+03.522790,-03.512662,-01.077330
-153.739,-063.851,+056.054,+1.669,+1.360,+1.378,-11.8930,-03.1140,-07.3640,+04.301312,-03.226359,-01.182760
-162.575,-064.436,+069.296,+1.674,+1.443,+1.221,-10.4070,-01.8990,-06.4490,+04.820627,-03.245458,-01.042770
-170.878,-064.191,+083.584,+1.688,+1.531,+0.928,-07.8630,+00.8230,-09.5120,+06.717150,-02.693512,-00.905779
-176.105,-063.621,+096.818,+1.659,+1.579,+0.667,-02.5290,-04.7780,-08.2100,+07.447395,-01.562326,-00.165146
-177.342,-065.255,+102.743,+1.682,+1.524,+0.550,-16.1120,-15.1880,-27.6120,+01.970881,+01.428055,+01.876276
-170.558,-068.230,+096.806,+1.748,+1.494,+0.612,-00.6530,-01.5870,-12.4440,-00.097104,+03.030036,+02.278197
-160.705,-071.179,+087.770,+1.794,+1.400,+0.728,-02.0570,-00.0840,-11.1090,+00.397613,+03.163657,+02.554417
-145.689,-073.614,+074.081,+1.831,+1.301,+0.834,-03.3930,-01.5660,-11.9910,+00.590579,+03.844649,+02.794482
-124.079,-074.421,+053.916,+1.864,+1.212,+0.955,-03.4040,-02.2430,-11.6780,+00.501909,+04.604259,+02.906774
-102.087,-072.446,+033.544,+1.850,+1.119,+1.133,-03.9370,-02.6660,-10.3970,+00.745989,+05.167838,+02.621714
-086.986,-068.158,+020.262,+1.808,+1.031,+1.251,-03.9810,-03.9670,-09.4690,+00.894604,+05.359174,+02.014956
-078.835,-062.647,+014.023,+1.762,+1.032,+1.363,-05.6360,-03.4490,-10.5490,+01.157556,+05.520591,+01.026486
-075.130,-056.563,+012.503,+1.725,+1.008,+1.448,-05.9720,-02.2720,-09.8060,+01.652071,+05.510597,+00.034207
-073.573,-050.398,+013.310,+1.711,+1.078,+1.582,-08.1510,-00.1810,-09.8270,+01.874044,+05.347137,-00.629133
-072.697,-044.643,+015.139,+1.660,+1.168,+1.720,-08.1510,+03.1190,-09.1050,+02.335340,+04.719190,-00.702453
-071.608,-039.409,+017.303,+1.549,+1.289,+1.892,-15.9270,+00.1480,-17.0360,+02.558743,+04.753091,-00.587368
-070.207,-033.673,+019.304,+1.414,+1.370,+1.983,-13.6410,+00.8260,-12.0040,+02.446198,+05.050097,-00.646693
-068.761,-028.261,+021.223,+1.243,+1.511,+2.040,-16.4340,-01.7620,-11.6310,+02.207892,+04.721568,-00.630778
-067.515,-022.843,+022.916,+1.057,+1.602,+2.058,-17.9360,-04.4300,-10.7720,+01.765899,+04.774857,-01.072922
-066.816,-017.260,+024.278,+0.899,+1.634,+2.126,-16.4560,-03.3030,-07.6750,+01.208694,+04.584907,-01.600773
-066.500,-011.944,+025.469,+0.704,+1.705,+2.128,-16.3830,+00.3500,-05.7480,+01.125828,+04.162837,-01.721622
-066.201,-007.126,+026.829,+0.504,+1.772,+2.135,-16.7310,+02.0260,-02.8250,+01.263148,+03.697943,-01.530098
-065.865,-003.186,+028.105,+0.374,+1.808,+2.135,-17.3860,+03.1530,+02.1150,+01.060385,+02.809130,-01.200701
-065.635,-000.582,+029.319,+0.253,+1.843,+2.080,-19.6500,+06.8600,+06.8250,+01.115854,+01.653817,-00.701626
-065.361,+000.330,+030.491,+0.202,+1.878,+2.040,-18.7440,+05.4130,+08.9940,+00.812510,+00.255080,+00.156731
-065.046,-000.793,+030.374,+0.230,+1.863,+2.074,-16.2730,+01.0320,+04.0930,-00.719404,-01.193080,+01.032408
-063.814,-002.299,+030.057,+0.299,+1.868,+2.055,+05.1270,-09.3700,-14.2320,+00.341572,-00.643252,+01.325319
-062.131,-006.143,+028.693,+0.444,+1.827,+2.116,+02.8480,-02.5330,+00.7550,-01.874980,-02.877780,+03.729630
-060.908,-010.568,+027.410,+0.592,+1.820,+2.133,-06.5270,-09.4860,-07.6120,-00.613600,-02.945262,+02.076514
-060.496,-015.027,+026.340,+0.760,+1.779,+2.098,-04.9450,-02.7270,-08.6590,-00.919420,-03.524886,+02.042089
-060.147,-019.482,+025.424,+0.922,+1.723,+2.056,-11.6650,-02.9480,-12.9540,-00.647691,-03.144681,+01.894191
-060.045,-023.074,+024.267,+1.029,+1.677,+2.083,-11.6210,-09.0790,-11.4310,-01.283811,-02.634409,+01.039254
-060.094,-025.765,+022.411,+1.127,+1.636,+2.055,-10.1700,-07.4530,-14.4190,-02.304867,-01.817069,+00.922254
-059.985,-027.560,+020.218,+1.178,+1.557,+2.096,-05.0800,-02.6160,-09.6090,-01.883472,-01.377514,+00.624007
-059.672,-028.808,+018.198,+1.219,+1.492,+2.131,-07.6690,-03.7320,-09.2710,-01.540604,-00.735329,+00.536023
-059.301,-029.525,+016.570,+1.243,+1.472,+2.126,-07.6230,-00.5220,-10.8950,-00.962447,-00.377988,+00.387064
-059.060,-029.877,+015.711,+1.257,+1.452,+2.160,-05.5570,-01.8990,-08.5150,-00.517404,-00.183227,+00.194929
-058.937,-030.049,+015.307,+1.252,+1.452,+2.159,-05.1860,-02.2960,-08.1090,-00.196456,-00.108113,+00.091218
-058.934,-030.194,+015.203,+1.266,+1.422,+2.139,-05.2290,-02.1270,-08.1100,-00.036218,-00.133787,+00.000207
-059.016,-030.315,+015.256,+1.266,+1.437,+2.149,-05.3750,-02.3110,-07.8260,+00.037301,-00.100410,-00.050128
-059.110,-030.400,+015.374,+1.266,+1.412,+2.150,-04.9600,-02.3770,-07.7890,+00.073934,-00.099401,-00.040191
-059.206,-030.512,+015.541,+1.280,+1.457,+2.134,-04.9270,-02.2740,-07.8550,+00.118956,-00.120064,-00.052476
-059.337,-030.630,+015.757,+1.266,+1.442,+2.117,-05.0040,-02.3720,-07.8160,+00.128196,-00.127920,-00.070423
-059.478,-030.769,+015.974,+1.271,+1.452,+2.144,-04.9880,-02.5000,-07.7820,+00.122041,-00.154202,-00.064401
-059.608,-030.935,+016.174,+1.284,+1.451,+2.096,-04.9110,-02.5390,-07.6740,+00.110798,-00.172448,-00.045739
-059.701,-031.129,+016.328,+1.284,+1.461,+2.091,-04.9500,-02.5540,-07.6510,+00.084092,-00.185335,-00.001180
-059.757,-031.344,+016.445,+1.280,+1.437,+2.118,-04.9580,-02.4740,-07.5690,+00.073063,-00.197531,+00.017427
-059.817,-031.588,+016.566,+1.294,+1.461,+2.064,-04.9960,-02.4750,-07.6260,+00.083714,-00.231848,+00.016780
-059.888,-031.879,+016.705,+1.303,+1.456,+2.108,-05.0240,-02.5960,-07.5780,+00.085014,-00.272086,+00.032050
-059.948,-032.195,+016.841,+1.308,+1.441,+2.097,-05.2850,-02.4580,-07.7120,+00.101165,-00.278369,+00.036432
-060.023,-032.518,+017.015,+1.322,+1.471,+2.043,-05.1930,-02.6370,-07.5660,+00.113411,-00.286031,+00.034461
-060.098,-032.854,+017.200,+1.326,+1.456,+2.049,-05.3750,-02.4250,-07.5530,+00.130930,-00.294377,+00.027635
-060.178,-033.168,+017.372,+1.340,+1.456,+2.071,-05.5900,-02.4660,-07.3910,+00.106340,-00.262659,+00.016024
-060.228,-033.429,+017.486,+1.345,+1.470,+2.039,-05.2620,-02.7260,-07.2870,+00.050961,-00.215323,+00.050410
-060.180,-033.676,+017.452,+1.345,+1.470,+2.039,-05.1690,-02.7780,-07.3570,-00.042535,-00.180176,+00.134742
-059.961,-033.889,+017.224,+1.349,+1.446,+2.072,-05.3390,-02.6840,-07.2600,-00.122109,-00.088425,+00.254622
-059.542,-034.011,+016.809,+1.354,+1.440,+2.023,-05.3060,-02.7650,-07.3640,-00.167140,+00.027488,+00.360985
-058.957,-034.075,+016.269,+1.377,+1.430,+2.046,-05.3110,-02.5550,-07.4420,-00.204207,+00.093944,+00.455943
-058.233,-034.117,+015.582,+1.368,+1.391,+2.062,-05.3170,-02.4410,-07.5280,-00.259991,+00.123481,+00.542872
-057.370,-034.170,+014.737,+1.396,+1.401,+2.058,-05.5140,-02.4870,-07.4880,-00.329552,+00.113264,+00.647503
-056.554,-034.290,+013.932,+1.405,+1.386,+2.069,-05.6270,-01.9190,-07.5270,-00.286415,+00.005497,+00.559117
-055.935,-034.517,+013.292,+1.424,+1.326,+2.076,-05.4360,-01.6700,-07.7110,-00.235075,-00.149548,+00.431327
-055.524,-034.931,+012.858,+1.447,+1.341,+2.055,-05.2740,-01.8050,-07.6810,-00.122582,-00.374104,+00.340281
-055.251,-035.625,+012.598,+1.456,+1.336,+2.061,-05.4940,-01.5780,-07.7160,-00.067398,-00.658023,+00.306469
-055.107,-036.685,+012.463,+1.484,+1.320,+2.046,-05.5070,-01.7070,-07.5680,-00.018020,-01.026680,+00.300524
-055.106,-038.174,+012.484,+1.535,+1.300,+1.978,-05.6310,-01.7560,-07.5770,+00.043971,-01.442044,+00.313659
-055.153,-040.217,+012.598,+1.577,+1.319,+1.947,-05.8420,-01.6650,-07.1960,+00.105422,-01.899793,+00.396348
-055.056,-042.825,+012.620,+1.637,+1.298,+1.907,-05.8670,-01.4950,-07.2590,+00.109641,-02.387018,+00.617827
-054.815,-046.028,+012.645,+1.725,+1.267,+1.797,-05.7880,-01.8340,-07.5420,+00.157882,-02.867468,+00.846973
-054.336,-049.812,+012.405,+1.814,+1.241,+1.693,-06.1630,-01.4220,-07.3510,+00.022742,-03.364480,+01.085344
-053.482,-054.346,+011.710,+1.888,+1.215,+1.605,-07.0050,-02.3090,-07.2790,-00.036307,-04.047020,+01.389061
-052.230,-059.728,+010.551,+2.008,+1.148,+1.416,-09.2250,-03.5360,-08.0180,-00.088084,-04.747651,+01.536594
-050.186,-065.977,+008.693,+2.096,+1.037,+1.182,-09.8650,-02.2240,-09.0770,+00.050295,-05.537016,+01.808247
-046.019,-073.098,+004.643,+2.166,+0.961,+1.018,-12.7320,-03.1920,-09.2530,-00.195046,-06.242622,+02.051940
-035.055,-080.327,-006.404,+2.225,+0.865,+0.708,-11.0000,-01.4410,-08.1310,-00.398020,-06.369170,+02.129563
+011.012,-085.809,-052.218,+2.234,+0.765,+0.471,-14.2280,-05.3680,-10.5420,+00.418186,-05.959689,+01.845967
+077.824,-083.612,-118.139,+2.211,+0.665,+0.276,-03.2550,+01.3380,-16.1020,+00.556944,-03.903627,+02.293194
+073.720,-081.713,-113.933,+2.224,+0.610,+0.239,-13.2170,-06.8460,-27.7230,+00.253059,+01.839243,+01.177937
+050.834,-081.146,-091.234,+2.243,+0.496,+0.392,+01.2160,-04.4720,-07.4920,-00.105182,+02.736486,+01.075678
+034.339,-079.724,-075.239,+2.252,+0.462,+0.534,-02.0700,-04.7530,-07.6020,-00.303858,+02.511911,+00.775123
+017.927,-078.046,-059.598,+2.239,+0.458,+0.728,-06.2100,-06.6420,-11.7480,-00.499309,+03.607539,-00.042008
-000.655,-075.285,-042.382,+2.165,+0.485,+0.979,-03.0830,-06.1730,-07.8620,-00.914641,+04.703927,-00.733037
-015.366,-071.564,-029.254,+2.021,+0.522,+1.188,-02.6010,-03.8050,-05.2570,-00.708613,+04.728597,-01.289254
-026.811,-067.347,-018.834,+1.859,+0.614,+1.310,-04.5380,-03.7440,-04.5700,-00.023664,+04.790409,-01.941184
-036.138,-062.910,-010.213,+1.691,+0.700,+1.362,-06.0920,-04.5350,-03.9140,+00.157949,+04.424605,-02.591798
-044.091,-058.413,-003.189,+1.613,+0.815,+1.406,-09.4300,-04.0710,-06.4320,+00.039881,+04.269596,-03.072624
-050.585,-053.642,+002.126,+1.515,+0.896,+1.445,-09.6930,-04.4570,-05.6850,-00.144016,+04.069882,-03.125947
-055.744,-049.088,+005.862,+1.404,+0.961,+1.510,-11.4030,-04.6440,-05.4340,-00.314500,+03.559997,-03.057029
-060.040,-044.781,+008.608,+1.302,+0.997,+1.559,-16.7520,-06.6070,-09.7490,-00.333153,+03.428060,-03.011257
-063.808,-040.273,+010.867,+1.227,+1.053,+1.572,-16.4590,-06.7660,-06.2450,-00.171317,+03.376870,-03.076775
-067.471,-036.040,+012.888,+1.181,+1.093,+1.623,-18.0120,-10.6060,-04.9970,-00.342768,+02.960896,-03.359355
-071.516,-031.991,+014.306,+1.139,+1.173,+1.735,-17.2240,-10.5170,-03.8970,-00.934243,+02.607213,-03.877051
-075.970,-028.166,+015.408,+1.019,+1.264,+1.858,-13.8400,-06.1980,-01.0230,-00.900184,+02.151347,-04.182360
-080.390,-025.504,+016.975,+0.912,+1.375,+1.923,-07.5130,-00.5330,+06.1970,+00.063585,+00.548715,-03.715276
-084.328,-025.281,+019.336,+0.852,+1.420,+1.931,-11.0740,-03.4840,+02.0470,+00.778267,-01.382549,-02.581163
-087.547,-026.066,+021.508,+0.819,+1.524,+1.875,-14.8810,-05.7560,-05.0180,+00.574094,-01.438720,-01.973075
-090.235,-026.513,+023.125,+0.768,+1.564,+1.840,-13.2860,-04.5240,-04.5960,+00.246479,-01.016031,-01.689630
-092.426,-026.775,+024.183,+0.740,+1.575,+1.833,-11.5580,-03.0020,-03.0990,-00.013137,-00.833511,-01.344037
-094.199,-026.982,+024.931,+0.722,+1.609,+1.773,-11.1850,-02.6640,-02.1390,-00.037318,-00.680433,-01.093840
-095.778,-027.097,+025.672,+0.694,+1.609,+1.761,-10.8330,-03.8230,-00.2290,+00.052026,-00.601087,-01.115821
-097.715,-027.127,+026.607,+0.680,+1.614,+1.744,-10.4170,-04.8910,+01.4770,-00.032515,-00.760950,-01.455447
-100.051,-027.325,+027.141,+0.657,+1.619,+1.694,-09.9620,-04.0740,+01.9620,-00.802333,-01.117792,-01.552564
-102.550,-027.994,+026.828,+0.643,+1.590,+1.683,-08.5620,-00.5160,+03.6840,-01.497984,-01.625464,-01.350073
-105.064,-029.753,+026.458,+0.643,+1.575,+1.704,-08.3010,+03.1670,+05.9490,-01.201533,-02.635288,-00.832392
-107.468,-032.789,+026.338,+0.689,+1.579,+1.679,-11.7680,+00.8540,+03.4260,-01.320526,-03.403980,-00.193547
-107.764,-035.945,+019.965,+0.763,+1.420,+1.760,-38.5650,-16.7110,-16.6630,-10.796010,-01.469879,+02.347325
-106.783,-035.291,+013.402,+0.759,+1.292,+1.885,-35.6290,+46.1550,-39.0020,-01.097098,+03.058296,+00.285803
-105.351,-031.983,+012.238,+0.680,+1.298,+1.919,+11.5310,-15.5380,-01.5800,-00.387132,+01.628512,+00.357694
-104.198,-031.357,+010.960,+0.666,+1.249,+1.946,-06.7400,-05.4050,-04.5860,-00.529864,+00.321794,+00.544908
-103.623,-031.020,+010.335,+0.675,+1.288,+1.962,-04.9940,-01.9900,-07.6500,-00.214036,+00.231001,+00.323558
-103.262,-031.105,+009.988,+0.684,+1.278,+1.963,-04.6920,-00.2870,-07.9080,-00.090310,-00.178006,+00.235941
-103.141,-031.326,+009.934,+0.680,+1.234,+1.941,-05.1400,-01.3450,-07.8650,+00.047115,-00.142981,+00.080379
-103.112,-031.458,+009.970,+0.689,+1.238,+1.958,-05.0510,-01.6270,-07.6780,+00.031835,-00.094885,+00.026743
-103.049,-031.523,+009.937,+0.694,+1.248,+1.953,-05.0520,-01.8130,-07.8520,-00.015582,-00.016404,+00.073834
-102.956,-031.491,+009.881,+0.703,+1.253,+1.942,-05.3200,-01.3230,-07.9350,+00.004581,+00.074954,+00.044948
-102.908,-031.348,+009.864,+0.698,+1.238,+1.942,-05.0740,-01.2750,-07.9450,+00.013476,+00.138982,-00.003944
-102.928,-031.233,+009.926,+0.684,+1.253,+1.936,-04.9020,-01.3840,-08.0640,+00.067311,+00.056190,-00.047731
-102.996,-031.215,+010.049,+0.684,+1.238,+1.931,-04.9920,-01.6640,-07.9880,+00.071361,-00.005212,-00.048669
-103.029,-031.217,+010.130,+0.694,+1.253,+1.958,-04.9720,-01.7760,-07.9570,+00.045767,-00.008158,-00.004321
-103.011,-031.238,+010.149,+0.689,+1.258,+1.947,-05.0980,-01.5270,-07.9840,+00.016421,-00.018478,+00.021271
-102.980,-031.254,+010.130,+0.693,+1.258,+1.936,-05.0270,-01.6450,-07.9570,-00.014684,-00.010541,+00.027552
-102.916,-031.276,+010.035,+0.684,+1.248,+1.963,-04.9790,-01.7040,-07.9000,-00.076626,-00.003067,+00.066181
-102.808,-031.281,+009.881,+0.689,+1.253,+1.941,-05.0670,-01.5950,-07.9630,-00.085482,+00.018079,+00.083269
-102.695,-031.240,+009.721,+0.698,+1.253,+1.947,-05.1320,-01.3390,-07.9990,-00.087067,+00.070748,+00.066655
-102.605,-031.154,+009.583,+0.698,+1.253,+1.985,-04.9580,-01.5140,-07.9020,-00.075840,+00.084766,+00.051100
-102.520,-031.076,+009.458,+0.703,+1.288,+1.958,-04.9510,-01.4220,-07.9700,-00.068058,+00.072563,+00.051193
-102.468,-030.999,+009.370,+0.693,+1.234,+1.969,-04.9370,-01.2600,-07.9860,-00.040247,+00.072093,+00.013503
-102.451,-030.920,+009.331,+0.689,+1.234,+1.974,-04.9390,-01.3960,-07.9910,-00.020765,+00.067876,-00.003883
-102.445,-030.831,+009.308,+0.689,+1.243,+1.958,-04.9040,-01.4400,-07.9890,-00.011129,+00.080591,-00.011480
-102.438,-030.728,+009.289,+0.670,+1.234,+1.957,-04.9260,-01.3610,-08.0020,-00.008928,+00.089913,-00.013954
-102.442,-030.622,+009.288,+0.684,+1.249,+1.985,-04.9160,-01.2810,-07.9850,-00.000933,+00.092984,-00.020959
-102.464,-030.519,+009.308,+0.680,+1.259,+1.984,-04.8320,-01.5040,-08.0180,+00.005829,+00.079236,-00.028282
-102.479,-030.435,+009.308,+0.666,+1.224,+1.957,-04.7950,-01.4610,-08.0410,-00.017759,+00.063090,-00.021593
-102.475,-030.366,+009.281,+0.666,+1.219,+1.979,-04.7870,-01.5080,-08.0090,-00.019957,+00.053096,+00.001800
-102.442,-030.299,+009.228,+0.675,+1.229,+1.963,-04.7550,-01.4860,-08.0680,-00.040364,+00.065381,+00.023929
-102.390,-030.233,+009.130,+0.675,+1.224,+1.974,-04.7750,-01.4390,-08.0920,-00.075446,+00.059535,+00.033962
-102.322,-030.205,+009.010,+0.666,+1.229,+1.968,-04.6880,-01.3000,-08.0250,-00.068429,+00.013702,+00.054325
-102.235,-030.240,+008.873,+0.670,+1.249,+1.989,-04.7410,-01.5580,-08.0830,-00.105300,-00.038891,+00.091097
-102.106,-030.312,+008.671,+0.680,+1.244,+1.984,-04.7220,-01.3530,-07.9420,-00.118550,-00.050704,+00.113209
-101.970,-030.412,+008.496,+0.680,+1.214,+2.001,-04.7920,-01.2460,-08.0590,-00.078456,-00.083986,+00.113620
-101.837,-030.572,+008.375,+0.670,+1.234,+1.968,-04.6840,-01.3870,-08.0550,-00.035643,-00.142884,+00.126939
-101.681,-030.802,+008.254,+0.693,+1.219,+1.974,-04.7420,-01.2390,-08.1490,-00.042092,-00.191383,+00.142534
-101.542,-031.135,+008.094,+0.698,+1.209,+1.985,-04.6710,-01.4290,-07.9740,-00.093770,-00.330509,+00.123095
-101.432,-031.654,+007.975,+0.721,+1.208,+1.970,-04.4560,-01.6590,-08.1990,-00.040965,-00.520420,+00.165427
-101.309,-032.457,+007.909,+0.745,+1.238,+1.966,-04.5830,-01.3040,-08.3540,+00.023838,-00.800093,+00.202338
-101.240,-033.629,+007.929,+0.763,+1.188,+1.961,-04.8800,-00.9940,-08.4250,+00.056108,-01.137280,+00.171710
-101.271,-035.265,+007.939,+0.805,+1.222,+1.931,-04.8990,-01.3060,-08.2190,-00.050479,-01.607860,+00.198682
-101.220,-037.600,+007.786,+0.875,+1.172,+1.902,-04.8680,-01.5030,-07.8880,-00.144153,-02.280171,+00.389270
-100.894,-040.804,+007.322,+0.944,+1.166,+1.861,-05.0550,-01.7110,-08.4800,-00.245766,-02.990756,+00.721139
-099.919,-044.611,+006.333,+1.051,+1.175,+1.817,-05.7110,-02.5080,-08.2530,-00.358130,-03.318650,+01.205097
-097.896,-048.703,+004.158,+1.144,+1.099,+1.762,-07.2640,-02.8850,-08.8850,-00.788048,-03.519012,+01.741309
-094.623,-053.139,+000.341,+1.255,+1.048,+1.724,-09.2830,-02.9610,-09.0040,-01.356282,-03.939654,+01.990112
-090.186,-057.526,-005.186,+1.385,+0.947,+1.633,-09.6230,-04.6830,-08.8250,-01.787312,-03.901943,+02.190603
-083.374,-061.369,-013.316,+1.487,+0.812,+1.531,-11.8400,-05.2820,-10.1450,-02.178331,-03.686470,+02.612575
-073.375,-063.981,-025.930,+1.580,+0.662,+1.476,-10.9700,-11.1480,-10.1850,-04.268146,-03.251012,+03.214334
-061.397,-064.618,-044.510,+1.649,+0.453,+1.421,-04.9270,-12.6640,-05.0110,-08.504764,-03.091833,+03.221781
-058.088,-065.190,-054.824,+1.677,+0.279,+1.370,-09.9000,-03.6980,-17.3700,-04.781235,+00.066924,-01.025339
-063.081,-066.966,-053.413,+1.649,+0.274,+1.401,-01.1310,-06.2450,-05.8910,-02.179584,+00.410238,-02.657550
-068.800,-069.108,-050.752,+1.630,+0.279,+1.341,-04.9940,-05.5800,-08.7980,-02.469943,+00.449694,-02.537867
-076.598,-070.447,-046.233,+1.607,+0.245,+1.324,-06.3350,-02.3870,-11.6590,-02.302309,+01.355053,-02.380542
-087.084,-070.471,-038.460,+1.621,+0.215,+1.384,-05.3880,-01.6890,-10.7940,-01.589863,+02.432928,-02.162157
-097.572,-068.995,-030.070,+1.677,+0.160,+1.425,-04.3600,-02.0670,-09.0240,-01.104794,+03.037332,-01.722363
-106.267,-066.270,-023.014,+1.751,+0.105,+1.553,-05.4070,-03.4650,-09.2050,-00.734175,+03.665996,-01.430198
-113.457,-062.496,-017.147,+1.779,+0.091,+1.781,-05.2650,-04.6650,-07.7490,-00.436318,+04.170606,-01.435259
-119.382,-058.271,-012.278,+1.724,+0.193,+2.092,-06.0930,-05.2750,-06.6190,-00.140276,+04.209048,-01.612209
-124.512,-053.981,-007.902,+1.515,+0.281,+2.401,-07.2040,-05.5770,-06.3550,+00.252266,+04.043471,-01.930889
-129.279,-049.803,-003.620,+1.274,+0.373,+2.563,-08.8060,-06.2010,-07.0980,+00.558178,+03.802599,-02.339973
-133.932,-045.691,+000.600,+0.972,+0.460,+2.598,-09.6680,-06.8320,-06.6010,+00.732202,+03.537381,-02.826371
-138.703,-041.771,+004.677,+0.754,+0.497,+2.621,-10.9000,-07.9960,-06.9410,+00.599234,+03.118099,-03.363627
-143.635,-038.000,+008.320,+0.619,+0.524,+2.642,-12.8160,-07.7280,-08.3460,+00.347696,+02.782000,-03.828487
-148.805,-034.121,+011.824,+0.452,+0.570,+2.639,-13.7400,-06.7250,-08.1040,+00.463040,+02.626112,-04.411727
-154.353,-030.120,+015.309,+0.266,+0.621,+2.663,-14.7650,-08.1960,-07.3450,+00.392328,+02.319300,-05.044024
-160.338,-025.898,+018.222,+0.136,+0.638,+2.636,-14.7010,-08.1090,-05.7870,-00.094629,+02.095856,-05.746849
-166.814,-021.622,+020.612,+0.005,+0.644,+2.598,-14.6620,-05.3690,-04.4560,-00.176753,+01.605309,-06.293907
-173.385,-017.559,+022.487,-0.125,+0.585,+2.603,-16.7800,-06.3860,-03.7580,-00.476802,+01.160505,-06.244421
-179.340,-013.942,+022.896,-0.204,+0.527,+2.616,-17.9880,-04.8750,-01.3950,-01.382466,+00.860875,-05.522245
+175.793,-011.058,+022.111,-0.283,+0.433,+2.619,-18.5810,-01.5230,+01.1710,-01.626607,+00.659653,-04.303719
+172.364,-009.054,+021.375,-0.325,+0.345,+2.618,-19.2230,+00.9660,+03.3750,-00.746704,+00.461197,-02.842129
+170.234,-007.850,+021.777,-0.344,+0.315,+2.628,-18.2870,+01.3690,+05.8260,+00.533144,+00.167644,-01.705354
+168.682,-008.200,+023.042,-0.325,+0.359,+2.596,-12.8960,+00.4990,+19.4460,+00.952460,-01.929761,-00.740409
+167.215,-011.702,+024.354,-0.200,+0.378,+2.639,-06.0880,-06.7580,-12.6630,+00.724027,-03.265627,+00.526510
+167.066,-015.103,+024.336,-0.107,+0.358,+2.687,-01.2070,+00.7990,-05.5470,-00.105722,-03.008260,+01.300469
+166.815,-019.749,+024.378,+0.070,+0.371,+2.678,-08.7470,-02.4530,-12.0520,-00.155465,-03.813513,+01.673895
+167.266,-024.191,+023.277,+0.223,+0.295,+2.669,-12.9550,-02.9110,-13.6640,-01.405179,-03.160282,+02.110697
+168.617,-027.094,+019.522,+0.298,+0.175,+2.684,-17.8570,-11.0960,-14.4460,-02.694717,-00.996579,+01.369797
+169.561,-028.341,+016.586,+0.330,+0.095,+2.681,-08.6340,+01.8610,-14.0550,-01.500198,-00.450131,+00.699439
+169.970,-028.976,+015.199,+0.353,+0.026,+2.666,-06.8810,-00.1260,-09.7190,-00.704579,-00.377945,+00.294179
+170.050,-029.300,+014.721,+0.362,+0.011,+2.683,-05.1170,-02.8290,-07.9820,-00.253019,-00.226834,+00.087333
+170.063,-029.555,+014.566,+0.367,+0.011,+2.661,-05.0570,-02.2320,-07.9960,-00.074251,-00.212311,+00.048702
+170.066,-029.744,+014.539,+0.395,+0.000,+2.668,-04.8000,-02.3040,-07.8680,+00.013708,-00.131970,+00.042224
+170.109,-029.851,+014.508,+0.376,-0.009,+2.694,-04.7810,-02.1320,-07.9150,-00.021350,-00.070305,+00.062681
+170.157,-029.923,+014.472,+0.381,+0.001,+2.657,-05.1560,-01.8970,-08.0050,+00.001741,-00.025512,+00.035472
+170.181,-029.940,+014.464,+0.376,+0.035,+2.678,-04.9340,-02.0520,-07.9370,+00.005542,-00.009942,+00.015950
+170.193,-029.942,+014.460,+0.381,+0.026,+2.689,-04.8300,-01.9480,-08.0180,-00.000839,+00.007529,+00.005226
+170.203,-029.920,+014.457,+0.386,+0.015,+2.662,-04.8170,-01.9540,-08.0090,+00.003207,+00.028518,+00.003508
+170.222,-029.902,+014.456,+0.376,+0.016,+2.678,-04.8710,-01.9780,-07.9500,+00.013480,+00.007685,+00.012361
+170.240,-029.905,+014.471,+0.372,+0.026,+2.694,-04.8320,-01.9710,-07.9520,+00.022854,-00.005498,+00.016863
+170.259,-029.929,+014.495,+0.372,+0.006,+2.667,-04.8050,-01.9860,-07.9740,+00.032821,-00.022508,+00.021192
+170.292,-029.967,+014.503,+0.390,+0.005,+2.662,-04.8290,-02.0980,-07.9520,+00.007685,-00.024075,+00.039514
+170.357,-029.999,+014.444,+0.372,-0.014,+2.683,-04.8730,-02.0660,-07.9130,-00.039905,-00.009961,+00.064350
+170.457,-030.010,+014.312,+0.386,+0.006,+2.662,-04.8750,-02.0760,-07.9740,-00.092974,+00.023788,+00.083763
+170.610,-029.984,+014.074,+0.376,-0.009,+2.646,-04.7880,-02.0900,-07.9300,-00.174628,+00.067384,+00.123464
+170.834,-029.907,+013.704,+0.372,-0.014,+2.689,-04.9060,-02.0580,-07.9360,-00.253452,+00.128261,+00.163052
+171.100,-029.780,+013.257,+0.376,-0.009,+2.656,-04.9050,-01.9170,-07.8990,-00.278450,+00.158852,+00.170257
+171.357,-029.638,+012.828,+0.367,-0.064,+2.656,-04.8680,-01.7300,-07.9680,-00.248468,+00.161438,+00.152236
+171.578,-029.501,+012.464,+0.353,-0.059,+2.688,-04.8070,-01.6470,-08.0290,-00.215689,+00.154683,+00.129803
+171.770,-029.368,+012.138,+0.348,-0.049,+2.650,-04.7830,-01.5750,-08.1000,-00.190635,+00.131174,+00.112301
+171.925,-029.272,+011.869,+0.334,-0.068,+2.660,-04.7070,-01.6380,-08.0770,-00.158679,+00.092328,+00.093729
+172.059,-029.209,+011.639,+0.348,-0.073,+2.683,-04.7230,-01.6040,-08.0550,-00.136975,+00.065880,+00.083624
+172.172,-029.163,+011.447,+0.344,-0.083,+2.661,-04.7350,-01.5440,-08.0960,-00.109106,+00.053249,+00.071365
+172.258,-029.132,+011.299,+0.334,-0.108,+2.661,-04.7140,-01.4860,-08.1370,-00.081725,+00.030496,+00.051544
+172.324,-029.128,+011.180,+0.334,-0.103,+2.677,-04.7040,-01.5380,-08.1030,-00.074234,+00.004315,+00.049651
+172.385,-029.141,+011.073,+0.330,-0.103,+2.682,-04.6540,-01.5580,-08.0380,-00.064709,-00.008344,+00.052611
+172.452,-029.178,+010.984,+0.339,-0.098,+2.661,-04.6070,-01.4730,-08.1050,-00.038386,-00.030649,+00.055789
+172.519,-029.229,+010.911,+0.339,-0.073,+2.688,-04.6810,-01.3860,-08.1450,-00.030722,-00.033122,+00.059054
+172.575,-029.296,+010.862,+0.339,-0.093,+2.666,-04.5900,-01.4470,-08.0860,-00.015996,-00.063851,+00.052483
+172.634,-029.403,+010.816,+0.339,-0.108,+2.661,-04.6670,-01.4160,-08.0340,-00.013915,-00.089781,+00.055122
+172.699,-029.541,+010.768,+0.358,-0.103,+2.678,-04.7120,-01.4930,-08.1030,-00.017151,-00.110624,+00.074185
+172.767,-029.697,+010.714,+0.353,-0.098,+2.661,-04.7160,-01.4250,-08.0680,-00.020401,-00.130923,+00.071546
+172.816,-029.862,+010.673,+0.348,-0.098,+2.645,-04.6950,-01.4850,-08.1040,-00.011081,-00.140124,+00.056487
+172.856,-030.048,+010.634,+0.362,-0.118,+2.662,-04.8310,-01.2950,-08.1340,-00.018035,-00.166421,+00.060387
+172.889,-030.280,+010.578,+0.376,-0.104,+2.657,-04.7590,-01.5430,-08.0210,-00.053196,-00.215681,+00.071245
+172.931,-030.571,+010.475,+0.371,-0.109,+2.657,-04.7430,-01.3440,-08.0690,-00.075958,-00.273248,+00.076937
+172.941,-030.988,+010.407,+0.385,-0.104,+2.690,-04.4680,-01.7360,-08.1090,-00.034970,-00.418510,+00.076775
+172.936,-031.614,+010.389,+0.418,-0.084,+2.659,-04.7910,-01.3530,-08.2780,-00.018817,-00.618479,+00.102031
+172.915,-032.492,+010.411,+0.441,-0.109,+2.622,-04.9180,-01.4500,-08.2170,+00.019972,-00.854064,+00.148369
+172.869,-033.690,+010.457,+0.483,-0.124,+2.662,-04.9940,-01.3420,-08.1810,+00.017606,-01.148231,+00.148904
+172.786,-035.313,+010.471,+0.534,-0.090,+2.648,-04.9140,-01.7330,-08.0170,-00.057357,-01.569510,+00.238150
+172.795,-037.553,+010.359,+0.608,-0.116,+2.624,-04.9870,-01.6450,-07.7290,-00.116677,-02.156620,+00.439613
+173.026,-040.599,+010.027,+0.697,-0.132,+2.601,-05.2480,-01.7270,-08.3110,-00.168113,-02.822404,+00.750730
+173.783,-044.287,+009.253,+0.799,-0.148,+2.541,-05.4970,-02.1850,-08.1700,-00.323669,-03.214210,+01.181323
+175.337,-048.383,+007.558,+0.934,-0.179,+2.498,-06.9180,-02.8930,-08.3590,-00.649886,-03.498317,+01.635832
+178.093,-052.895,+004.284,+1.040,-0.235,+2.460,-09.0070,-02.8770,-08.3670,-01.232189,-03.915946,+02.058747
-177.724,-057.559,-001.141,+1.166,-0.321,+2.347,-12.0520,-03.4550,-10.8380,-01.823759,-04.008873,+02.246465
-171.159,-061.819,-009.410,+1.281,-0.462,+2.234,-11.9450,-05.8280,-10.9460,-02.492306,-03.867882,+02.693064
-161.336,-064.970,-021.869,+1.351,-0.617,+2.141,-12.8210,-09.9710,-10.5250,-03.973446,-03.519114,+03.142692
-148.798,-066.234,-040.308,+1.406,-0.831,+1.945,-03.6140,-13.6110,-06.8510,-07.677294,-03.089315,+03.436895
-140.537,-066.407,-057.413,+1.429,-1.091,+1.677,-17.0250,-07.7800,-22.7790,-07.219233,-00.969219,+00.279594
-145.163,-067.448,-058.524,+1.456,-1.156,+1.641,-03.1370,-04.4300,-09.3990,-03.339501,+01.422885,-02.316273
-152.346,-069.114,-054.873,+1.517,-1.132,+1.606,-02.5640,-04.5710,-05.8820,-02.473495,+00.983983,-02.439882
-159.973,-070.373,-050.516,+1.559,-1.107,+1.596,-05.1600,-03.6630,-08.7650,-02.420299,+01.373481,-02.165826
-169.239,-070.659,-044.371,+1.573,-1.117,+1.630,-04.8490,-02.7160,-09.3850,-02.143529,+02.080411,-01.894891
-179.075,-069.758,-037.303,+1.559,-1.087,+1.650,-04.5800,-02.8440,-08.5800,-01.770796,+02.717352,-01.550058
+172.045,-067.770,-030.804,+1.522,-1.082,+1.697,-04.6580,-03.8400,-07.7010,-01.434190,+03.151783,-01.259672
+164.449,-064.974,-025.268,+1.498,-1.126,+1.778,-05.8210,-05.3200,-07.9390,-01.134988,+03.550120,-01.189909
+157.646,-061.525,-020.269,+1.447,-1.070,+1.851,-07.2460,-06.3880,-08.1050,-00.812862,+03.954069,-01.390690
+151.315,-057.546,-015.428,+1.401,-1.084,+1.984,-08.9730,-06.5110,-08.0610,-00.348505,+04.277633,-01.735384
+145.471,-053.178,-010.548,+1.327,-1.023,+2.110,-09.1020,-05.6810,-05.9320,+00.313448,+04.333083,-02.093251
+140.355,-048.943,-005.869,+1.248,-0.922,+2.252,-10.2400,-05.8660,-05.8600,+00.727480,+03.886902,-02.325662
+135.822,-044.864,-001.698,+1.137,-0.841,+2.382,-11.5150,-07.3390,-07.0390,+00.706982,+03.638986,-02.560925
+131.512,-040.979,+001.979,+1.063,-0.761,+2.470,-11.8760,-06.5660,-07.1410,+00.672418,+03.200614,-02.883300
+127.256,-037.155,+005.695,+0.979,-0.621,+2.509,-15.1890,-05.7350,-10.3920,+01.050993,+03.196320,-03.222098
+123.278,-032.991,+009.375,+0.896,-0.461,+2.547,-14.5330,-04.3650,-08.9150,+01.283046,+03.193354,-03.287479
+119.814,-028.590,+012.814,+0.864,-0.357,+2.594,-15.0380,-02.8010,-10.4070,+01.594819,+03.372936,-03.306849
+116.841,-023.762,+016.424,+0.780,-0.192,+2.665,-12.6130,-00.0380,-09.6760,+02.289728,+03.533189,-03.284117
+114.607,-018.749,+020.158,+0.646,-0.007,+2.744,-13.2890,-00.4050,-10.9280,+02.596326,+03.656945,-02.959087
+113.299,-013.587,+023.281,+0.530,+0.119,+2.814,-13.0820,-00.4180,-09.1260,+02.246264,+03.795923,-02.528830
+112.599,-008.697,+025.675,+0.349,+0.294,+2.853,-14.0580,-00.7440,-06.0910,+01.806026,+03.489506,-02.208242
+112.052,-004.418,+027.672,+0.182,+0.360,+2.840,-16.2640,+01.1590,-02.3800,+01.698737,+02.868995,-02.043330
+111.382,-001.131,+030.139,+0.070,+0.441,+2.834,-19.0330,+07.5430,+04.3550,+02.508747,+01.789537,-01.780413
+110.224,+000.768,+033.703,+0.015,+0.615,+2.809,-22.4370,+09.0390,+09.5030,+03.222285,+00.251707,-01.705971
+108.533,+000.707,+035.872,+0.015,+0.699,+2.781,-14.7760,+01.6540,+07.0180,+00.761494,-01.535313,-00.652028
+108.199,-002.488,+034.383,+0.126,+0.663,+2.814,-05.5010,-02.1540,-21.1550,-01.074179,-01.968828,+01.663915
+109.479,-006.850,+031.458,+0.261,+0.553,+2.810,-01.5400,+01.3880,-04.5640,-02.958229,-02.954190,+03.823560
+111.232,-011.751,+028.504,+0.410,+0.452,+2.855,-04.3170,-04.8970,-09.5860,-01.724559,-02.889614,+02.904934
+111.583,-016.304,+027.049,+0.558,+0.362,+2.835,-06.4140,-03.5870,-08.6510,-01.202326,-03.651628,+01.964074
+112.008,-020.928,+025.289,+0.726,+0.295,+2.810,-10.9760,-01.1190,-13.0210,-01.484689,-03.265861,+02.078607
+112.387,-024.567,+023.060,+0.851,+0.175,+2.762,-12.6640,-06.7010,-11.9670,-02.229693,-02.470806,+01.286515
+112.808,-026.628,+019.901,+0.916,+0.045,+2.766,-08.3450,+00.0800,-10.1370,-02.258610,-01.019132,+00.748176
+113.211,-027.702,+017.536,+0.962,-0.015,+2.742,-07.7630,-03.7290,-09.0920,-01.726232,-00.564669,+00.491513
+113.567,-028.162,+016.043,+0.962,-0.094,+2.710,-05.0900,-01.5920,-08.5430,-00.927618,-00.192043,+00.338998
+113.904,-028.396,+015.087,+0.976,-0.129,+2.716,-05.4470,-01.3700,-08.9100,-00.560291,-00.076727,+00.287437
+114.172,-028.568,+014.489,+0.976,-0.144,+2.705,-04.9400,-01.5480,-08.3390,-00.322881,-00.103745,+00.206475
+114.326,-028.708,+014.205,+0.980,-0.159,+2.700,-05.0050,-00.9450,-08.0790,-00.103132,-00.077884,+00.110122
+114.381,-028.805,+014.139,+0.980,-0.169,+2.733,-04.8950,-01.5470,-08.0750,-00.004672,-00.071364,+00.037967
+114.399,-028.911,+014.157,+0.990,-0.154,+2.690,-04.6470,-02.1280,-08.0070,+00.033844,-00.097256,+00.043726
+114.460,-029.028,+014.153,+1.004,-0.174,+2.696,-04.9210,-02.2050,-07.9400,+00.008455,-00.071852,+00.086249
+114.581,-029.096,+014.082,+0.990,-0.169,+2.717,-04.8890,-02.0450,-07.9150,-00.017007,-00.021677,+00.108693
+114.703,-029.134,+013.998,+0.990,-0.144,+2.717,-04.8620,-01.8860,-07.9340,-00.015023,-00.005603,+00.089183
+114.799,-029.160,+013.938,+0.999,-0.189,+2.685,-04.8260,-01.8760,-07.9290,-00.014674,-00.003562,+00.073368
+114.899,-029.170,+013.851,+0.985,-0.189,+2.717,-04.8820,-01.9140,-07.8960,-00.047058,+00.018821,+00.080239
+115.027,-029.145,+013.715,+0.980,-0.174,+2.700,-04.8350,-01.8710,-07.9550,-00.051038,+00.026464,+00.080085
+115.202,-029.098,+013.514,+0.980,-0.159,+2.689,-04.8970,-01.8480,-07.9400,-00.107219,+00.074281,+00.131657
+115.383,-029.052,+013.302,+0.985,-0.209,+2.712,-04.8070,-01.8470,-07.9120,-00.117427,+00.067458,+00.129847
+115.556,-029.042,+013.081,+0.976,-0.189,+2.706,-04.7820,-01.8930,-07.9610,-00.123845,+00.017641,+00.127407
+115.728,-029.052,+012.851,+0.971,-0.198,+2.716,-04.8790,-01.7480,-08.0490,-00.124263,+00.025838,+00.128516
+115.893,-029.047,+012.639,+0.985,-0.218,+2.712,-04.8520,-01.6540,-08.0010,-00.105855,+00.032476,+00.113822
+116.038,-029.041,+012.447,+0.976,-0.179,+2.711,-04.8080,-01.6780,-08.0050,-00.116624,+00.028127,+00.108759
+116.185,-029.045,+012.246,+0.971,-0.199,+2.695,-04.8310,-01.6350,-08.0180,-00.102889,+00.014244,+00.106224
+116.316,-029.072,+012.073,+0.976,-0.228,+2.728,-04.8040,-01.6060,-08.0120,-00.085474,-00.005843,+00.100145
+116.439,-029.103,+011.902,+0.962,-0.213,+2.694,-04.8310,-01.5970,-08.0080,-00.103183,-00.006392,+00.101870
+116.579,-029.137,+011.707,+0.962,-0.243,+2.716,-04.7000,-01.7050,-07.9190,-00.115903,-00.013966,+00.120997
+116.739,-029.212,+011.503,+0.971,-0.208,+2.706,-04.6820,-01.5590,-08.0020,-00.104352,-00.059292,+00.133303
+116.903,-029.359,+011.310,+0.976,-0.258,+2.695,-04.7210,-01.5850,-08.0090,-00.100502,-00.124740,+00.165819
+117.097,-029.568,+011.108,+0.976,-0.263,+2.679,-04.6910,-01.5780,-07.9900,-00.084659,-00.172979,+00.189415
+117.286,-029.852,+010.948,+0.976,-0.283,+2.706,-04.6730,-01.4980,-08.0580,-00.044899,-00.252326,+00.199338
+117.478,-030.228,+010.817,+1.003,-0.253,+2.686,-04.5490,-01.4930,-08.0880,-00.031885,-00.319384,+00.218231
+117.754,-030.738,+010.646,+1.003,-0.243,+2.702,-04.9860,-01.7070,-07.9750,-00.030824,-00.459837,+00.326502
+118.068,-031.469,+010.445,+1.027,-0.264,+2.687,-04.9890,-01.2880,-08.2780,-00.030289,-00.659422,+00.326147
+118.376,-032.533,+010.270,+1.054,-0.274,+2.645,-04.9840,-01.4070,-08.1860,+00.014374,-00.987880,+00.389442
+118.655,-034.047,+010.139,+1.110,-0.300,+2.609,-04.9640,-01.4150,-08.0570,+00.015160,-01.448928,+00.473194
+118.867,-036.174,+010.011,+1.166,-0.315,+2.607,-04.8340,-01.4780,-07.8470,-00.011547,-02.072887,+00.513696
+119.169,-039.198,+009.772,+1.259,-0.321,+2.551,-04.7190,-01.4000,-08.0270,-00.048867,-02.866848,+00.776782
+119.897,-042.971,+009.241,+1.361,-0.362,+2.464,-05.1310,-01.4700,-08.4300,-00.104603,-03.355118,+01.140147
+121.179,-047.423,+008.044,+1.472,-0.378,+2.404,-06.0650,-01.3630,-07.9630,-00.321092,-03.962631,+01.521407
+123.429,-052.710,+005.846,+1.593,-0.440,+2.248,-08.2110,-01.8900,-07.8800,-00.417779,-04.724426,+01.967353
+127.096,-058.703,+002.240,+1.737,-0.522,+2.081,-09.3740,-02.4210,-08.3190,-00.525989,-05.296718,+02.281591
+132.921,-065.146,-003.085,+1.825,-0.598,+1.924,-10.7040,-02.4230,-09.6690,+00.022371,-05.819289,+02.377602
+142.508,-071.568,-011.746,+1.927,-0.679,+1.707,-13.6840,-02.7920,-09.6330,+00.330583,-05.891311,+02.259819
+160.786,-076.474,-029.843,+1.987,-0.770,+1.483,-14.5630,-09.0060,-12.3710,-01.260716,-05.134261,+02.837477
-170.974,-077.356,-060.744,+1.977,-0.929,+1.284,+00.2210,-00.8510,-13.5170,-03.759400,-03.913474,+03.733639
-160.750,-075.259,-073.523,+1.921,-1.034,+1.141,-13.0220,-00.3030,-26.2140,-00.980477,+00.704636,+01.546873
-167.510,-073.664,-066.504,+1.874,-1.072,+1.221,-00.1470,-05.3980,-07.8520,+00.844268,+02.114499,+00.520211
-174.299,-072.244,-059.528,+1.842,-1.082,+1.290,-02.5440,-07.8940,-07.1240,+00.046069,+02.209355,+00.153352
+177.539,-070.838,-052.286,+1.819,-1.052,+1.337,-03.5480,-05.6710,-08.8210,-00.578940,+02.801374,-00.528318
+167.248,-069.163,-042.948,+1.786,-1.051,+1.428,-03.4730,-02.3630,-08.7660,+00.009276,+03.503651,-01.238444
+156.482,-066.688,-032.247,+1.749,-0.980,+1.582,-03.8550,-01.2250,-07.5950,+00.949135,+04.042405,-01.554892
+147.388,-063.140,-022.593,+1.703,-0.860,+1.731,-04.8410,-01.4490,-07.2900,+01.343241,+04.424487,-01.555552
+140.441,-058.805,-014.782,+1.643,-0.819,+1.912,-04.6480,-00.2660,-05.3850,+01.646510,+04.492538,-01.589665
+135.501,-054.479,-008.456,+1.578,-0.728,+2.065,-06.6190,+01.2560,-05.3530,+02.074399,+03.974635,-01.513619
+132.153,-050.223,-003.249,+1.490,-0.598,+2.169,-09.4240,+00.6440,-08.2770,+02.257254,+03.860799,-01.300729
+130.142,-045.932,+000.734,+1.412,-0.552,+2.295,-09.3660,-00.0140,-06.8950,+02.068407,+03.639620,-00.955812
+129.050,-042.043,+003.776,+1.356,-0.471,+2.438,-13.0550,-00.4870,-10.6020,+02.071495,+03.307637,-00.807685
+128.145,-038.011,+007.085,+1.277,-0.386,+2.542,-13.1290,-00.1320,-08.7230,+02.546342,+03.444601,-00.985838
+127.514,-034.244,+010.419,+1.171,-0.265,+2.666,-13.8580,-00.1520,-07.9090,+02.545562,+03.044625,-00.891261
+127.304,-030.793,+013.365,+1.087,-0.184,+2.802,-14.0210,+01.6410,-09.5060,+02.457937,+02.899980,-00.695497
+127.621,-027.313,+016.136,+0.939,-0.024,+2.897,-12.3620,+03.7140,-09.9100,+02.637373,+03.064685,-00.430875
+128.587,-023.899,+018.971,+0.753,+0.142,+2.958,-10.5570,+05.3170,-09.0270,+02.953131,+03.051122,+00.008126
+130.265,-020.773,+021.932,+0.619,+0.208,+3.017,-10.1120,+05.8530,-09.0450,+03.245225,+03.017851,+00.502535
+132.559,-018.024,+025.078,+0.452,+0.378,+3.014,-09.5140,+06.2570,-08.3170,+03.495424,+02.903890,+00.933346
+135.331,-015.846,+028.371,+0.294,+0.529,+3.027,-08.6650,+06.4760,-07.2730,+03.568623,+02.619803,+01.399085
+138.411,-014.338,+031.640,+0.192,+0.664,+3.022,-09.6600,+06.2140,-07.4260,+03.549072,+02.360709,+01.640292
+141.276,-013.236,+034.946,+0.085,+0.843,+2.957,-09.9390,+05.3300,-04.0290,+03.371924,+01.949960,+01.373094
+143.495,-012.614,+037.685,+0.006,+0.982,+2.920,-13.2880,+06.5010,+00.1250,+02.392513,+01.278402,+01.149024
+145.218,-012.931,+039.026,-0.012,+1.052,+2.913,-13.3810,+07.5320,+01.2830,+00.942764,+00.343200,+01.526861
+146.939,-014.435,+038.851,+0.025,+1.086,+2.903,-12.0370,+05.1140,-02.8620,-00.107996,-00.289060,+02.144915
+148.978,-016.021,+036.908,+0.048,+1.037,+2.959,-05.9620,-17.5100,-27.1040,-02.280684,+00.520819,+02.218430
+150.628,-017.585,+034.125,+0.071,+0.942,+3.004,+05.3880,-11.1750,+05.4270,-02.864492,-01.265198,+02.580112
+151.429,-020.657,+030.641,+0.211,+0.827,+3.049,-08.3170,-05.8410,-10.4050,-02.609676,-01.941598,+01.443493
+152.250,-022.822,+027.492,+0.285,+0.673,+3.096,-04.7160,+00.7990,-11.9010,-02.448397,-00.994937,+01.719006
+153.419,-024.757,+024.524,+0.331,+0.603,+3.148,-07.9820,-04.3360,-09.1300,-02.105930,-01.222826,+01.348530
+153.968,-026.338,+021.873,+0.406,+0.503,+3.146,-06.6280,+01.8980,-10.3020,-02.001636,-01.015884,+00.785057
+154.373,-027.397,+019.358,+0.438,+0.374,+3.176,-05.7580,-01.4450,-08.5340,-01.870090,-00.604443,+00.451443
+154.539,-028.153,+017.266,+0.470,+0.310,+3.199,-05.2410,-01.9920,-08.6610,-01.642136,-00.523575,+00.299774
+154.712,-028.644,+015.715,+0.503,+0.210,+3.180,-05.3070,-00.5660,-08.4100,-01.028336,-00.254182,+00.260957
+154.969,-028.924,+014.643,+0.507,+0.151,+3.169,-06.2380,-01.7240,-08.9140,-00.693550,-00.134001,+00.232786
+155.243,-029.012,+013.928,+0.493,+0.136,+3.196,-04.7860,-01.7790,-08.0210,-00.410869,+00.000653,+00.207333
+155.482,-029.049,+013.425,+0.507,+0.146,+3.169,-04.9490,-01.2320,-08.1400,-00.290809,+00.014955,+00.171616
+155.656,-029.056,+013.050,+0.507,+0.091,+3.154,-04.8490,-01.2230,-08.2910,-00.223132,+00.031129,+00.111451
+155.780,-029.048,+012.803,+0.503,+0.091,+3.186,-04.8020,-01.3020,-08.2070,-00.135132,+00.024655,+00.081676
+155.894,-029.035,+012.579,+0.498,+0.111,+3.169,-04.8560,-01.6960,-08.1160,-00.152437,+00.041046,+00.084556
+156.038,-028.997,+012.326,+0.493,+0.061,+3.169,-04.8170,-01.7860,-08.0980,-00.177544,+00.063568,+00.113021
+156.217,-028.936,+012.028,+0.493,+0.057,+3.191,-04.8190,-01.5900,-08.0870,-00.177043,+00.089071,+00.124372
+156.389,-028.873,+011.768,+0.484,+0.067,+3.164,-04.7860,-01.5100,-08.0790,-00.145720,+00.078668,+00.109400
+156.537,-028.823,+011.539,+0.484,+0.057,+3.164,-04.6920,-01.4880,-08.1540,-00.136039,+00.063171,+00.098600
+156.685,-028.793,+011.306,+0.484,+0.052,+3.196,-04.6500,-01.6120,-08.1270,-00.139805,+00.042619,+00.111641
+156.832,-028.789,+011.082,+0.479,+0.052,+3.180,-04.6960,-01.3230,-08.0380,-00.125362,+00.012829,+00.103305
+156.964,-028.803,+010.869,+0.479,+0.027,+3.169,-04.6870,-01.4670,-08.0900,-00.129099,+00.004307,+00.103675
+157.096,-028.830,+010.671,+0.479,+0.012,+3.164,-04.6760,-01.3580,-08.0820,-00.107078,-00.008844,+00.100118
+157.218,-028.868,+010.502,+0.470,+0.027,+3.163,-04.7100,-01.3560,-08.0990,-00.094344,-00.017443,+00.099372
+157.347,-028.910,+010.345,+0.479,+0.017,+3.169,-04.6420,-01.5220,-08.0490,-00.077869,-00.021327,+00.111378
+157.485,-028.963,+010.191,+0.475,+0.007,+3.191,-04.7210,-01.3360,-08.0740,-00.072453,-00.021000,+00.113178
+157.612,-028.996,+010.070,+0.479,+0.037,+3.185,-04.7830,-01.2310,-08.0750,-00.029849,-00.020508,+00.077608
+157.691,-029.029,+009.995,+0.493,+0.022,+3.175,-04.7840,-01.2090,-08.1240,-00.022542,-00.030649,+00.050452
+157.739,-029.068,+009.947,+0.484,+0.017,+3.191,-04.7080,-01.3580,-08.0880,-00.026345,-00.029266,+00.043959
+157.789,-029.104,+009.889,+0.475,+0.022,+3.180,-04.7170,-01.2950,-08.1260,-00.030016,-00.026758,+00.046519
+157.841,-029.149,+009.837,+0.488,+0.007,+3.170,-04.7280,-01.3740,-08.1010,-00.016058,-00.041209,+00.044797
+157.870,-029.221,+009.816,+0.479,-0.003,+3.180,-04.7200,-01.2520,-08.0560,-00.003505,-00.065448,+00.027026
+157.874,-029.305,+009.828,+0.488,+0.002,+3.164,-04.7550,-01.1420,-08.1040,+00.031937,-00.065429,+00.006015
+157.835,-029.416,+009.926,+0.488,+0.027,+3.175,-04.6210,-00.9650,-07.8630,+00.107493,-00.127464,-00.029599
+157.745,-029.572,+010.090,+0.502,-0.018,+3.187,-04.7810,-01.4600,-07.9940,+00.119246,-00.154046,-00.048039
+157.647,-029.725,+010.253,+0.507,+0.022,+3.170,-04.8330,-01.5980,-08.2330,+00.072946,-00.131563,-00.040257
+157.582,-029.848,+010.345,+0.502,+0.007,+3.176,-04.9010,-01.4060,-08.0960,+00.022457,-00.095796,-00.020596
+157.564,-029.931,+010.360,+0.502,+0.012,+3.203,-04.9010,-01.5000,-08.0210,-00.004332,-00.068319,+00.011046
+157.575,-029.997,+010.348,+0.521,+0.012,+3.160,-04.8730,-01.4320,-08.0140,-00.009900,-00.045813,+00.028140
+157.622,-030.069,+010.305,+0.516,+0.017,+3.144,-04.9040,-01.4930,-08.0190,-00.019754,-00.055943,+00.054567
+157.696,-030.151,+010.242,+0.526,+0.031,+3.182,-04.8780,-01.3920,-08.0320,-00.019307,-00.069690,+00.073009
+157.766,-030.251,+010.188,+0.530,+0.017,+3.171,-04.8580,-01.3700,-07.9980,-00.021097,-00.081845,+00.066110
+157.838,-030.377,+010.134,+0.530,+0.002,+3.150,-04.8880,-01.4200,-08.0140,-00.009045,-00.111373,+00.083419
+157.932,-030.542,+010.080,+0.526,-0.018,+3.193,-04.8860,-01.3550,-08.0100,-00.002250,-00.137962,+00.102996
+158.061,-030.732,+010.009,+0.544,+0.016,+3.172,-04.8950,-01.5080,-08.0230,+00.001507,-00.152496,+00.136120
+158.229,-030.963,+009.927,+0.544,-0.004,+3.150,-04.9180,-01.3890,-07.9870,+00.011707,-00.186533,+00.167864
+158.424,-031.227,+009.835,+0.554,+0.006,+3.167,-05.0760,-01.4140,-07.9900,+00.006617,-00.203975,+00.187152
+158.653,-031.522,+009.725,+0.572,+0.026,+3.173,-05.0240,-01.3860,-07.8070,+00.013303,-00.238072,+00.221657
+158.903,-031.859,+009.605,+0.581,-0.014,+3.168,-05.0840,-01.3510,-07.9260,+00.012874,-00.270834,+00.238653
+159.190,-032.240,+009.467,+0.591,-0.019,+3.169,-05.0870,-01.1930,-07.8290,+00.011283,-00.301148,+00.269928
+159.483,-032.643,+009.359,+0.605,+0.006,+3.164,-05.3780,-00.6760,-07.9610,+00.089397,-00.302010,+00.282842
+159.909,-033.090,+009.286,+0.614,+0.011,+3.159,-05.2840,-01.8590,-07.6300,+00.157849,-00.348539,+00.421735
+160.449,-033.638,+009.142,+0.633,-0.014,+3.154,-05.3900,-00.6230,-07.9640,+00.113756,-00.447442,+00.460441
+160.819,-034.273,+009.058,+0.674,+0.005,+3.129,-05.4190,-00.7470,-07.8070,+00.110471,-00.554537,+00.289478
+160.996,-035.015,+009.104,+0.698,-0.010,+3.136,-05.4500,-00.7910,-07.7080,+00.145391,-00.669728,+00.191602
+161.020,-035.906,+009.268,+0.725,-0.001,+3.142,-05.5360,-00.9630,-07.6210,+00.147578,-00.815434,+00.116236
+160.995,-036.988,+009.388,+0.777,+0.019,+3.117,-05.7210,-01.4860,-07.6390,+00.069311,-01.022502,+00.160575
+161.056,-038.369,+009.410,+0.823,+0.033,+3.103,-05.6210,-01.3730,-07.4940,+00.046795,-01.290599,+00.288667
+161.248,-040.129,+009.379,+0.893,-0.007,+3.106,-05.7720,-01.0690,-07.2410,+00.112030,-01.615381,+00.425654
+161.497,-042.232,+009.418,+0.976,+0.016,+3.061,-05.8890,-00.7510,-07.3570,+00.216884,-01.867363,+00.473611
+161.756,-044.565,+009.467,+1.060,-0.009,+3.016,-06.2350,-00.7350,-07.0690,+00.202165,-02.048428,+00.514836
+162.082,-047.148,+009.420,+1.148,+0.005,+2.993,-06.5950,-01.1310,-06.8650,+00.138453,-02.275869,+00.609871
+162.546,-050.022,+009.235,+1.269,+0.018,+2.933,-07.0810,-00.9790,-06.4870,+00.134512,-02.525633,+00.708956
+163.143,-053.219,+008.909,+1.376,-0.023,+2.841,-08.0620,-00.9200,-05.8250,+00.118348,-02.812005,+00.772305
+163.599,-056.658,+008.635,+1.469,-0.029,+2.802,-08.2150,-00.6760,-05.6320,+00.131436,-03.018584,+00.635891
+163.600,-060.345,+009.194,+1.603,-0.016,+2.694,-08.7750,-00.6170,-05.7770,+00.787346,-03.277607,+00.366799
+162.361,-064.267,+011.822,+1.752,+0.016,+2.581,-08.6410,-00.4720,-05.5020,+01.568783,-03.558024,+00.026852
+159.334,-068.364,+016.923,+1.859,+0.084,+2.488,-09.3360,-00.3800,-04.9000,+02.245849,-03.822475,-00.243139
+153.440,-072.339,+025.567,+1.980,+0.226,+2.330,-10.0960,-02.3370,-05.2630,+02.891902,-03.870104,-00.398742
+144.135,-075.873,+038.128,+2.091,+0.313,+2.161,-11.0130,-02.0320,-07.1330,+03.340653,-03.670688,-00.184696
+130.558,-078.356,+055.876,+2.152,+0.421,+2.044,-13.9890,-00.4570,-06.7870,+04.276292,-03.165654,-00.220569
+115.217,-079.740,+076.330,+2.208,+0.564,+1.872,-10.3390,-01.5020,-05.8030,+05.001694,-02.705864,+00.257575
+099.602,-080.497,+098.316,+2.245,+0.657,+1.689,-06.9980,-01.0530,-08.3440,+06.115156,-01.990284,+00.701767
+093.925,-082.309,+109.240,+2.240,+0.661,+1.651,-21.7140,-10.7020,-24.9580,+03.249600,+01.088961,+02.153096
+121.991,-085.331,+083.576,+2.161,+0.633,+1.697,-04.0780,-05.9240,-12.3540,+01.263777,+03.439084,+02.345430
-177.531,-085.336,+024.004,+2.064,+0.555,+1.823,-01.1340,-03.0970,-05.6170,+00.442453,+03.144231,+02.424675
-148.858,-082.341,-004.010,+1.966,+0.467,+1.906,-02.8080,-02.5330,-06.9700,+00.528341,+02.900387,+01.967665
-140.625,-078.756,-011.309,+1.878,+0.433,+1.951,-02.6670,-02.3260,-07.5290,+00.839584,+02.958762,+01.378955
-138.300,-075.011,-012.429,+1.752,+0.420,+2.037,-03.6050,-02.2580,-08.6220,+01.108155,+03.224152,+00.993173
-138.371,-070.942,-010.808,+1.641,+0.422,+2.092,-03.6040,-02.1540,-08.3900,+01.491690,+03.600227,+00.496804
-139.818,-066.766,-007.565,+1.543,+0.467,+2.114,-04.3450,-02.2930,-09.0840,+01.703307,+03.712339,-00.098623
-142.109,-062.504,-003.523,+1.436,+0.543,+2.163,-04.6530,-01.3130,-09.6030,+01.735245,+03.800169,-00.723620
-144.681,-058.227,+000.809,+1.367,+0.564,+2.209,-06.0210,+00.7540,-10.1500,+01.906662,+03.727518,-01.162704
-146.799,-053.819,+004.846,+1.283,+0.669,+2.226,-08.0370,+02.3090,-11.4740,+02.024709,+03.852400,-01.192112
-147.678,-049.328,+007.965,+1.218,+0.759,+2.293,-07.6340,+04.0370,-09.9970,+02.187979,+03.790806,-00.691756
-147.280,-045.154,+010.421,+1.153,+0.824,+2.338,-09.7060,+03.2740,-12.0790,+02.536082,+03.600001,-00.178548
-146.180,-040.846,+012.751,+1.079,+0.939,+2.388,-11.1980,+01.5400,-12.5920,+02.733946,+03.952631,-00.033400
-144.830,-036.522,+015.032,+0.963,+1.075,+2.485,-10.8700,+00.6650,-10.5520,+02.674510,+03.787623,+00.004342
-143.377,-032.365,+017.041,+0.838,+1.180,+2.543,-12.2150,-00.1930,-11.8660,+02.346019,+03.817041,-00.015903
-141.898,-028.060,+018.857,+0.634,+1.297,+2.571,-11.4540,+00.1660,-11.4840,+02.204118,+03.970657,-00.168753
-140.516,-023.694,+020.760,+0.416,+1.393,+2.567,-10.0190,+00.9170,-10.0930,+02.193946,+03.903792,-00.305696
-139.090,-019.407,+022.873,+0.262,+1.449,+2.532,-09.9620,+02.1630,-11.0620,+02.365618,+03.933873,-00.304904
-137.402,-015.167,+025.131,+0.081,+1.554,+2.426,-09.3940,+03.2650,-09.9840,+02.408102,+03.930651,-00.141363
-135.388,-011.281,+027.401,-0.082,+1.615,+2.311,-09.4980,+03.6770,-08.9040,+02.347709,+03.712288,+00.146522
-133.050,-007.905,+029.551,-0.161,+1.660,+2.258,-09.4590,+03.0600,-06.8700,+02.102875,+03.438944,+00.516018
-130.373,-005.308,+031.612,-0.235,+1.734,+2.141,-09.2650,+05.1550,-04.4740,+02.147936,+02.938386,+01.054710
-127.399,-003.670,+034.254,-0.273,+1.804,+2.025,-10.5590,+05.9670,-01.5530,+02.678512,+02.397804,+01.603069
-124.410,-003.023,+036.950,-0.263,+1.863,+1.965,-11.7780,+03.5610,+00.3900,+02.228856,+01.701859,+01.821487
-121.950,-003.239,+038.244,-0.226,+1.897,+1.897,-10.4170,+00.5610,-00.2830,+00.577025,+00.835934,+01.832324
-119.893,-004.241,+038.133,-0.156,+1.911,+1.883,-08.3940,+00.5010,-03.1150,-00.104617,+00.243123,+01.991780
-118.165,-005.466,+037.890,-0.105,+1.910,+1.886,-05.8750,-03.1420,-04.5580,-00.060916,-00.011765,+01.636086
-117.337,-006.515,+037.329,-0.049,+1.910,+1.888,+11.1820,-10.9470,-08.4160,-01.491918,-00.646290,+01.058279
-116.607,-008.803,+034.952,+0.034,+1.840,+1.957,+08.2190,-08.1560,-00.4660,-02.893446,-01.900869,+02.891676
-114.341,-012.882,+030.491,+0.178,+1.750,+2.083,-02.8750,+00.8050,-14.6340,-03.123788,-01.723471,+03.286963
-112.057,-016.697,+026.841,+0.364,+1.674,+2.140,-02.9210,+02.1270,-07.1260,-02.501506,-02.310683,+03.486916
-110.746,-020.832,+024.221,+0.536,+1.553,+2.181,-11.0840,-13.9400,-11.4000,-01.771370,-02.970483,+01.777172
-110.623,-024.006,+021.994,+0.634,+1.488,+2.224,-11.3790,+06.0030,-14.3820,-01.875429,-02.137863,+01.067685
-110.303,-026.169,+019.977,+0.722,+1.418,+2.228,-08.4980,-05.2300,-09.8920,-01.562044,-01.451924,+00.702158
-110.065,-027.621,+017.957,+0.773,+1.333,+2.264,-07.7450,-01.8890,-09.8530,-01.640847,-00.873228,+00.603540
-109.739,-028.532,+016.096,+0.815,+1.298,+2.287,-05.9030,-01.2800,-09.1150,-01.380421,-00.568723,+00.409115
-109.460,-029.061,+014.680,+0.838,+1.254,+2.299,-05.0720,-01.2480,-08.8830,-00.990183,-00.317275,+00.295376
-109.210,-029.438,+013.561,+0.852,+1.214,+2.322,-04.9990,-01.8780,-08.5290,-00.828582,-00.260051,+00.248429
-108.941,-029.657,+012.682,+0.843,+1.165,+2.360,-04.7520,-01.1970,-08.2250,-00.550001,-00.113367,+00.222204
-108.767,-029.826,+012.109,+0.866,+1.169,+2.339,-05.0270,-01.3200,-08.2180,-00.361383,-00.128498,+00.126508
-108.693,-029.962,+011.766,+0.875,+1.154,+2.345,-05.0700,-01.5000,-08.2700,-00.232374,-00.087790,+00.063757
