Yaw,Pitch,Roll,MagX,MagY,MagZ,AccelX,AccelY,AccelZ,GyroX,GyroY,GyroZ
-120.693,-019.363,+008.419,+1.123,-0.629,+2.706,-03.1030,-01.2510,-08.7940,-00.000183,+00.012980,-00.000329
-120.695,-019.346,+008.421,+1.123,-0.639,+2.722,-03.0920,-01.3750,-08.7310,-00.011973,+00.010101,-00.002479
-120.692,-019.340,+008.393,+1.123,-0.649,+2.695,-03.1530,-01.3380,-08.7950,-00.029356,+00.005975,+00.004428
-120.689,-019.320,+008.373,+1.114,-0.659,+2.695,-03.1270,-01.3000,-08.7670,-00.008116,+00.023505,-00.006380
-120.699,-019.292,+008.383,+1.119,-0.659,+2.711,-03.1430,-01.3030,-08.8210,+00.012328,+00.023126,-00.013615
-120.709,-019.258,+008.407,+1.114,-0.644,+2.684,-03.1410,-01.3210,-08.8120,+00.021780,+00.033702,-00.011125
-120.716,-019.214,+008.442,+1.119,-0.664,+2.738,-03.1000,-01.3150,-08.7840,+00.036433,+00.038065,-00.012041
-120.730,-019.162,+008.500,+1.114,-0.649,+2.706,-03.0960,-01.3730,-08.7930,+00.053632,+00.049561,-00.022732
-120.760,-019.098,+008.577,+1.114,-0.649,+2.711,-03.0870,-01.3600,-08.7820,+00.057379,+00.049921,-00.038484
-120.794,-019.025,+008.635,+1.114,-0.644,+2.722,-03.1410,-01.4350,-08.7560,+00.032918,+00.062381,-00.037527
-120.823,-018.948,+008.691,+1.114,-0.634,+2.716,-03.0710,-01.3090,-08.8420,+00.056556,+00.065297,-00.030799
-120.858,-018.857,+008.801,+1.109,-0.615,+2.705,-03.0530,-01.2530,-08.8770,+00.094516,+00.078745,-00.047518
-120.907,-018.747,+008.915,+1.105,-0.639,+2.732,-03.0340,-01.3170,-08.8130,+00.069739,+00.097827,-00.055588
-120.921,-018.606,+009.008,+1.100,-0.629,+2.716,-03.2700,-01.7060,-08.7080,+00.066294,+00.136635,-00.018191
-120.886,-018.438,+009.027,+1.109,-0.615,+2.716,-02.8380,-01.6310,-08.8710,+00.004287,+00.154456,+00.024815
-120.806,-018.307,+008.947,+1.082,-0.634,+2.720,-02.7870,-01.4660,-08.8310,-00.053350,+00.093860,+00.055169
-120.760,-018.223,+008.920,+1.096,-0.619,+2.721,-02.8830,-01.5560,-08.9210,+00.001786,+00.078737,+00.006727
-120.775,-018.145,+008.973,+1.073,-0.624,+2.747,-02.9060,-01.2220,-08.9110,+00.071803,+00.056760,-00.041069
-120.857,-018.080,+009.139,+1.082,-0.634,+2.763,-02.8890,-01.4480,-08.8750,+00.138839,+00.035169,-00.088404
-120.954,-018.043,+009.335,+1.082,-0.609,+2.726,-02.7440,-01.4170,-08.9080,+00.139544,+00.008303,-00.073176
-121.009,-018.034,+009.473,+1.082,-0.599,+2.726,-02.8020,-01.5180,-08.8100,+00.083568,-00.006234,-00.029282
-121.037,-018.036,+009.587,+1.096,-0.604,+2.742,-02.9240,-01.3050,-08.8210,+00.098502,-00.002373,-00.022281
-121.078,-018.026,+009.735,+1.091,-0.604,+2.726,-03.0660,-01.6090,-08.8870,+00.123419,+00.017142,-00.044828
-121.152,-017.980,+009.892,+1.077,-0.594,+2.741,-02.7970,-01.4330,-08.8020,+00.110907,+00.023689,-00.069156
-121.213,-017.941,+010.011,+1.077,-0.599,+2.752,-02.8320,-01.5750,-08.7030,+00.068359,+00.021309,-00.047635
-121.257,-017.930,+010.083,+1.086,-0.580,+2.736,-02.6740,-01.7040,-08.6980,+00.046799,-00.014967,-00.036374
-121.290,-017.943,+010.121,+1.086,-0.580,+2.742,-02.7500,-01.4270,-08.7630,+00.016459,-00.031635,-00.016869
-121.318,-017.989,+010.143,+1.086,-0.589,+2.763,-02.8410,-01.4660,-08.8480,+00.009187,-00.042793,-00.011352
-121.344,-018.043,+010.134,+1.091,-0.570,+2.742,-02.8750,-01.4690,-08.8170,-00.025144,-00.059008,-00.010131
-121.360,-018.111,+010.098,+1.100,-0.595,+2.732,-02.9370,-01.9770,-08.7710,-00.052389,-00.057335,-00.008121
-121.367,-018.190,+010.011,+1.100,-0.585,+2.753,-02.5570,-01.6980,-08.6520,-00.102764,-00.083184,+00.024865
-121.306,-018.326,+009.814,+1.100,-0.585,+2.732,-02.7890,-01.2940,-08.6670,-00.182450,-00.119021,+00.098046
-121.158,-018.518,+009.504,+1.119,-0.600,+2.738,-02.9340,-01.5040,-08.9080,-00.242609,-00.151784,+00.185100
-120.948,-018.727,+009.196,+1.110,-0.614,+2.732,-03.3130,-01.5350,-08.9100,-00.185133,-00.148765,+00.194110
-120.764,-018.926,+008.948,+1.123,-0.625,+2.711,-03.0920,-01.4460,-08.8100,-00.156618,-00.149280,+00.169171
-120.602,-019.135,+008.726,+1.109,-0.649,+2.700,-03.0270,-01.3780,-08.7830,-00.148668,-00.162959,+00.163155
-120.399,-019.356,+008.454,+1.119,-0.669,+2.722,-03.1980,-01.3110,-08.7700,-00.204162,-00.173437,+00.212201
-120.131,-019.626,+008.026,+1.123,-0.654,+2.701,-03.2940,-01.3530,-08.7870,-00.327956,-00.216828,+00.270950
-119.815,-019.941,+007.534,+1.132,-0.684,+2.691,-03.3160,-01.2450,-08.7850,-00.328078,-00.239330,+00.311253
-119.496,-020.278,+007.086,+1.142,-0.694,+2.702,-03.3280,-01.1480,-08.8620,-00.274816,-00.270076,+00.275181
-119.248,-020.651,+006.686,+1.146,-0.704,+2.681,-03.1580,-01.1180,-08.8370,-00.293796,-00.323921,+00.225903
-119.055,-021.133,+006.271,+1.165,-0.734,+2.655,-03.2570,-00.9170,-08.8380,-00.301566,-00.441780,+00.180623
-118.956,-021.783,+005.900,+1.165,-0.748,+2.671,-03.3680,-00.8550,-08.9020,-00.293799,-00.636651,+00.106986
-118.974,-022.683,+005.531,+1.211,-0.749,+2.603,-03.8540,-00.9730,-08.7290,-00.351317,-00.872253,+00.031217
-119.213,-023.874,+005.184,+1.257,-0.779,+2.600,-03.7660,-00.6010,-08.8230,-00.400309,-01.163030,-00.163876
-119.684,-025.355,+004.854,+1.303,-0.785,+2.581,-04.1040,-00.8460,-08.7800,-00.490558,-01.428947,-00.360329
-120.461,-027.260,+004.552,+1.373,-0.756,+2.476,-04.3480,-00.8760,-08.5310,-00.596684,-01.892913,-00.509092
-121.405,-029.744,+004.315,+1.483,-0.792,+2.422,-05.2550,-00.6030,-08.4150,-00.583931,-02.420400,-00.604435
-122.691,-032.897,+004.287,+1.571,-0.784,+2.388,-05.2260,-00.6650,-08.7730,-00.551971,-03.058902,-00.863266
-124.505,-036.847,+004.968,+1.714,-0.766,+2.260,-04.4790,-00.4930,-09.9720,-00.157574,-03.808393,-00.992583
-126.317,-041.798,+006.245,+1.858,-0.734,+2.104,-04.2220,-01.4000,-09.7920,+00.161207,-04.813556,-00.607908
-127.780,-047.932,+007.588,+1.987,-0.701,+1.970,-04.9930,+01.5500,-15.3420,+00.704911,-05.646463,+00.072960
-129.111,-055.031,+010.491,+2.149,-0.625,+1.718,-10.0510,-00.9190,-14.5990,+01.865157,-06.616962,+00.394998
-129.928,-062.994,+013.459,+2.259,-0.672,+1.497,-10.0450,-02.1920,-16.9630,+01.581326,-06.669368,+01.404604
-129.302,-068.739,+014.781,+2.296,-0.717,+1.381,-08.2380,-04.1050,-26.8500,+01.034436,-03.356016,+01.163628
-126.863,-069.095,+012.137,+2.287,-0.741,+1.402,-02.8970,-06.6210,-35.0060,-00.691845,+01.358806,+00.584474
-122.262,-067.671,+006.468,+2.199,-0.824,+1.550,+09.1320,+00.7820,-12.4710,-01.173983,+01.596854,+01.607580
-116.775,-065.763,+000.946,+2.079,-0.891,+1.685,+08.2860,-03.1190,-10.1960,+00.091879,+01.886926,+01.784668
-113.370,-063.252,-002.131,+1.935,-0.968,+1.792,+05.7550,-10.2560,-15.8900,-00.224659,+02.454674,+00.903772
-113.551,-059.633,-002.726,+1.769,-1.025,+1.920,+03.1500,-08.9070,-14.7740,-00.735144,+03.560609,-00.442248
-116.133,-055.124,-001.003,+1.649,-1.038,+2.006,+00.1620,-04.4880,-11.7460,-00.127582,+04.152952,-01.373315
-119.139,-050.033,+001.416,+1.473,-1.021,+2.133,-03.2250,-04.2310,-15.2820,-00.032129,+04.626947,-01.720555
-121.766,-044.099,+002.904,+1.228,-0.959,+2.121,-05.3860,-02.7160,-15.1180,-00.578464,+05.377728,-01.740043
-123.622,-037.798,+003.602,+1.154,-0.924,+2.016,-05.5880,+00.5460,-09.3690,-00.248818,+05.316491,-01.353481
-124.591,-032.008,+004.227,+1.307,-0.911,+1.947,-06.5310,-01.4090,-11.4330,+00.148433,+04.830983,-00.878369
-125.122,-026.719,+004.649,+1.446,-0.892,+2.147,-06.1610,-02.3350,-11.3680,+00.158748,+04.378414,-00.715867
-125.537,-022.011,+005.330,+1.442,-0.876,+2.394,-06.0020,-02.0660,-10.8860,+00.641948,+03.855493,-00.673672
-125.942,-018.077,+006.495,+1.308,-0.839,+2.667,-06.5470,-02.0190,-11.8490,+00.954089,+03.119516,-00.700955
-126.284,-014.796,+007.511,+1.072,-0.835,+2.910,-08.1030,-01.4250,-14.7000,+00.726375,+02.661199,-00.555652
-126.386,-011.632,+008.496,+0.809,-0.793,+3.006,-13.2700,-01.9200,-18.8740,+00.907766,+02.893554,-00.487499
-126.546,-007.737,+009.463,+0.527,-0.736,+2.993,-17.0020,-03.0300,-17.4510,+00.612837,+03.576674,-00.816574
-126.960,-003.069,+009.586,+0.324,-0.719,+2.941,-19.7120,-02.3060,-15.3420,-00.211276,+04.185437,-01.152927
-127.535,+002.168,+009.222,+0.189,-0.688,+2.924,-21.9980,+01.1450,-06.0420,-00.318315,+04.451709,-01.161332
-127.713,+006.750,+008.671,+0.041,-0.642,+2.890,-23.7370,+01.7270,+04.1800,-00.465172,+03.463094,-00.569679
-127.561,+009.812,+008.808,-0.079,-0.661,+2.874,-26.3000,+01.6810,+03.1390,+00.553147,+02.307539,-00.138972
-127.493,+011.689,+009.715,-0.134,-0.621,+2.909,-23.6130,-01.8860,+06.4260,+00.703939,+01.090464,-00.322719
-128.073,+012.117,+009.821,-0.134,-0.586,+2.909,-19.9150,+00.4940,+01.6920,-00.219101,-00.091926,-00.573860
-127.146,+009.416,+009.716,-0.051,-0.627,+2.918,+08.4810,+01.9080,-20.4680,-00.208595,-02.350642,+01.957590
-125.575,+005.374,+009.783,+0.037,-0.647,+2.949,-01.1310,-14.9090,+07.7530,-00.066956,-04.178775,+01.457626
-126.928,+000.257,+010.005,+0.296,-0.620,+2.939,-14.7180,+05.0340,-30.2790,+00.195428,-03.986716,-00.743688
-127.349,-003.584,+010.640,+0.458,-0.632,+2.941,-03.1530,-00.4090,-11.1970,+00.990375,-03.207513,+00.557188
-128.076,-007.043,+011.826,+0.583,-0.608,+2.941,-03.6730,-11.1070,-11.7990,+00.749766,-03.089341,-00.301293
-129.093,-010.436,+012.742,+0.749,-0.556,+2.910,-04.7830,+01.8030,-13.5840,+00.684772,-03.058721,+00.012175
-129.774,-013.507,+013.432,+0.879,-0.567,+2.873,-08.7390,-06.4350,-15.3790,+00.143215,-02.372052,-00.069591
-130.190,-015.073,+013.016,+0.948,-0.573,+2.854,-04.9080,+00.5850,-12.6450,-00.502807,-00.866919,+00.105615
-130.114,-015.791,+012.442,+0.985,-0.603,+2.824,-03.4210,-01.3100,-09.4950,-00.433617,-00.452823,+00.235784
-129.975,-016.332,+012.141,+0.989,-0.637,+2.830,-01.9640,-00.6280,-09.2780,-00.103326,-00.487265,+00.192910
-129.909,-016.919,+012.075,+1.008,-0.633,+2.841,-03.1920,-01.5500,-08.9760,-00.162405,-00.469494,+00.130709
-129.791,-017.356,+011.631,+1.026,-0.643,+2.788,-03.5010,-02.3440,-09.4640,-00.417693,-00.253162,+00.200344
-129.578,-017.599,+011.079,+1.022,-0.648,+2.772,-02.7060,-02.3360,-08.9440,-00.404879,-00.149572,+00.240967
-129.213,-017.793,+010.449,+1.017,-0.687,+2.804,-02.6500,-01.9260,-09.0280,-00.481682,-00.105357,+00.395232
-128.649,-018.005,+009.716,+1.026,-0.693,+2.745,-02.8550,-02.1850,-08.7630,-00.495514,-00.120732,+00.549525
-128.014,-018.324,+008.862,+1.031,-0.762,+2.752,-03.2010,-01.9210,-08.5420,-00.564160,-00.217073,+00.565660
-127.455,-018.612,+008.143,+1.017,-0.771,+2.762,-03.0340,-01.1190,-08.7960,-00.424111,-00.166555,+00.443298
-127.073,-018.885,+007.616,+1.021,-0.791,+2.724,-03.1300,-00.6940,-08.7840,-00.312710,-00.213025,+00.275946
-126.855,-019.207,+007.238,+1.031,-0.826,+2.725,-03.1460,-00.9470,-08.7670,-00.241705,-00.277367,+00.195539
-126.648,-019.597,+006.910,+1.035,-0.841,+2.709,-02.9940,-01.2970,-08.6990,-00.224141,-00.346925,+00.241910
-126.250,-020.132,+006.518,+1.054,-0.841,+2.678,-03.0120,-01.5040,-08.7880,-00.208907,-00.474812,+00.478061
-125.567,-020.858,+006.099,+1.054,-0.866,+2.689,-03.3560,-00.8680,-08.8020,-00.124267,-00.619043,+00.674568
-124.859,-021.806,+005.671,+1.086,-0.886,+2.674,-03.1220,+00.2050,-08.8610,-00.181570,-00.847079,+00.606880
-124.351,-022.995,+005.237,+1.114,-0.901,+2.649,-03.3380,-00.5420,-08.8520,-00.260558,-01.111947,+00.440070
-124.164,-024.530,+004.745,+1.160,-0.897,+2.618,-04.0840,-00.3910,-08.7930,-00.421491,-01.459148,+00.149987
-124.370,-026.510,+004.278,+1.215,-0.937,+2.610,-04.0170,-00.3440,-08.6830,-00.519174,-01.917330,-00.135685
-125.088,-028.995,+003.963,+1.294,-0.918,+2.495,-04.7720,-00.2250,-08.4410,-00.587846,-02.383513,-00.569955
-126.516,-032.131,+004.018,+1.432,-0.955,+2.426,-04.1660,-00.5240,-08.8970,-00.569180,-03.095542,-01.094110
-128.897,-036.433,+005.028,+1.562,-0.927,+2.356,-04.4610,-00.9520,-09.9150,-00.145662,-04.385384,-01.529243
-132.041,-042.372,+007.369,+1.779,-0.856,+2.166,-03.9110,-01.5040,-10.5420,+00.600959,-06.067165,-01.516994
-135.427,-050.342,+010.481,+2.010,-0.815,+1.929,-03.6960,+01.4570,-17.8220,+00.606656,-07.824164,-00.522148
-139.708,-059.960,+015.549,+2.190,-0.749,+1.672,-10.3530,-02.7870,-16.4040,+01.226349,-09.339435,+00.120630
-145.670,-071.326,+022.718,+2.347,-0.758,+1.254,-10.5600,-02.2100,-13.2520,+00.838810,-10.229850,+01.676609
-162.209,-082.161,+041.300,+2.402,-0.814,+0.843,-10.5310,-06.2950,-21.0360,+02.685846,-09.037560,+02.276716
+134.112,-087.129,+107.691,+2.369,-0.899,+0.670,-26.8700,-12.5180,-54.5730,+02.184375,-02.692105,+01.655250
+142.442,-088.435,+101.421,+2.378,-0.909,+0.719,+01.2310,-09.1520,-29.3140,+01.292403,+02.197517,+00.954388
-128.041,-086.734,+012.411,+2.388,-0.942,+0.891,+03.6230,-06.0020,-14.8900,+00.038637,+03.286400,+00.533878
-120.035,-082.459,+004.048,+2.374,-0.971,+1.090,+00.6480,-05.5230,-14.1940,-00.529491,+04.202124,-00.146893
-120.853,-076.868,+003.948,+2.328,-0.915,+1.314,-00.5420,-03.2630,-11.5370,-00.852112,+05.174810,-00.617911
-122.286,-070.367,+004.646,+2.259,-0.854,+1.574,-02.6630,-01.2720,-10.7660,-00.370972,+05.886417,-00.868989
-123.585,-063.196,+005.775,+2.153,-0.842,+1.844,-04.5430,-00.9200,-10.6880,+00.036677,+06.350992,-01.082106
-124.387,-055.450,+006.427,+1.978,-0.804,+2.078,-07.6390,-00.2110,-13.8240,-00.098449,+06.913749,-01.033917
-124.496,-047.042,+006.499,+1.751,-0.845,+2.348,-08.4630,+02.4100,-11.3210,+00.120996,+07.435515,-00.752083
-123.842,-038.705,+006.749,+1.558,-0.807,+2.549,-08.5270,+03.6370,-07.6340,+00.868990,+07.086661,-00.192895
-122.539,-031.200,+007.098,+1.285,-0.740,+2.741,-09.2060,+02.2020,-08.6470,+00.899150,+06.294507,+00.315938
-120.978,-024.823,+007.358,+0.980,-0.726,+2.889,-10.3200,+01.4880,-13.4040,+00.930913,+05.315578,+00.577602
-119.432,-019.043,+007.803,+0.754,-0.694,+2.917,-12.6970,+00.3290,-20.0870,+01.006905,+05.149136,+00.560110
-118.274,-013.012,+009.072,+0.523,-0.647,+2.954,-18.1910,-03.2750,-22.6000,+01.593327,+05.535768,-00.161532
-118.344,-006.318,+010.395,+0.282,-0.536,+3.040,-22.4420,-07.2800,-19.0050,+00.613024,+05.795033,-01.607949
-119.805,+000.507,+009.975,+0.074,-0.514,+3.074,-25.4160,-05.8140,-10.5710,-00.893784,+05.463770,-02.688945
-122.117,+006.522,+008.258,-0.157,-0.556,+3.059,-30.3300,-01.0290,+00.5470,-01.547883,+04.456638,-02.694425
-124.007,+011.072,+007.036,-0.342,-0.609,+2.997,-33.1280,+06.9460,+06.5240,-00.108774,+03.241959,-01.755723
-125.106,+013.818,+007.306,-0.421,-0.593,+2.999,-32.3000,+03.3490,+10.6130,+00.436167,+01.508804,-01.054253
-126.306,+014.141,+006.819,-0.439,-0.627,+2.977,-28.9860,+04.2890,+04.3210,-00.428613,-00.529915,-01.009646
-125.994,+011.650,+007.248,-0.351,-0.628,+3.018,+06.5610,-01.9890,-19.2550,+00.563356,-02.745255,+01.748670
-124.351,+007.571,+008.732,-0.263,-0.569,+3.081,+03.7420,-24.2280,+04.5330,+01.735936,-04.184337,+01.227384
-126.787,+001.509,+009.844,+0.042,-0.538,+3.121,-17.2920,+14.9110,-30.7430,+02.079389,-05.382681,-01.285418
-127.286,-002.915,+010.947,+0.236,-0.495,+3.140,-05.4540,+02.8460,-14.1910,+01.113844,-03.398793,+01.030238
-127.737,-006.387,+011.879,+0.357,-0.487,+3.151,-04.5480,-15.0660,-11.4420,+00.402683,-02.939264,-00.312521
-128.676,-009.488,+012.161,+0.514,-0.464,+3.120,-04.2990,+03.2380,-14.6060,+00.120715,-02.720842,+00.017387
-129.320,-012.326,+012.389,+0.648,-0.490,+3.088,-06.1810,-06.8080,-14.8780,-00.033913,-02.422601,-00.247190
-129.991,-014.659,+012.555,+0.736,-0.500,+3.097,-04.1640,-00.5060,-14.3630,+00.020722,-01.875940,+00.106653
-129.907,-016.212,+012.393,+0.810,-0.492,+3.052,-03.5680,-01.2390,-10.0850,-00.129494,-01.024471,+00.532954
-129.430,-017.311,+012.164,+0.833,-0.526,+3.021,-03.0990,-01.8920,-10.1990,+00.014916,-00.793705,+00.553456
-129.132,-017.905,+012.011,+0.860,-0.527,+3.055,-04.0120,-01.8890,-09.7250,-00.100259,-00.333551,+00.213408
-129.088,-018.233,+011.844,+0.860,-0.512,+3.022,-03.4160,-01.9530,-09.0290,-00.141170,-00.234850,+00.035431
-129.117,-018.441,+011.657,+0.883,-0.547,+3.040,-02.7710,-02.1130,-08.6470,-00.202091,-00.181793,+00.022343
-129.038,-018.687,+011.314,+0.883,-0.557,+3.029,-02.8340,-02.0810,-08.7110,-00.334688,-00.192669,+00.173178
-128.725,-018.946,+010.777,+0.897,-0.576,+3.019,-03.0940,-01.7320,-08.7730,-00.413264,-00.167173,+00.357903
-128.247,-019.230,+010.108,+0.893,-0.616,+3.008,-03.4040,-01.8020,-08.6880,-00.445189,-00.166386,+00.461005
-127.755,-019.481,+009.541,+0.883,-0.645,+3.019,-03.1440,-01.6640,-08.7670,-00.336166,-00.137522,+00.421922
-127.287,-019.746,+009.075,+0.883,-0.645,+2.997,-03.3560,-01.2330,-08.7160,-00.234275,-00.182776,+00.405709
-126.820,-020.095,+008.656,+0.892,-0.675,+2.982,-03.1370,-01.3250,-08.7490,-00.206156,-00.288271,+00.449856
-126.282,-020.594,+008.238,+0.911,-0.695,+2.993,-03.2020,-01.3430,-08.6380,-00.220631,-00.417251,+00.539658
-125.624,-021.321,+007.662,+0.916,-0.700,+2.956,-02.9080,-01.5110,-08.9110,-00.347410,-00.653800,+00.660095
-124.899,-022.309,+006.960,+0.948,-0.745,+2.936,-03.9430,-01.0420,-08.7320,-00.375660,-00.840260,+00.661116
-124.376,-023.535,+006.281,+0.980,-0.760,+2.954,-03.6340,-01.0130,-08.7990,-00.444978,-01.144832,+00.487701
-124.037,-025.226,+005.477,+1.026,-0.791,+2.875,-03.5890,-00.7880,-08.7640,-00.670687,-01.625225,+00.352349
-124.068,-027.477,+004.605,+1.109,-0.841,+2.831,-03.8590,-00.3360,-08.5090,-00.824568,-02.144732,-00.014931
-124.803,-030.382,+003.965,+1.220,-0.867,+2.772,-04.2120,-00.2450,-08.5350,-00.881433,-02.832917,-00.545387
-126.251,-034.160,+003.950,+1.377,-0.874,+2.676,-06.6550,-00.0850,-09.0590,-00.493453,-03.752106,-01.064841
-129.027,-039.353,+005.334,+1.599,-0.833,+2.535,-03.7500,-00.4380,-09.5110,-00.165536,-05.335771,-01.824842
-132.756,-046.602,+008.178,+1.812,-0.801,+2.399,-02.8290,-01.6850,-10.9400,+00.420803,-07.349515,-01.431343
-137.745,-055.899,+013.215,+2.107,-0.707,+2.051,-08.0770,+02.7630,-17.9480,+01.795058,-08.886906,-00.786900
-146.220,-066.555,+023.513,+2.371,-0.623,+1.647,-08.8760,-02.3410,-19.8740,+03.272539,-10.559210,+00.185776
-165.052,-077.797,+044.564,+2.504,-0.626,+1.249,-14.2020,-01.0200,-29.0660,+02.686709,-10.495060,+01.616139
+140.973,-083.074,+101.321,+2.545,-0.668,+0.843,-16.3400,-05.4600,-38.9580,+01.691960,-05.802192,+01.696149
+134.230,-084.095,+108.064,+2.513,-0.727,+0.788,-05.3160,-04.0870,-43.2590,-00.176789,+02.030297,+00.585037
+177.852,-085.071,+064.198,+2.499,-0.766,+0.954,+05.4170,+00.1390,-09.7920,-00.580776,+03.550492,+01.300300
-143.885,-083.763,+025.338,+2.453,-0.853,+1.087,+04.8850,-00.9350,-04.3330,-00.641382,+02.751441,+01.553209
-125.329,-080.951,+006.414,+2.402,-0.956,+1.253,+02.4240,-02.9290,-10.5560,-00.326735,+03.194386,+01.260444
-118.755,-076.387,-000.376,+2.323,-1.028,+1.422,+00.0810,-05.5640,-14.3730,-00.324101,+04.589435,+00.659871
-118.578,-070.173,-000.905,+2.199,-1.095,+1.654,-02.2420,-05.2840,-12.4690,-00.248009,+05.859448,-00.237143
-120.769,-062.825,+000.764,+2.033,-1.146,+1.932,-04.6130,-04.2200,-11.7710,-00.353339,+06.686666,-01.010465
-123.114,-054.774,+002.261,+1.880,-1.178,+2.103,-06.2550,-02.1870,-11.7200,-00.471265,+07.142514,-01.338593
-124.747,-046.325,+003.281,+1.714,-1.180,+2.274,-08.4320,+01.6930,-10.9480,+00.027437,+07.406451,-01.123816
-125.141,-037.795,+004.174,+1.571,-1.143,+2.515,-09.5090,+03.3160,-10.3240,+00.803355,+07.367878,-00.421531
-124.201,-029.755,+004.992,+1.386,-1.091,+2.770,-11.3850,+02.6880,-10.8590,+01.369737,+06.734839,+00.424475
-122.566,-022.674,+005.900,+1.082,-0.909,+2.949,-13.0120,-00.4970,-18.3970,+01.440738,+06.099458,+00.810298
-120.942,-015.575,+007.139,+0.754,-0.792,+3.084,-17.3110,-06.6520,-24.2630,+01.551063,+06.533000,+00.320837
-120.547,-007.936,+008.644,+0.467,-0.675,+3.141,-20.4100,-06.2540,-16.8210,+01.242408,+06.553946,-01.113936
-121.213,-000.708,+009.634,+0.176,-0.608,+3.090,-23.7130,-04.3790,-14.3510,+00.537506,+05.868933,-01.731411
-122.304,+005.730,+009.691,-0.055,-0.592,+3.036,-26.0840,-04.9000,-05.7600,-00.103012,+05.001749,-01.996710
-123.548,+010.822,+009.768,-0.190,-0.570,+3.025,-30.7620,+02.7890,+03.1530,+00.551960,+03.681321,-01.476355
-123.962,+013.856,+010.968,-0.310,-0.491,+2.992,-32.7890,+01.0820,+09.2200,+01.343698,+01.818641,-00.533711
-124.486,+014.577,+012.039,-0.337,-0.466,+3.002,-30.7770,-02.8300,+08.2950,+00.707088,-00.213744,-00.695362
-125.841,+013.601,+011.820,-0.287,-0.476,+3.025,-23.8990,-00.3170,-01.9070,-00.229989,-01.498889,-00.940901
-126.534,+010.882,+009.961,-0.171,-0.541,+3.004,+26.8240,+10.3830,-31.1050,-01.316888,-02.057720,+00.274412
-125.786,+006.579,+008.740,-0.023,-0.597,+3.011,-13.0970,+11.4930,+15.1790,-01.983350,-05.058586,+01.152425
-125.804,+000.698,+008.900,+0.176,-0.628,+3.052,-13.1030,-02.9000,-25.1440,-00.025646,-04.453529,+00.327767
-126.768,-004.047,+010.066,+0.407,-0.596,+3.035,-05.2960,-09.0300,-11.7140,+01.342780,-04.137637,-00.576888
-128.109,-008.461,+011.933,+0.606,-0.549,+3.038,-04.7840,+03.3710,-16.1030,+01.642895,-03.924622,-00.079900
-128.936,-012.406,+013.136,+0.749,-0.531,+3.044,-10.1080,-12.8830,-18.6620,+00.319557,-03.119372,-00.204463
-129.675,-014.617,+012.959,+0.883,-0.527,+2.975,-05.6520,+03.5610,-16.1280,-00.302312,-01.312698,+00.067038
-129.680,-015.603,+012.527,+0.920,-0.552,+2.966,-02.2180,-03.0740,-09.2090,-00.538721,-00.671649,+00.249857
-129.258,-016.309,+011.782,+0.930,-0.602,+2.983,-02.2230,-00.9550,-09.4240,-00.511540,-00.508187,+00.577822
-128.522,-017.055,+010.909,+0.962,-0.632,+2.947,-03.5610,-02.4700,-09.5860,-00.624117,-00.442011,+00.794099
-127.823,-017.587,+009.960,+0.957,-0.661,+2.942,-03.6590,-01.6670,-08.9710,-00.591886,-00.292018,+00.579455
-127.436,-017.920,+009.380,+0.971,-0.691,+2.958,-03.2570,-00.4390,-08.8580,-00.301854,-00.198859,+00.249598
-127.332,-018.192,+009.123,+0.962,-0.686,+2.931,-03.2800,-01.1380,-08.8680,-00.146120,-00.237886,+00.059088
-127.334,-018.453,+008.943,+0.976,-0.721,+2.916,-02.8320,-01.5840,-08.8220,-00.181996,-00.217363,+00.051160
-127.199,-018.742,+008.635,+0.980,-0.711,+2.905,-02.9470,-01.7130,-08.8130,-00.273857,-00.240015,+00.217192
-126.886,-019.057,+008.194,+0.999,-0.736,+2.895,-03.0670,-01.4320,-08.7750,-00.293361,-00.233307,+00.334644
-126.453,-019.385,+007.731,+1.008,-0.756,+2.864,-03.1900,-01.1580,-08.6740,-00.259970,-00.233927,+00.417599
-125.968,-019.737,+007.320,+1.003,-0.815,+2.907,-02.9800,-00.9960,-08.7410,-00.202402,-00.272279,+00.452753
-125.415,-020.203,+006.900,+1.008,-0.776,+2.853,-03.0730,-01.2900,-08.7200,-00.195846,-00.406577,+00.532325
-124.740,-020.878,+006.465,+1.012,-0.835,+2.864,-03.2560,-01.0160,-08.7240,-00.155235,-00.593412,+00.661640
-124.018,-021.768,+006.041,+1.022,-0.845,+2.865,-03.2940,-00.3970,-08.9630,-00.146704,-00.791798,+00.638409
-123.519,-022.854,+005.697,+1.054,-0.855,+2.845,-03.8430,-00.5830,-08.8660,-00.133454,-01.000327,+00.413924
-123.349,-024.248,+005.448,+1.105,-0.886,+2.777,-03.6160,-00.7730,-08.7230,-00.197208,-01.332134,+00.153564
-123.588,-026.085,+005.180,+1.169,-0.901,+2.786,-03.6900,-00.4230,-08.8290,-00.401110,-01.813495,-00.149861
-124.256,-028.583,+004.857,+1.271,-0.912,+2.699,-04.1980,-00.5640,-08.5340,-00.641166,-02.484283,-00.466005
-125.520,-031.920,+004.659,+1.396,-0.924,+2.624,-04.4190,-00.2930,-08.4220,-00.751046,-03.330817,-00.870268
-127.849,-036.469,+005.280,+1.557,-0.911,+2.518,-04.8880,-00.4700,-09.8110,-00.532538,-04.619781,-01.623475
-131.555,-042.851,+007.400,+1.807,-0.836,+2.329,-01.3910,+00.2700,-12.4820,+00.023350,-06.582878,-01.806604
-136.000,-051.629,+011.170,+2.094,-0.756,+1.997,-03.8540,-00.5310,-10.6950,+00.383110,-08.839476,-01.377269
-141.885,-062.016,+018.096,+2.292,-0.730,+1.736,-11.6200,+00.8400,-12.6520,+01.960722,-10.042940,-00.384941
-153.846,-073.819,+032.052,+2.458,-0.655,+1.232,-13.7020,-07.2700,-20.3300,+01.769499,-11.047880,+01.449907
+170.542,-082.812,+070.526,+2.485,-0.732,+0.797,-17.6240,-06.9440,-28.9500,+03.330505,-08.353889,+01.916462
+126.723,-084.446,+117.690,+2.448,-0.747,+0.683,-24.7740,-10.9630,-74.6880,+01.986608,-00.461501,+00.739528
+151.809,-086.337,+093.683,+2.416,-0.712,+0.735,+02.6490,-06.1490,-19.6950,+00.057917,+03.061311,+01.210608
-151.285,-086.118,+035.935,+2.383,-0.716,+0.863,+05.3330,-03.8890,-07.4400,-01.160062,+02.729203,+01.063288
-128.181,-083.558,+011.816,+2.342,-0.754,+0.969,+03.0490,-03.5120,-10.4080,-00.747393,+02.936914,+00.550396
-122.153,-079.306,+005.509,+2.296,-0.728,+1.166,+00.7570,-03.9290,-14.1180,-00.094471,+04.364944,+00.053570
-121.073,-073.097,+004.457,+2.208,-0.765,+1.431,-02.4050,-03.4570,-15.1160,+00.027575,+06.027435,-00.424275
-121.496,-065.283,+004.725,+2.061,-0.733,+1.694,-04.8650,-02.4400,-12.9570,-00.214793,+07.159459,-00.810838
-122.220,-056.580,+005.033,+1.825,-0.749,+1.979,-06.7090,-01.2770,-11.1500,-00.294744,+07.703697,-01.023050
-122.903,-047.482,+005.314,+1.516,-0.779,+2.240,-08.2880,-00.6460,-11.5440,-00.157040,+07.942652,-01.091822
-123.132,-038.311,+005.565,+1.201,-0.760,+2.393,-10.1270,+02.1590,-08.4280,+00.310959,+07.894375,-00.709935
-122.619,-030.011,+006.263,+0.808,-0.816,+2.382,-11.9900,+01.4480,-09.6240,+01.137640,+06.802811,-00.211043
-121.746,-022.820,+007.108,+0.623,-0.853,+2.342,-13.1960,-01.8520,-19.2490,+00.942468,+06.130150,+00.037017
-120.755,-015.522,+007.917,+0.489,-0.842,+2.357,-18.1320,-03.2730,-23.4020,+01.026649,+06.688067,-00.152722
-120.089,-007.801,+009.113,+0.411,-0.747,+2.418,-20.2840,-02.3420,-16.7670,+01.211619,+06.653261,-00.613829
-119.793,-000.485,+010.165,+0.231,-0.562,+2.645,-23.9040,-04.7210,-15.4130,+00.617179,+06.135637,-00.924056
-120.009,+006.040,+010.228,-0.019,-0.470,+2.736,-26.5040,-06.4670,-05.9600,-00.184536,+05.116776,-01.404267
-120.799,+010.978,+010.075,-0.287,-0.433,+2.745,-31.5950,+00.8720,+00.9200,+00.367597,+03.566321,-01.229856
-121.156,+014.141,+011.084,-0.463,-0.407,+2.711,-33.8980,-01.0250,+09.1470,+01.139305,+02.007001,-00.645206
-122.121,+014.880,+011.686,-0.509,-0.362,+2.741,-31.5470,-03.8060,+11.8020,+00.368787,-00.482774,-01.217673
-124.315,+013.398,+011.072,-0.458,-0.352,+2.727,-24.1090,-00.5790,+01.6510,-00.185821,-02.258382,-01.470352
-125.973,+010.375,+009.391,-0.356,-0.447,+2.743,+34.9100,+14.2880,-29.8060,-01.016901,-02.593091,-00.326148
-125.424,+005.593,+008.266,-0.268,-0.507,+2.784,-17.6910,+18.2340,+10.2790,-01.139748,-05.408030,+01.255180
-125.224,-000.211,+008.945,-0.088,-0.464,+2.808,-10.7690,-02.2800,-22.4710,+00.335800,-04.365231,+00.436737
-125.975,-004.865,+010.305,+0.065,-0.416,+2.820,-05.6390,-09.2280,-12.4910,+01.316618,-03.924365,-00.272705
-127.028,-008.948,+011.639,+0.185,-0.388,+2.857,-05.6030,-03.2000,-16.0130,+01.054427,-03.585669,-00.084882
-127.824,-012.654,+012.579,+0.310,-0.340,+2.836,-08.4860,-07.4090,-18.0350,+00.444301,-02.956039,-00.075191
-128.338,-014.932,+012.443,+0.407,-0.370,+2.813,-05.6670,+02.1960,-15.0120,-00.264533,-01.443725,+00.182784
-128.155,-016.199,+012.008,+0.444,-0.371,+2.826,-03.2770,-03.5550,-10.0070,-00.543951,-00.816443,+00.436155
-127.606,-016.965,+011.253,+0.458,-0.406,+2.810,-03.3370,-01.5370,-09.6530,-00.496271,-00.452089,+00.569223
-127.011,-017.598,+010.577,+0.463,-0.440,+2.789,-02.8640,-00.9890,-09.9320,-00.464329,-00.443849,+00.608781
-126.553,-018.011,+009.864,+0.463,-0.460,+2.800,-03.1340,-02.2540,-08.8020,-00.493932,-00.244125,+00.371794
-126.170,-018.341,+009.182,+0.481,-0.470,+2.774,-02.9500,-01.8150,-08.9110,-00.486688,-00.214838,+00.366193
-125.748,-018.656,+008.508,+0.481,-0.515,+2.758,-03.2370,-01.5660,-08.7750,-00.444253,-00.225398,+00.399627
-125.295,-018.971,+007.916,+0.467,-0.539,+2.779,-02.9690,-01.3840,-08.9100,-00.366945,-00.218178,+00.439498
-124.806,-019.284,+007.368,+0.472,-0.529,+2.753,-03.3310,-00.6120,-08.7750,-00.306181,-00.206881,+00.400571
-124.466,-019.555,+006.975,+0.476,-0.534,+2.753,-03.0380,-00.4670,-08.6960,-00.208532,-00.202673,+00.258280
-124.211,-019.821,+006.688,+0.495,-0.539,+2.770,-03.0840,-01.1230,-08.7490,-00.173037,-00.208148,+00.248155
-123.822,-020.125,+006.331,+0.485,-0.549,+2.737,-03.2010,-01.2210,-08.6340,-00.211350,-00.244015,+00.410767
-123.227,-020.535,+005.903,+0.495,-0.594,+2.727,-02.9840,-00.8640,-08.6970,-00.190345,-00.347835,+00.593840
-122.451,-021.157,+005.440,+0.499,-0.584,+2.738,-03.0920,-00.9800,-08.7700,-00.140125,-00.561181,+00.726980
-121.660,-021.986,+005.003,+0.513,-0.604,+2.717,-03.5300,-00.3690,-08.7030,-00.125785,-00.717402,+00.655311
-121.212,-022.966,+004.688,+0.532,-0.619,+2.707,-03.3040,+01.1750,-08.7420,-00.122570,-00.853087,+00.219688
-121.509,-024.204,+004.844,+0.569,-0.634,+2.731,-04.1220,-00.2930,-09.2310,+00.042616,-01.262273,-00.324808
-122.447,-026.022,+004.953,+0.652,-0.600,+2.680,-03.9440,-00.7680,-08.9850,-00.426445,-01.867317,-00.800623
-124.067,-028.533,+004.955,+0.758,-0.617,+2.631,-04.1750,-01.0710,-08.4710,-00.729749,-02.598096,-01.165997
-126.005,-031.972,+004.996,+0.874,-0.662,+2.615,-04.9090,-01.3300,-08.8070,-00.775904,-03.492898,-01.231168
-128.682,-036.916,+005.728,+1.054,-0.640,+2.515,-04.0180,-01.3000,-10.0420,-00.579155,-05.109043,-01.615226
-131.706,-044.173,+007.596,+1.322,-0.614,+2.328,+00.2140,-00.3870,-13.9940,+00.199534,-07.351169,-00.725971
-133.913,-054.304,+009.351,+1.544,-0.627,+2.171,-05.9760,-01.5440,-18.0590,+00.109523,-09.742986,+00.496310
-136.279,-066.417,+012.817,+1.793,-0.641,+1.816,-09.9440,-00.3060,-18.7740,+02.032714,-11.202570,+01.339682
-140.539,-079.488,+019.781,+1.954,-0.669,+1.393,-14.6070,+00.3230,-21.9890,+02.499715,-10.696040,+02.561050
+099.423,-088.728,+143.277,+1.977,-0.755,+1.136,-14.7690,-08.3520,-33.1140,+01.906018,-07.964062,+02.470867
+041.967,-086.142,-158.405,+1.930,-0.809,+0.989,-06.1240,-10.7170,-49.8480,+00.098055,+00.764221,+00.935284
-028.776,-088.163,-087.728,+1.866,-0.843,+1.067,+02.0120,-07.0820,-15.9080,-00.304661,+03.924109,-00.038200
-101.198,-085.344,-015.984,+1.824,-0.876,+1.130,+03.8150,-03.1370,-03.8720,-00.658300,+03.713874,-00.729282
-116.135,-081.551,-002.005,+1.787,-0.876,+1.172,+02.2320,-01.2530,-05.4450,-00.761265,+03.405525,-01.044239
-122.501,-077.096,+003.347,+1.769,-0.885,+1.219,-01.9620,-00.3860,-14.1260,-00.812554,+04.355568,-01.066353
-124.993,-070.822,+005.058,+1.792,-0.875,+1.333,-03.8020,+00.3540,-13.8130,-00.469088,+05.983522,-00.963221
-125.936,-063.294,+005.673,+1.797,-0.800,+1.505,-04.9310,+01.1600,-10.3720,-00.090012,+06.721846,-00.905202
-126.145,-055.214,+005.900,+1.728,-0.769,+1.739,-06.7260,+01.8270,-11.4520,+00.115716,+07.179474,-00.711989
-125.665,-046.789,+005.846,+1.668,-0.777,+1.973,-07.9060,+03.2350,-11.3000,+00.409686,+07.404376,-00.337957
-124.477,-038.328,+005.861,+1.544,-0.769,+2.252,-09.4400,+04.3510,-10.5160,+00.882009,+07.399413,+00.243426
-122.699,-030.363,+006.150,+1.336,-0.840,+2.588,-10.0190,+02.3730,-09.2560,+01.215032,+06.711809,+00.658965
-121.062,-023.530,+006.587,+1.119,-0.880,+2.864,-11.1520,+00.4370,-16.7400,+00.864500,+05.762292,+00.553317
-119.684,-016.928,+006.611,+0.740,-0.851,+2.987,-13.9290,-01.2360,-22.8500,+00.193061,+05.966363,+00.372451
-118.808,-010.155,+006.537,+0.384,-0.833,+3.004,-17.3410,-03.2570,-19.0070,+00.144807,+05.863467,-00.221812
-118.982,-003.671,+006.814,+0.180,-0.865,+3.022,-23.5510,-07.2860,-18.8310,+00.227172,+05.497146,-01.129398
-120.221,+002.852,+006.811,-0.042,-0.844,+2.975,-27.4740,-11.3380,-08.3320,-00.096649,+05.465115,-02.181405
-122.776,+008.468,+006.955,-0.204,-0.842,+2.935,-27.8410,+00.4560,+05.2270,+00.840506,+03.923448,-03.037585
-125.206,+012.274,+008.020,-0.283,-0.802,+2.931,-32.1000,+03.8680,+04.8930,+01.148109,+02.498238,-02.018208
-126.800,+013.960,+008.279,-0.310,-0.797,+2.914,-30.2120,+02.2250,+11.1290,+00.303569,+00.437795,-01.436783
-128.448,+013.581,+008.281,-0.269,-0.797,+2.921,-27.1590,+02.3370,-00.3240,+00.423989,-00.908228,-01.229921
-129.305,+011.478,+008.258,-0.195,-0.768,+2.940,+07.2610,+03.9360,-15.6630,-00.032913,-02.503225,+00.242034
-128.154,+007.972,+007.729,-0.079,-0.745,+2.924,+06.3440,-02.2030,-04.3150,-01.122560,-03.589131,+01.941350
-127.990,+002.307,+007.329,+0.125,-0.752,+2.917,-18.0100,-03.3360,-22.8340,+00.701721,-04.728124,+00.056537
-128.570,-002.138,+008.133,+0.287,-0.719,+2.945,-02.9250,-00.0680,-13.1370,+01.167345,-03.746234,+00.242336
-129.259,-006.070,+009.518,+0.439,-0.617,+2.924,-05.5670,-08.3300,-15.0820,+00.983023,-03.314634,-00.223957
-130.206,-009.599,+010.490,+0.592,-0.584,+2.931,-04.9680,-03.6640,-15.0920,+00.508672,-03.140621,-00.224514
-131.126,-012.645,+011.461,+0.708,-0.526,+2.919,-04.5240,-00.6710,-12.9330,+00.791377,-02.596989,-00.265509
-131.465,-014.588,+012.263,+0.796,-0.478,+2.879,-02.8170,-00.6130,-10.9350,+00.491046,-01.328775,+00.316803
-131.157,-015.868,+012.315,+0.837,-0.458,+2.881,-02.5650,-01.4370,-10.0520,-00.070050,-00.916001,+00.605806
-130.591,-016.876,+012.184,+0.846,-0.503,+2.871,-03.4920,-01.7460,-09.7570,-00.033867,-00.668456,+00.570148
-130.312,-017.358,+011.901,+0.870,-0.503,+2.840,-03.5880,-01.2350,-09.4320,-00.192330,-00.280212,+00.184154
-130.265,-017.660,+011.623,+0.879,-0.503,+2.835,-02.9970,-01.6070,-08.9620,-00.234231,-00.226812,+00.058294
-130.260,-017.913,+011.372,+0.893,-0.523,+2.852,-02.9970,-01.9720,-08.8200,-00.200245,-00.221518,+00.047288
-130.191,-018.210,+011.130,+0.893,-0.533,+2.814,-02.8040,-02.0410,-08.7390,-00.193764,-00.263596,+00.158018
-129.958,-018.591,+010.782,+0.906,-0.518,+2.831,-02.9460,-01.7810,-08.8770,-00.279351,-00.289561,+00.314680
-129.547,-018.972,+010.287,+0.911,-0.538,+2.815,-03.2540,-01.6960,-08.7380,-00.312720,-00.236669,+00.426684
-129.076,-019.277,+009.819,+0.911,-0.583,+2.799,-03.1990,-01.3860,-08.7780,-00.253235,-00.173877,+00.418668
-128.606,-019.573,+009.416,+0.897,-0.602,+2.799,-03.0170,-01.3610,-08.6900,-00.203248,-00.207386,+00.439612
-128.090,-019.936,+009.010,+0.911,-0.612,+2.805,-03.1040,-01.5250,-08.6740,-00.198825,-00.272301,+00.491005
-127.514,-020.418,+008.562,+0.911,-0.627,+2.789,-03.1220,-01.5220,-08.7060,-00.228920,-00.396938,+00.555870
-126.908,-021.061,+008.098,+0.920,-0.652,+2.773,-03.0570,-01.1460,-08.7250,-00.200566,-00.560418,+00.570313
-126.424,-021.869,+007.698,+0.943,-0.667,+2.774,-03.4630,-00.9070,-08.8890,-00.217571,-00.684357,+00.430990
-126.181,-022.847,+007.320,+0.975,-0.663,+2.727,-03.6510,-00.9910,-08.6520,-00.280049,-00.921992,+00.238876
-126.121,-024.194,+006.884,+1.022,-0.713,+2.697,-03.6730,-01.0900,-08.6650,-00.393579,-01.314095,+00.153195
-126.319,-026.044,+006.469,+1.072,-0.708,+2.683,-04.2010,-01.0600,-08.9800,-00.475303,-01.833834,-00.067881
-127.039,-028.492,+006.195,+1.169,-0.720,+2.596,-04.6270,-00.5880,-08.6530,-00.526710,-02.379150,-00.505355
-128.663,-031.583,+006.463,+1.294,-0.711,+2.526,-04.5830,-00.5960,-08.9810,-00.449040,-03.129063,-01.150151
-131.852,-035.682,+007.920,+1.438,-0.698,+2.484,-05.2130,-01.2840,-09.4150,-00.087923,-04.287719,-02.213655
-137.085,-041.068,+012.012,+1.678,-0.588,+2.322,-01.4760,+02.0900,-12.0320,+00.992481,-05.829973,-02.790625
-143.805,-048.188,+018.509,+1.951,-0.483,+2.091,-07.9680,+00.7470,-12.6410,+02.158133,-07.905292,-02.328176
-152.689,-056.647,+028.736,+2.154,-0.398,+1.857,-10.0080,+00.5700,-09.7370,+03.127318,-09.439962,-01.066244
-167.761,-066.403,+045.925,+2.380,-0.299,+1.398,-06.9910,-07.4220,-15.2660,+03.231896,-11.276060,+01.077833
+162.146,-074.012,+077.471,+2.467,-0.391,+0.870,-11.3320,-02.3000,-28.8930,+02.840607,-10.281790,+01.695630
+133.125,-075.663,+109.191,+2.444,-0.501,+0.616,-20.4270,+03.3680,-38.0160,+04.038477,-03.530089,+02.173214
+137.639,-078.342,+106.994,+2.397,-0.619,+0.604,-02.0360,-00.4760,-32.6120,+02.003121,+03.166408,+02.546369
+164.001,-082.269,+081.853,+2.374,-0.780,+0.766,+01.9980,-03.8160,-12.9200,+00.176230,+04.247886,+03.178846
-150.081,-082.754,+035.738,+2.346,-0.923,+0.868,+02.0040,-05.4680,-07.0250,-00.710116,+04.130625,+02.771513
-123.412,-079.021,+008.264,+2.309,-1.025,+0.996,-00.1740,-08.4280,-10.2730,-01.071894,+04.526583,+01.809888
-116.309,-073.151,+000.032,+2.286,-1.083,+1.179,-02.4570,-09.5510,-13.2850,-01.169149,+05.684608,+00.670147
-116.775,-065.857,-000.717,+2.236,-1.067,+1.386,-04.0030,-07.3300,-10.7620,-00.866136,+06.695905,-00.533565
-119.182,-057.871,+000.698,+2.171,-0.986,+1.641,-06.3220,-03.9580,-08.8880,-00.488260,+07.074787,-01.134945
-121.024,-049.653,+001.919,+2.066,-0.895,+1.932,-07.1050,-00.3760,-09.9710,-00.016753,+07.182694,-01.040965
-121.725,-041.225,+003.029,+1.918,-0.872,+2.216,-09.7600,+02.4410,-12.7890,+00.864908,+07.449495,-00.498089
-121.021,-032.550,+004.042,+1.618,-0.803,+2.520,-11.2310,+02.1090,-10.4420,+01.413361,+07.545079,+00.348133
-119.528,-024.690,+005.073,+1.318,-0.784,+2.792,-11.4230,-00.8310,-10.2940,+01.501029,+06.452874,+00.632470
-118.209,-017.950,+006.354,+1.036,-0.726,+2.951,-14.6670,-02.4260,-21.7740,+01.619541,+05.910430,+00.331193
-117.512,-010.966,+008.141,+0.694,-0.688,+3.033,-18.1140,-04.4180,-21.6930,+01.743331,+06.186190,-00.550559
-117.743,-003.871,+009.889,+0.375,-0.660,+3.067,-22.7660,-03.6920,-17.8920,+01.311523,+05.955343,-01.507575
-118.732,+002.835,+010.874,+0.153,-0.623,+3.105,-26.2730,-03.8950,-10.7400,+00.541802,+05.312118,-02.132938
-120.282,+008.508,+010.814,-0.051,-0.602,+3.016,-31.7030,+00.7950,-02.0130,-00.003585,+04.176466,-02.141078
-121.254,+012.430,+010.845,-0.185,-0.605,+2.983,-33.6840,+03.0100,+11.6190,+00.458622,+02.455220,-01.050064
-122.027,+013.794,+011.809,-0.213,-0.575,+3.003,-33.7500,-00.2520,+09.9070,+01.197376,+00.280479,-00.935386
-123.739,+013.467,+012.060,-0.185,-0.522,+2.982,-27.0610,-02.2890,+03.5180,+00.035837,-01.167895,-01.523237
-125.019,+010.312,+010.461,-0.032,-0.597,+2.979,+21.8350,+10.1410,-37.3860,-00.916729,-02.541500,-00.039980
-124.398,+005.988,+009.251,+0.088,-0.633,+2.973,-13.3130,+07.8810,+21.4770,-01.902662,-04.983177,+01.041796
-125.154,+000.017,+009.365,+0.333,-0.606,+2.952,-15.8080,+02.7440,-34.4200,-00.019721,-04.341849,-00.194297
-125.623,-004.231,+010.208,+0.518,-0.603,+2.933,-04.8800,-07.9200,-12.2960,+00.970497,-03.495796,+00.166924
-126.533,-007.791,+010.999,+0.643,-0.570,+2.922,-03.9050,-04.8750,-12.0460,+00.413816,-03.101162,-00.332997
-127.257,-011.206,+011.487,+0.800,-0.537,+2.875,-04.7450,-03.9330,-15.2370,+00.188807,-03.010566,+00.082185
-127.837,-014.090,+011.937,+0.916,-0.548,+2.837,-04.5120,-00.3460,-15.1370,+00.016343,-02.257218,+00.075407
-127.665,-015.672,+011.775,+0.967,-0.534,+2.834,-02.3630,-03.1940,-10.2670,-00.219487,-01.062001,+00.566949
-126.989,-016.751,+011.104,+0.994,-0.554,+2.781,-03.0120,-00.4230,-10.2620,-00.483752,-00.702590,+00.829141
-126.224,-017.365,+010.430,+0.999,-0.618,+2.782,-03.2350,-02.8020,-09.3770,-00.476410,-00.324532,+00.603721
-125.750,-017.766,+009.794,+0.999,-0.623,+2.787,-03.6480,-01.4490,-09.1640,-00.416560,-00.256662,+00.332606
-125.553,-018.077,+009.316,+1.013,-0.638,+2.761,-03.0790,-01.1800,-09.0270,-00.339097,-00.217683,+00.154205
-125.440,-018.385,+008.918,+1.008,-0.638,+2.750,-03.2590,-01.9000,-08.8420,-00.320359,-00.277276,+00.123970
-125.266,-018.739,+008.469,+1.022,-0.673,+2.751,-02.9720,-01.8020,-08.9200,-00.366209,-00.273504,+00.254563
-124.919,-019.114,+007.907,+1.031,-0.693,+2.730,-03.0770,-01.4230,-08.9690,-00.403171,-00.288593,+00.365609
-124.470,-019.502,+007.301,+1.036,-0.708,+2.703,-03.3260,-00.9190,-08.7140,-00.376691,-00.282669,+00.417473
-124.049,-019.864,+006.830,+1.035,-0.747,+2.709,-03.1240,-00.8480,-08.6910,-00.248495,-00.267275,+00.376424
-123.574,-020.261,+006.429,+1.049,-0.753,+2.683,-03.2890,-00.8410,-08.7210,-00.179064,-00.323181,+00.446680
-123.014,-020.751,+006.064,+1.054,-0.767,+2.678,-03.1520,-01.0410,-08.7800,-00.134915,-00.416844,+00.549095
-122.327,-021.409,+005.674,+1.059,-0.772,+2.683,-03.2060,-01.0560,-08.7970,-00.125730,-00.582625,+00.665305
-121.493,-022.311,+005.191,+1.072,-0.797,+2.652,-03.1340,-00.7840,-08.8990,-00.175233,-00.813427,+00.764988
-120.828,-023.480,+004.663,+1.095,-0.827,+2.615,-03.6370,-00.5710,-08.7070,-00.268803,-01.093789,+00.553860
-120.451,-025.007,+004.125,+1.142,-0.843,+2.623,-04.1790,-00.4220,-08.7100,-00.351670,-01.450634,+00.292198
-120.465,-026.978,+003.675,+1.197,-0.858,+2.561,-03.7400,-00.5350,-08.8970,-00.445361,-01.886637,-00.018134
-120.880,-029.510,+003.242,+1.299,-0.879,+2.496,-04.5770,-00.3120,-08.5950,-00.618447,-02.454858,-00.300206
-121.715,-032.786,+002.871,+1.386,-0.915,+2.446,-05.6290,-00.1950,-08.5000,-00.754440,-03.152596,-00.596407
-123.322,-037.033,+002.943,+1.548,-0.883,+2.302,-06.1610,+00.0060,-08.9880,-00.679913,-04.243966,-01.255140
-126.008,-043.010,+004.006,+1.751,-0.871,+2.112,-02.2440,-00.3170,-12.3300,-00.386345,-06.053399,-01.466809
-128.730,-051.513,+005.468,+1.936,-0.849,+1.904,-04.1730,-01.3290,-14.3410,-00.521795,-08.400913,-00.569680
-131.172,-062.247,+008.155,+2.153,-0.789,+1.510,-11.5560,+04.1440,-09.7260,+01.276768,-10.105450,-00.017386
-135.836,-074.639,+015.871,+2.291,-0.842,+1.113,-09.0620,-05.8130,-21.4180,+03.224891,-10.967950,+01.351047
-147.275,-085.577,+031.706,+2.300,-0.853,+0.801,-18.3740,-07.7060,-33.5610,+04.357605,-07.856718,+02.338850
-140.394,-089.020,+025.739,+2.249,-0.938,+0.649,-20.9160,-16.3590,-81.8340,-00.610469,+01.400110,+00.693808
-107.056,-086.643,-007.655,+2.230,-0.981,+0.713,+07.9220,-03.3160,-08.6940,-00.616942,+02.257411,+00.839567
-099.450,-084.544,-015.923,+2.221,-0.986,+0.756,+04.3110,-02.3260,-06.6600,-00.440919,+01.452706,+00.745124
-100.191,-082.462,-015.354,+2.217,-0.991,+0.798,+01.8380,-04.4260,-13.4270,-00.124352,+02.148799,+00.198666
-106.369,-078.994,-009.912,+2.221,-0.990,+0.912,-00.3450,-05.5790,-17.6400,-00.892845,+03.818421,-00.418154
-113.025,-073.620,-004.653,+2.222,-0.945,+1.035,-01.5660,-02.6520,-13.0630,-00.970153,+05.314868,-00.952772
-117.953,-067.020,-000.653,+2.204,-0.865,+1.254,-02.9400,-01.1100,-09.8090,-00.311977,+06.034774,-01.277192
-121.172,-059.819,+002.142,+2.153,-0.814,+1.472,-04.7030,-00.9330,-11.0620,-00.014514,+06.411338,-01.343474
-123.032,-052.047,+003.573,+2.084,-0.778,+1.733,-07.2980,-00.4220,-12.0520,-00.142833,+06.911087,-01.154794
-123.753,-043.826,+004.280,+1.923,-0.730,+1.973,-08.9580,+02.5500,-12.3740,+00.463970,+07.252980,-00.702152
-123.234,-035.331,+005.222,+1.738,-0.658,+2.244,-10.8760,+03.1400,-11.5850,+01.472702,+07.457879,+00.026097
-121.834,-027.215,+006.416,+1.526,-0.600,+2.482,-11.3340,+00.0000,-11.6210,+01.602892,+06.863215,+00.439908
-120.245,-019.962,+007.307,+1.272,-0.513,+2.610,-14.2860,-02.0580,-21.0580,+01.279782,+06.340004,+00.524821
-118.947,-012.308,+008.475,+0.995,-0.386,+2.791,-18.5430,-05.4210,-22.5070,+01.375737,+07.014161,-00.185597
-118.622,-004.435,+010.056,+0.759,-0.324,+2.915,-22.1530,-03.5300,-15.3080,+01.420238,+06.553781,-01.159963
-119.016,+002.613,+011.266,+0.472,-0.227,+2.971,-26.7530,-05.4710,-12.1210,+00.686144,+05.619687,-01.655625
-120.233,+008.617,+010.965,+0.213,-0.269,+2.987,-29.6640,-05.6490,-00.9530,-00.635768,+04.443398,-02.292044
-121.869,+012.904,+010.332,+0.089,-0.243,+3.008,-36.1440,+02.4430,+06.9590,-00.007499,+02.828258,-01.771468
-123.137,+015.215,+010.073,-0.023,-0.252,+2.971,-35.4370,+01.8340,+12.0010,+00.010075,+01.037689,-01.323832
-124.835,+014.982,+009.406,+0.001,-0.282,+2.967,-29.9050,+02.1520,+09.5960,-00.403215,-01.402016,-01.238166
-125.567,+011.742,+007.940,+0.107,-0.322,+2.978,+32.5640,+14.6410,-34.3410,-00.941630,-02.784111,+00.514628
-124.191,+006.374,+007.557,+0.287,-0.339,+2.926,-17.0580,-01.1760,+12.6290,-00.342446,-05.874227,+01.427318
-125.033,+000.248,+008.258,+0.537,-0.317,+2.916,-12.4460,+08.5900,-29.4430,+00.626362,-04.658766,-00.077169
-125.608,-004.638,+010.191,+0.704,-0.235,+2.901,-05.4540,-12.6490,-11.3280,+01.835068,-04.062229,-00.089147
-127.224,-009.054,+012.163,+0.875,-0.138,+2.838,-05.9570,-05.7700,-13.7560,+01.335049,-04.078809,-00.698106
-128.445,-013.311,+013.489,+1.069,-0.101,+2.781,-08.0600,-01.7340,-19.9580,+00.561688,-03.554304,+00.068124
-129.054,-015.890,+013.316,+1.148,-0.112,+2.753,-06.4060,+01.2140,-15.8920,-00.737333,-01.475183,+00.095254
-128.819,-016.982,+012.671,+1.194,-0.123,+2.701,-02.1300,-05.3260,-09.0540,-00.480770,-00.793704,+00.469218
-128.130,-017.846,+011.769,+1.198,-0.187,+2.696,-05.2740,-01.1790,-11.9230,-00.454071,-00.338999,+00.868716
-127.227,-018.324,+010.668,+1.212,-0.226,+2.692,-03.0590,-03.5340,-08.0410,-00.670299,-00.288606,+00.800675
-126.552,-018.686,+009.740,+1.212,-0.261,+2.660,-03.3710,-00.6400,-08.9560,-00.575350,-00.185259,+00.493022
-126.246,-018.928,+009.193,+1.221,-0.291,+2.660,-03.4590,-00.2450,-09.0400,-00.274769,-00.155942,+00.146605
-126.259,-019.116,+009.011,+1.217,-0.291,+2.660,-03.0390,-00.9840,-08.7210,-00.124471,-00.186567,-00.033499
-126.342,-019.390,+008.846,+1.240,-0.261,+2.634,-02.9830,-01.5670,-08.9110,-00.198727,-00.279112,-00.004608
-126.310,-019.712,+008.568,+1.235,-0.311,+2.645,-03.1890,-01.7080,-08.8580,-00.256565,-00.271124,+00.120835
-126.112,-020.052,+008.181,+1.244,-0.321,+2.661,-03.2860,-01.2110,-08.7440,-00.281856,-00.268103,+00.245221
-125.827,-020.388,+007.796,+1.254,-0.301,+2.629,-03.3430,-00.9240,-08.7590,-00.226781,-00.251776,+00.276726
-125.521,-020.734,+007.467,+1.277,-0.365,+2.626,-03.3600,-00.9300,-08.7460,-00.183345,-00.275564,+00.298128
-125.146,-021.136,+007.102,+1.272,-0.361,+2.609,-03.1880,-01.3030,-08.6680,-00.208801,-00.347908,+00.393340
-124.599,-021.688,+006.676,+1.290,-0.381,+2.572,-03.3330,-01.1350,-08.6370,-00.187565,-00.478035,+00.562019
-123.918,-022.417,+006.213,+1.290,-0.410,+2.578,-03.5360,-00.4840,-08.6920,-00.181677,-00.614321,+00.620187
-123.333,-023.289,+005.786,+1.318,-0.420,+2.574,-03.7290,-00.3520,-08.7560,-00.167509,-00.785556,+00.501533
-122.957,-024.370,+005.444,+1.350,-0.446,+2.543,-03.9830,-00.7330,-08.7160,-00.173404,-01.002784,+00.334466
-122.825,-025.746,+005.125,+1.383,-0.466,+2.507,-03.9330,-00.6700,-08.6930,-00.265817,-01.299337,+00.127172
-123.042,-027.493,+004.803,+1.443,-0.461,+2.494,-04.5030,-00.6620,-08.5030,-00.451429,-01.689504,-00.119144
-123.585,-029.749,+004.451,+1.521,-0.478,+2.400,-04.0220,-00.3740,-08.3880,-00.560652,-02.192436,-00.329417
-124.397,-032.690,+004.247,+1.609,-0.504,+2.313,-04.6740,-00.5930,-08.2840,-00.534087,-02.900076,-00.499910
-125.895,-036.783,+004.516,+1.720,-0.485,+2.242,-03.8530,-01.2060,-09.5290,-00.519378,-04.183506,-00.985520
-127.815,-042.679,+005.270,+1.886,-0.458,+2.050,-01.9660,-00.7940,-12.6230,-00.290821,-05.920129,-00.702483
-129.268,-051.068,+005.909,+2.062,-0.467,+1.735,-03.6630,-00.3720,-14.5800,-00.465113,-08.215820,+00.299277
-129.996,-061.638,+007.346,+2.200,-0.489,+1.461,-12.3020,+01.1800,-10.9280,+01.425258,-09.794498,+00.737329
-132.163,-073.602,+012.421,+2.310,-0.487,+1.020,-09.0950,-00.7750,-19.2430,+02.823212,-10.577310,+01.577686
-129.984,-084.582,+013.361,+2.282,-0.622,+0.626,-16.5550,-06.2900,-33.1840,+02.368289,-08.186482,+02.882144
-061.984,-087.314,-053.096,+2.212,-0.741,+0.506,-29.8540,-10.4710,-64.5870,+01.410658,+00.307961,+02.432448
-066.375,-083.979,-046.570,+2.147,-0.838,+0.611,+03.0170,-08.2350,-14.0550,+01.871352,+02.836610,+01.850348
-074.578,-080.824,-037.215,+2.101,-0.896,+0.728,+04.8630,-08.2230,-05.5040,+00.773646,+02.506267,+00.654678
-084.188,-078.444,-027.053,+2.087,-0.876,+0.819,+03.3840,-06.0360,-08.7000,+00.634856,+02.725495,-00.639203
-096.389,-075.208,-014.500,+2.102,-0.811,+0.916,-00.0250,-02.7660,-16.0010,+00.522461,+04.105362,-01.579076
-106.335,-069.636,-004.361,+2.153,-0.767,+1.090,-01.8310,+01.6600,-14.4260,+00.626495,+05.784866,-01.848256
-111.874,-062.441,+001.715,+2.190,-0.697,+1.344,-02.8800,+05.1240,-09.2190,+01.055640,+06.514731,-01.763597
-114.403,-054.778,+005.275,+2.168,-0.581,+1.735,-05.0210,+07.9330,-09.8280,+01.257699,+06.650203,-01.341984
-114.403,-046.717,+006.763,+1.956,-0.503,+2.177,-08.0650,+10.4980,-15.4800,+01.356679,+07.294383,-00.313461
-112.198,-038.027,+007.188,+1.642,-0.434,+2.443,-09.3820,+11.3680,-07.1300,+01.831466,+07.682052,+00.920457
-109.184,-030.367,+007.625,+1.272,-0.371,+2.550,-10.0840,+07.2780,-08.8930,+01.709576,+06.398754,+01.456876
-106.016,-024.049,+007.693,+1.077,-0.423,+2.569,-11.2090,+06.8560,-16.7760,+01.255438,+05.567164,+01.859983
-102.649,-017.774,+008.526,+0.948,-0.381,+2.708,-15.4970,+02.0870,-20.5370,+02.006591,+06.032738,+01.906685
-099.589,-011.183,+010.092,+0.653,-0.279,+2.883,-17.0810,-00.5160,-15.8820,+02.015507,+06.041198,+01.422975
-097.030,-004.824,+012.003,+0.320,-0.117,+2.969,-20.1040,+03.0190,-13.2690,+01.964847,+05.731047,+00.975392
-094.536,+000.769,+014.012,+0.056,-0.026,+2.995,-19.5840,+04.9100,-08.9640,+01.663928,+04.878119,+01.091357
-092.294,+005.075,+015.504,-0.212,+0.105,+2.944,-18.1970,+02.1830,-06.3010,+00.861763,+03.677886,+00.700507
-090.807,+008.296,+016.040,-0.406,+0.048,+2.931,-21.7540,+07.5590,-03.5220,-00.016658,+02.707286,+00.557605
-088.888,+009.882,+015.884,-0.508,+0.058,+2.899,-23.6990,+09.4550,+04.9410,-00.399119,+01.161355,+01.559046
-086.871,+009.684,+016.128,-0.554,+0.049,+2.849,-23.4810,+04.4780,+01.2310,-00.078443,-00.120666,+01.671473
-085.687,+008.434,+015.583,-0.554,+0.039,+2.838,-19.5360,+00.8310,+01.5050,-00.988911,-01.216623,+01.002295
-085.283,+005.869,+013.981,-0.490,-0.006,+2.868,+06.8110,-00.0790,-22.3120,-01.080343,-02.071169,+01.254287
-084.018,+002.746,+012.533,-0.416,+0.003,+2.855,+07.5260,-12.5140,-02.1960,-01.639467,-02.990880,+01.594134
-084.384,-002.180,+010.315,-0.268,-0.132,+2.874,-17.5400,+08.1470,-24.1450,-01.485811,-04.245955,+00.266663
-085.178,-006.260,+008.833,-0.152,-0.152,+2.900,-01.1680,-01.9170,-09.8460,-00.912524,-03.703762,-00.242994
-086.458,-010.579,+008.740,+0.005,-0.184,+2.875,-03.2330,+05.0360,-16.1940,+00.198438,-04.231478,-00.413740
-086.852,-015.245,+010.187,+0.172,-0.121,+2.877,-11.2650,-02.4180,-19.8360,+01.573726,-03.644604,+00.562132
-086.815,-017.437,+011.133,+0.237,-0.077,+2.901,-05.5110,+00.5700,-10.5080,+00.553266,-01.153229,+00.354419
-086.703,-018.095,+011.551,+0.264,-0.053,+2.880,-04.2340,-01.6040,-10.6300,+00.200577,-00.386973,+00.141854
-086.573,-018.421,+011.538,+0.269,-0.053,+2.875,-03.0860,-02.2670,-08.8990,-00.066689,-00.215735,+00.187651
-086.414,-018.715,+011.383,+0.274,-0.053,+2.875,-03.6600,-01.7100,-09.0380,-00.075710,-00.236350,+00.134728
-086.405,-018.964,+011.326,+0.278,-0.063,+2.865,-03.1570,-01.6060,-08.9250,-00.029108,-00.204838,+00.007739
-086.481,-019.188,+011.319,+0.288,-0.073,+2.871,-03.2000,-01.9220,-08.8800,-00.032607,-00.196230,-00.032402
-086.550,-019.417,+011.284,+0.297,-0.083,+2.882,-03.2100,-02.1890,-08.7870,-00.066060,-00.213465,+00.004513
-086.528,-019.656,+011.163,+0.315,-0.049,+2.866,-03.1680,-01.9650,-08.6620,-00.120893,-00.193828,+00.085787
-086.411,-019.902,+010.944,+0.320,-0.093,+2.862,-03.0510,-01.6850,-08.6850,-00.168995,-00.199673,+00.171746
-086.218,-020.174,+010.695,+0.324,-0.108,+2.889,-03.1760,-01.5960,-08.7480,-00.156582,-00.207048,+00.214267
-085.980,-020.465,+010.439,+0.320,-0.069,+2.861,-03.2350,-01.5350,-08.7440,-00.152870,-00.212926,+00.250786
-085.764,-020.750,+010.168,+0.343,-0.118,+2.884,-03.4670,-01.4350,-08.6690,-00.168680,-00.214633,+00.184042
-085.539,-021.072,+009.854,+0.338,-0.128,+2.879,-02.8860,-01.5780,-08.6260,-00.240420,-00.270730,+00.283487
-085.214,-021.520,+009.445,+0.352,-0.118,+2.863,-03.4770,-01.5370,-08.5520,-00.237473,-00.372757,+00.341276
-084.857,-022.087,+009.065,+0.375,-0.163,+2.848,-03.4630,-01.2850,-08.7460,-00.210648,-00.477887,+00.362575
-084.577,-022.780,+008.684,+0.389,-0.158,+2.870,-03.6390,-01.2620,-08.7240,-00.271861,-00.606945,+00.276321
-084.498,-023.600,+008.361,+0.408,-0.168,+2.834,-03.7100,-01.1040,-08.7510,-00.255503,-00.752563,+00.093193
-084.647,-024.626,+008.147,+0.454,-0.149,+2.792,-03.7650,-01.3290,-08.6380,-00.228810,-01.009299,-00.037901
-085.018,-026.011,+008.094,+0.509,-0.194,+2.833,-03.9780,-01.2030,-08.5600,-00.163713,-01.407302,-00.178825
-085.699,-027.906,+008.294,+0.574,-0.170,+2.819,-03.5800,-01.1380,-08.5210,-00.063770,-01.874668,-00.346019
-086.841,-030.240,+008.881,+0.694,-0.201,+2.793,-05.1250,-01.2000,-08.4660,+00.080124,-02.335334,-00.732474
-089.021,-033.124,+010.211,+0.773,-0.177,+2.785,-05.4130,-01.5290,-09.1040,+00.273930,-03.041112,-01.459873
-092.749,-036.750,+012.881,+0.949,-0.115,+2.717,-07.9830,-00.7600,-09.5660,+00.827040,-03.989246,-02.247568
-098.015,-041.396,+018.052,+1.148,+0.001,+2.601,-03.8440,+00.4810,-10.2970,+02.150795,-05.335512,-02.395591
-104.297,-046.982,+026.574,+1.351,+0.166,+2.507,-06.5680,+00.4290,-14.0430,+04.617430,-06.256612,-01.464812
-112.436,-053.396,+039.593,+1.592,+0.414,+2.295,-08.2970,-00.9330,-11.0480,+06.741285,-07.849743,-00.291613
-125.568,-060.531,+058.793,+1.851,+0.573,+1.950,-06.8340,-04.7510,-10.2700,+07.773383,-09.436410,+01.416455
-145.714,-065.981,+086.493,+2.026,+0.668,+1.628,-10.8470,-05.0730,-25.2270,+09.112767,-08.362403,+02.379649
-161.427,-069.045,+110.362,+2.128,+0.655,+1.283,-09.8590,+00.1740,-34.5730,+05.791866,-01.816423,+04.153730
-156.050,-073.664,+108.843,+2.067,+0.508,+1.378,-04.2450,-05.1200,-34.7890,+03.038491,+04.581786,+03.499013
-132.996,-078.151,+088.159,+1.929,+0.348,+1.540,+03.5890,-03.0180,-08.3990,+01.128233,+05.272051,+02.836258
-101.827,-078.965,+058.935,+1.748,+0.227,+1.636,+01.2120,-02.4360,-08.9610,+01.189837,+04.890546,+01.702689
-077.128,-075.472,+035.486,+1.591,+0.081,+1.737,-03.3220,-01.3820,-20.3630,+00.108977,+06.031883,+00.708356
-063.015,-068.589,+021.625,+1.447,-0.035,+1.872,-05.6740,+05.9620,-17.3520,-00.314960,+07.593504,+00.416343
-055.111,-060.045,+014.736,+1.285,-0.092,+1.994,-05.7240,+10.6510,-06.7440,+00.610399,+08.035640,+00.698876
-049.434,-051.943,+011.219,+1.128,-0.100,+2.149,-05.1020,+08.6590,-03.8270,+01.109607,+07.084315,+01.362064
-044.759,-044.757,+008.528,+0.981,-0.098,+2.320,-07.5200,+04.7490,-13.4510,+00.454652,+06.568661,+01.683214
-040.773,-037.197,+006.481,+0.763,-0.085,+2.413,-08.8200,+05.2070,-14.6510,+00.665004,+07.064384,+01.775700
-037.275,-029.406,+005.840,+0.495,-0.033,+2.487,-08.9200,+05.2210,-10.0500,+01.410831,+06.865495,+01.843424
-034.230,-022.633,+006.487,+0.357,+0.023,+2.486,-07.9610,+02.4880,-08.5290,+01.753160,+05.569493,+01.601606
-031.871,-017.117,+007.775,+0.274,+0.167,+2.545,-11.2040,+01.2150,-16.4560,+01.870904,+04.894054,+01.134058
-030.175,-011.705,+009.427,+0.154,+0.267,+2.609,-16.9950,+00.5780,-22.1170,+01.714266,+04.956310,+00.449586
-028.876,-005.494,+010.669,-0.004,+0.319,+2.731,-22.0370,+01.1020,-20.9080,+00.900521,+05.844809,+00.024732
-027.884,+000.875,+011.031,-0.276,+0.371,+2.805,-23.3040,-01.8120,-06.9200,+00.058120,+05.254387,-00.390977
-027.998,+006.066,+010.525,-0.549,+0.340,+2.880,-27.0630,-05.9440,-02.3470,-00.735406,+03.951648,-01.312445
-029.329,+009.956,+009.511,-0.748,+0.293,+2.871,-32.6110,-02.7770,+04.9120,-00.490360,+02.620329,-01.874842
-031.380,+012.121,+009.273,-0.878,+0.244,+2.834,-33.5640,-00.1350,+08.6740,+00.523881,+00.947286,-02.137677
-034.030,+012.578,+009.447,-0.915,+0.230,+2.843,-31.0840,+03.3890,-01.4380,+00.500076,-00.336657,-02.338432
-036.286,+012.077,+008.543,-0.892,+0.171,+2.920,-05.3510,+11.4390,-07.7380,-01.272964,-01.113162,-01.390766
-035.268,+010.694,+008.415,-0.859,+0.190,+2.926,+29.3410,+09.8010,+00.0770,+00.230738,-01.794301,+02.540408
-033.942,+005.578,+008.265,-0.683,+0.189,+3.052,-19.1590,-08.6750,-02.4870,-00.108210,-05.520926,+00.634566
-035.114,+000.580,+008.655,-0.498,+0.203,+3.168,-07.2960,+07.4280,-15.1070,+00.593818,-04.074874,-00.407377
-035.861,-003.589,+010.059,-0.294,+0.275,+3.214,-05.2610,+00.6790,-14.9230,+01.473227,-03.324894,+00.007312
-036.360,-006.878,+011.461,-0.142,+0.313,+3.253,-04.8260,-04.8280,-14.9400,+01.031047,-02.629621,+00.135468
-037.012,-009.441,+012.241,-0.026,+0.337,+3.301,-04.4450,-07.9030,-13.6010,+00.295354,-02.133666,-00.301541
-037.833,-011.489,+012.575,+0.081,+0.375,+3.284,-03.9290,-00.9390,-13.0620,+00.170396,-01.721148,-00.207363
-038.258,-013.313,+012.707,+0.173,+0.340,+3.320,-02.7780,-01.9180,-11.1850,-00.006487,-01.583101,+00.109042
-038.328,-014.923,+012.444,+0.242,+0.344,+3.313,-02.4720,-01.4060,-10.2540,-00.363641,-01.301886,+00.300187
-038.240,-016.052,+012.155,+0.293,+0.368,+3.304,-03.2490,-01.5760,-10.3660,-00.135353,-00.792515,+00.250054
-038.210,-016.790,+012.046,+0.340,+0.323,+3.301,-03.0400,-02.0240,-09.4550,-00.071542,-00.527116,+00.136643
-038.126,-017.330,+011.861,+0.358,+0.313,+3.329,-02.2300,-02.3430,-08.5700,-00.240018,-00.438761,+00.212955
-037.853,-017.881,+011.465,+0.395,+0.308,+3.309,-03.3000,-02.4620,-08.8330,-00.253953,-00.346640,+00.358746
-037.438,-018.355,+010.990,+0.400,+0.268,+3.304,-03.0330,-01.9770,-08.9150,-00.340643,-00.335340,+00.447348
-037.010,-018.797,+010.486,+0.404,+0.273,+3.315,-03.4540,-01.3660,-08.9040,-00.299078,-00.291598,+00.371708
-036.701,-019.143,+010.054,+0.437,+0.288,+3.300,-03.1890,-01.5440,-08.7780,-00.279173,-00.241104,+00.280186
-036.400,-019.485,+009.670,+0.450,+0.228,+3.312,-02.8890,-01.9660,-08.6990,-00.227069,-00.278337,+00.327217
-035.996,-019.912,+009.300,+0.455,+0.189,+3.318,-03.3600,-01.4320,-08.6090,-00.206012,-00.329884,+00.417974
-035.513,-020.410,+008.900,+0.487,+0.198,+3.297,-03.3890,-01.5930,-08.5930,-00.206848,-00.397341,+00.476805
-034.959,-021.038,+008.444,+0.511,+0.178,+3.309,-03.0110,-01.4720,-08.7730,-00.230488,-00.520465,+00.565093
-034.360,-021.867,+007.930,+0.548,+0.183,+3.311,-02.9910,-01.3100,-08.7920,-00.316103,-00.718860,+00.585490
-033.887,-022.903,+007.317,+0.584,+0.128,+3.286,-03.8600,-01.1090,-08.7440,-00.413037,-00.924364,+00.395996
-033.829,-024.245,+006.681,+0.654,+0.093,+3.295,-03.7900,-01.1810,-08.6870,-00.589974,-01.313865,+00.067706
-034.172,-026.083,+006.081,+0.723,+0.068,+3.293,-03.6470,-00.7110,-08.8230,-00.695054,-01.824904,-00.206807
-035.103,-028.589,+005.665,+0.839,+0.047,+3.228,-03.6250,-00.6980,-08.6650,-00.765658,-02.501410,-00.650694
-036.778,-031.995,+005.804,+1.010,+0.010,+3.209,-06.0580,-00.7500,-08.6420,-00.465619,-03.476288,-01.144159
-039.907,-036.667,+007.353,+1.176,+0.028,+3.157,-06.0820,-00.8400,-08.7550,-00.014158,-04.843934,-02.195630
-044.657,-042.960,+010.841,+1.468,+0.123,+2.986,-03.0890,-01.0530,-13.0430,+00.690115,-06.647246,-02.051057
-050.156,-051.276,+017.021,+1.800,+0.232,+2.768,-04.7940,+00.6190,-21.8920,+02.679864,-08.330744,-00.961889
-058.088,-061.477,+028.554,+2.120,+0.380,+2.490,-10.7750,+01.3660,-20.7730,+05.252468,-10.514660,+00.299240
-075.136,-072.726,+049.187,+2.452,+0.512,+1.966,-12.7350,-05.7490,-26.4930,+03.437640,-11.204510,+02.292180
-113.308,-079.605,+090.493,+2.636,+0.439,+1.544,-18.4870,-07.5130,-22.6400,+03.422324,-07.909401,+02.631274
-142.680,-080.985,+121.580,+2.632,+0.380,+1.415,-20.0320,-03.6440,-54.9150,+01.485456,-01.312206,+01.875348
-145.429,-083.440,+126.076,+2.534,+0.336,+1.459,+00.1610,-08.5010,-28.2870,+00.745961,+02.352496,+01.898392
-112.502,-086.586,+092.677,+2.354,+0.275,+1.656,+02.3080,-06.5570,-15.0580,-01.158479,+03.474490,+01.463453
-046.334,-085.047,+024.505,+2.179,+0.214,+1.838,+00.4300,-05.7110,-14.3440,-02.241840,+04.395360,+00.891465
-029.698,-079.495,+005.473,+1.864,+0.158,+2.023,-01.0080,-02.4870,-12.2390,-01.981612,+05.564356,+00.543089
-026.408,-072.429,+000.856,+1.485,+0.084,+2.099,-02.7310,-01.3850,-10.2410,-00.746362,+06.519944,+00.256970
-026.092,-064.566,+000.370,+1.281,+0.105,+2.073,-04.0380,-02.0210,-09.5580,+00.060198,+07.013806,-00.109554
-026.697,-056.386,+000.898,+1.184,+0.131,+2.074,-05.2920,-02.4230,-10.4460,-00.088251,+07.186928,-00.461713
-027.521,-047.900,+001.447,+1.101,+0.138,+2.254,-08.0120,-00.1090,-13.9520,+00.022099,+07.592064,-00.626115
-027.800,-038.730,+002.263,+0.986,+0.150,+2.415,-09.9120,+04.3970,-11.2530,+00.923961,+08.178660,-00.222144
-026.893,-029.883,+003.575,+0.759,+0.207,+2.653,-10.8970,+05.0870,-07.5180,+01.924480,+07.273829,+00.568234
-025.163,-022.373,+004.891,+0.455,+0.276,+2.876,-13.8140,+00.2210,-19.2840,+01.523206,+06.451459,+00.982800
-023.457,-014.902,+005.874,+0.136,+0.373,+2.979,-17.9710,-05.6500,-24.5810,+01.316464,+06.785579,+00.470189
-023.175,-006.980,+007.241,-0.271,+0.416,+2.950,-20.8010,-08.0150,-18.5300,+01.183298,+06.841715,-01.219087
-024.593,+000.744,+008.137,-0.669,+0.390,+2.863,-25.6400,-06.4430,-14.0520,+00.399171,+06.245892,-02.555625
-027.070,+007.566,+007.847,-0.924,+0.318,+2.729,-29.3450,-05.3070,-05.5130,-00.325065,+05.119165,-03.156868
-030.019,+012.704,+006.897,-1.133,+0.187,+2.602,-34.1330,+00.8280,+01.1200,-00.096612,+03.568844,-02.848045
-032.168,+015.922,+007.068,-1.230,+0.138,+2.485,-36.0870,+01.9920,+11.1420,+01.074445,+01.809399,-01.725323
-033.883,+016.450,+008.058,-1.249,+0.128,+2.484,-33.2710,-01.4920,+06.8390,+01.220921,-00.586788,-01.427619
-035.724,+015.132,+008.264,-1.198,+0.108,+2.508,-25.8010,-00.4370,-02.6920,+00.258409,-01.719371,-01.232620
-036.553,+012.584,+008.138,-1.124,+0.083,+2.571,+27.9320,+05.7640,-23.4870,+00.118399,-02.186452,+00.199989
-036.607,+007.972,+008.664,-1.017,+0.107,+2.656,-08.3120,+03.4360,+17.3560,-00.219501,-05.546556,+00.039251
-037.673,+001.928,+009.115,-0.790,+0.110,+2.763,-15.3060,+01.9490,-29.8440,-00.003757,-04.618690,-00.162485
-038.107,-002.506,+009.902,-0.619,+0.118,+2.803,-04.5530,-07.0600,-12.4870,+00.765320,-03.640133,+00.260605
-038.908,-006.448,+010.634,-0.494,+0.122,+2.878,-05.1770,-01.9490,-12.7860,+00.443322,-03.402358,-00.138737
-039.453,-010.146,+010.933,-0.341,+0.126,+2.901,-06.9790,-05.1520,-12.7540,+00.090025,-03.128886,+00.215812
-040.279,-013.566,+010.893,-0.198,+0.120,+2.945,-06.6810,-00.2270,-14.8480,-00.132216,-02.857142,-00.159753
-040.442,-016.089,+011.207,-0.105,+0.104,+2.955,-05.1940,-02.3350,-12.0400,+00.283417,-01.519422,+00.525854
-039.935,-017.338,+011.010,-0.050,+0.133,+2.957,-03.8170,+00.0020,-10.8300,+00.010943,-00.733343,+00.673228
-039.537,-017.929,+010.872,-0.022,+0.098,+2.948,-03.7950,-02.8420,-09.4090,-00.065863,-00.354018,+00.232745
-039.467,-018.299,+010.718,-0.022,+0.128,+2.963,-03.1870,-01.6640,-08.9410,-00.142577,-00.259226,+00.078619
-039.440,-018.591,+010.477,-0.013,+0.088,+2.937,-03.3680,-02.0310,-08.9260,-00.242139,-00.216884,+00.076406
-039.315,-018.835,+010.101,+0.006,+0.058,+2.949,-02.9430,-02.2730,-08.7940,-00.312080,-00.206649,+00.189440
-038.986,-019.169,+009.575,+0.006,+0.068,+2.954,-03.1200,-02.2010,-08.7580,-00.373489,-00.241860,+00.396733
-038.478,-019.502,+009.038,+0.015,+0.044,+2.950,-03.2510,-01.6010,-08.7440,-00.297355,-00.201607,+00.482969
-037.929,-019.813,+008.573,+0.033,+0.028,+2.934,-03.3760,-01.2320,-08.6530,-00.213056,-00.200879,+00.474727
-037.415,-020.143,+008.228,+0.047,+0.028,+2.967,-03.0880,-01.6310,-08.6900,-00.123370,-00.237302,+00.466747
-036.786,-020.573,+007.881,+0.052,+0.043,+2.935,-03.1800,-01.6840,-08.6160,-00.117431,-00.347550,+00.624514
-035.962,-021.188,+007.440,+0.061,+0.018,+2.946,-03.3490,-01.4130,-08.6520,-00.130083,-00.497094,+00.781707
-035.064,-022.041,+006.935,+0.080,-0.002,+2.969,-03.3240,-00.8940,-08.7370,-00.169284,-00.738623,+00.804472
-034.351,-023.120,+006.365,+0.126,+0.008,+2.944,-03.7280,-00.7790,-08.6750,-00.322067,-00.969273,+00.598254
-033.999,-024.555,+005.737,+0.191,-0.032,+2.947,-03.5200,-00.9080,-08.7410,-00.480235,-01.379846,+00.297113
-034.118,-026.484,+005.106,+0.246,-0.067,+2.960,-03.5030,-00.7810,-08.7660,-00.675713,-01.887718,-00.057209
-034.643,-029.073,+004.517,+0.357,-0.088,+2.912,-04.4180,-00.7170,-08.5480,-00.761766,-02.533904,-00.349414
-035.761,-032.418,+004.162,+0.505,-0.125,+2.902,-04.1670,-00.2840,-08.4190,-00.802434,-03.269514,-00.802210
-037.823,-036.779,+004.689,+0.648,-0.146,+2.882,-04.6280,-00.1230,-09.5530,-00.400323,-04.364913,-01.458241
-041.647,-042.882,+007.095,+0.903,-0.104,+2.790,-02.7790,-00.6500,-10.5020,+00.117106,-06.402854,-02.203389
-046.783,-051.470,+011.844,+1.268,-0.055,+2.628,-01.5860,-00.7970,-12.5360,+00.889955,-08.768531,-01.798351
-054.004,-061.966,+020.711,+1.573,+0.035,+2.399,-12.1120,-00.5060,-11.1050,+03.071136,-10.470370,-00.611552
-070.093,-073.867,+040.222,+1.947,+0.187,+1.989,-12.0690,-09.3740,-16.5970,+03.296360,-11.907630,+01.544979
-124.928,-081.344,+098.445,+2.197,+0.172,+1.500,-14.4180,-06.8750,-38.4880,+03.933678,-10.766420,+02.134463
-164.186,-080.773,+138.507,+2.266,+0.121,+1.293,-40.8740,-17.2910,-65.3880,+00.265027,-00.733072,+01.662533
-144.374,-085.059,+119.034,+2.201,+0.078,+1.371,+00.2670,-03.5280,-22.4250,+00.340047,+05.085154,+01.658698
-064.436,-086.052,+039.174,+2.113,+0.040,+1.540,+05.3080,-01.7500,-03.7450,-00.114771,+04.311534,+01.544167
-033.395,-082.449,+007.725,+2.044,+0.041,+1.661,+02.1500,-04.0770,-08.1690,-00.747100,+03.763893,+01.033702
-026.991,-077.438,+000.041,+1.924,+0.068,+1.741,-01.9010,-05.3960,-18.1720,-01.454839,+05.024520,+00.480754
-026.997,-070.207,-001.519,+1.776,+0.099,+1.853,-04.1590,-03.5400,-14.9500,-01.136525,+06.980932,-00.171985
-029.021,-061.764,-000.453,+1.711,+0.170,+1.968,-04.3540,-03.1740,-07.5890,-00.477556,+07.416859,-00.796060
-031.148,-053.424,+000.834,+1.615,+0.251,+2.238,-06.2340,-03.0170,-10.2580,-00.480551,+07.242895,-01.105883
-032.721,-044.931,+001.413,+1.324,+0.359,+2.499,-08.3130,-00.5140,-12.3990,-00.461940,+07.485484,-00.939599
-033.357,-036.159,+001.899,+1.051,+0.470,+2.561,-09.7690,+01.3660,-10.9850,+00.442763,+07.686502,-00.421158
-033.192,-027.812,+003.247,+0.880,+0.684,+2.498,-10.6980,-00.2850,-12.1120,+01.705163,+06.955831,-00.118592
-032.860,-020.287,+004.832,+0.890,+0.916,+2.583,-12.1750,-04.5480,-19.2060,+01.301297,+06.394956,-00.256974
-032.788,-012.799,+006.109,+0.923,+1.090,+2.863,-17.0620,-06.9530,-25.6610,+01.061329,+06.713944,-00.852827
-033.433,-004.705,+007.628,+0.549,+1.333,+3.313,-22.1700,-04.5910,-18.4960,+01.391953,+06.930793,-01.691046
-034.579,+002.815,+009.143,-0.107,+1.449,+3.488,-25.6920,-04.7770,-11.7120,+01.185838,+05.899155,-02.035585
-036.088,+009.062,+010.119,-0.653,+1.518,+3.469,-31.2530,-01.4400,-06.2850,+01.012277,+04.746462,-02.217788
-037.134,+013.698,+010.806,-1.181,+1.542,+3.209,-35.9170,+00.0620,+08.5980,+00.639756,+03.111721,-01.142238
-037.421,+015.843,+011.762,-1.431,+1.528,+2.994,-38.6350,-01.5200,+09.4650,+01.008506,+01.085353,-00.432170
-038.004,+015.865,+012.096,-1.509,+1.539,+2.931,-33.1980,-04.5620,+07.8540,-00.069159,-00.836382,-00.552114
-039.035,+013.900,+010.871,-1.523,+1.534,+2.920,-14.9830,+01.1360,+03.5060,-01.524753,-02.749922,-00.194883
-039.145,+010.968,+009.683,-1.468,+1.548,+2.970,+32.5110,+07.8030,-17.8930,-00.057473,-02.688121,+00.904777
-038.996,+005.149,+009.774,-1.296,+1.557,+3.042,-30.4950,+13.3530,-14.8430,+01.703235,-06.080563,+01.060700
-039.311,+000.595,+009.952,-1.093,+1.664,+3.078,-03.2340,-16.4310,-15.6590,+00.223576,-03.106801,-00.369764
-040.674,-002.510,+010.286,-0.991,+1.668,+3.120,-04.9900,+06.4590,-15.5870,+00.287596,-02.494733,-00.514289
-041.109,-004.909,+010.823,-0.889,+1.741,+3.134,-02.8910,-08.1460,-11.9700,+00.477493,-01.959490,+00.028788
-041.846,-006.700,+011.025,-0.833,+1.750,+3.137,-03.3300,+00.4270,-11.9260,+00.030590,-01.455367,-00.408941
-042.183,-008.099,+011.390,-0.778,+1.769,+3.139,-01.6550,-01.8540,-09.8200,+00.382606,-01.185196,+00.138169
-042.333,-009.637,+011.525,-0.722,+1.789,+3.174,-00.3510,-01.3250,-06.8510,-00.076126,-01.511302,+00.183330
-042.277,-011.841,+011.546,-0.611,+1.817,+3.173,-00.1660,-00.1420,-06.3820,+00.106609,-02.115319,+00.530982
-042.156,-014.685,+011.234,-0.482,+1.845,+3.184,-02.4120,-01.9860,-10.5460,-00.437924,-02.442662,+00.600810
-041.925,-016.860,+010.829,-0.394,+1.874,+3.214,-07.8570,-06.8090,-19.0580,-00.501357,-01.197668,+00.397319
-041.910,-017.519,+010.657,-0.343,+1.889,+3.216,-03.4100,-00.7800,-11.8990,-00.003747,-00.458451,+00.130404
-041.766,-018.154,+010.534,-0.301,+1.878,+3.224,-02.8480,-02.1270,-08.1430,-00.155915,-00.549198,+00.246915
-041.388,-018.981,+010.073,-0.287,+1.844,+3.225,-02.1570,-02.0860,-08.4550,-00.335475,-00.716359,+00.562787
-040.589,-019.768,+009.284,-0.209,+1.877,+3.228,-03.6720,-02.0110,-09.4430,-00.481922,-00.479297,+00.859237
-039.601,-020.336,+008.390,-0.167,+1.813,+3.257,-03.7430,-02.8460,-08.3270,-00.411097,-00.296828,+00.847722
-038.703,-020.719,+007.792,-0.135,+1.837,+3.258,-03.5120,-00.9250,-08.8000,-00.203042,-00.211597,+00.720752
-038.021,-021.060,+007.365,-0.079,+1.822,+3.261,-03.7980,-01.0440,-08.6640,-00.144868,-00.230246,+00.480314
-037.648,-021.420,+007.038,-0.070,+1.827,+3.272,-03.1100,-00.9890,-08.5940,-00.179662,-00.316275,+00.287611
-037.438,-021.925,+006.699,-0.051,+1.802,+3.278,-03.5250,-01.0420,-08.5860,-00.247388,-00.474740,+00.199685
-037.263,-022.595,+006.312,0.000,+1.797,+3.281,-03.7590,-00.7080,-08.7280,-00.295753,-00.620495,+00.197908
-037.181,-023.450,+005.953,+0.041,+1.806,+3.293,-04.1240,-01.5110,-08.6370,-00.286487,-00.810762,+00.137264
-037.213,-024.542,+005.520,+0.087,+1.756,+3.312,-03.6950,-01.1020,-08.8240,-00.470357,-01.069590,-00.001561
-037.541,-026.107,+005.057,+0.161,+1.746,+3.288,-03.9780,-00.8200,-08.7340,-00.541194,-01.621439,-00.201018
-038.272,-028.403,+004.736,+0.254,+1.715,+3.325,-03.5500,-00.5190,-08.9910,-00.632983,-02.310667,-00.499539
-039.641,-031.727,+004.734,+0.379,+1.685,+3.346,-05.1160,-00.3670,-09.0010,-00.524715,-03.366436,-00.987509
-042.479,-036.437,+006.127,+0.582,+1.658,+3.329,-06.3990,-00.3850,-09.4240,+00.068552,-04.890388,-02.007561
-046.632,-043.213,+009.322,+0.864,+1.709,+3.211,-01.0120,-00.8400,-12.4720,+00.639213,-07.081835,-01.716294
-052.147,-052.548,+014.542,+1.207,+1.715,+3.086,-00.7460,+00.0460,-19.8770,+00.844694,-09.337041,-01.005247
-060.354,-063.331,+024.197,+1.673,+1.802,+2.692,-09.8270,+01.0340,-25.3460,+03.126092,-10.554730,-00.347798
-078.700,-075.035,+045.582,+2.177,+1.803,+2.100,-15.4270,-05.3080,-27.0300,+02.571330,-11.332090,+01.659502
-123.663,-081.754,+093.109,+2.426,+1.631,+1.703,-22.0790,-03.5760,-36.2070,+02.587138,-07.087140,+02.434469
-146.656,-083.016,+117.155,+2.536,+1.422,+1.441,-17.8440,-02.0680,-72.8710,+01.015384,+01.101679,+01.077237
-116.794,-085.647,+088.673,+2.476,+1.172,+1.612,+06.3200,-01.7160,-15.2330,+00.575473,+03.464117,+01.801423
-060.478,-085.886,+032.997,+2.406,+1.005,+1.756,+05.0120,-02.0450,-07.1670,+00.407962,+02.716190,+01.761700
-032.554,-083.180,+005.442,+2.277,+0.859,+1.896,+01.5300,-04.8430,-13.2520,+00.054685,+03.256265,+01.159992
-026.541,-078.222,-000.744,+2.101,+0.684,+2.078,-01.4900,-05.7940,-17.7170,-00.385866,+05.112185,+00.349009
-027.511,-071.147,-000.417,+1.916,+0.628,+2.291,-03.2440,-03.2250,-11.8280,-00.521439,+06.660694,-00.435465
-029.528,-063.229,+000.986,+1.560,+0.588,+2.486,-04.5960,-01.4360,-08.7150,-00.345821,+06.977618,-00.831531
-031.078,-054.940,+001.964,+1.190,+0.528,+2.562,-07.3220,-01.0490,-13.4300,-00.278328,+07.424799,-00.877951
-032.052,-045.836,+002.479,+0.936,+0.457,+2.632,-09.5970,-00.3900,-15.2840,-00.115989,+08.197879,-00.796887
-032.261,-036.133,+003.127,+0.598,+0.426,+2.676,-12.1530,+03.6360,-10.9990,+00.894038,+08.516378,-00.322147
-031.429,-026.861,+004.546,+0.293,+0.404,+2.685,-13.6250,+01.5240,-11.1790,+01.945866,+07.726749,+00.287582
-030.276,-018.577,+006.093,+0.098,+0.446,+2.708,-16.5770,-05.1020,-21.2540,+01.420709,+07.173695,+00.082469
-029.789,-010.263,+007.355,-0.202,+0.488,+2.695,-20.2360,-04.7840,-21.6900,+01.203018,+07.313215,-00.797249
-030.164,-002.020,+008.729,-0.531,+0.476,+2.583,-24.3050,-04.8080,-17.0380,+01.027802,+06.822480,-01.593468
-031.058,+005.298,+009.261,-0.721,+0.443,+2.521,-28.6990,-06.0180,-10.7270,+00.163162,+05.756862,-01.880623
-032.463,+011.283,+009.117,-0.920,+0.376,+2.406,-34.3860,-02.0700,-02.9880,+00.116465,+04.495593,-02.049589
-033.638,+015.916,+009.092,-1.054,+0.347,+2.308,-38.6400,+00.3450,+09.2040,+00.170975,+03.204446,-01.337703
-034.813,+017.977,+008.493,-1.124,+0.279,+2.279,-37.5210,-00.6470,+11.6270,-00.444409,+00.635046,-01.352844
-036.732,+017.433,+007.103,-1.091,+0.214,+2.313,-30.1710,+05.0530,+03.1590,-00.772947,-01.379444,-01.474584
-037.320,+014.820,+005.625,-1.027,+0.169,+2.349,+28.4760,+11.6570,-30.0790,-00.999888,-02.173576,+00.622035
-036.150,+009.950,+006.380,-0.901,+0.218,+2.467,-07.8220,-09.7890,+20.3160,+00.594074,-05.726728,+00.717596
-037.697,+003.739,+007.615,-0.684,+0.256,+2.584,-17.2320,+09.3520,-33.4680,+00.832711,-04.607986,-00.691152
-038.052,-000.612,+008.648,-0.508,+0.299,+2.629,-04.9800,-11.5020,-13.3090,+00.966445,-03.492373,+00.212498
-039.258,-004.241,+009.290,-0.388,+0.313,+2.715,-03.3120,-03.4460,-12.8540,+00.239717,-03.196290,-00.686614
-039.960,-007.675,+009.606,-0.253,+0.326,+2.731,-06.0250,-00.9100,-15.5460,+00.273723,-02.939300,+00.213660
-040.605,-010.968,+009.973,-0.119,+0.335,+2.753,-04.3750,-01.1520,-12.9690,+00.309373,-02.944951,-00.102351
-040.810,-014.305,+010.467,-0.013,+0.329,+2.790,-04.1180,-03.6710,-16.6190,+00.110381,-02.582546,+00.574579
-040.046,-016.239,+010.060,+0.080,+0.363,+2.778,-03.5680,-01.3910,-10.8590,-00.277382,-01.216544,+01.085556
-039.203,-017.216,+009.587,+0.112,+0.338,+2.779,-04.9960,-03.3350,-11.2070,-00.308963,-00.459868,+00.634407
-038.752,-017.613,+008.967,+0.131,+0.318,+2.823,-03.8740,-01.4640,-08.9810,-00.433249,-00.238648,+00.298322
-038.592,-017.852,+008.477,+0.145,+0.313,+2.786,-02.8260,-01.5490,-08.9370,-00.351983,-00.158315,+00.127880
-038.480,-018.103,+008.074,+0.145,+0.283,+2.797,-02.7970,-01.7980,-08.8050,-00.330603,-00.236196,+00.137321
-038.240,-018.450,+007.591,+0.154,+0.263,+2.809,-02.8490,-02.0050,-08.8270,-00.372121,-00.287645,+00.316277
-037.767,-018.858,+006.991,+0.172,+0.288,+2.782,-03.1330,-01.2330,-08.7820,-00.378609,-00.303365,+00.489725
-037.207,-019.250,+006.412,+0.182,+0.243,+2.789,-03.3080,-00.8160,-08.8380,-00.310912,-00.283592,+00.487341
-036.702,-019.625,+005.965,+0.214,+0.209,+2.801,-03.0640,-00.9730,-08.7520,-00.203819,-00.283647,+00.444437
-036.131,-020.045,+005.595,+0.209,+0.223,+2.790,-03.1670,-01.1770,-08.7350,-00.128703,-00.354467,+00.557293
-035.338,-020.649,+005.196,+0.228,+0.208,+2.796,-03.1810,-00.9870,-08.6730,-00.088487,-00.530099,+00.778491
-034.391,-021.462,+004.773,+0.274,+0.218,+2.809,-03.4630,-00.7120,-08.7990,-00.060282,-00.699971,+00.829332
-033.634,-022.491,+004.366,+0.297,+0.203,+2.789,-03.4060,-00.1890,-08.9080,-00.130999,-00.910784,+00.538339
-033.275,-023.834,+004.026,+0.353,+0.207,+2.786,-03.4850,-00.6260,-08.8600,-00.219120,-01.298842,+00.278160
-033.252,-025.679,+003.621,+0.408,+0.177,+2.794,-03.9550,-00.7130,-08.7730,-00.441386,-01.803756,+00.063658
-033.543,-028.170,+003.075,+0.510,+0.171,+2.771,-04.8790,-00.5290,-08.5660,-00.665794,-02.421505,-00.246276
-034.395,-031.411,+002.610,+0.625,+0.150,+2.733,-06.0300,-00.3940,-08.4630,-00.782601,-03.157408,-00.688210
-036.155,-035.748,+002.741,+0.759,+0.134,+2.739,-05.8760,-00.0150,-09.0450,-00.632632,-04.336426,-01.437480
-039.354,-041.809,+004.358,+0.995,+0.111,+2.631,-03.1810,-01.0790,-11.5420,-00.042362,-06.248216,-01.988820
-043.011,-050.685,+007.150,+1.296,+0.132,+2.488,-07.1320,-01.9970,-14.0570,+00.359585,-09.018367,-01.071725
-047.122,-061.924,+011.805,+1.587,+0.158,+2.264,-11.2870,+01.3020,-11.1070,+01.718270,-10.600720,-00.109512
-055.306,-075.009,+022.984,+1.924,+0.236,+1.859,-11.9210,-10.0380,-18.9880,+02.956858,-11.910260,+01.529161
-104.099,-086.060,+074.912,+2.146,+0.148,+1.449,-13.4010,-07.5780,-38.5660,+03.476593,-09.920013,+02.507060
+168.410,-086.193,+163.789,+2.187,+0.083,+1.295,-41.3110,-18.1440,-65.8560,+00.937097,-00.441555,+01.452052
-000.575,-089.578,-026.651,+2.104,+0.035,+1.453,+04.7630,-03.9530,-12.8750,+00.248494,+03.921034,+01.127126
-005.195,-085.749,-022.260,+2.002,-0.013,+1.595,+04.6250,-02.8580,-04.0540,-00.253831,+02.653305,+01.172524
-007.459,-082.565,-020.214,+1.900,-0.002,+1.671,+01.6320,-04.3320,-12.0920,-00.095923,+02.947881,+00.595874
-014.576,-078.100,-013.456,+1.748,+0.020,+1.734,-01.7530,-05.3050,-19.5110,-00.343728,+04.820126,-00.166440
-021.840,-071.307,-007.074,+1.623,+0.041,+1.809,-02.9400,-02.4270,-13.1720,-00.616250,+06.696646,-00.793149
-026.530,-063.521,-003.071,+1.559,+0.062,+1.935,-03.4020,+01.0520,-07.3350,-00.023934,+06.915993,-01.024628
-029.315,-055.630,-000.275,+1.462,+0.079,+2.119,-04.7570,+01.8600,-09.0120,+00.488001,+06.931226,-00.989805
-030.819,-047.546,+001.449,+1.356,+0.082,+2.405,-06.7230,+02.0340,-13.4130,+00.441681,+07.155758,-00.802890
-031.257,-038.866,+002.516,+1.129,+0.046,+2.686,-09.5900,+04.8830,-15.6870,+00.902675,+07.872145,-00.325112
-030.576,-029.729,+003.928,+0.649,+0.111,+2.928,-11.0780,+05.4900,-09.8490,+01.999096,+07.784351,+00.238566
-029.256,-021.681,+005.684,+0.237,+0.243,+2.872,-12.3560,+01.3210,-16.7480,+01.688664,+06.750605,+00.535661
-027.670,-014.076,+006.698,+0.006,+0.265,+2.818,-16.5550,-02.1570,-27.2500,+01.299496,+06.915061,+00.526521
-026.658,-005.923,+008.079,-0.276,+0.351,+2.768,-19.8730,-05.1470,-20.0030,+01.415660,+07.124036,-00.469045
-026.751,+001.805,+009.508,-0.596,+0.389,+2.689,-25.8440,-06.4530,-17.5250,+01.002164,+06.367843,-01.423642
-027.616,+008.829,+009.870,-0.846,+0.361,+2.635,-31.1300,-07.3810,-06.9620,+00.094479,+05.542901,-02.011585
-029.368,+014.102,+009.634,-1.045,+0.348,+2.470,-35.4700,+01.9110,+06.2610,+00.505679,+03.472760,-02.205220
-031.060,+017.177,+010.009,-1.156,+0.304,+2.380,-40.1390,-00.7060,+08.5440,+00.571235,+01.794253,-01.696941
-033.091,+017.743,+009.693,-1.179,+0.280,+2.379,-34.8700,+00.5130,+10.2820,+00.164003,-00.797922,-01.822431
-035.448,+015.940,+008.898,-1.137,+0.245,+2.413,-14.8620,+04.4270,-00.4570,-00.458938,-02.535454,-01.303778
-035.943,+013.118,+008.661,-1.073,+0.259,+2.470,+34.6920,+07.6140,-13.5670,+00.564113,-02.865133,+00.888086
-036.612,+007.223,+009.456,-0.924,+0.278,+2.611,-26.3710,+02.2820,-04.3350,+00.919890,-06.313696,-00.623493
-037.781,+002.192,+010.074,-0.725,+0.336,+2.694,-07.2850,+06.9120,-20.6520,+00.294431,-03.619321,+00.283700
-038.483,-001.687,+010.933,-0.596,+0.355,+2.781,-03.9790,-12.9200,-11.0920,+00.756813,-03.261677,-00.560878
-039.625,-005.069,+011.601,-0.494,+0.364,+2.839,-03.5320,+04.8860,-13.2850,+00.578879,-02.925602,-00.043240
-040.032,-008.434,+012.547,-0.359,+0.471,+2.860,-04.8390,-07.7910,-10.3990,+00.857516,-02.983197,+00.181272
-040.804,-011.803,+013.214,-0.239,+0.460,+2.914,-05.7740,-00.5950,-13.3770,+00.186394,-02.912438,+00.108510
-041.051,-014.607,+012.250,-0.133,+0.425,+2.957,-05.7610,-04.3530,-15.8260,-01.375552,-01.885558,+00.411496
-040.558,-016.019,+011.283,-0.068,+0.409,+2.959,-03.1670,-02.4170,-11.3000,-00.407390,-00.875539,+00.657342
-040.111,-016.870,+011.118,-0.031,+0.394,+2.950,-04.6500,-02.0540,-11.1660,-00.001710,-00.500636,+00.397491
-039.972,-017.277,+010.973,-0.017,+0.394,+2.973,-02.7510,-01.7910,-09.0020,-00.130096,-00.294224,+00.125594
-039.931,-017.625,+010.761,-0.003,+0.414,+2.962,-02.8060,-02.3680,-08.7740,-00.195524,-00.292615,+00.090745
-039.825,-017.981,+010.458,+0.002,+0.364,+2.941,-03.0700,-02.1430,-08.9060,-00.269850,-00.280168,+00.188675
-039.530,-018.349,+010.017,+0.011,+0.369,+2.979,-02.9990,-01.9520,-08.7940,-00.325711,-00.276052,+00.360493
-039.059,-018.756,+009.425,+0.034,+0.369,+2.970,-03.0700,-01.5130,-08.7490,-00.428340,-00.289788,+00.500883
-038.458,-019.183,+008.793,+0.043,+0.330,+2.986,-03.4410,-01.5750,-08.7070,-00.315230,-00.283005,+00.553667
-037.799,-019.607,+008.335,+0.062,+0.324,+2.982,-02.8990,-01.6680,-08.9220,-00.140920,-00.300681,+00.634596
-037.020,-020.111,+007.960,+0.080,+0.349,+2.966,-03.0980,-01.6840,-08.6970,-00.089922,-00.384824,+00.731911
-036.155,-020.762,+007.529,+0.103,+0.329,+2.957,-02.9990,-01.3560,-08.7630,-00.144176,-00.542889,+00.773261
-035.360,-021.620,+006.938,+0.136,+0.309,+3.007,-03.3110,-00.9810,-08.6400,-00.345004,-00.725766,+00.708883
-034.722,-022.661,+006.263,+0.173,+0.313,+2.976,-03.8520,-00.9050,-08.7480,-00.380423,-00.911954,+00.528655
-034.421,-023.914,+005.663,+0.233,+0.268,+2.974,-03.7790,-01.0150,-08.7140,-00.449045,-01.166679,+00.265764
-034.376,-025.553,+005.046,+0.284,+0.278,+2.987,-03.6540,-00.8610,-08.7560,-00.586300,-01.570682,+00.096770
-034.666,-027.742,+004.385,+0.376,+0.227,+2.964,-03.2780,-00.8020,-08.5310,-00.760828,-02.121527,-00.148555
-035.434,-030.553,+003.908,+0.487,+0.182,+2.937,-04.8960,-00.6650,-08.3700,-00.708640,-02.754208,-00.640333
-037.141,-034.282,+004.260,+0.621,+0.171,+2.943,-04.9410,-00.0730,-08.7050,-00.373799,-03.746025,-01.365690
-040.509,-039.357,+006.176,+0.815,+0.218,+2.860,-01.8730,-00.1980,-10.9490,+00.161801,-05.280610,-02.181516
-045.175,-046.644,+010.209,+1.120,+0.248,+2.727,-04.5960,-00.8980,-11.5750,+01.190135,-07.549603,-01.793535
-051.540,-055.731,+017.476,+1.384,+0.329,+2.577,-09.6460,-00.0900,-16.1210,+02.735424,-08.891148,-01.056725
-062.045,-066.114,+030.724,+1.726,+0.486,+2.225,-06.8980,-03.6670,-16.3730,+04.412551,-10.736090,+00.409170
-087.061,-076.635,+059.001,+2.012,+0.526,+1.742,-09.5440,-02.8950,-22.6450,+04.086238,-11.058250,+01.700420
-145.130,-079.360,+120.530,+2.137,+0.503,+1.371,-16.2280,-09.6130,-43.6710,+03.068508,-08.138886,+02.022789
-157.050,-079.791,+133.491,+2.132,+0.443,+1.193,-06.4600,-06.6460,-58.3880,+00.158104,+02.201965,+00.721145
-129.861,-083.379,+106.424,+2.039,+0.405,+1.292,+02.1980,-02.3280,-15.6320,-00.678409,+05.030859,+01.004715
-078.883,-084.050,+054.517,+1.989,+0.278,+1.436,+04.3850,-00.1610,-03.0500,-01.132962,+04.199659,+01.446722
-045.389,-081.271,+019.840,+1.924,+0.170,+1.563,-00.2350,-02.8110,-10.2580,-01.300739,+04.251425,+01.499666
-031.336,-075.765,+004.729,+1.840,+0.034,+1.722,-03.1460,-05.8060,-16.1120,-01.072264,+05.843538,+01.243961
-027.545,-068.226,-000.094,+1.734,-0.043,+1.917,-03.4970,-06.6210,-09.0130,-00.959844,+06.873082,+00.432077
-028.027,-060.276,-000.564,+1.545,-0.080,+2.151,-04.8550,-07.1480,-08.4850,-00.708540,+06.963298,-00.484173
-030.109,-051.926,+000.437,+1.286,-0.066,+2.333,-08.0650,-07.5940,-14.6210,-00.649632,+07.580823,-01.312551
-032.494,-042.680,+001.466,+1.041,-0.038,+2.489,-10.1460,-02.5660,-11.5770,-00.505874,+08.227831,-01.520454
-033.756,-033.588,+002.536,+0.708,+0.030,+2.571,-10.5310,+02.8600,-04.3580,+00.834648,+07.509096,-00.793080
-033.702,-026.168,+004.261,+0.445,+0.161,+2.585,-11.6200,-00.5920,-10.1020,+01.518666,+05.859323,-00.118231
-032.797,-019.662,+005.293,+0.274,+0.197,+2.626,-14.1590,-02.2410,-21.2250,+01.075537,+05.811093,+00.365501
-031.529,-013.112,+006.991,+0.056,+0.308,+2.605,-15.2610,-02.0630,-19.8630,+02.294384,+05.782362,+00.442522
-030.476,-006.350,+009.852,-0.203,+0.399,+2.609,-19.9250,-04.0500,-22.6610,+02.717824,+06.184239,-00.308676
-029.989,+001.141,+012.440,-0.438,+0.485,+2.561,-23.0570,-02.3440,-18.1690,+01.880744,+06.553289,-01.130320
-030.148,+008.217,+013.428,-0.684,+0.517,+2.426,-26.3360,-03.8970,-06.9340,+00.068360,+05.488246,-01.766129
-030.831,+013.909,+012.171,-0.855,+0.439,+2.322,-33.3930,+01.9580,+03.0480,-01.202588,+04.260045,-01.397203
-030.874,+017.331,+011.970,-0.934,+0.440,+2.302,-36.8940,+03.6140,+14.1720,+00.537701,+02.044625,-00.368643
-031.685,+018.383,+012.329,-0.961,+0.464,+2.285,-34.2400,-05.4190,+06.3030,-00.037365,+00.029182,-01.349051
-034.322,+017.656,+009.975,-0.920,+0.361,+2.309,-27.8330,+03.5670,-00.1180,-01.723197,-01.678951,-02.140222
-035.454,+015.543,+008.331,-0.851,+0.311,+2.361,+46.0510,+05.9990,-26.9560,-00.553621,-01.964290,+00.810750
-034.688,+010.610,+007.876,-0.679,+0.354,+2.438,-14.6810,-01.6850,+25.5120,-00.369002,-05.978314,+00.260159
-036.561,+004.180,+008.995,-0.434,+0.401,+2.540,-16.3930,+19.4400,-35.4550,+00.905475,-04.845288,-00.554753
-036.543,-000.519,+010.514,-0.263,+0.474,+2.590,-07.1490,-14.7880,-14.5440,+01.359637,-03.692665,+00.632636
-037.703,-004.199,+011.573,-0.091,+0.551,+2.586,-03.9890,-03.6230,-13.6570,+00.574606,-03.182679,-00.514996
-038.325,-007.539,+012.274,+0.043,+0.550,+2.592,-04.8670,-02.7430,-14.8220,+00.615657,-02.860046,+00.377555
-038.906,-010.580,+012.883,+0.154,+0.578,+2.602,-04.1080,-02.7550,-12.8710,+00.334168,-02.643286,-00.042489
-039.388,-013.393,+013.221,+0.270,+0.616,+2.591,-02.6430,-03.6680,-08.4800,-00.090453,-02.428091,+00.259865
-039.219,-015.772,+012.264,+0.367,+0.571,+2.595,-03.1520,+00.7020,-12.3730,-01.033150,-01.648523,+00.874475
-038.423,-017.238,+010.946,+0.413,+0.576,+2.608,-03.6260,-03.5990,-10.6530,-00.870267,-00.867157,+00.800617
-037.798,-017.970,+010.302,+0.450,+0.531,+2.588,-05.1430,-02.2610,-09.9650,-00.256017,-00.337511,+00.468067
-037.563,-018.288,+009.962,+0.464,+0.526,+2.573,-03.3710,-01.1830,-09.0140,-00.222272,-00.193161,+00.160264
-037.464,-018.527,+009.686,+0.464,+0.501,+2.600,-03.0800,-01.8230,-08.8140,-00.218563,-00.203153,+00.113417
-037.344,-018.768,+009.384,+0.487,+0.496,+2.585,-03.0030,-01.7940,-08.7780,-00.254584,-00.187998,+00.161730
-037.075,-019.035,+008.899,+0.501,+0.520,+2.558,-03.0150,-01.7460,-08.8150,-00.393713,-00.193889,+00.321806
-036.608,-019.312,+008.276,+0.501,+0.471,+2.586,-03.1980,-01.5260,-08.6690,-00.401801,-00.179233,+00.461837
-036.032,-019.600,+007.686,+0.515,+0.451,+2.597,-03.0150,-01.2780,-08.7430,-00.308788,-00.179972,+00.526827
-035.376,-019.929,+007.158,+0.524,+0.436,+2.603,-03.0090,-01.2040,-08.7250,-00.241567,-00.246213,+00.606299
-034.686,-020.347,+006.682,+0.538,+0.411,+2.588,-03.0640,-01.2290,-08.7310,-00.195429,-00.336243,+00.594551
-033.997,-020.928,+006.208,+0.552,+0.436,+2.583,-03.1870,-01.1710,-08.6810,-00.198742,-00.513113,+00.645949
-033.229,-021.723,+005.739,+0.598,+0.391,+2.580,-03.7540,-00.7960,-08.7120,-00.138382,-00.678273,+00.704713
-032.482,-022.726,+005.328,+0.626,+0.396,+2.581,-03.1800,-00.9150,-09.0380,-00.123179,-00.917176,+00.654574
-031.896,-024.058,+004.939,+0.672,+0.415,+2.529,-03.7760,-00.5600,-08.8680,-00.151953,-01.272515,+00.528462
-031.616,-025.880,+004.507,+0.736,+0.384,+2.516,-03.7820,-00.5340,-08.7600,-00.383116,-01.771685,+00.215783
-031.941,-028.336,+004.012,+0.806,+0.349,+2.535,-04.0910,-00.1380,-08.5600,-00.655678,-02.380578,-00.301677
-032.935,-031.570,+003.700,+0.926,+0.358,+2.471,-05.5920,-00.5750,-08.5800,-00.730406,-03.144394,-00.713126
-034.926,-035.867,+003.981,+1.069,+0.331,+2.423,-06.2120,-00.4940,-09.0080,-00.693922,-04.340041,-01.539003
-038.293,-041.897,+005.490,+1.217,+0.334,+2.344,-02.4830,-00.1780,-11.4070,-00.264651,-06.209276,-01.872947
-042.203,-050.567,+008.278,+1.485,+0.439,+2.118,-03.6370,-01.0460,-14.7470,+00.117009,-08.745230,-00.999177
-046.640,-061.371,+013.117,+1.800,+0.449,+1.857,-11.0510,-02.9540,-11.8050,+01.518347,-10.140590,-00.058477
-055.689,-073.839,+024.661,+2.026,+0.485,+1.517,-12.1530,-08.8680,-17.5970,+02.618813,-11.551000,+01.130651
-094.141,-084.623,+065.548,+2.261,+0.456,+1.048,-12.8370,-05.9510,-22.8710,+03.013922,-10.000770,+02.270953
+172.313,-083.401,+162.672,+2.409,+0.349,+0.743,-43.4510,-04.3970,-51.5960,+05.150455,-04.558269,+02.460925
+155.544,-084.634,-177.607,+2.511,+0.329,+0.850,-05.9470,-09.1000,-42.4450,+01.853326,+03.416652,+01.693997
+061.625,-087.942,-083.897,+2.456,+0.287,+1.311,-00.1570,-05.7100,-14.3390,-00.866247,+05.185177,+01.536540
+008.935,-083.213,-032.968,+2.137,+0.149,+1.610,+02.6740,-03.2180,-03.1260,-01.550429,+04.598459,+01.238767
-000.681,-078.432,-024.739,+1.975,+0.077,+1.674,+00.7870,-02.8740,-05.8060,-00.744603,+04.230319,+00.570439
-007.783,-073.374,-017.881,+1.929,+0.068,+1.790,-02.6730,-03.7850,-13.8280,+00.297225,+05.107502,-00.043043
-014.567,-066.653,-010.961,+1.776,+0.100,+2.074,-04.5470,-04.4970,-14.7630,+00.494744,+06.725018,-00.779150
-020.242,-058.611,-005.435,+1.527,+0.163,+2.299,-05.4770,-03.1570,-11.1060,+00.344437,+07.466979,-01.516739
-024.602,-050.076,-001.442,+1.157,+0.257,+2.460,-07.1420,-00.7180,-10.8650,+00.473721,+07.614566,-01.872579
-027.810,-041.174,+001.622,+0.736,+0.222,+2.565,-09.0450,+01.1720,-13.5450,+00.750359,+07.862841,-01.990341
-029.804,-031.865,+003.805,+0.445,+0.215,+2.531,-11.1590,+05.4480,-13.5420,+01.026250,+08.133697,-01.539304
-030.276,-022.738,+005.963,+0.181,+0.286,+2.492,-12.9040,+05.6260,-15.1710,+02.043339,+07.671475,-00.758514
-029.889,-014.204,+007.624,-0.018,+0.298,+2.435,-15.7480,-01.1290,-22.2820,+01.034963,+07.370075,-00.564926
-029.576,-005.836,+008.134,-0.161,+0.304,+2.472,-19.8720,-02.4450,-21.7000,+00.332822,+07.188470,-00.877841
-029.678,+002.069,+008.193,-0.402,+0.331,+2.450,-23.9110,-06.2510,-16.9240,-00.184409,+06.480850,-01.135517
-030.036,+008.699,+007.463,-0.624,+0.329,+2.451,-29.6750,-09.0490,-06.9810,-00.773039,+05.154129,-01.109993
-030.966,+013.494,+007.053,-0.767,+0.291,+2.478,-33.5920,-01.1730,+03.3260,+00.538054,+03.390932,-01.466087
-032.427,+016.437,+007.980,-0.924,+0.341,+2.416,-37.0750,-04.0360,+09.2740,+00.974369,+01.611596,-01.607392
-034.561,+016.872,+007.850,-0.952,+0.327,+2.410,-35.4470,-00.3760,+07.5570,+00.332051,-00.653571,-01.944434
-036.946,+015.356,+007.963,-0.929,+0.351,+2.422,-21.3380,+02.2980,+09.6220,+00.684753,-02.458119,-01.405470
-037.938,+012.517,+007.866,-0.827,+0.360,+2.464,+33.4340,+13.4970,-26.0210,+00.029542,-02.334972,+00.463707
-037.536,+007.928,+007.987,-0.711,+0.424,+2.517,-20.5010,+04.4650,+14.7890,+00.011658,-05.412209,+00.407978
-037.992,+002.689,+008.913,-0.573,+0.467,+2.566,-07.4690,-00.4930,-25.9570,+00.376578,-03.649541,+00.222619
-038.478,-001.476,+010.191,-0.443,+0.584,+2.581,-05.1010,-12.7160,-15.1210,+01.074389,-03.414181,-00.223347
-039.502,-005.024,+011.102,-0.336,+0.617,+2.580,-03.3230,+00.5910,-12.8730,+00.651248,-03.105766,-00.140236
-039.959,-008.501,+012.027,-0.253,+0.656,+2.584,-05.4680,-05.7340,-11.8340,+00.766969,-03.004329,+00.279721
-040.608,-011.883,+012.636,-0.133,+0.704,+2.551,-04.8540,-02.2560,-13.3350,+00.154861,-02.920431,+00.113270
-040.803,-014.938,+012.171,-0.026,+0.693,+2.534,-05.1500,-02.5440,-16.1190,-00.927899,-02.321533,+00.617492
-039.943,-016.808,+010.961,+0.015,+0.668,+2.547,-02.3490,-01.5240,-10.8750,-00.805128,-01.138766,+01.140852
-038.949,-017.821,+010.024,+0.066,+0.643,+2.538,-06.7060,-01.9620,-10.8390,-00.515580,-00.362795,+00.826520
-038.387,-018.205,+009.386,+0.075,+0.638,+2.544,-03.4040,-00.6560,-08.8390,-00.330940,-00.232986,+00.367358
-038.180,-018.498,+009.028,+0.080,+0.628,+2.539,-02.9510,-01.0280,-08.9180,-00.215898,-00.224419,+00.143070
-038.090,-018.823,+008.762,+0.089,+0.657,+2.529,-03.1270,-01.7940,-08.8380,-00.219613,-00.296869,+00.114308
-037.940,-019.187,+008.425,+0.099,+0.613,+2.535,-03.1260,-01.6640,-08.7950,-00.275453,-00.292441,+00.212323
-037.626,-019.561,+007.977,+0.108,+0.613,+2.540,-03.1830,-01.6230,-08.8230,-00.300052,-00.286443,+00.353706
-037.191,-019.951,+007.520,+0.126,+0.603,+2.531,-03.2890,-01.0550,-08.7700,-00.241941,-00.295463,+00.410761
-036.751,-020.366,+007.151,+0.131,+0.583,+2.531,-03.2930,-01.0780,-08.7820,-00.174162,-00.325806,+00.407228
-036.236,-020.850,+006.804,+0.149,+0.558,+2.564,-03.0140,-01.5670,-08.7080,-00.126585,-00.408756,+00.524692
-035.558,-021.503,+006.440,+0.177,+0.578,+2.544,-03.4510,-01.0540,-08.7400,-00.083599,-00.557230,+00.654685
-034.848,-022.352,+006.036,+0.205,+0.567,+2.524,-03.3260,-00.1390,-08.7990,-00.157056,-00.721521,+00.602616
-034.368,-023.316,+005.591,+0.233,+0.543,+2.563,-03.7560,-00.4900,-08.7690,-00.269786,-00.867222,+00.377199
-034.187,-024.525,+005.180,+0.279,+0.552,+2.527,-04.0810,-00.9210,-08.7480,-00.318187,-01.154585,+00.175517
-034.247,-026.148,+004.775,+0.330,+0.546,+2.524,-03.7100,-00.9960,-08.8730,-00.444400,-01.566374,-00.000546
-034.783,-028.222,+004.442,+0.394,+0.496,+2.532,-04.4090,-00.5480,-08.5250,-00.545943,-02.033364,-00.378117
-035.988,-030.846,+004.371,+0.482,+0.500,+2.482,-04.6600,-00.0950,-08.4630,-00.583760,-02.554269,-00.997384
-038.305,-034.202,+005.055,+0.579,+0.470,+2.492,-04.3110,-00.2180,-08.4990,-00.475642,-03.442871,-01.802434
-042.322,-038.802,+007.252,+0.700,+0.478,+2.476,-04.3560,-01.1210,-11.2440,+00.190638,-04.952538,-02.564348
-047.185,-045.669,+011.082,+0.926,+0.535,+2.367,-03.3490,-01.2710,-15.8120,+00.950671,-07.295659,-01.677833
-052.343,-054.959,+016.368,+1.236,+0.565,+2.192,-07.2210,-00.6860,-20.5140,+01.791214,-08.932911,-00.108864
-059.708,-065.756,+025.918,+1.476,+0.646,+1.981,-09.1330,-00.4610,-19.1230,+03.562230,-10.339170,+00.841590
-076.405,-077.240,+045.477,+1.800,+0.571,+1.587,-13.5070,-01.7260,-30.1220,+03.311332,-10.064500,+02.499374
-114.738,-084.002,+087.473,+1.975,+0.464,+1.283,-09.9650,+01.7510,-40.2590,+03.176026,-04.538263,+02.830980
-116.620,-085.993,+091.630,+2.025,+0.395,+1.270,-01.6370,-08.1360,-40.3710,+00.742353,+02.150399,+01.519365
-056.880,-085.948,+030.416,+2.007,+0.267,+1.394,+04.7780,-04.5940,-13.2430,-02.313885,+03.001606,+01.740616
-028.547,-083.308,-000.831,+1.998,+0.095,+1.502,+04.3930,-02.1620,-07.3420,-02.504837,+02.668035,+01.529417
-021.622,-079.691,-009.702,+1.956,+0.012,+1.603,+01.7810,-02.8810,-12.3560,-01.280048,+03.450793,+00.975503
-022.314,-074.625,-009.878,+1.882,-0.016,+1.756,-00.3170,-03.9520,-15.4020,-00.474259,+04.971201,+00.397821
-025.712,-068.022,-006.914,+1.730,-0.028,+1.965,-02.5620,-03.6790,-12.4540,-00.108788,+06.262476,-00.404450
-029.507,-060.477,-003.672,+1.563,+0.005,+2.200,-03.9000,-02.0690,-09.2960,-00.186400,+06.827592,-01.034925
-032.618,-052.593,-001.335,+1.309,+0.033,+2.398,-05.6690,-00.0190,-10.6360,-00.278949,+07.012268,-01.239180
-034.639,-044.283,-000.051,+1.023,+0.096,+2.563,-08.2320,+02.8900,-13.9210,-00.085922,+07.448386,-00.910318
-035.297,-035.530,+000.725,+0.727,+0.168,+2.657,-09.2820,+04.6200,-11.5810,+00.532984,+07.667336,-00.184778
-034.801,-027.109,+001.422,+0.436,+0.285,+2.676,-10.3760,+03.1970,-13.6800,+00.971783,+07.143817,+00.443848
-033.820,-019.201,+002.166,+0.205,+0.376,+2.681,-11.6090,+00.1560,-20.0260,+00.930071,+06.843185,+00.579103
-033.049,-011.322,+002.984,+0.011,+0.462,+2.693,-16.1250,-02.7260,-23.4520,+00.915453,+06.969997,+00.096725
-033.036,-003.315,+004.279,-0.216,+0.424,+2.668,-21.5150,-01.9920,-20.4790,+01.240298,+06.910263,-00.718490
-033.553,+004.168,+005.208,-0.494,+0.338,+2.618,-24.7350,-04.2130,-14.0560,+00.412163,+06.104682,-01.093330
-034.362,+010.422,+005.129,-0.688,+0.281,+2.583,-31.0570,+00.1530,-06.9120,+00.035567,+04.979070,-01.130715
-034.544,+015.101,+005.415,-0.864,+0.243,+2.501,-35.5290,+01.5140,+07.6900,+00.529965,+03.311715,-00.117231
-034.257,+017.226,+006.656,-0.975,+0.238,+2.442,-37.4820,-03.4200,+09.5840,+01.122595,+01.045224,-00.060706
-034.976,+017.090,+007.294,-0.999,+0.253,+2.446,-33.0460,-05.1260,+05.5600,+00.416874,-00.857753,-00.940838
-036.003,+014.144,+007.162,-0.911,+0.248,+2.509,-02.7250,+02.7820,-23.5430,-00.139328,-03.028579,-00.152347
-035.542,+010.300,+006.877,-0.800,+0.237,+2.563,+04.7590,+03.4270,+03.9330,-00.538120,-04.209826,+01.190331
-036.198,+003.829,+007.381,-0.628,+0.261,+2.672,-19.5590,+00.1730,-35.0380,+00.592128,-04.944195,-00.433429
-036.625,-000.632,+008.180,-0.462,+0.289,+2.722,-02.3090,-07.4980,-12.3970,+01.164531,-03.725486,+00.284086
-037.586,-004.488,+009.550,-0.327,+0.332,+2.766,-03.3410,-03.9560,-10.9190,+01.037886,-03.429975,-00.403299
-038.197,-008.408,+010.952,-0.212,+0.385,+2.792,-04.1390,-02.1440,-14.1400,+01.303061,-03.580583,+00.334232
-038.936,-012.301,+012.140,-0.054,+0.478,+2.798,-08.7000,-04.2570,-15.4700,+00.657256,-03.274122,-00.164872
-039.351,-015.060,+012.380,+0.048,+0.467,+2.830,-05.0130,-02.4000,-13.4730,-00.231594,-01.725638,+00.406666
-038.927,-016.459,+011.806,+0.094,+0.471,+2.821,-02.8810,-01.3780,-10.4740,-00.457599,-00.847080,+00.698861
-038.271,-017.348,+011.339,+0.131,+0.441,+2.812,-04.5340,-01.4590,-11.3900,-00.155740,-00.503616,+00.589930
-037.974,-017.793,+010.989,+0.149,+0.421,+2.829,-03.3330,-01.2350,-09.0390,-00.215875,-00.301926,+00.208943
-037.890,-018.119,+010.741,+0.154,+0.397,+2.840,-03.2250,-01.7510,-08.9270,-00.196247,-00.242979,+00.086655
-037.831,-018.398,+010.478,+0.168,+0.402,+2.835,-03.2040,-02.0340,-08.8140,-00.232981,-00.233340,+00.101219
-037.695,-018.710,+010.134,+0.173,+0.397,+2.830,-02.7960,-02.0630,-08.8090,-00.281103,-00.249012,+00.222512
-037.373,-019.070,+009.637,+0.177,+0.367,+2.841,-03.2080,-01.7290,-08.7790,-00.389211,-00.271063,+00.360593
-036.937,-019.451,+009.021,+0.196,+0.396,+2.826,-03.3040,-01.5410,-08.7180,-00.416189,-00.257891,+00.419863
-036.508,-019.789,+008.510,+0.209,+0.347,+2.832,-03.3880,-01.3040,-08.6730,-00.270649,-00.226898,+00.369966
-036.079,-020.146,+008.132,+0.228,+0.322,+2.855,-03.1950,-01.1790,-08.8050,-00.163837,-00.285497,+00.417401
-035.564,-020.622,+007.798,+0.233,+0.327,+2.839,-03.1120,-01.4610,-08.7370,-00.117011,-00.411454,+00.522958
-034.918,-021.307,+007.423,+0.256,+0.302,+2.834,-03.0320,-01.2670,-08.7310,-00.141785,-00.600129,+00.646331
-034.225,-022.238,+006.885,+0.279,+0.307,+2.846,-03.0980,-00.7800,-08.9050,-00.293271,-00.779046,+00.635620
-033.636,-023.370,+006.260,+0.330,+0.311,+2.800,-04.0530,-00.9520,-08.7380,-00.383665,-01.005991,+00.510049
-033.399,-024.724,+005.669,+0.390,+0.266,+2.819,-03.8150,-00.9850,-08.7890,-00.477879,-01.268386,+00.197711
-033.503,-026.459,+005.057,+0.436,+0.246,+2.832,-04.4660,-00.8730,-08.6820,-00.620093,-01.697209,-00.013328
-033.903,-028.801,+004.413,+0.533,+0.220,+2.810,-04.0500,-00.6340,-08.5190,-00.782760,-02.290013,-00.218747
-034.774,-031.872,+003.928,+0.639,+0.180,+2.788,-04.7000,-00.4190,-08.5290,-00.806788,-02.991257,-00.621575
-036.531,-035.919,+004.247,+0.755,+0.163,+2.766,-04.6620,-00.0150,-09.9740,-00.436655,-04.026396,-01.284646
-039.789,-041.539,+006.240,+0.963,+0.205,+2.656,-05.7710,-01.4130,-09.2020,+00.185718,-05.867101,-01.947971
-043.892,-049.538,+009.718,+1.259,+0.231,+2.518,-08.7670,-03.3680,-12.4110,+00.629970,-08.127160,-01.578397
-048.893,-059.564,+015.539,+1.518,+0.287,+2.357,-11.0260,-02.7550,-12.9350,+02.540196,-09.721076,-00.206136
-058.093,-071.487,+028.349,+1.823,+0.395,+1.961,-06.0930,-06.7040,-21.5490,+03.820924,-11.296430,+01.711260
-085.063,-081.858,+058.847,+2.035,+0.396,+1.550,-15.3380,-06.8810,-35.4950,+04.869813,-08.795234,+02.515195
-117.959,-085.517,+093.967,+2.077,+0.365,+1.412,-29.1770,-05.9330,-67.7510,+00.662312,-00.137473,+01.813681
-081.061,-087.254,+058.660,+2.030,+0.297,+1.448,+06.9150,-06.5520,-15.7730,+00.622655,+02.187111,+01.976331
-026.387,-086.215,+003.589,+1.956,+0.219,+1.526,+03.8060,-06.7360,-11.9070,-00.929201,+01.957119,+01.514716
-016.406,-083.240,-008.066,+1.887,+0.191,+1.631,+01.6430,-05.2010,-16.4700,-01.776516,+03.104350,+00.545441
-018.689,-078.473,-007.942,+1.794,+0.192,+1.746,+00.2480,-01.9330,-15.4310,-01.747552,+04.784445,+00.176234
-021.646,-072.080,-006.317,+1.628,+0.160,+1.932,-01.2960,-00.1220,-10.9390,-00.625379,+06.022048,-00.028195
-024.190,-064.771,-004.161,+1.448,+0.252,+2.085,-03.0250,-01.9870,-09.6800,-00.092425,+06.602931,-00.362008
-026.397,-057.006,-002.570,+1.208,+0.270,+2.193,-05.4700,-02.6880,-11.6420,-00.426363,+06.952761,-00.630063
-028.196,-048.764,-001.592,+0.949,+0.327,+2.300,-08.1070,-00.3590,-11.9850,-00.260934,+07.382473,-00.687967
-029.329,-040.195,-000.468,+0.759,+0.457,+2.210,-08.9660,+01.7920,-09.5060,+00.585010,+07.485332,-00.442051
-029.537,-032.028,+000.906,+1.079,+0.532,+2.218,-09.7670,+02.0720,-10.0930,+01.392988,+06.850296,-00.001712
-029.086,-024.707,+002.139,+1.111,+0.411,+2.694,-10.0310,-00.0290,-14.1510,+00.983032,+06.130565,+00.294808
-028.177,-017.863,+003.049,+0.876,+0.262,+3.072,-12.9620,-01.3450,-22.0150,+01.307987,+06.084391,+00.503517
-027.445,-010.630,+004.681,+0.381,+0.284,+3.335,-15.2780,-05.8900,-19.8760,+01.680975,+06.387401,-00.109377
-027.643,-003.429,+006.714,-0.183,+0.334,+3.439,-20.7120,-04.0400,-18.6010,+01.850536,+06.127159,-01.178036
-028.688,+003.721,+008.407,-0.683,+0.383,+3.342,-25.8330,-04.7200,-16.7560,+01.090899,+05.989028,-02.033746
-030.610,+010.399,+008.242,-1.132,+0.341,+2.972,-28.5790,-04.3010,-03.6160,-00.520275,+05.053212,-02.759060
-032.960,+015.251,+007.099,-1.331,+0.179,+2.680,-37.3300,+02.8150,+03.9450,-00.431227,+03.319810,-02.175637
-034.457,+018.057,+006.438,-1.401,+0.140,+2.558,-37.0050,+03.1690,+12.1180,+00.125093,+01.475243,-01.219878
-035.841,+018.151,+006.487,-1.410,+0.115,+2.494,-32.3450,+00.5860,+07.0250,+00.381932,-00.873660,-01.172406
-037.024,+015.751,+006.331,-1.341,+0.060,+2.524,+00.9130,+06.3540,-09.9130,+00.359645,-03.188430,-00.144117
-035.713,+012.308,+006.941,-1.281,+0.075,+2.597,+22.3340,+01.3320,-10.1170,+01.428318,-03.413002,+02.381278
-036.095,+006.140,+008.487,-1.072,+0.142,+2.713,-29.6100,-03.9680,-21.0370,+01.313104,-05.605039,-00.884896
-037.329,+001.281,+009.742,-0.878,+0.150,+2.797,-02.2840,+07.4550,-16.8130,+01.246211,-03.917109,+00.308788
-037.906,-002.771,+011.115,-0.748,+0.179,+2.872,-03.5470,-12.2440,-10.2260,+01.110578,-03.428868,-00.240260
-038.918,-006.265,+011.960,-0.596,+0.202,+2.911,-05.3300,+00.2600,-13.9620,+00.555557,-02.968296,-00.098974
-039.568,-009.282,+012.582,-0.461,+0.226,+2.933,-03.8690,-05.1710,-11.5510,+00.361925,-02.568962,-00.120019
-040.309,-011.801,+013.098,-0.378,+0.210,+2.996,-05.4500,+00.0430,-13.5440,+00.457032,-02.043111,-00.003163
-040.576,-013.768,+013.265,-0.276,+0.244,+2.984,-04.6750,-03.4790,-13.8860,-00.296900,-01.307928,+00.223556
-040.494,-014.883,+012.727,-0.239,+0.199,+3.007,-03.2190,-00.8380,-10.9510,-00.328402,-00.749577,+00.316837
-040.330,-015.620,+012.381,-0.216,+0.209,+3.024,-03.3940,-00.3780,-09.8900,-00.129544,-00.479830,+00.222167
-040.277,-016.101,+012.356,-0.202,+0.199,+2.993,-03.0340,-02.7300,-09.0850,+00.012683,-00.358166,+00.082971
-040.223,-016.461,+012.316,-0.188,+0.194,+2.999,-02.0450,-02.1520,-08.4500,-00.094509,-00.299058,+00.150212
-040.029,-016.873,+012.015,-0.165,+0.204,+3.011,-02.7440,-03.7830,-08.6760,-00.273503,-00.300564,+00.248841
-039.760,-017.227,+011.543,-0.151,+0.164,+3.011,-02.8100,-02.2380,-08.7560,-00.367885,-00.233661,+00.308226
-039.337,-017.552,+010.948,-0.142,+0.139,+3.012,-02.9470,-01.5840,-08.8730,-00.419486,-00.192961,+00.459143
-038.828,-017.845,+010.375,-0.138,+0.124,+3.039,-03.0330,-01.7020,-08.7840,-00.342079,-00.188825,+00.447057
-038.327,-018.161,+009.801,-0.138,+0.114,+3.007,-02.6410,-01.6380,-08.5650,-00.380913,-00.217784,+00.469114
-037.809,-018.541,+009.270,-0.124,+0.099,+2.981,-03.2420,-01.8250,-08.7180,-00.267151,-00.270850,+00.492882
-037.246,-018.988,+008.906,-0.105,+0.094,+3.014,-03.0970,-01.3420,-08.8790,-00.127307,-00.340472,+00.518814
-036.709,-019.546,+008.595,-0.082,+0.094,+3.020,-03.1960,-01.4420,-08.7870,-00.129690,-00.463346,+00.515193
-036.175,-020.275,+008.206,-0.064,+0.089,+3.005,-03.3290,-01.0990,-08.7340,-00.220224,-00.616504,+00.533866
-035.657,-021.270,+007.616,-0.027,+0.059,+3.001,-02.8700,-00.7290,-08.8600,-00.422655,-00.903389,+00.539566
-035.324,-022.526,+006.939,+0.029,+0.083,+3.015,-03.7030,-01.1440,-08.7730,-00.534924,-01.143457,+00.302408
-035.396,-024.148,+006.234,+0.089,+0.013,+3.007,-03.2380,-00.9990,-08.7700,-00.701489,-01.610842,+00.020752
-035.823,-026.464,+005.492,+0.177,-0.002,+3.022,-02.9020,-00.8410,-08.7180,-00.868248,-02.319908,-00.218936
-036.826,-029.642,+005.096,+0.311,-0.028,+3.012,-03.7490,-00.2240,-08.6600,-00.712599,-03.187196,-00.753426
-039.123,-034.144,+005.740,+0.524,-0.080,+2.962,-04.0520,-00.8080,-09.9200,-00.368513,-04.672565,-01.710420
-043.078,-040.574,+008.321,+0.750,-0.043,+2.939,-03.4010,-00.4020,-11.0370,+00.414870,-06.764061,-02.190158
-048.248,-049.473,+012.988,+1.139,+0.046,+2.751,-06.3490,-02.6660,-15.4170,+00.978634,-09.085358,-01.617501
-055.884,-060.048,+021.775,+1.555,+0.144,+2.478,-10.1670,+00.2910,-16.4700,+02.553896,-10.583600,-00.781563
-071.192,-072.014,+040.193,+1.888,+0.268,+2.169,-13.1390,-07.4340,-24.1830,+03.305278,-11.898670,+01.319506
-108.425,-080.074,+082.278,+2.165,+0.366,+1.658,-23.9530,-04.9500,-36.8490,+05.452610,-08.043147,+02.267087
-123.421,-082.147,+100.381,+2.192,+0.340,+1.525,-20.9530,-12.9880,-87.0050,+01.539015,+02.784857,+00.850452
-087.748,-082.924,+066.038,+2.091,+0.371,+1.596,+08.0050,-04.4190,-13.1380,-00.053084,+04.203523,+01.312352
-056.562,-081.666,+034.228,+1.989,+0.343,+1.678,+05.2660,-02.1500,-05.4370,-01.020916,+03.031062,+01.465190
-039.898,-079.060,+016.679,+1.887,+0.255,+1.733,+02.2380,-04.6070,-11.3470,-00.924078,+03.315206,+01.024282
-032.546,-074.618,+008.287,+1.790,+0.208,+1.842,-00.1500,-06.9730,-15.6230,-01.210752,+04.656395,+00.295145
-030.906,-068.243,+005.020,+1.675,+0.234,+1.945,-01.6960,-06.1680,-11.4970,-01.594998,+06.009656,-00.455784
-031.724,-060.992,+004.119,+1.513,+0.202,+2.105,-03.0220,-04.3260,-07.6310,-01.276933,+06.373662,-00.995733
-033.291,-053.537,+004.322,+1.351,+0.194,+2.248,-04.8200,-03.9460,-09.6900,-00.829665,+06.488371,-01.317135
-034.785,-045.829,+004.589,+1.148,+0.197,+2.352,-06.9870,-02.0500,-12.4840,-00.689364,+06.751236,-01.324106
-035.544,-037.616,+004.907,+0.958,+0.145,+2.538,-09.9450,+01.3090,-15.6250,+00.247885,+07.375386,-00.877229
-035.165,-028.936,+005.906,+0.718,+0.188,+2.710,-11.4050,+02.3710,-13.5900,+01.466027,+07.542030,-00.138841
-033.694,-020.555,+007.055,+0.302,+0.252,+2.767,-14.2410,-02.0220,-19.7390,+01.398710,+07.386868,+00.571499
-031.952,-012.060,+007.996,-0.078,+0.275,+2.696,-18.7990,-06.8190,-21.3890,+01.253732,+07.610060,+00.232482
-031.148,-003.663,+009.555,-0.323,+0.331,+2.615,-22.5160,-07.0180,-19.3400,+01.609033,+07.123832,-00.826314
-031.333,+004.320,+011.045,-0.596,+0.368,+2.479,-28.2410,-07.4490,-15.3680,+01.000379,+06.573790,-01.693922
-032.423,+011.248,+011.327,-0.795,+0.345,+2.352,-33.2150,-06.5890,-01.6700,-00.000755,+05.124380,-02.360595
-034.260,+016.106,+010.874,-0.906,+0.306,+2.294,-40.4810,+01.2040,+06.8260,+00.104381,+03.144667,-02.079427
-035.644,+018.370,+010.857,-0.976,+0.306,+2.215,-40.7140,+01.5690,+13.2340,+00.479738,+00.801385,-01.277100
-037.334,+018.137,+010.532,-0.971,+0.257,+2.248,-34.2990,-00.0780,+02.6410,-00.153157,-01.117296,-01.401213
-038.706,+015.848,+008.853,-0.888,+0.168,+2.317,+20.3440,+08.3490,-29.5960,-01.167140,-02.208267,-00.072878
-037.888,+011.989,+009.078,-0.786,+0.197,+2.354,+00.0050,+03.7730,+14.1090,-00.012954,-04.673507,+01.368784
-038.655,+005.233,+009.824,-0.578,+0.190,+2.443,-19.8090,-00.4530,-36.2570,+00.580336,-05.157903,-00.177495
-039.350,+000.410,+011.059,-0.443,+0.228,+2.487,-05.1660,-11.6580,-12.1000,+01.359820,-04.047297,+00.066149
-040.789,-003.837,+012.519,-0.286,+0.266,+2.536,-03.6680,-03.8170,-11.6440,+01.133137,-03.866030,-00.529359
-041.859,-008.208,+014.001,-0.129,+0.309,+2.559,-05.8530,-01.3720,-15.1150,+01.117755,-03.945805,+00.318449
-042.870,-012.461,+014.320,+0.001,+0.308,+2.586,-07.0520,-03.9270,-15.4030,-00.703157,-03.648188,-00.002543
-043.088,-015.292,+012.744,+0.117,+0.277,+2.565,-06.6100,-01.7160,-16.7360,-01.115730,-01.650243,+00.669967
-042.517,-016.517,+011.828,+0.144,+0.223,+2.561,-04.0370,+00.9230,-11.7650,-00.264860,-00.661127,+00.646250
-042.144,-017.086,+011.752,+0.167,+0.228,+2.600,-04.2590,-03.0780,-09.2360,+00.025762,-00.319269,+00.179397
-042.158,-017.381,+011.807,+0.163,+0.228,+2.578,-02.7650,-02.1850,-08.8080,+00.056312,-00.245991,-00.001845
-042.212,-017.703,+011.818,+0.195,+0.208,+2.574,-03.0180,-02.2340,-08.7730,-00.057283,-00.294728,+00.032998
-042.181,-018.041,+011.678,+0.195,+0.242,+2.579,-02.9690,-02.4120,-08.7730,-00.149028,-00.287983,+00.117417
-042.001,-018.388,+011.418,+0.200,+0.212,+2.564,-03.0620,-02.1460,-08.7420,-00.188988,-00.247766,+00.267379
-041.669,-018.714,+011.057,+0.227,+0.197,+2.576,-03.2190,-01.5120,-08.7170,-00.248470,-00.219477,+00.339911
-041.305,-019.053,+010.669,+0.223,+0.173,+2.597,-03.1880,-01.6200,-08.6810,-00.200285,-00.248173,+00.359434
-040.868,-019.432,+010.375,+0.232,+0.178,+2.576,-03.0770,-01.6850,-08.7020,-00.092379,-00.270203,+00.455269
-040.306,-019.869,+010.097,+0.232,+0.168,+2.576,-03.1500,-01.7550,-08.7190,-00.083823,-00.309550,+00.564683
-039.664,-020.414,+009.760,+0.246,+0.153,+2.604,-03.1440,-01.5230,-08.6930,-00.113782,-00.420782,+00.625233
-039.005,-021.155,+009.244,+0.283,+0.182,+2.573,-02.6030,-01.2410,-08.8810,-00.321134,-00.628763,+00.632170
-038.361,-022.119,+008.508,+0.315,+0.132,+2.591,-03.9880,-01.5260,-08.6240,-00.477952,-00.798988,+00.606991
-038.093,-023.160,+007.789,+0.324,+0.122,+2.580,-04.0620,-01.0510,-08.7340,-00.602287,-00.941486,+00.179150
-038.283,-024.478,+007.051,+0.385,+0.102,+2.551,-03.5250,-01.1960,-08.5790,-00.771046,-01.325382,-00.089851
-038.846,-026.389,+006.346,+0.445,+0.062,+2.505,-02.5820,-00.9430,-08.4300,-00.853021,-01.948794,-00.341488
-039.700,-028.968,+005.848,+0.523,+0.046,+2.547,-05.5380,-00.6820,-08.2400,-00.711573,-02.567942,-00.556574
-041.280,-032.346,+006.099,+0.639,+0.025,+2.477,-07.5130,-01.3140,-08.6090,-00.272648,-03.404625,-01.206423
-044.404,-036.928,+008.013,+0.814,+0.053,+2.441,-02.6510,-00.6090,-10.3440,+00.416102,-04.896070,-01.936727
-048.563,-043.682,+011.630,+0.986,+0.100,+2.378,-02.1050,-01.6360,-10.2610,+00.975388,-07.121468,-01.434695
-054.151,-052.589,+017.747,+1.277,+0.205,+2.180,-07.9430,+00.3340,-17.6510,+02.343494,-08.788799,-00.763484
-063.408,-062.823,+029.891,+1.577,+0.304,+1.897,-07.7310,+00.1880,-23.2280,+04.479421,-10.336750,+00.225545
-083.052,-073.701,+053.164,+1.785,+0.340,+1.593,-14.9770,-03.3720,-25.8070,+04.010248,-11.163610,+01.636441
-126.194,-078.967,+099.312,+1.974,+0.385,+1.165,-23.2490,-07.2210,-39.2700,+01.734901,-06.861345,+01.997805
-135.248,-080.685,+109.092,+2.002,+0.281,+1.065,-09.9120,-02.1300,-59.5720,+00.434976,+02.230004,+01.265575
-111.010,-082.966,+085.857,+2.016,+0.251,+1.179,+06.3310,-02.0600,-11.5890,+00.245159,+03.381701,+01.594732
-077.434,-083.345,+052.589,+2.016,+0.222,+1.276,+03.2210,-03.2130,-10.1980,-00.121609,+03.152596,+01.392832
-050.558,-080.710,+025.397,+2.007,+0.174,+1.427,+00.2780,-05.1470,-15.4290,-00.710222,+04.262436,+00.897852
-038.127,-075.116,+012.028,+1.928,+0.117,+1.660,-01.9270,-04.7090,-15.0160,-01.157381,+05.957567,+00.392935
-033.899,-067.603,+006.835,+1.799,+0.084,+1.849,-03.2030,-03.1060,-09.6260,-00.889386,+06.941466,-00.077647
-032.803,-059.549,+005.078,+1.610,+0.068,+2.067,-03.6790,-02.7340,-06.8330,-00.556875,+07.023763,-00.425269
-032.794,-051.594,+004.482,+1.448,+0.055,+2.221,-05.1720,-02.9610,-09.7200,-00.527228,+06.880640,-00.639653
-033.010,-043.518,+004.144,+1.277,+0.067,+2.310,-07.8920,-01.2090,-12.7620,-00.317742,+07.145872,-00.629573
-032.923,-035.166,+004.297,+1.051,+0.115,+2.472,-09.3400,+00.0980,-10.6300,+00.519549,+07.249803,-00.369836
-032.644,-027.390,+005.304,+0.847,+0.201,+2.597,-09.7700,-02.2730,-13.5430,+01.143024,+06.490072,-00.393352
-032.374,-020.027,+006.362,+0.565,+0.308,+2.627,-12.7710,-01.8380,-22.2420,+01.049049,+06.499932,-00.420356
-031.874,-012.289,+007.874,+0.293,+0.380,+2.679,-16.5770,-02.4900,-21.9760,+01.693211,+06.858136,-00.465117
-031.496,-004.488,+009.916,+0.061,+0.471,+2.690,-21.9620,-04.5520,-20.6460,+01.713729,+06.687788,-00.921150
-031.403,+002.776,+010.969,-0.248,+0.612,+2.665,-27.3320,-07.3320,-15.0880,+00.159381,+05.887529,-01.282653
-031.885,+009.590,+010.961,-0.572,+0.610,+2.586,-31.8860,-03.3330,-01.5950,+00.193907,+05.292106,-01.598552
-032.283,+014.577,+011.247,-0.762,+0.612,+2.545,-38.8710,+01.2090,+06.9210,+00.433760,+03.547157,-00.865199
-032.571,+017.456,+012.102,-0.924,+0.657,+2.457,-39.2180,-01.4240,+14.7790,+00.711042,+01.506425,-00.929479
-033.749,+016.731,+010.714,-0.952,+0.623,+2.467,-43.6280,+06.3260,+22.4720,-02.609234,-02.889997,-00.367719
-032.999,+012.741,+008.701,-0.859,+0.519,+2.569,+38.0360,+04.3090,-42.9310,-00.481912,-03.346762,+01.936790
-032.207,+006.331,+008.617,-0.665,+0.552,+2.674,-23.3090,-05.0430,-01.3610,+00.118975,-06.591972,+00.249583
-033.492,+000.765,+009.597,-0.470,+0.575,+2.736,-04.5030,+17.0730,-18.7890,+01.503021,-04.337806,+00.035282
-034.047,-004.442,+012.700,-0.317,+0.673,+2.790,-02.1030,-15.6740,-06.4240,+03.326580,-04.801960,+00.131163
-035.689,-009.692,+015.622,-0.100,+0.808,+2.777,-07.0870,-03.1060,-16.1670,+01.617680,-04.634686,-00.170144
-036.509,-013.840,+015.997,+0.062,+0.777,+2.817,-11.5230,-07.5360,-19.5290,-00.756789,-03.001559,+00.301406
-036.794,-015.732,+014.113,+0.131,+0.713,+2.858,-05.5660,+00.5210,-14.6460,-01.661308,-01.026082,+00.301202
-036.501,-016.511,+012.824,+0.173,+0.663,+2.866,-02.5990,-04.1560,-09.8610,-00.942678,-00.507433,+00.420005
-036.002,-016.974,+011.927,+0.173,+0.648,+2.871,-03.5340,-00.2730,-10.6600,-00.414969,-00.194246,+00.475293
-035.676,-017.318,+011.489,+0.196,+0.604,+2.894,-02.9880,-01.1880,-09.1050,-00.294852,-00.272881,+00.256983
-035.543,-017.653,+011.198,+0.205,+0.613,+2.862,-03.1020,-01.7530,-08.9470,-00.197986,-00.269324,+00.124651
-035.497,-017.935,+010.910,+0.215,+0.599,+2.868,-03.1360,-02.1810,-08.8550,-00.263972,-00.221015,+00.096726
-035.360,-018.255,+010.523,+0.224,+0.599,+2.885,-02.9930,-02.1910,-08.9290,-00.311648,-00.244215,+00.215564
-035.056,-018.566,+010.053,+0.247,+0.584,+2.886,-03.2190,-01.7070,-08.8590,-00.332292,-00.214380,+00.328363
-034.670,-018.895,+009.551,+0.265,+0.549,+2.898,-03.1150,-01.4580,-08.8260,-00.340503,-00.239186,+00.381018
-034.228,-019.272,+008.950,+0.265,+0.544,+2.903,-03.1960,-01.5050,-08.7450,-00.441449,-00.286034,+00.432125
-033.668,-019.710,+008.326,+0.279,+0.524,+2.888,-03.2640,-01.6090,-08.6830,-00.306248,-00.313265,+00.579473
-032.899,-020.186,+007.831,+0.302,+0.504,+2.889,-03.0910,-01.3770,-08.8620,-00.151601,-00.336567,+00.728182
-032.095,-020.740,+007.441,+0.316,+0.489,+2.916,-03.4120,-00.7960,-08.5840,-00.086249,-00.430970,+00.692080
-031.454,-021.437,+007.052,+0.344,+0.523,+2.869,-03.1570,-00.7750,-08.6430,-00.217143,-00.598387,+00.526218
-031.030,-022.298,+006.471,+0.381,+0.459,+2.898,-03.6160,-01.1450,-08.6840,-00.436776,-00.777367,+00.373525
-030.834,-023.399,+005.843,+0.427,+0.449,+2.916,-03.4670,-00.9630,-08.7300,-00.504756,-01.053272,+00.198575
-030.867,-024.887,+005.171,+0.473,+0.428,+2.881,-03.4700,-00.7960,-08.8300,-00.667747,-01.441883,+00.031944
-031.260,-026.862,+004.433,+0.566,+0.422,+2.863,-03.9220,-00.4490,-08.6330,-00.845748,-01.935027,-00.306245
-032.194,-029.501,+003.903,+0.635,+0.348,+2.883,-03.6350,-00.4120,-08.5660,-00.843429,-02.585024,-00.641385
-033.618,-033.106,+003.849,+0.797,+0.366,+2.831,-05.3530,-00.5900,-08.8100,-00.563036,-03.588329,-01.007780
-036.360,-038.045,+005.179,+0.968,+0.354,+2.747,-06.3210,-00.4750,-09.1190,-00.066695,-05.096244,-01.943298
-040.137,-045.256,+007.934,+1.171,+0.381,+2.664,-03.3160,-02.5090,-10.7640,+00.352676,-07.468219,-01.461821
-044.498,-055.048,+011.875,+1.509,+0.440,+2.420,-07.3260,+01.4750,-22.5650,+01.199005,-09.347287,-00.372213
-051.318,-066.621,+020.652,+1.851,+0.504,+2.074,-09.0080,-00.9930,-20.7070,+03.681965,-11.263660,+00.633424
-068.973,-078.918,+040.880,+2.068,+0.554,+1.701,-12.7880,-00.6150,-33.4150,+02.666157,-10.880740,+01.832433
-136.438,-084.657,+109.980,+2.211,+0.517,+1.315,-17.6370,-01.9370,-38.9220,+00.400377,-05.953603,+01.866309
-157.767,-085.647,+131.174,+2.169,+0.428,+1.297,-06.8990,-02.9060,-53.6400,+00.193476,+01.781133,+00.975506
-092.996,-087.821,+067.272,+2.095,+0.439,+1.455,+04.4370,-02.3890,-12.5720,+00.295744,+03.578006,+01.045089
-036.917,-085.125,+011.202,+1.961,+0.343,+1.639,+01.9080,-03.2750,-08.5030,-00.366638,+03.474728,+00.790764
-027.374,-080.554,+000.673,+1.776,+0.218,+1.841,-01.3290,-03.4440,-14.6540,-01.173145,+04.562375,+00.529865
-025.527,-074.269,-002.642,+1.550,+0.093,+2.042,-02.6680,-02.6790,-12.3290,-01.249487,+05.957029,+00.382660
-026.100,-066.828,-002.988,+1.184,-0.115,+2.178,-03.7500,-02.6860,-08.6500,-00.473718,+06.726652,+00.006956
-027.522,-059.051,-002.036,+0.851,-0.343,+2.225,-04.2270,-04.1780,-07.1260,-00.240626,+06.790564,-00.421785
-029.150,-051.379,-001.136,+0.670,-0.514,+2.229,-05.6390,-03.7410,-09.1280,-00.461226,+06.683188,-00.720487
-030.556,-043.542,-000.459,+0.554,-0.651,+2.192,-07.6080,-00.6270,-10.4010,-00.130640,+06.958877,-00.677564
-031.205,-035.747,+000.327,+0.503,-0.745,+2.229,-07.6170,+01.7570,-05.5260,+00.626520,+06.552322,-00.222835
-030.980,-029.185,+001.512,+0.568,-0.863,+2.302,-08.4090,-00.2910,-07.0210,+01.182061,+05.216391,+00.195048
-030.343,-023.503,+002.614,+0.896,-0.988,+2.651,-10.9320,-02.0340,-17.4480,+01.281641,+05.045421,+00.323444
-029.684,-017.539,+004.162,+0.472,-0.877,+3.305,-13.2010,-01.2560,-19.7790,+01.760910,+05.364810,+00.182598
-029.090,-011.087,+006.383,-0.060,-0.630,+3.242,-17.6370,-01.7370,-18.6070,+02.205658,+05.789289,-00.205374
-028.889,-004.290,+009.154,-0.504,-0.410,+3.005,-23.5120,-01.8410,-18.5210,+02.522084,+05.983846,-00.898824
-029.197,+002.784,+011.528,-0.837,-0.260,+2.748,-26.9060,-04.9400,-13.8100,+01.732960,+05.914079,-01.662919
-030.413,+009.357,+012.224,-0.999,-0.230,+2.552,-29.6680,-04.3090,-00.1300,+00.075217,+04.959169,-02.528566
-031.866,+014.513,+011.531,-1.097,-0.259,+2.359,-36.7920,+01.3220,+08.3540,-00.653791,+03.630773,-01.791081
-032.827,+017.733,+010.682,-1.162,-0.313,+2.222,-35.9980,+03.6040,+12.5120,-00.330716,+01.784866,-01.196320
-034.107,+017.707,+009.540,-1.166,-0.368,+2.196,-25.2600,+03.2670,+12.2980,-00.916882,-01.607639,-00.617321
-034.001,+014.787,+007.342,-1.097,-0.383,+2.177,+47.3700,+11.7170,-30.8440,-00.717668,-02.550353,+01.413431
-032.845,+009.426,+007.268,-0.972,-0.384,+2.231,-21.1160,-01.4580,+18.4550,-00.691703,-06.343037,+00.255873
-033.920,+003.368,+008.481,-0.824,-0.336,+2.286,-09.8960,+15.8470,-30.4630,+01.366159,-04.334458,+00.023115
-034.388,-001.173,+010.353,-0.694,-0.263,+2.329,-05.4800,-16.1570,-13.7590,+01.657749,-03.673307,-00.127417
-035.780,-004.766,+011.562,-0.588,-0.259,+2.355,-05.3320,-01.1640,-14.9630,+00.627297,-03.074564,-00.509893
-036.562,-007.912,+012.185,-0.518,-0.265,+2.390,-05.5250,-05.0480,-13.8540,+00.443990,-02.706692,+00.002367
-037.409,-010.622,+012.625,-0.430,-0.226,+2.383,-05.5110,-00.1510,-13.7870,+00.337741,-02.279456,-00.142971
-037.814,-013.115,+012.826,-0.375,-0.256,+2.402,-01.4320,-03.4620,-08.4350,-00.204411,-02.227587,+00.338057
-037.665,-015.132,+011.787,-0.319,-0.281,+2.431,-03.7530,+02.3020,-13.2220,-00.856916,-01.387386,+00.673225
-037.100,-016.519,+011.112,-0.287,-0.287,+2.411,-03.9620,-00.8680,-11.9670,-00.141055,-00.945041,+00.631535
-036.764,-017.124,+011.000,-0.292,-0.282,+2.406,-03.6380,-02.2380,-09.3210,-00.073001,-00.336735,+00.216282
-036.698,-017.471,+010.879,-0.273,-0.272,+2.428,-02.9750,-01.9470,-08.8570,-00.115654,-00.269742,+00.076207
-036.640,-017.800,+010.622,-0.269,-0.292,+2.412,-03.1350,-02.0220,-08.8280,-00.273182,-00.288190,+00.124045
-036.461,-018.155,+010.117,-0.273,-0.307,+2.380,-03.0270,-02.0360,-08.7900,-00.446021,-00.270998,+00.266987
-036.116,-018.541,+009.489,-0.255,-0.312,+2.413,-03.1280,-01.6470,-08.7460,-00.440978,-00.283880,+00.375310
-035.670,-018.928,+008.883,-0.264,-0.332,+2.370,-03.2260,-01.4110,-08.8580,-00.379521,-00.269693,+00.432842
-035.186,-019.321,+008.332,-0.236,-0.347,+2.398,-03.2680,-01.3660,-08.7160,-00.328323,-00.285437,+00.455348
-034.617,-019.768,+007.822,-0.255,-0.341,+2.397,-03.2190,-01.3120,-08.7100,-00.239332,-00.350410,+00.559042
-033.916,-020.341,+007.339,-0.241,-0.312,+2.381,-03.0640,-01.2080,-08.8140,-00.206422,-00.482538,+00.674874
-033.196,-021.143,+006.819,-0.222,-0.327,+2.398,-03.4180,-00.7100,-08.6870,-00.270311,-00.712868,+00.646379
-032.690,-022.070,+006.232,-0.209,-0.357,+2.404,-03.7350,-01.0340,-08.8340,-00.385064,-00.798895,+00.403584
-032.473,-023.184,+005.635,-0.176,-0.367,+2.395,-03.6590,-01.0320,-08.8030,-00.482044,-01.060458,+00.224781
-032.427,-024.696,+004.965,-0.135,-0.402,+2.392,-03.3210,-00.9200,-08.7030,-00.624253,-01.469351,+00.119520
-032.592,-026.689,+004.256,-0.079,-0.407,+2.394,-04.6970,-00.6700,-08.5590,-00.677215,-01.923198,-00.087047
-033.212,-029.262,+003.715,+0.009,-0.398,+2.366,-04.1240,-00.4940,-08.6010,-00.751601,-02.476102,-00.451481
-034.419,-032.617,+003.601,+0.124,-0.469,+2.361,-05.1810,-00.2200,-08.7150,-00.481520,-03.289352,-00.870070
-036.978,-037.037,+004.845,+0.254,-0.450,+2.355,-06.1510,-00.4580,-08.9240,-00.040331,-04.500349,-01.940554
-040.901,-043.343,+007.688,+0.476,-0.423,+2.295,-01.7150,-00.4660,-12.0960,+00.607475,-06.516469,-01.779357
-045.732,-051.839,+011.943,+0.786,-0.392,+2.222,-01.6410,+01.5590,-20.6810,+00.629804,-08.421738,-01.148409
-052.008,-061.954,+019.789,+1.035,-0.321,+2.120,-11.3120,+03.8910,-20.8450,+02.869366,-09.910074,-00.213698
-062.761,-073.220,+033.173,+1.350,-0.222,+1.847,-14.9570,-00.7150,-28.7540,+02.224570,-09.990685,+01.683342
-081.506,-081.112,+054.954,+1.525,-0.215,+1.554,-16.1830,-01.8990,-27.4440,+01.488986,-04.904848,+01.840269
-081.109,-083.316,+056.172,+1.599,-0.187,+1.454,-03.4430,-02.9790,-37.1790,+01.359022,+00.754561,+01.354779
-059.013,-083.813,+035.153,+1.664,-0.183,+1.393,+05.8140,-03.4940,-11.4870,+00.363662,+01.267274,+01.988313
-037.595,-083.149,+013.836,+1.724,-0.208,+1.374,+03.7490,-05.8070,-13.5200,-00.129575,+01.634866,+01.411299
-027.640,-080.409,+003.567,+1.747,-0.213,+1.423,+01.7650,-06.9240,-16.0700,-00.615284,+03.146013,+00.516144
-026.336,-075.574,+001.156,+1.784,-0.184,+1.516,-00.2960,-05.5720,-15.7830,-01.118106,+04.859808,-00.164888
-027.699,-069.162,+001.301,+1.803,-0.104,+1.721,-01.2560,-02.7440,-09.2840,-00.816572,+05.865991,-00.635420
-029.477,-062.219,+002.404,+1.743,-0.082,+1.982,-03.0120,-02.0940,-09.1400,-00.306441,+06.140217,-00.933891
-031.033,-054.818,+003.358,+1.601,-0.006,+2.261,-05.3860,-02.3030,-12.8340,-00.393574,+06.607929,-01.068292
-032.144,-046.858,+003.724,+1.328,+0.053,+2.555,-07.3600,-00.0370,-12.7390,-00.349700,+07.047442,-00.984571
