sep=,
DeviceTag:,B,,,,,,,,,,,,,,,,,
FirmwareVersion:,2.2.1,,,,,,,,,,,,,,,,,
AppVersion:,2022.0.1,,,,,,,,,,,,,,,,,
SyncStatus:,Synced,,,,,,,,,,,,,,,,,
OutputRate:,60Hz,,,,,,,,,,,,,,,,,
FilterProfile:,General,,,,,,,,,,,,,,,,,
Measurement Mode:,Inertial Mode - Rate quantities (with mag),,,,,,,,,,,,,,,,,
StartTime:,2022-08-05 17:04:28.228 +0300,,,,,,,,,,,,,,,,,
© Xsens Technologies B. V. 2005-2022,,,,,,,,,,,,,,,,,,,

PacketCounter,SampleTimeFine,Acc_X,Acc_Y,Acc_Z,Gyr_X,Gyr_Y,Gyr_Z,Mag_X,Mag_Y,Mag_Z
1, 220281791, -5.364140510559082, -2.2730824947357178, 7.737343788146973, -0.4179992377758026, -0.25849616527557373, -0.9397684335708618, 0.04052734375, 0.19970703125, -0.80029296875
2, 220298458, -5.361750602722168, -2.265918254852295, 7.7488298416137695, -0.2864524722099304, -0.34870409965515137, -0.8751987814903259, 0.04150390625, 0.20068359375, -0.80419921875
3, 220315125, -5.340689182281494, -2.2704827785491943, 7.748703956604004, -0.26318326592445374, -0.23416413366794586, -0.8644413948059082, 0.0439453125, 0.19775390625, -0.80078125
4, 220331792, -5.353996753692627, -2.2480931282043457, 7.7441511154174805, -0.23422813415527344, -0.17853333055973053, -0.9717201590538025, 0.04150390625, 0.1982421875, -0.7998046875
5, 220348459, -5.355566024780273, -2.237227439880371, 7.729580879211426, -0.3013974130153656, -0.23182053864002228, -1.01806640625, 0.04248046875, 0.19921875, -0.80126953125
6, 220365126, -5.366335868835449, -2.2606077194213867, 7.746013164520264, -0.30156391859054565, -0.25597330927848816, -0.9809151887893677, 0.04248046875, 0.19873046875, -0.80078125
7, 220381793, -5.373104572296143, -2.271897077560425, 7.742186546325684, -0.22017955780029297, -0.26178738474845886, -0.9440968036651611, 0.0439453125, 0.19775390625, -0.80078125
8, 220398460, -5.356025695800781, -2.2599070072174072, 7.715690612792969, -0.1242344081401825, -0.36828500032424927, -0.9651249647140503, 0.04345703125, 0.2001953125, -0.8017578125
9, 220415127, -5.345605373382568, -2.264549970626831, 7.7529802322387695, -0.11021143943071365, -0.23935066163539886, -0.8817683458328247, 0.04296875, 0.1982421875, -0.80126953125
10, 220431794, -5.375635147094727, -2.2427494525909424, 7.748268127441406, -0.10157995671033859, -0.23283223807811737, -0.8223084211349487, 0.04345703125, 0.19921875, -0.80517578125
11, 220448461, -5.3794708251953125, -2.2318975925445557, 7.752071857452393, -0.10530662536621094, -0.34236496686935425, -0.9190220236778259, 0.04443359375, 0.19921875, -0.8037109375
12, 220465128, -5.359528064727783, -2.258240222930908, 7.750883102416992, -0.1253613531589508, -0.4493107795715332, -1.0110228061676025, 0.0419921875, 0.2001953125, -0.80126953125
13, 220481795, -5.3663716316223145, -2.283764600753784, 7.748410701751709, -0.08666057139635086, -0.3149849772453308, -0.8608173131942749, 0.0419921875, 0.19677734375, -0.8037109375
14, 220498462, -5.360703945159912, -2.2664201259613037, 7.739489555358887, -0.13582414388656616, -0.36919423937797546, -0.8347818851470947, 0.04248046875, 0.19921875, -0.8017578125
15, 220515129, -5.375442028045654, -2.2504990100860596, 7.746640205383301, -0.0261121466755867, -0.34890902042388916, -0.86394202709198, 0.0419921875, 0.2001953125, -0.80126953125
16, 220531796, -5.370174884796143, -2.235551118850708, 7.726169109344482, -0.03925146162509918, -0.49534961581230164, -0.8544780015945435, 0.04296875, 0.19775390625, -0.80029296875
17, 220548463, -5.35913610458374, -2.2506306171417236, 7.753983974456787, -0.08641724288463593, -0.3674013614654541, -0.8338213562965393, 0.04248046875, 0.201171875, -0.80126953125
18, 220565130, -5.366303443908691, -2.273655652999878, 7.756382465362549, -0.1727960705757141, -0.22778654098510742, -0.8836637139320374, 0.04443359375, 0.2001953125, -0.8017578125
19, 220581797, -5.37003755569458, -2.254516124725342, 7.753053665161133, -0.16721250116825104, -0.29005101323127747, -0.8802700638771057, 0.04052734375, 0.20068359375, -0.80029296875
20, 220598464, -5.369196891784668, -2.24379825592041, 7.726068019866943, -0.20970375835895538, -0.3790522813796997, -0.8421320915222168, 0.04345703125, 0.19970703125, -0.8017578125
21, 220615131, -5.371119022369385, -2.245086908340454, 7.744236946105957, -0.24492143094539642, -0.3986104428768158, -0.8793095350265503, 0.0439453125, 0.1982421875, -0.8017578125
22, 220631798, -5.3749895095825195, -2.2439606189727783, 7.740611553192139, -0.23536789417266846, -0.40834322571754456, -0.9487712383270264, 0.04248046875, 0.19921875, -0.80078125
23, 220648465, -5.368824481964111, -2.256027936935425, 7.771528720855713, -0.1363748162984848, -0.557959794998169, -0.9646511077880859, 0.0439453125, 0.201171875, -0.8037109375
24, 220665132, -5.381775856018066, -2.2525250911712646, 7.749090194702148, -0.07350844889879227, -0.47751036286354065, -0.9324560761451721, 0.04248046875, 0.19873046875, -0.802734375
25, 220681799, -5.3592529296875, -2.2628748416900635, 7.753779888153076, -0.03552481159567833, -0.5293888449668884, -0.8272261619567871, 0.044921875, 0.19970703125, -0.80126953125
26, 220698466, -5.375820159912109, -2.252065420150757, 7.764933109283447, -0.10238676518201828, -0.42693808674812317, -0.8002047538757324, 0.04345703125, 0.1982421875, -0.800048828125
27, 220715133, -5.373206615447998, -2.248178482055664, 7.751012325286865, -0.18039025366306305, -0.3926170766353607, -0.7701610922813416, 0.04443359375, 0.19873046875, -0.80078125
28, 220731800, -5.379055023193359, -2.247617721557617, 7.7407708168029785, -0.1786101758480072, -0.42357000708580017, -0.8663367033004761, 0.04345703125, 0.1982421875, -0.800048828125
29, 220748467, -5.382387161254883, -2.2481987476348877, 7.733790874481201, -0.20947346091270447, -0.6104402542114258, -0.8353709578514099, 0.045654296875, 0.19775390625, -0.8017578125
30, 220765134, -5.38026237487793, -2.2563257217407227, 7.737217426300049, -0.07943778485059738, -0.805826723575592, -0.817083477973938, 0.0439453125, 0.1982421875, -0.80126953125
31, 220781801, -5.382457733154297, -2.2505106925964355, 7.7259135246276855, 0.11335539817810059, -0.883330762386322, -0.7964268326759338, 0.04296875, 0.19775390625, -0.802734375
32, 220798468, -5.358653545379639, -2.252531051635742, 7.7325310707092285, 0.08393922448158264, -0.9045125842094421, -0.8894266486167908, 0.04150390625, 0.2001953125, -0.802734375
33, 220815135, -5.3683013916015625, -2.233060121536255, 7.764378070831299, -0.10115736722946167, -0.715080976486206, -0.90353924036026, 0.0439453125, 0.19873046875, -0.800048828125
34, 220831802, -5.36829948425293, -2.2347874641418457, 7.781289577484131, -0.1277049332857132, -0.537815511226654, -0.9140148758888245, 0.04443359375, 0.19970703125, -0.800048828125
35, 220848469, -5.374600887298584, -2.2607064247131348, 7.748683929443359, -0.356259822845459, -0.31347379088401794, -0.8481773138046265, 0.04248046875, 0.19873046875, -0.80126953125
36, 220865136, -5.3667826652526855, -2.246455430984497, 7.740743637084961, -0.27729588747024536, -0.36733731627464294, -0.8413771390914917, 0.04345703125, 0.19970703125, -0.80126953125
37, 220881803, -5.363448143005371, -2.2585458755493164, 7.7347025871276855, -0.20958873629570007, -0.5781043171882629, -0.8361778855323792, 0.041015625, 0.19970703125, -0.798828125
38, 220898470, -5.363595008850098, -2.2534756660461426, 7.741836071014404, -0.08106419444084167, -0.6250907778739929, -0.860369086265564, 0.0439453125, 0.2001953125, -0.8017578125
39, 220915137, -5.3667778968811035, -2.2399861812591553, 7.730958938598633, -0.054567851126194, -0.6189308166503906, -0.8635833263397217, 0.04248046875, 0.19775390625, -0.80078125
40, 220931804, -5.362442493438721, -2.2547554969787598, 7.725814342498779, -0.12752562761306763, -0.6562870144844055, -0.7686882019042969, 0.0439453125, 0.19775390625, -0.80126953125
41, 220948471, -5.373080253601074, -2.2316367626190186, 7.733248233795166, -0.16226926445960999, -0.6186875700950623, -0.7519888877868652, 0.04150390625, 0.1982421875, -0.80224609375
42, 220965138, -5.3633036613464355, -2.2492587566375732, 7.756052494049072, -0.11274709552526474, -0.5924729108810425, -0.8119480609893799, 0.04296875, 0.20068359375, -0.8017578125
43, 220981805, -5.376718044281006, -2.245427370071411, 7.7559614181518555, -0.16691797971725464, -0.5899885296821594, -0.7745664715766907, 0.04052734375, 0.2001953125, -0.80029296875
44, 220998472, -5.35194206237793, -2.2424638271331787, 7.732126712799072, -0.17010672390460968, -0.5623011589050293, -0.826111912727356, 0.04296875, 0.19970703125, -0.802734375
45, 221015139, -5.359318256378174, -2.2424662113189697, 7.713208198547363, -0.12935693562030792, -0.5472409725189209, -0.8733291029930115, 0.0419921875, 0.19677734375, -0.80078125
46, 221031806, -5.339985370635986, -2.252639055252075, 7.750158786773682, -0.21941117942333221, -0.4844129681587219, -0.8153547048568726, 0.04248046875, 0.197265625, -0.80078125
47, 221048473, -5.3611345291137695, -2.2537646293640137, 7.723252296447754, -0.24151493608951569, -0.25281015038490295, -0.662805438041687, 0.045654296875, 0.1982421875, -0.8017578125
48, 221065140, -5.399404048919678, -2.2270331382751465, 7.723334789276123, -0.16436949372291565, -0.25281015038490295, -0.6665064692497253, 0.0419921875, 0.19873046875, -0.80224609375
49, 221081807, -5.377095699310303, -2.2251484394073486, 7.737621784210205, -0.19404180347919464, -0.3294561207294464, -0.7432164549827576, 0.04150390625, 0.20068359375, -0.80419921875
50, 221098474, -5.352634906768799, -2.2410593032836914, 7.756242752075195, -0.20099565386772156, -0.15990008413791656, -0.7007378339767456, 0.04345703125, 0.19873046875, -0.802734375
51, 221115141, -5.348969459533691, -2.241774320602417, 7.734714031219482, -0.30595651268959045, -0.017672760412096977, -0.6366804838180542, 0.044677734375, 0.197265625, -0.802734375
52, 221131808, -5.377539157867432, -2.242074489593506, 7.75152587890625, -0.31606072187423706, 0.014720899052917957, -0.4714016914367676, 0.04296875, 0.19873046875, -0.80126953125
53, 221148475, -5.3861799240112305, -2.2180285453796387, 7.735549449920654, -0.23955711722373962, -0.003406693460419774, -0.6237322092056274, 0.04345703125, 0.1982421875, -0.80224609375
54, 221165142, -5.372504234313965, -2.2480897903442383, 7.739609718322754, -0.3384077847003937, 0.0030671206768602133, -0.7306278944015503, 0.04345703125, 0.197265625, -0.8017578125
55, 221181809, -5.376155376434326, -2.2462551593780518, 7.722877025604248, -0.2641693651676178, 0.058236874639987946, -0.5111782550811768, 0.04345703125, 0.197265625, -0.80322265625
56, 221198476, -5.38831090927124, -2.224426031112671, 7.726950168609619, -0.27728307247161865, -0.16444632411003113, -0.5498790144920349, 0.046142578125, 0.19921875, -0.8017578125
57, 221215143, -5.409006595611572, -2.241041421890259, 7.735093116760254, -0.17912238836288452, -0.2725062966346741, -0.6137442588806152, 0.0439453125, 0.19775390625, -0.800048828125
58, 221231810, -5.4056172370910645, -2.2200512886047363, 7.696140766143799, -0.0703708827495575, -0.5557955503463745, -0.767087459564209, 0.04296875, 0.19677734375, -0.80126953125
59, 221248477, -5.3802032470703125, -2.243053436279297, 7.731982231140137, 0.006038194056600332, -0.6127198338508606, -0.7790486812591553, 0.04345703125, 0.19775390625, -0.80419921875
60, 221265144, -5.372001647949219, -2.234365701675415, 7.736541748046875, 0.03048551268875599, -0.5234594941139221, -0.7613630890846252, 0.04345703125, 0.197265625, -0.80224609375
61, 221281811, -5.386566162109375, -2.2182681560516357, 7.755559921264648, -0.03617793321609497, -0.4174742102622986, -0.6555442810058594, 0.0439453125, 0.19873046875, -0.80322265625
62, 221298478, -5.381444931030273, -2.2371749877929688, 7.758723735809326, -0.09799419343471527, -0.3045733869075775, -0.614896833896637, 0.04296875, 0.19970703125, -0.80126953125
63, 221315145, -5.396886825561523, -2.223503351211548, 7.7347822189331055, -0.10338564962148666, -0.1875617802143097, -0.6428787112236023, 0.045166015625, 0.1982421875, -0.8017578125
64, 221331812, -5.405732154846191, -2.229076862335205, 7.7131876945495605, -0.06702842563390732, -0.5423104166984558, -0.7477498650550842, 0.044921875, 0.19873046875, -0.800537109375
65, 221348479, -5.382612228393555, -2.243908166885376, 7.764760494232178, 0.04978467896580696, -0.6957561373710632, -0.8387646079063416, 0.045654296875, 0.19677734375, -0.802734375
66, 221365146, -5.36000394821167, -2.230243444442749, 7.738908767700195, 0.09814146161079407, -0.6275367736816406, -0.7733626365661621, 0.044189453125, 0.197265625, -0.8017578125
67, 221381813, -5.3852057456970215, -2.2311503887176514, 7.722810745239258, 0.011109507642686367, -0.4860265552997589, -0.7444330453872681, 0.04345703125, 0.19921875, -0.80029296875
68, 221398480, -5.378000736236572, -2.2325832843780518, 7.743719100952148, 0.0019529680721461773, -0.4842720925807953, -0.6714880466461182, 0.04296875, 0.1982421875, -0.8017578125
69, 221415147, -5.390120506286621, -2.233377695083618, 7.749978065490723, 0.03223998844623566, -0.5759016275405884, -0.7436391711235046, 0.044189453125, 0.197265625, -0.80126953125
70, 221431814, -5.379071235656738, -2.2358551025390625, 7.7260847091674805, 0.017525488510727882, -0.5109349489212036, -0.7525907158851624, 0.046142578125, 0.1982421875, -0.799560546875
71, 221448481, -5.396546363830566, -2.2279014587402344, 7.7437334060668945, 0.11989946663379669, -0.42241743206977844, -0.711956262588501, 0.043212890625, 0.196044921875, -0.800048828125
72, 221465148, -5.387639999389648, -2.2210562229156494, 7.755028247833252, 0.06271909177303314, -0.6285099983215332, -0.6592196226119995, 0.043701171875, 0.19677734375, -0.8017578125
73, 221481815, -5.368882656097412, -2.2507898807525635, 7.732889652252197, 0.260385125875473, -0.5919735431671143, -0.6519328951835632, 0.044189453125, 0.19775390625, -0.80322265625
74, 221498482, -5.3916778564453125, -2.2009270191192627, 7.733860492706299, 0.06297522783279419, -0.7014934420585632, -0.6480909585952759, 0.04345703125, 0.19775390625, -0.802734375
75, 221515149, -5.390552043914795, -2.2239933013916016, 7.731133460998535, 0.3683810532093048, -0.7697384357452393, -0.5450254082679749, 0.045654296875, 0.19580078125, -0.801025390625
76, 221531816, -5.36935567855835, -2.239433765411377, 7.756613731384277, 0.6006882786750793, -0.8647487163543701, -0.5680640339851379, 0.045166015625, 0.194580078125, -0.802001953125
77, 221548483, -5.37860631942749, -2.2230052947998047, 7.765384674072266, 0.5420736074447632, -0.8631095886230469, -0.5658998489379883, 0.046630859375, 0.1953125, -0.800537109375
78, 221565150, -5.382572650909424, -2.1992788314819336, 7.7598490715026855, 0.3071538805961609, -0.6719619035720825, -0.584174394607544, 0.0419921875, 0.196044921875, -0.80126953125
79, 221581817, -5.409828186035156, -2.1905357837677, 7.7434282302856445, 0.24741226434707642, -0.7548319101333618, -0.685997724533081, 0.042724609375, 0.196044921875, -0.8037109375
80, 221598484, -5.372615337371826, -2.2238547801971436, 7.750094413757324, 0.20787908136844635, -0.6986376047134399, -0.6903647184371948, 0.046142578125, 0.197265625, -0.80322265625
81, 221615151, -5.404686450958252, -2.2022852897644043, 7.732616901397705, 0.23612986505031586, -0.6547373533248901, -0.7581998705863953, 0.044189453125, 0.195556640625, -0.800537109375
82, 221631818, -5.391815662384033, -2.2150890827178955, 7.7384724617004395, 0.11860600858926773, -0.8189148902893066, -0.7570346593856812, 0.044189453125, 0.196044921875, -0.8017578125
83, 221648485, -5.380414962768555, -2.224173069000244, 7.753274440765381, 0.1345883458852768, -0.7451758980751038, -0.8272262215614319, 0.044189453125, 0.195556640625, -0.801025390625
84, 221665152, -5.380483150482178, -2.210690975189209, 7.728912830352783, 0.2623957097530365, -0.7676382660865784, -0.7366979718208313, 0.04345703125, 0.19677734375, -0.80322265625
85, 221681819, -5.371299743652344, -2.2075095176696777, 7.733940601348877, 0.14660069346427917, -0.746315598487854, -0.7426401972770691, 0.042724609375, 0.194091796875, -0.80615234375
86, 221698486, -5.371482849121094, -2.1966559886932373, 7.752856254577637, 0.08897212147712708, -0.700763463973999, -0.8362417817115784, 0.04248046875, 0.19873046875, -0.80224609375
87, 221715153, -5.385523319244385, -2.1977150440216064, 7.7543416023254395, 0.050530485808849335, -0.6624354124069214, -0.815659761428833, 0.044189453125, 0.195556640625, -0.80224609375
88, 221731820, -5.36246919631958, -2.209348678588867, 7.764673709869385, 0.045097559690475464, -0.6262048482894897, -0.7805085182189941, 0.044677734375, 0.19677734375, -0.80224609375
89, 221748487, -5.3722405433654785, -2.197782278060913, 7.742732524871826, 0.06750866770744324, -0.5404279232025146, -0.7713903784751892, 0.04296875, 0.19677734375, -0.8046875
90, 221765154, -5.378047943115234, -2.188227415084839, 7.744365215301514, 0.07051816582679749, -0.6497429609298706, -0.7573674917221069, 0.04345703125, 0.19775390625, -0.80419921875
91, 221781821, -5.39381742477417, -2.1823887825012207, 7.766030788421631, 0.14323261380195618, -0.6589378714561462, -0.7527315616607666, 0.043701171875, 0.195068359375, -0.80322265625
92, 221798488, -5.3539910316467285, -2.218921422958374, 7.752015113830566, 0.20522814989089966, -0.588170051574707, -0.7959402799606323, 0.045654296875, 0.195068359375, -0.8037109375
93, 221815155, -5.388378620147705, -2.1834747791290283, 7.7412190437316895, 0.11517390608787537, -0.4260160028934479, -0.6889688372612, 0.044189453125, 0.195068359375, -0.80224609375
94, 221831822, -5.385900497436523, -2.200279474258423, 7.741927146911621, 0.11598070710897446, -0.4893946945667267, -0.6670827865600586, 0.045654296875, 0.1962890625, -0.802001953125
95, 221848489, -5.38946008682251, -2.184762954711914, 7.757547378540039, 0.04633977636694908, -0.5959562659263611, -0.7547550797462463, 0.042236328125, 0.194580078125, -0.8037109375
96, 221865156, -5.396091938018799, -2.1960561275482178, 7.754713535308838, -0.017903277650475502, -0.38854461908340454, -0.7463796734809875, 0.042724609375, 0.196044921875, -0.80322265625
97, 221881823, -5.390869617462158, -2.200486898422241, 7.751560688018799, -0.06053561344742775, -0.6172788143157959, -0.7682529091835022, 0.042724609375, 0.195556640625, -0.80517578125
98, 221898490, -5.384756088256836, -2.1972532272338867, 7.748007297515869, -0.05944707244634628, -0.5472792983055115, -0.8660293817520142, 0.042724609375, 0.194580078125, -0.80322265625
99, 221915157, -5.387495994567871, -2.205026865005493, 7.769215106964111, -0.08029580861330032, -0.5347291231155396, -0.8247160315513611, 0.042724609375, 0.194091796875, -0.80126953125
100, 221931824, -5.3731465339660645, -2.1906800270080566, 7.755669593811035, -0.146363765001297, -0.5992218852043152, -0.7734010219573975, 0.044677734375, 0.194580078125, -0.800537109375
101, 221948491, -5.381019115447998, -2.2030861377716064, 7.758893966674805, 0.011391247622668743, -0.45710983872413635, -0.8383932709693909, 0.043212890625, 0.194091796875, -0.801025390625
102, 221965158, -5.381869792938232, -2.194443941116333, 7.75333309173584, -0.0032912318129092455, -0.4634746015071869, -0.8550799489021301, 0.04345703125, 0.19677734375, -0.80224609375
103, 221981825, -5.383148670196533, -2.1863155364990234, 7.7171783447265625, -0.02191166579723358, -0.5820870399475098, -0.83916175365448, 0.042724609375, 0.194091796875, -0.8046875
104, 221998492, -5.3822126388549805, -2.192085027694702, 7.767765522003174, 0.18199746310710907, -0.7995773553848267, -0.8041107654571533, 0.043701171875, 0.193603515625, -0.8046875
105, 222015159, -5.341213226318359, -2.18082594871521, 7.768418788909912, 0.0710432231426239, -0.6521762013435364, -0.7832619547843933, 0.042724609375, 0.194580078125, -0.800537109375
106, 222031826, -5.366889953613281, -2.186342716217041, 7.747525215148926, 0.09150777757167816, -0.48903611302375793, -0.6954360604286194, 0.045654296875, 0.192626953125, -0.802001953125
107, 222048493, -5.376044273376465, -2.164095401763916, 7.780521869659424, -0.08799244463443756, -0.23713518679141998, -0.7893962860107422, 0.044189453125, 0.194091796875, -0.801513671875
108, 222065160, -5.378776550292969, -2.1893398761749268, 7.772035598754883, -0.09445963054895401, -0.23977325856685638, -0.7879874110221863, 0.042724609375, 0.194091796875, -0.80517578125
109, 222081827, -5.40567684173584, -2.1757538318634033, 7.743557929992676, -0.06675949692726135, -0.27502912282943726, -0.7120970487594604, 0.044189453125, 0.1962890625, -0.8056640625
110, 222098494, -5.383564472198486, -2.1933681964874268, 7.748661041259766, 0.0332004614174366, -0.5462421178817749, -0.7718259692192078, 0.044677734375, 0.195068359375, -0.801513671875
111, 222115161, -5.386261940002441, -2.185803174972534, 7.7451090812683105, 0.08425938338041306, -0.7173349261283875, -0.7509644031524658, 0.045166015625, 0.194091796875, -0.80419921875
112, 222131828, -5.375166893005371, -2.1770925521850586, 7.746904373168945, 0.09234018623828888, -0.6834748387336731, -0.8301459550857544, 0.044189453125, 0.192626953125, -0.8037109375
113, 222148495, -5.383096218109131, -2.1777501106262207, 7.750905990600586, -0.004533448256552219, -0.731229841709137, -0.7777040600776672, 0.042236328125, 0.193115234375, -0.802734375
114, 222165162, -5.379134178161621, -2.1824440956115723, 7.771121978759766, -0.024985186755657196, -0.630302906036377, -0.8059547543525696, 0.04150390625, 0.194091796875, -0.80078125
115, 222181829, -5.383607864379883, -2.1648242473602295, 7.764250755310059, -0.025523057207465172, -0.5257262587547302, -0.7505289912223816, 0.042724609375, 0.193603515625, -0.8046875
116, 222198496, -5.379664421081543, -2.1759157180786133, 7.747322082519531, -0.1553538292646408, -0.5199889540672302, -0.7975538372993469, 0.043212890625, 0.194580078125, -0.8056640625
117, 222215163, -5.375240802764893, -2.1629137992858887, 7.752679347991943, -0.15160155296325684, -0.4780482053756714, -0.8010755777359009, 0.042724609375, 0.191162109375, -0.8017578125
118, 222231830, -5.380396366119385, -2.1649723052978516, 7.745736122131348, -0.1371816098690033, -0.5146231055259705, -0.8489200472831726, 0.043701171875, 0.192626953125, -0.801513671875
119, 222248497, -5.386610507965088, -2.1675972938537598, 7.741701126098633, -0.1172037124633789, -0.5588818788528442, -0.8215913772583008, 0.0419921875, 0.194580078125, -0.80126953125
120, 222265164, -5.363723278045654, -2.185100555419922, 7.750424861907959, -0.10937277972698212, -0.4300117790699005, -0.8361382484436035, 0.045166015625, 0.194091796875, -0.802490234375
121, 222281831, -5.384413242340088, -2.1633565425872803, 7.746715545654297, -0.16746865212917328, -0.46812334656715393, -0.8019848465919495, 0.042724609375, 0.194091796875, -0.8017578125
122, 222298498, -5.376436710357666, -2.167534828186035, 7.782315731048584, -0.17773935198783875, -0.3939105272293091, -0.7728376388549805, 0.044677734375, 0.195068359375, -0.8017578125
123, 222315165, -5.380524635314941, -2.1695806980133057, 7.775786876678467, -0.20847457647323608, -0.21968011558055878, -0.7103554010391235, 0.044189453125, 0.193115234375, -0.801513671875
124, 222331832, -5.384677410125732, -2.164681911468506, 7.760684490203857, -0.2205253392457962, -0.20237872004508972, -0.7506825923919678, 0.043212890625, 0.192626953125, -0.80322265625
125, 222348499, -5.373337268829346, -2.1872048377990723, 7.75960111618042, -0.24850720167160034, -0.09558658301830292, -0.7457393407821655, 0.042724609375, 0.194091796875, -0.8037109375
126, 222365166, -5.3963470458984375, -2.161628007888794, 7.75950813293457, -0.29034557938575745, -0.15397074818611145, -0.7005841732025146, 0.043212890625, 0.193115234375, -0.80224609375
127, 222381833, -5.392947196960449, -2.16855788230896, 7.744157314300537, -0.2987336814403534, -0.1726808249950409, -0.776692271232605, 0.04345703125, 0.197265625, -0.802734375
128, 222398500, -5.398527145385742, -2.159029006958008, 7.738089561462402, -0.222753643989563, -0.2707902491092682, -0.8550799489021301, 0.046630859375, 0.194091796875, -0.802001953125
129, 222415167, -5.3987250328063965, -2.1643247604370117, 7.732802867889404, -0.14389213919639587, -0.5338199138641357, -0.8705885410308838, 0.044189453125, 0.193603515625, -0.8037109375
130, 222431834, -5.399309158325195, -2.187535524368286, 7.774726867675781, -5.378667265176773E-4, -0.651125967502594, -0.8656835556030273, 0.045166015625, 0.192626953125, -0.802734375
131, 222448501, -5.3895158767700195, -2.174720287322998, 7.7393951416015625, -0.01874849572777748, -0.6341448426246643, -0.9114022850990295, 0.045166015625, 0.194091796875, -0.8037109375
132, 222465168, -5.38290548324585, -2.1701135635375977, 7.751754283905029, 0.013248169794678688, -0.5903726816177368, -0.8315292000770569, 0.043701171875, 0.195556640625, -0.8046875
133, 222481835, -5.378280162811279, -2.179298162460327, 7.762348651885986, 0.07076147943735123, -0.6628438830375671, -0.696255624294281, 0.045166015625, 0.194580078125, -0.8037109375
134, 222498502, -5.3937273025512695, -2.1498663425445557, 7.750722885131836, 0.12452252954244614, -0.5441161394119263, -0.6815795302391052, 0.044189453125, 0.195068359375, -0.8037109375
135, 222515169, -5.393585681915283, -2.1694536209106445, 7.7489213943481445, 0.21603670716285706, -0.7109829187393188, -0.7283610701560974, 0.044189453125, 0.193115234375, -0.802734375
136, 222531836, -5.381937026977539, -2.167994499206543, 7.733558654785156, 0.2065984308719635, -0.8055834174156189, -0.8330402374267578, 0.044189453125, 0.194091796875, -0.80322265625
137, 222548503, -5.385152816772461, -2.1902050971984863, 7.7289509773254395, 0.30610379576683044, -0.847601056098938, -0.636296272277832, 0.044189453125, 0.193115234375, -0.80322265625
138, 222565170, -5.397137641906738, -2.164803981781006, 7.737337589263916, 0.3280922770500183, -0.7527443766593933, -0.6801964640617371, 0.043701171875, 0.193115234375, -0.806640625
139, 222581837, -5.375605583190918, -2.1626217365264893, 7.7651543617248535, 0.4613935947418213, -0.9150137901306152, -0.6614992022514343, 0.042724609375, 0.194091796875, -0.8056640625
140, 222598504, -5.391570568084717, -2.162353992462158, 7.767591953277588, 0.2661735713481903, -0.7021337151527405, -0.6201602816581726, 0.044677734375, 0.193115234375, -0.802001953125
141, 222615171, -5.377041816711426, -2.1625754833221436, 7.733709335327148, 0.13348698616027832, -0.7511308789253235, -0.6458753943443298, 0.045166015625, 0.192626953125, -0.801025390625
142, 222631838, -5.374037742614746, -2.1529996395111084, 7.744126319885254, 0.3335990011692047, -0.7266451120376587, -0.5389424562454224, 0.045166015625, 0.192626953125, -0.8046875
143, 222648505, -5.364721298217773, -2.163259983062744, 7.736931800842285, 0.32446804642677307, -0.7777295708656311, -0.6405863761901855, 0.043701171875, 0.192138671875, -0.80224609375
144, 222665172, -5.396023750305176, -2.154487371444702, 7.751965522766113, 0.3515406847000122, -0.7548190355300903, -0.6131808161735535, 0.044189453125, 0.193115234375, -0.800537109375
145, 222681839, -5.384291172027588, -2.13527774810791, 7.768746376037598, 0.11426465213298798, -0.75275719165802, -0.6833211779594421, 0.041748046875, 0.193603515625, -0.80322265625
146, 222698506, -5.382198810577393, -2.1430275440216064, 7.761061191558838, -0.06897500157356262, -0.6062397956848145, -0.8008195161819458, 0.045654296875, 0.192138671875, -0.8037109375
147, 222715173, -5.369138240814209, -2.135768175125122, 7.77490234375, -0.018031340092420578, -0.5482142567634583, -0.8006657958030701, 0.045166015625, 0.192138671875, -0.80322265625
148, 222731840, -5.393158912658691, -2.142519474029541, 7.757652282714844, -0.01639212667942047, -0.551159679889679, -0.8210278749465942, 0.043701171875, 0.191650390625, -0.801513671875
149, 222748507, -5.387571334838867, -2.156017541885376, 7.765735626220703, 0.029025590047240257, -0.6461827754974365, -0.9074962735176086, 0.042724609375, 0.190673828125, -0.801025390625
150, 222765174, -5.388784885406494, -2.1549739837646484, 7.724425315856934, 6.979461177252233E-4, -0.6584001183509827, -0.9110693335533142, 0.042724609375, 0.193115234375, -0.801025390625
151, 222781841, -5.387335777282715, -2.126157522201538, 7.73724365234375, -0.027495231479406357, -0.6998413801193237, -0.8919366002082825, 0.044189453125, 0.193603515625, -0.8046875
152, 222798508, -5.381357669830322, -2.154171943664551, 7.7745747566223145, 0.014234257861971855, -0.646118700504303, -0.8827160596847534, 0.043701171875, 0.192626953125, -0.80517578125
153, 222815175, -5.3817877769470215, -2.1465871334075928, 7.732353210449219, -0.0716003030538559, -0.6380507349967957, -0.8210406303405762, 0.043701171875, 0.190185546875, -0.8037109375
154, 222831842, -5.386495113372803, -2.1372063159942627, 7.741698265075684, 0.026619592681527138, -0.7412887811660767, -0.9383774995803833, 0.042236328125, 0.192138671875, -0.80322265625
155, 222848509, -5.383542060852051, -2.1173689365386963, 7.737226963043213, 0.10645278543233871, -0.8123452663421631, -0.9344794154167175, 0.046142578125, 0.190673828125, -0.803466796875
156, 222865176, -5.36752986907959, -2.144644260406494, 7.7534661293029785, 0.11667225509881973, -0.9192526340484619, -0.9348635673522949, 0.042724609375, 0.192138671875, -0.80517578125
157, 222881843, -5.364504337310791, -2.1603055000305176, 7.74719762802124, 0.23386314511299133, -0.8574234843254089, -0.8083879947662354, 0.042724609375, 0.190673828125, -0.802734375
158, 222898510, -5.399439334869385, -2.1411309242248535, 7.761773109436035, 0.4723430275917053, -0.8688468933105469, -0.725185215473175, 0.043212890625, 0.192138671875, -0.80224609375
159, 222915177, -5.359462261199951, -2.1407740116119385, 7.793034553527832, 0.09505512565374374, -0.7156316041946411, -0.8834971785545349, 0.045166015625, 0.190673828125, -0.8037109375
160, 222931844, -5.3750386238098145, -2.13283634185791, 7.7885870933532715, 0.08913858979940414, -0.694974958896637, -0.7742589712142944, 0.043701171875, 0.192626953125, -0.8046875
161, 222948511, -5.376115798950195, -2.1323671340942383, 7.790077209472656, 0.08536072075366974, -0.45015600323677063, -0.6936943531036377, 0.045166015625, 0.190185546875, -0.80517578125
162, 222965178, -5.37273645401001, -2.14691162109375, 7.781004428863525, 0.0450335331261158, -0.42102155089378357, -0.7231490015983582, 0.042724609375, 0.193115234375, -0.80615234375
163, 222981845, -5.390392303466797, -2.1304147243499756, 7.754286766052246, -0.04085225239396095, -0.2803950011730194, -0.6708990931510925, 0.043212890625, 0.190673828125, -0.8037109375
164, 222998512, -5.386375904083252, -2.1086533069610596, 7.784298419952393, -0.022539174184203148, -0.41662895679473877, -0.6161646842956543, 0.045654296875, 0.190673828125, -0.8046875
165, 223015179, -5.390604019165039, -2.1296632289886475, 7.779433250427246, 0.006678510922938585, -0.5395442843437195, -0.6790311336517334, 0.045166015625, 0.189208984375, -0.80419921875
166, 223031846, -5.368927001953125, -2.1374833583831787, 7.765902042388916, 0.050681132823228836, -0.5887592434883118, -0.7886406779289246, 0.044189453125, 0.190185546875, -0.802001953125
167, 223048513, -5.384318828582764, -2.1304311752319336, 7.758969306945801, 0.09997277706861496, -0.6356816291809082, -0.7626309990882874, 0.043212890625, 0.188232421875, -0.800537109375
168, 223065180, -5.357436656951904, -2.1326987743377686, 7.7482194900512695, 0.08227439224720001, -0.6194687485694885, -0.8053529262542725, 0.043212890625, 0.189697265625, -0.802734375
169, 223081847, -5.373886585235596, -2.120957374572754, 7.754884243011475, 0.09130287170410156, -0.5812802314758301, -0.8809487223625183, 0.040283203125, 0.189697265625, -0.800048828125
170, 223098514, -5.374166965484619, -2.126206159591675, 7.768800258636475, 0.10227791219949722, -0.5897451639175415, -0.8760823607444763, 0.044677734375, 0.192138671875, -0.802734375
171, 223115181, -5.378985404968262, -2.123649835586548, 7.765514850616455, 0.00941906962543726, -0.6579645872116089, -0.8451934456825256, 0.044677734375, 0.190673828125, -0.8046875
172, 223131848, -5.392580986022949, -2.125025749206543, 7.777815341949463, -0.10083720088005066, -0.6050744652748108, -0.8616241216659546, 0.044677734375, 0.190673828125, -0.802490234375
173, 223148515, -5.3788933753967285, -2.1215097904205322, 7.782145023345947, -0.09518959373235703, -0.6804141402244568, -0.8091435432434082, 0.042236328125, 0.188232421875, -0.8046875
174, 223165182, -5.391603469848633, -2.1254777908325195, 7.752638816833496, -0.036318808794021606, -0.7188715934753418, -0.8842143416404724, 0.041748046875, 0.192138671875, -0.8046875
175, 223181849, -5.391479015350342, -2.117727279663086, 7.759256839752197, -0.006646496243774891, -0.9671483039855957, -0.9645359516143799, 0.041748046875, 0.192138671875, -0.8037109375
176, 223198516, -5.376688480377197, -2.132051467895508, 7.764779567718506, -0.05674494057893753, -1.0341639518737793, -1.0451005697250366, 0.044677734375, 0.191162109375, -0.8046875
177, 223215183, -5.359217166900635, -2.131953001022339, 7.766447067260742, -0.048036616295576096, -0.9878561496734619, -0.9937599897384644, 0.045166015625, 0.190185546875, -0.802490234375
178, 223231850, -5.341740608215332, -2.126615047454834, 7.784874439239502, -0.06965373456478119, -0.7635912895202637, -1.0754643678665161, 0.044189453125, 0.189697265625, -0.80419921875
179, 223248517, -5.361583709716797, -2.1174087524414062, 7.758945941925049, -0.13679742813110352, -0.6337094306945801, -1.0264034271240234, 0.044677734375, 0.192138671875, -0.80419921875
180, 223265184, -5.369572639465332, -2.1151375770568848, 7.780442714691162, -0.22838842868804932, -0.6249242424964905, -1.1133968830108643, 0.041748046875, 0.190673828125, -0.8046875
181, 223281851, -5.35244607925415, -2.1314876079559326, 7.777781963348389, -0.1756262630224228, -0.5307207107543945, -1.0496212244033813, 0.045166015625, 0.192138671875, -0.8046875
182, 223298518, -5.370807647705078, -2.1251373291015625, 7.759546279907227, -0.2089099884033203, -0.5889768600463867, -1.014506220817566, 0.041748046875, 0.192138671875, -0.80615234375
183, 223315185, -5.381049156188965, -2.1270534992218018, 7.782095432281494, -0.08973409235477448, -0.5530293583869934, -0.9762535691261292, 0.043701171875, 0.189697265625, -0.80615234375
184, 223331852, -5.360394477844238, -2.135138511657715, 7.7769927978515625, -0.11824101954698563, -0.3246793746948242, -0.9148983955383301, 0.042724609375, 0.191650390625, -0.80419921875
185, 223348519, -5.360437393188477, -2.119324207305908, 7.793027877807617, -0.1292160600423813, -0.17844367027282715, -0.6929771900177002, 0.044189453125, 0.191650390625, -0.8046875
186, 223365186, -5.375665664672852, -2.1255085468292236, 7.7929277420043945, -0.04030157998204231, -0.21492895483970642, -0.681784451007843, 0.046630859375, 0.190185546875, -0.802978515625
187, 223381853, -5.393770694732666, -2.1189558506011963, 7.78260612487793, -0.1758439987897873, -0.19527120888233185, -0.6632024645805359, 0.045654296875, 0.190185546875, -0.8056640625
188, 223398520, -5.387625694274902, -2.1313438415527344, 7.77581262588501, -0.1028667688369751, -0.23720063269138336, -0.5237342119216919, 0.044189453125, 0.190673828125, -0.8046875
189, 223415187, -5.380557537078857, -2.1229116916656494, 7.775704383850098, -0.16151367127895355, -0.22750480473041534, -0.5886438488960266, 0.043701171875, 0.189697265625, -0.8037109375
190, 223431854, -5.398195743560791, -2.1189138889312744, 7.766159534454346, -0.28883442282676697, -0.28819411993026733, -0.575082004070282, 0.043701171875, 0.191162109375, -0.80322265625
191, 223448521, -5.3909430503845215, -2.1139819622039795, 7.766917705535889, -0.24671430885791779, -0.3328498303890228, -0.5477147698402405, 0.042724609375, 0.18798828125, -0.80224609375
192, 223465188, -5.390041828155518, -2.11629581451416, 7.761414051055908, -0.1890089213848114, -0.40894511342048645, -0.5928955674171448, 0.041748046875, 0.192138671875, -0.80224609375
193, 223481855, -5.382696151733398, -2.1281187534332275, 7.758223533630371, -0.18619149923324585, -0.4226095378398895, -0.7140820622444153, 0.043701171875, 0.189697265625, -0.80712890625
194, 223498522, -5.3825602531433105, -2.114593505859375, 7.761077880859375, -0.16995307803153992, -0.31046435236930847, -0.7269269227981567, 0.043701171875, 0.191162109375, -0.8037109375
195, 223515189, -5.372547149658203, -2.121631383895874, 7.7620720863342285, -0.15194734930992126, -0.3003217279911041, -0.7430756688117981, 0.046142578125, 0.189697265625, -0.802001953125
196, 223531856, -5.377284526824951, -2.1347126960754395, 7.7484612464904785, -0.0321311317384243, -0.2600841224193573, -0.716579258441925, 0.045166015625, 0.191162109375, -0.80322265625
197, 223548523, -5.382184982299805, -2.1255545616149902, 7.760376930236816, 0.062065962702035904, -0.16986341774463654, -0.6996363997459412, 0.044189453125, 0.189697265625, -0.802490234375
198, 223565190, -5.392073154449463, -2.120086431503296, 7.750860691070557, 0.046544674783945084, -0.278550922870636, -0.6509851813316345, 0.043701171875, 0.189697265625, -0.80419921875
199, 223581857, -5.388643264770508, -2.1135921478271484, 7.767990589141846, 0.1349084973335266, -0.2768220603466034, -0.7438696622848511, 0.043701171875, 0.191162109375, -0.8037109375
200, 223598524, -5.385425090789795, -2.1151514053344727, 7.766088008880615, 0.14726661145687103, -0.3714865446090698, -0.7034143209457397, 0.046142578125, 0.190185546875, -0.8046875
201, 223615191, -5.375669002532959, -2.112816095352173, 7.772486209869385, 0.1995677500963211, -0.40183764696121216, -0.7029661536216736, 0.043212890625, 0.190185546875, -0.802001953125
202, 223631858, -5.37506103515625, -2.1051416397094727, 7.7540364265441895, 0.10947506129741669, -0.3485887944698334, -0.7286299467086792, 0.044677734375, 0.189208984375, -0.802490234375
203, 223648525, -5.390972137451172, -2.1186063289642334, 7.767980575561523, 0.20673929154872894, -0.4957337975502014, -0.7140563726425171, 0.043212890625, 0.188232421875, -0.8056640625
204, 223665192, -5.3799567222595215, -2.109429359436035, 7.789791107177734, 0.16523392498493195, -0.30433008074760437, -0.7149785161018372, 0.043212890625, 0.189697265625, -0.8037109375
205, 223681859, -5.386659145355225, -2.117386817932129, 7.762933731079102, 0.014054969884455204, -0.2820598781108856, -0.7390159964561462, 0.044677734375, 0.190185546875, -0.80419921875
206, 223698526, -5.387223243713379, -2.112640380859375, 7.7646074295043945, 0.03679904714226723, -0.29747870564460754, -0.7034015655517578, 0.043701171875, 0.1875, -0.802001953125
207, 223715193, -5.387266159057617, -2.106818199157715, 7.776834487915039, -0.019811423495411873, -0.24344873428344727, -0.6629078984260559, 0.045166015625, 0.190185546875, -0.802978515625
208, 223731860, -5.389043807983398, -2.1117217540740967, 7.770293712615967, -0.08449628204107285, -0.13522224128246307, -0.6327232718467712, 0.045166015625, 0.190673828125, -0.801513671875
209, 223748527, -5.3927202224731445, -2.0954394340515137, 7.762823104858398, -0.1901102513074875, -0.24219365417957306, -0.6669034361839294, 0.044189453125, 0.189697265625, -0.80615234375
210, 223765194, -5.397555828094482, -2.085315465927124, 7.7655158042907715, -0.12543818354606628, -0.31366589665412903, -0.692106306552887, 0.043701171875, 0.191162109375, -0.80419921875
211, 223781861, -5.392577171325684, -2.115576982498169, 7.75086784362793, -0.2312186360359192, -0.3483199179172516, -0.6780961751937866, 0.045166015625, 0.188720703125, -0.803466796875
212, 223798528, -5.392735004425049, -2.101454257965088, 7.753394603729248, -0.2830203175544739, -0.38691821694374084, -0.692452073097229, 0.045166015625, 0.191650390625, -0.8056640625
213, 223815195, -5.393489360809326, -2.099423885345459, 7.774963855743408, -0.1998046636581421, -0.41434943675994873, -0.7260943651199341, 0.044677734375, 0.189697265625, -0.80517578125
214, 223831862, -5.412021160125732, -2.086763381958008, 7.769521236419678, -0.24844320118427277, -0.3671196699142456, -0.6691190600395203, 0.045654296875, 0.190185546875, -0.803466796875
215, 223848529, -5.404507637023926, -2.08587646484375, 7.763502597808838, -0.16214118897914886, -0.37580230832099915, -0.6769949197769165, 0.044677734375, 0.189697265625, -0.802490234375
216, 223865196, -5.408293724060059, -2.0929574966430664, 7.743915557861328, -0.32779133319854736, -0.4735915958881378, -0.7597494721412659, 0.044677734375, 0.190185546875, -0.80419921875
217, 223881863, -5.399744033813477, -2.097695827484131, 7.771535873413086, -0.15527698397636414, -0.451948881149292, -0.7201650738716125, 0.045654296875, 0.189208984375, -0.8046875
218, 223898530, -5.385607719421387, -2.099109172821045, 7.779168128967285, -0.16517630219459534, -0.48843419551849365, -0.7845938205718994, 0.045654296875, 0.189208984375, -0.802978515625
219, 223915197, -5.390835285186768, -2.1072545051574707, 7.761651039123535, -0.16725093126296997, -0.5345626473426819, -0.8094509243965149, 0.043701171875, 0.188232421875, -0.802734375
220, 223931864, -5.3829665184021, -2.104721784591675, 7.756862640380859, -0.22292011976242065, -0.4276552200317383, -0.8126268982887268, 0.045654296875, 0.187744140625, -0.802490234375
221, 223948531, -5.399670600891113, -2.0804035663604736, 7.769193172454834, -0.16484041512012482, -0.48731088638305664, -0.7657376527786255, 0.044189453125, 0.189208984375, -0.80419921875
222, 223965198, -5.398237228393555, -2.116666555404663, 7.7461018562316895, -0.08833819627761841, -0.5384173393249512, -0.8522369265556335, 0.044189453125, 0.190673828125, -0.8046875
223, 223981865, -5.385878086090088, -2.1002817153930664, 7.7822465896606445, -0.07647951692342758, -0.6038706302642822, -0.8074019551277161, 0.044677734375, 0.187744140625, -0.80517578125
224, 223998532, -5.382606506347656, -2.0934786796569824, 7.771200656890869, -0.0460004061460495, -0.5765930414199829, -0.8835868239402771, 0.044677734375, 0.188720703125, -0.802978515625
225, 224015199, -5.409271240234375, -2.078019380569458, 7.775675296783447, -0.08714720606803894, -0.5524146556854248, -0.8281481862068176, 0.045166015625, 0.190673828125, -0.802490234375
226, 224031866, -5.399359703063965, -2.089414596557617, 7.757678985595703, -0.017621535807847977, -0.5989913940429688, -0.8686802983283997, 0.045166015625, 0.190673828125, -0.80322265625
227, 224048533, -5.385739326477051, -2.109215497970581, 7.754884719848633, -0.07636426389217377, -0.46280866861343384, -0.8976738452911377, 0.046142578125, 0.188720703125, -0.802490234375
228, 224065200, -5.389247894287109, -2.0989797115325928, 7.76961088180542, 0.03476283699274063, -0.26577016711235046, -0.756624698638916, 0.044189453125, 0.188720703125, -0.80517578125
229, 224081867, -5.387351036071777, -2.087766647338867, 7.745087623596191, -0.04204324260354042, -0.3144855201244354, -0.8175445199012756, 0.043212890625, 0.18701171875, -0.80322265625
230, 224098534, -5.404253005981445, -2.10040545463562, 7.751727104187012, -0.11164576560258865, -0.3189549446105957, -0.8529413938522339, 0.044189453125, 0.189697265625, -0.8056640625
231, 224115201, -5.379989147186279, -2.0904111862182617, 7.7761406898498535, -0.03209271281957626, -0.19810140132904053, -0.7478779554367065, 0.045654296875, 0.187255859375, -0.8046875
232, 224131868, -5.40047025680542, -2.0957863330841064, 7.763853073120117, -0.18325887620449066, -0.08568728715181351, -0.6715777516365051, 0.047607421875, 0.1865234375, -0.802001953125
233, 224148535, -5.404214382171631, -2.09605073928833, 7.775343418121338, -0.17944255471229553, -0.008311321027576923, -0.7007249593734741, 0.045166015625, 0.189208984375, -0.8037109375
234, 224165202, -5.394047260284424, -2.0981180667877197, 7.726388931274414, -0.18925224244594574, 0.05451022461056709, -0.7117128968238831, 0.047119140625, 0.187255859375, -0.803466796875
235, 224181869, -5.3905816078186035, -2.0916593074798584, 7.769975662231445, -0.23383112251758575, 0.07182440161705017, -0.6313914060592651, 0.048583984375, 0.189208984375, -0.803466796875
236, 224198536, -5.417449951171875, -2.077361583709717, 7.772822380065918, -0.25761252641677856, -0.01704525202512741, -0.7408344745635986, 0.047119140625, 0.188232421875, -0.803466796875
237, 224215203, -5.408101558685303, -2.078627586364746, 7.776219367980957, -0.37121760845184326, 0.05029693618416786, -0.7445098757743835, 0.048583984375, 0.189208984375, -0.803466796875
238, 224231870, -5.402908802032471, -2.065214157104492, 7.780038356781006, -0.7572779059410095, 0.16286475956439972, -1.0398883819580078, 0.049560546875, 0.189208984375, -0.802490234375
239, 224248537, -5.420892238616943, -2.111894130706787, 7.7342448234558105, -0.3395603895187378, 0.08142917603254318, -0.8107956051826477, 0.046630859375, 0.189697265625, -0.801025390625
240, 224265204, -5.43434476852417, -2.0977866649627686, 7.7293243408203125, -0.20884594321250916, -0.18985413014888763, -0.8662086725234985, 0.046630859375, 0.190185546875, -0.803466796875
241, 224281871, -5.412529468536377, -2.102438449859619, 7.7563252449035645, -0.05765417963266373, -0.3571819067001343, -0.7499013543128967, 0.047119140625, 0.188232421875, -0.802978515625
242, 224298538, -5.424328327178955, -2.081050395965576, 7.7456769943237305, 0.04833757132291794, -0.660026490688324, -0.7145175337791443, 0.045654296875, 0.189208984375, -0.8046875
243, 224315205, -5.401003837585449, -2.059417724609375, 7.74298095703125, 0.06882772594690323, -0.8514942526817322, -0.9805949926376343, 0.046630859375, 0.188232421875, -0.803955078125
244, 224331872, -5.4200053215026855, -2.0568082332611084, 7.732111930847168, -0.10905887931585312, -0.8800908327102661, -1.1086201667785645, 0.048095703125, 0.188720703125, -0.803466796875
245, 224348539, -5.404749393463135, -2.0888748168945312, 7.763335227966309, -0.20459423959255219, -0.8595749139785767, -1.1168032884597778, 0.048583984375, 0.187744140625, -0.802978515625
246, 224365206, -5.424266815185547, -2.0651638507843018, 7.749385833740234, -0.4546125829219818, -0.8637754321098328, -1.2515262365341187, 0.049072265625, 0.189208984375, -0.803466796875
247, 224381873, -5.410006046295166, -2.0611565113067627, 7.781710147857666, -0.8121914267539978, -0.8396738767623901, -1.522021770477295, 0.048095703125, 0.188232421875, -0.805908203125
248, 224398540, -5.418556213378906, -2.080915927886963, 7.749110698699951, -0.8784388303756714, -0.8737515807151794, -1.671984076499939, 0.047119140625, 0.187744140625, -0.803955078125
249, 224415207, -5.415332317352295, -2.0793936252593994, 7.770524024963379, -0.8174165487289429, -1.1388046741485596, -1.7596694231033325, 0.048095703125, 0.188720703125, -0.802001953125
250, 224431874, -5.397024631500244, -2.0802533626556396, 7.759688377380371, -0.9647151231765747, -1.0328962802886963, -2.0117239952087402, 0.044677734375, 0.188232421875, -0.801513671875
251, 224448541, -5.396241188049316, -2.103541851043701, 7.797453880310059, -1.3723284006118774, -0.7532438635826111, -1.994307279586792, 0.046630859375, 0.188720703125, -0.80517578125
252, 224465208, -5.402215480804443, -2.1155571937561035, 7.778314113616943, -1.474984049797058, -0.5406712889671326, -2.0777406692504883, 0.046142578125, 0.191650390625, -0.8037109375
253, 224481875, -5.38971471786499, -2.120652675628662, 7.766667366027832, -1.5481212139129639, -0.4238261878490448, -1.9283419847488403, 0.044189453125, 0.189208984375, -0.802490234375
254, 224498542, -5.374745845794678, -2.126702308654785, 7.7515549659729, -1.2611438035964966, -0.43715760111808777, -1.7491682767868042, 0.047607421875, 0.188720703125, -0.802001953125
255, 224515209, -5.395877361297607, -2.1174848079681396, 7.747660160064697, -1.109595775604248, -0.5019237399101257, -1.6983389854431152, 0.046142578125, 0.189697265625, -0.803955078125
256, 224531876, -5.395810127258301, -2.103442907333374, 7.746088027954102, -1.2527683973312378, -0.5459731817245483, -1.7715535163879395, 0.045654296875, 0.192626953125, -0.80419921875
257, 224548543, -5.3968825340271, -2.130269765853882, 7.756420135498047, -1.0422576665878296, -0.7008019685745239, -1.7123627662658691, 0.045654296875, 0.190673828125, -0.803466796875
258, 224565210, -5.412925720214844, -2.144407033920288, 7.746067523956299, -0.9006320834159851, -0.7877568602561951, -1.635716438293457, 0.042724609375, 0.192138671875, -0.802734375
259, 224581877, -5.393190860748291, -2.1374969482421875, 7.746520519256592, -0.6500630378723145, -0.737504780292511, -1.5209460258483887, 0.045654296875, 0.192626953125, -0.80322265625
260, 224598544, -5.388154983520508, -2.117849349975586, 7.7446746826171875, -0.825369119644165, -0.7798041105270386, -1.4879696369171143, 0.046142578125, 0.191650390625, -0.802001953125
261, 224615211, -5.406158924102783, -2.1515917778015137, 7.735505104064941, -0.7348154783248901, -0.7942241430282593, -1.555497646331787, 0.047119140625, 0.190185546875, -0.802490234375
262, 224631878, -5.402390480041504, -2.179692506790161, 7.746699810028076, -0.4150025248527527, -0.8879538178443909, -1.2868714332580566, 0.046142578125, 0.193603515625, -0.802001953125
263, 224648545, -5.3978590965271, -2.1695282459259033, 7.744978427886963, 0.025247717276215553, -1.150688886642456, -0.9403318762779236, 0.043701171875, 0.193603515625, -0.8037109375
264, 224665212, -5.386618137359619, -2.1286346912384033, 7.768099308013916, 0.22181236743927002, -1.4423919916152954, -0.8199137449264526, 0.044189453125, 0.192626953125, -0.8056640625
265, 224681879, -5.390110969543457, -2.1218271255493164, 7.771363258361816, 0.28099051117897034, -1.5126091241836548, -0.9882020354270935, 0.043701171875, 0.192138671875, -0.8046875
266, 224698546, -5.407786846160889, -2.134072780609131, 7.787461280822754, -0.12358126789331436, -1.296130657196045, -1.2828247547149658, 0.043701171875, 0.192138671875, -0.801513671875
267, 224715213, -5.373078346252441, -2.1365697383880615, 7.776984214782715, -0.4579806923866272, -1.1632391214370728, -1.505117416381836, 0.044189453125, 0.193115234375, -0.8037109375
268, 224731880, -5.398809432983398, -2.14174222946167, 7.783102989196777, -0.3170084059238434, -1.0747473239898682, -1.424155831336975, 0.042236328125, 0.193603515625, -0.80419921875
269, 224748547, -5.406965255737305, -2.130136251449585, 7.770331382751465, -0.3739453852176666, -1.0685617923736572, -1.5000203847885132, 0.041259765625, 0.191650390625, -0.80517578125
270, 224765214, -5.4284987449646, -2.129903554916382, 7.777185916900635, -0.2158382385969162, -1.195972204208374, -1.769453525543213, 0.041748046875, 0.193115234375, -0.806640625
271, 224781881, -5.447508811950684, -2.095517158508301, 7.778254508972168, -0.7017366886138916, -1.4042162895202637, -2.3694820404052734, 0.044189453125, 0.190673828125, -0.8046875
272, 224798548, -5.477783203125, -2.040095806121826, 7.803628921508789, -1.170090675354004, -1.5149272680282593, -3.01766300201416, 0.043212890625, 0.190673828125, -0.80517578125
273, 224815215, -5.377527713775635, -2.1467180252075195, 7.829498291015625, -1.9778637886047363, -1.2597349882125854, -3.7538998126983643, 0.042724609375, 0.195556640625, -0.80322265625
274, 224831882, -5.397279739379883, -2.1517980098724365, 7.778517723083496, -2.6131229400634766, -0.700853168964386, -3.970980167388916, 0.044189453125, 0.191650390625, -0.8037109375
275, 224848549, -5.2965216636657715, -2.2064390182495117, 7.799334526062012, -3.5175459384918213, 0.48290830850601196, -4.384830474853516, 0.04248046875, 0.195556640625, -0.80126953125
276, 224865216, -5.198104381561279, -2.24712872505188, 7.763052463531494, -3.9986681938171387, 1.7306053638458252, -4.026880264282227, 0.0400390625, 0.196044921875, -0.8037109375
277, 224881883, -5.118351936340332, -2.367649793624878, 7.801919460296631, -4.238632678985596, 3.495537757873535, -2.8327391147613525, 0.04345703125, 0.19677734375, -0.8017578125
278, 224898550, -5.071311950683594, -2.3671107292175293, 7.8288116455078125, -4.7299628257751465, 6.47742223739624, -1.8304636478424072, 0.045166015625, 0.1982421875, -0.8017578125
279, 224915217, -5.035793781280518, -2.3349294662475586, 7.904253005981445, -5.66646671295166, 10.306522369384766, -0.20470958948135376, 0.049072265625, 0.197265625, -0.802001953125
280, 224931884, -4.931681156158447, -2.3953115940093994, 8.031473159790039, -7.52053689956665, 16.280200958251953, 1.8682628870010376, 0.052490234375, 0.20068359375, -0.800537109375
281, 224948551, -4.55558443069458, -2.6623189449310303, 8.297772407531738, -13.435781478881836, 29.15817642211914, 8.372547149658203, 0.056884765625, 0.201904296875, -0.796875
282, 224965218, -4.200780868530273, -2.511329174041748, 9.066849708557129, -22.538192749023438, 45.68342971801758, 22.447757720947266, 0.0673828125, 0.206298828125, -0.795654296875
283, 224981885, -4.443182945251465, -2.1508071422576904, 9.309935569763184, -26.007551193237305, 70.89154815673828, 30.27001953125, 0.080810546875, 0.211181640625, -0.79150390625
284, 224998552, -5.228210926055908, -3.01924729347229, 9.606060028076172, -32.88945388793945, 91.82374572753906, 37.64999771118164, 0.10546875, 0.2177734375, -0.785400390625
285, 225015219, -5.2362165451049805, -3.1849253177642822, 9.530025482177734, -32.3297004699707, 103.3281021118164, 47.7320556640625, 0.132080078125, 0.220458984375, -0.780029296875
286, 225031886, -6.19606876373291, -3.9263243675231934, 9.317489624023438, -37.63101577758789, 112.01161193847656, 55.31956100463867, 0.162353515625, 0.222900390625, -0.767822265625
287, 225048553, -2.9801628589630127, -4.818642616271973, 10.83471965789795, -23.765029907226562, 107.56360626220703, 58.114158630371094, 0.191162109375, 0.22509765625, -0.75732421875
288, 225065220, 1.4263757467269897, -5.3587870597839355, 14.217875480651855, -8.094858169555664, 81.38984680175781, 44.61018753051758, 0.21826171875, 0.225830078125, -0.74658203125
289, 225081887, 1.8241461515426636, -5.6645188331604, 16.2469425201416, -2.235832691192627, 33.66164016723633, 12.588937759399414, 0.229736328125, 0.2197265625, -0.736328125
290, 225098554, 4.499664306640625, -4.656311988830566, 15.15274429321289, 3.2125613689422607, -13.326423645019531, -16.509113311767578, 0.23681640625, 0.21728515625, -0.728759765625
291, 225115221, 5.502816677093506, -2.471567392349243, 14.093037605285645, 0.5478413105010986, -40.98643493652344, -29.06671714782715, 0.234130859375, 0.21484375, -0.72314453125
292, 225131888, 4.40143346786499, -1.567857265472412, 13.760415077209473, -7.195069789886475, -61.346839904785156, -28.172565460205078, 0.229248046875, 0.21533203125, -0.7177734375
293, 225148555, 2.4990975856781006, -1.4448184967041016, 13.694978713989258, -14.117570877075195, -78.22672271728516, -21.12798500061035, 0.2216796875, 0.212646484375, -0.71533203125
294, 225165222, -0.08041386306285858, -1.8848943710327148, 13.717855453491211, -20.228731155395508, -94.33834075927734, -14.226204872131348, 0.2138671875, 0.212646484375, -0.7119140625
295, 225181889, -2.4091906547546387, -2.7232887744903564, 13.253463745117188, -21.439598083496094, -110.42214965820312, -10.178853034973145, 0.203857421875, 0.217529296875, -0.71484375
296, 225198556, -4.269225120544434, -3.446343421936035, 12.624279975891113, -18.813154220581055, -120.81283569335938, -8.45134449005127, 0.19482421875, 0.221923828125, -0.718017578125
297, 225215223, -6.667863368988037, -3.9204814434051514, 12.237486839294434, -21.115798950195312, -128.9171905517578, -12.234647750854492, 0.185546875, 0.23291015625, -0.722900390625
298, 225231890, -8.043594360351562, -4.8652424812316895, 11.260613441467285, -19.974138259887695, -139.89756774902344, -19.271610260009766, 0.17236328125, 0.2490234375, -0.736328125
299, 225248557, -8.030045509338379, -5.471433639526367, 9.808606147766113, -11.899621963500977, -146.4809112548828, -26.546947479248047, 0.147216796875, 0.264404296875, -0.7568359375
300, 225265224, -7.617356300354004, -5.211179256439209, 8.484537124633789, -5.2112603187561035, -142.49380493164062, -34.12294006347656, 0.112060546875, 0.2822265625, -0.775390625
301, 225281891, -7.978954315185547, -4.4991960525512695, 7.899251461029053, -8.959135055541992, -130.1255340576172, -42.371734619140625, 0.07861328125, 0.2919921875, -0.79052734375
302, 225298558, -8.654478073120117, -3.8002712726593018, 7.535705089569092, -21.14362335205078, -119.64659881591797, -52.060054779052734, 0.039306640625, 0.305419921875, -0.798095703125
303, 225315225, -8.656320571899414, -3.1812918186187744, 6.795114517211914, -30.070280075073242, -111.5761489868164, -57.6619873046875, 0.001953125, 0.315673828125, -0.805419921875
304, 225331892, -8.333741188049316, -2.2910399436950684, 5.936051368713379, -31.317333221435547, -101.12955474853516, -56.87512969970703, -0.03369140625, 0.32568359375, -0.80419921875
305, 225348559, -8.762306213378906, -1.3823198080062866, 5.494505405426025, -29.73015022277832, -89.08247375488281, -50.66411209106445, -0.066650390625, 0.33154296875, -0.802978515625
306, 225365226, -9.886322975158691, -0.7164487242698669, 5.04730224609375, -30.257280349731445, -82.446533203125, -41.84135818481445, -0.0947265625, 0.33740234375, -0.796875
307, 225381893, -10.835816383361816, -0.2412528097629547, 3.794372081756592, -31.24005889892578, -80.28816986083984, -30.523771286010742, -0.118896484375, 0.3447265625, -0.79150390625
308, 225398560, -11.602250099182129, 0.10851398855447769, 1.8694020509719849, -29.001628875732422, -73.31647491455078, -14.081384658813477, -0.139892578125, 0.348388671875, -0.784423828125
309, 225415227, -12.599560737609863, 0.6386606097221375, -0.08181895315647125, -26.854267120361328, -56.029781341552734, 2.4068386554718018, -0.1533203125, 0.353759765625, -0.78076171875
310, 225431894, -12.087747573852539, 0.6156689524650574, -1.5282888412475586, -23.151538848876953, -28.52132225036621, 16.05219078063965, -0.162353515625, 0.3583984375, -0.77734375
311, 225448561, -10.993598937988281, 0.016955755650997162, -1.5107868909835815, -16.537721633911133, 8.381217956542969, 27.28112030029297, -0.159912109375, 0.36474609375, -0.77490234375
312, 225465228, -11.255558967590332, -0.899844765663147, -0.3182113468647003, -10.819317817687988, 39.30635070800781, 32.6402587890625, -0.151123046875, 0.368408203125, -0.773681640625
313, 225481895, -6.279449939727783, -2.7033724784851074, 2.295012950897217, -3.7059223651885986, 67.80692291259766, 30.793685913085938, -0.136474609375, 0.36865234375, -0.7763671875
314, 225498562, -0.26415568590164185, -8.361917495727539, 12.31183910369873, 31.66092300415039, 106.07268524169922, 39.67103958129883, -0.108642578125, 0.3642578125, -0.78076171875
315, 225515229, 1.8651881217956543, -4.497771263122559, 5.567484378814697, 27.61545753479004, 110.26309967041016, 48.74618911743164, -0.08154296875, 0.359130859375, -0.7841796875
316, 225531896, -3.5209577083587646, -1.854473352432251, 6.365764141082764, 13.0610990524292, 155.24319458007812, 43.63434982299805, -0.044677734375, 0.351806640625, -0.78662109375
317, 225548563, -9.213587760925293, -4.59113883972168, 10.655558586120605, -1.4301767349243164, 152.1197967529297, 9.92551040649414, -0.007568359375, 0.35009765625, -0.788330078125
318, 225565230, -9.669777870178223, -1.6096941232681274, 10.981058120727539, -2.467750310897827, 129.1745147705078, 11.04604721069336, 0.022705078125, 0.352294921875, -0.7861328125
319, 225581897, -9.971480369567871, -0.6455336213111877, 11.537327766418457, -6.57406759262085, 104.21210479736328, 18.909908294677734, 0.05078125, 0.349609375, -0.782470703125
320, 225598564, -8.655282020568848, -2.7529783248901367, 9.735552787780762, -14.456037521362305, 84.14574432373047, 22.671581268310547, 0.072509765625, 0.353271484375, -0.778076171875
321, 225615231, -6.783946514129639, -4.6191229820251465, 7.846951484680176, -15.833069801330566, 76.70471954345703, 10.528581619262695, 0.092041015625, 0.353515625, -0.776611328125
322, 225631898, -9.414811134338379, -7.398897647857666, 9.005154609680176, 15.900699615478516, 60.95343017578125, 25.1909122467041, 0.10986328125, 0.353271484375, -0.7734375
323, 225648565, -7.079473495483398, -4.185625076293945, 6.112790584564209, 34.612083435058594, 20.424701690673828, 23.752817153930664, 0.1181640625, 0.34375, -0.776611328125
324, 225665232, -5.355157375335693, -3.634882926940918, 7.788279056549072, 42.18301010131836, 16.025951385498047, 27.075672149658203, 0.123779296875, 0.334228515625, -0.780517578125
325, 225681899, -6.889777660369873, -2.1681058406829834, 8.429520606994629, 39.90413284301758, 11.430163383483887, 24.271387100219727, 0.12939453125, 0.32275390625, -0.78369140625
326, 225698566, -6.387426376342773, -1.7602124214172363, 8.451041221618652, 25.244850158691406, 1.7034735679626465, 13.332197189331055, 0.134033203125, 0.313232421875, -0.78564453125
327, 225715233, -5.981451511383057, -1.881284236907959, 8.380910873413086, 16.271543502807617, 1.1872332096099854, 7.186631202697754, 0.135498046875, 0.31103515625, -0.78857421875
328, 225731900, -5.847188472747803, -2.371851682662964, 7.972391128540039, 7.777522087097168, 0.15760137140750885, 1.7900655269622803, 0.133056640625, 0.30712890625, -0.7890625
329, 225748567, -5.355450630187988, -3.0905630588531494, 7.509816646575928, 6.054643630981445, 0.20786625146865845, 1.0628823041915894, 0.134765625, 0.30615234375, -0.79052734375
330, 225765234, -5.2551469802856445, -3.1578047275543213, 7.332574367523193, 7.763357162475586, 0.15820322930812836, 3.1495745182037354, 0.13427734375, 0.3046875, -0.791015625
331, 225781901, -5.392448902130127, -2.9108660221099854, 7.475025653839111, 9.231094360351562, 0.25945034623146057, 5.0149102210998535, 0.13427734375, 0.301513671875, -0.7919921875
332, 225798568, -5.301216125488281, -2.732264757156372, 7.566671371459961, 9.407490730285645, 0.7566314935684204, 5.499887943267822, 0.1376953125, 0.299560546875, -0.79052734375
333, 225815235, -5.211780071258545, -2.7087910175323486, 7.501108169555664, 10.062114715576172, 1.3464922904968262, 6.182223320007324, 0.13720703125, 0.295166015625, -0.79150390625
334, 225831902, -5.479078769683838, -2.6627352237701416, 7.47968053817749, 11.111236572265625, 0.3975157141685486, 6.532105922698975, 0.136474609375, 0.29345703125, -0.7939453125
335, 225848569, -5.478726387023926, -2.4658987522125244, 7.67241096496582, 9.428391456604004, 0.23242896795272827, 4.457040309906006, 0.138916015625, 0.2880859375, -0.794921875
336, 225865236, -5.390376567840576, -2.592792510986328, 7.610673427581787, 8.706558227539062, -0.8546319007873535, 3.874990940093994, 0.139404296875, 0.28857421875, -0.7958984375
337, 225881903, -5.555797576904297, -2.6344494819641113, 7.5153117179870605, 8.738166809082031, -2.229330539703369, 3.7565972805023193, 0.138916015625, 0.28564453125, -0.7958984375
338, 225898570, -5.570598125457764, -2.524890661239624, 7.648953437805176, 10.190216064453125, -4.456739902496338, 4.140813827514648, 0.137939453125, 0.282470703125, -0.798828125
339, 225915237, -5.522496700286865, -2.5682733058929443, 7.613822937011719, 12.60542106628418, -7.04313850402832, 4.878242492675781, 0.136474609375, 0.280029296875, -0.79638671875
340, 225931904, -5.433943271636963, -2.741666793823242, 7.581134796142578, 15.527494430541992, -10.628310203552246, 6.419209957122803, 0.13671875, 0.2763671875, -0.79833984375
341, 225948571, -5.512622833251953, -1.9543769359588623, 8.040955543518066, 9.817886352539062, -7.83818244934082, 4.23996114730835, 0.1357421875, 0.27294921875, -0.80029296875
342, 225965238, -5.393438339233398, -1.9510045051574707, 8.04151725769043, 3.5410521030426025, -3.1696739196777344, 1.4857864379882812, 0.133544921875, 0.2744140625, -0.800537109375
343, 225981905, -5.2732439041137695, -2.375257968902588, 7.778350353240967, -0.3761993646621704, 0.5876258015632629, -0.516646683216095, 0.132080078125, 0.271484375, -0.801513671875
344, 225998572, -5.256511688232422, -2.4932796955108643, 7.6195478439331055, -0.5531958937644958, 1.3203538656234741, -0.13479964435100555, 0.135009765625, 0.275390625, -0.802490234375
345, 226015239, -5.1979265213012695, -2.6319916248321533, 7.539490222930908, 0.8098927140235901, 0.557799756526947, 1.3080084323883057, 0.1328125, 0.27099609375, -0.802490234375
346, 226031906, -5.270031929016113, -2.5583527088165283, 7.66978645324707, 2.2925992012023926, -1.1127821207046509, 3.488135814666748, 0.13525390625, 0.26953125, -0.80126953125
347, 226048573, -5.310855865478516, -2.3693652153015137, 7.748900890350342, 1.5143572092056274, -0.20861543715000153, 4.127493381500244, 0.13427734375, 0.268310546875, -0.802490234375
348, 226065240, -5.2444376945495605, -2.3199639320373535, 7.813333988189697, -0.8755829930305481, 2.751361131668091, 3.9932057857513428, 0.1357421875, 0.27001953125, -0.80224609375
349, 226081907, -5.103058815002441, -2.444751262664795, 7.855456352233887, -1.6143434047698975, 7.381448745727539, 4.310266494750977, 0.13818359375, 0.2705078125, -0.80224609375
350, 226098574, -5.064974784851074, -2.510296106338501, 7.85137939453125, -2.1588830947875977, 13.495628356933594, 5.9816131591796875, 0.144287109375, 0.27001953125, -0.800048828125
351, 226115241, -5.140992164611816, -2.504201650619507, 7.917174339294434, -4.041256427764893, 22.2273006439209, 8.03581428527832, 0.147216796875, 0.2705078125, -0.801025390625
352, 226131908, -5.268834114074707, -2.6089160442352295, 7.920953273773193, -6.779262542724609, 31.899658203125, 10.946253776550293, 0.153564453125, 0.27001953125, -0.796875
353, 226148575, -4.578569412231445, -2.6078574657440186, 8.771483421325684, -9.111701011657715, 44.464317321777344, 14.975346565246582, 0.16650390625, 0.271728515625, -0.793701171875
354, 226165242, -4.802870750427246, -2.334625005722046, 8.815853118896484, -10.520408630371094, 70.05216979980469, 16.85951042175293, 0.178466796875, 0.273193359375, -0.7890625
355, 226181909, -4.945577144622803, -1.9759094715118408, 8.908056259155273, -19.035673141479492, 98.06275177001953, 20.310855865478516, 0.200439453125, 0.2734375, -0.781005859375
356, 226198576, -5.254415512084961, -1.479970932006836, 8.868223190307617, -31.136459350585938, 133.8874969482422, 17.696653366088867, 0.230712890625, 0.27880859375, -0.771484375
357, 226215243, -5.1303300857543945, -2.1670033931732178, 9.15926456451416, -40.50210189819336, 177.5238494873047, 18.86522102355957, 0.2685546875, 0.28564453125, -0.751708984375
358, 226231910, -4.758347988128662, -3.1980247497558594, 9.230911254882812, -41.58706283569336, 229.61404418945312, 29.157241821289062, 0.31494140625, 0.29150390625, -0.724609375
359, 226248577, -5.146008014678955, -4.012357711791992, 9.218950271606445, -42.768798828125, 289.5650939941406, 51.3329963684082, 0.37451171875, 0.296875, -0.6923828125
360, 226265244, -7.342978477478027, -6.207995891571045, 10.628050804138184, -33.0284538269043, 349.8166809082031, 94.89411163330078, 0.448486328125, 0.29345703125, -0.64453125
361, 226281911, -8.50475788116455, -4.909441947937012, 10.584212303161621, -28.860185623168945, 382.2529296875, 137.1885223388672, 0.52294921875, 0.2763671875, -0.58642578125
362, 226298578, -17.05308723449707, -6.1965789794921875, 12.702413558959961, -47.37329864501953, 376.6431579589844, 147.3800811767578, 0.597412109375, 0.254150390625, -0.513427734375
363, 226315245, -18.838396072387695, -5.874940395355225, 15.18161392211914, -50.0552978515625, 327.0035095214844, 136.45285034179688, 0.654052734375, 0.23291015625, -0.437744140625
364, 226331912, -13.11950397491455, -5.930682182312012, 12.54152774810791, -39.581214904785156, 264.62445068359375, 136.226806640625, 0.697998046875, 0.20654296875, -0.376953125
365, 226348579, -2.611724376678467, -9.721039772033691, 14.530302047729492, -16.679847717285156, 224.7200927734375, 137.61375427246094, 0.729736328125, 0.178955078125, -0.31591796875
366, 226365246, -11.29715347290039, -15.997802734375, 22.996809005737305, 1.965227484703064, 116.65960693359375, 51.20836639404297, 0.74951171875, 0.160888671875, -0.274658203125
367, 226381913, -1.3817170858383179, -12.69767951965332, 19.36716079711914, 52.95493698120117, -43.01496124267578, -29.879257202148438, 0.7529296875, 0.156005859375, -0.26806640625
368, 226398580, 5.607234477996826, -6.723445892333984, 13.049817085266113, 84.11492919921875, -101.20099639892578, -58.91555404663086, 0.7529296875, 0.156982421875, -0.28271484375
369, 226415247, 5.407570838928223, -2.949723958969116, 10.93442153930664, 72.80448913574219, -111.89442443847656, -69.53524780273438, 0.7578125, 0.1630859375, -0.298583984375
370, 226431914, 1.8209493160247803, -1.9071896076202393, 10.806153297424316, 41.19902038574219, -124.4255142211914, -79.3679428100586, 0.76806640625, 0.1748046875, -0.32470703125
371, 226448581, -1.5466703176498413, -2.384868860244751, 10.590665817260742, 19.88654327392578, -151.76502990722656, -83.42647552490234, 0.78173828125, 0.194580078125, -0.36669921875
372, 226465248, -3.9825594425201416, -2.770185708999634, 10.038304328918457, 17.61311912536621, -186.94447326660156, -80.16458892822266, 0.779052734375, 0.218017578125, -0.4345703125
373, 226481915, -5.923527717590332, -2.4419968128204346, 9.36940860748291, 21.330554962158203, -220.99713134765625, -74.4959487915039, 0.747314453125, 0.235107421875, -0.524658203125
374, 226498582, -7.437619209289551, -1.992405891418457, 8.982645988464355, 17.335250854492188, -248.0767364501953, -70.20443725585938, 0.68310546875, 0.24609375, -0.60400390625
375, 226515249, -8.661614418029785, -2.0569987297058105, 8.941914558410645, 4.070619106292725, -267.9020690917969, -69.84955596923828, 0.599609375, 0.252197265625, -0.660888671875
376, 226531916, -9.576590538024902, -2.8986005783081055, 8.800095558166504, -9.483386993408203, -281.5740051269531, -73.51610565185547, 0.527587890625, 0.26416015625, -0.697021484375
377, 226548583, -9.921270370483398, -3.758601188659668, 8.579038619995117, -14.282736778259277, -284.7313232421875, -78.05113983154297, 0.4716796875, 0.283203125, -0.725341796875
378, 226565250, -10.410189628601074, -4.145145893096924, 8.857109069824219, -14.206475257873535, -275.5566711425781, -82.90775299072266, 0.41845703125, 0.30810546875, -0.770751953125
379, 226581917, -12.08482551574707, -4.822021484375, 10.377994537353516, -18.288434982299805, -258.06085205078125, -87.55886840820312, 0.342041015625, 0.339111328125, -0.8193359375
380, 226598584, -16.769878387451172, -6.037787437438965, 12.227741241455078, -28.901473999023438, -249.32496643066406, -103.41861724853516, 0.241455078125, 0.363037109375, -0.85107421875
381, 226615251, -20.993379592895508, -6.943601608276367, 11.071371078491211, -27.445465087890625, -254.33843994140625, -133.89096069335938, 0.129150390625, 0.375244140625, -0.849853515625
382, 226631918, -24.75068473815918, -7.248213291168213, 7.2791008949279785, 0.23440073430538177, -260.1246337890625, -158.10813903808594, 0.034912109375, 0.374755859375, -0.837646484375
383, 226648585, -27.217769622802734, -6.487428665161133, 2.051992416381836, 46.51247787475586, -264.55059814453125, -142.80284118652344, -0.048583984375, 0.3583984375, -0.8212890625
384, 226665252, -27.41985511779785, -1.637976884841919, -2.2542381286621094, 54.777252197265625, -252.88491821289062, -110.02550506591797, -0.11669921875, 0.336669921875, -0.81494140625
385, 226681919, -28.667688369750977, 5.003369331359863, -7.862321853637695, -2.0927720069885254, -219.39915466308594, -83.49858856201172, -0.17431640625, 0.324462890625, -0.801025390625
386, 226698586, -29.4750919342041, 13.363008499145508, -16.149072647094727, -96.27325439453125, -152.70570373535156, -68.3560562133789, -0.21826171875, 0.332763671875, -0.77685546875
387, 226715253, -22.508581161499023, 8.339360237121582, -22.076522827148438, -115.59136199951172, -21.02522850036621, 0.740582287311554, -0.233154296875, 0.355224609375, -0.755615234375
388, 226731920, -16.098180770874023, 3.9228036403656006, -16.40654945373535, 18.19833755493164, 141.0094451904297, 135.0928497314453, -0.200927734375, 0.363037109375, -0.7626953125
389, 226748587, -12.225582122802734, -12.282459259033203, 16.088354110717773, 51.25785446166992, 155.2281951904297, 121.0433578491211, -0.154296875, 0.35791015625, -0.770751953125
390, 226765254, -1.895531177520752, -14.230613708496094, 6.85736608505249, 30.113174438476562, 113.16155242919922, 37.931427001953125, -0.120849609375, 0.34765625, -0.77197265625
391, 226781921, 1.0605436563491821, -1.9989640712738037, 2.3435659408569336, 18.317869186401367, 192.8042449951172, 8.47392463684082, -0.085205078125, 0.34228515625, -0.774658203125
392, 226798588, -13.242785453796387, 0.004708603024482727, 12.56722354888916, 24.457305908203125, 213.5568389892578, -2.628765106201172, -0.038818359375, 0.334228515625, -0.775634765625
393, 226815255, -15.592246055603027, 3.4443633556365967, 15.016534805297852, 22.242826461791992, 139.90036010742188, 49.67291259765625, -2.44140625E-4, 0.326904296875, -0.775390625
394, 226831922, -14.663785934448242, -7.286977767944336, 11.694950103759766, 28.051462173461914, 81.54183197021484, 70.03837585449219, 0.028076171875, 0.3232421875, -0.773193359375
395, 226848589, -10.229704856872559, -3.6453287601470947, 6.864092826843262, 59.9158821105957, 34.671749114990234, 35.32341384887695, 0.040283203125, 0.30615234375, -0.7783203125
396, 226865256, -8.294281959533691, -0.9064276218414307, 10.614340782165527, 34.13774871826172, 14.441311836242676, 22.688884735107422, 0.049560546875, 0.29736328125, -0.78076171875
397, 226881923, -6.029393672943115, -3.327956199645996, 7.606851577758789, 29.225873947143555, 8.637871742248535, 13.884385108947754, 0.048095703125, 0.291259765625, -0.783203125
398, 226898590, -6.057845115661621, -2.5081264972686768, 8.037546157836914, 16.891653060913086, 3.2040181159973145, 6.225783348083496, 0.05419921875, 0.28466796875, -0.783935546875
399, 226915257, -5.400214672088623, -2.898806095123291, 7.798365116119385, 13.94039535522461, 3.870203733444214, 4.5798163414001465, 0.052734375, 0.28125, -0.781982421875
400, 226931924, -5.418619155883789, -2.880798101425171, 7.684619426727295, 9.880108833312988, 4.820497512817383, 4.029679298400879, 0.0556640625, 0.27783203125, -0.782958984375
401, 226948591, -5.726468086242676, -2.517184257507324, 7.925269603729248, 4.539486408233643, 5.255860805511475, 2.2373785972595215, 0.055908203125, 0.276611328125, -0.784423828125
402, 226965258, -5.70800256729126, -2.463775396347046, 7.951627731323242, -0.8177112936973572, 7.367655277252197, -0.4572252333164215, 0.057373046875, 0.27685546875, -0.785888671875
403, 226981925, -5.583244800567627, -2.424325942993164, 7.8082499504089355, -6.06215763092041, 9.050552368164062, -3.201563596725464, 0.059326171875, 0.27783203125, -0.78125
404, 226998592, -5.411949634552002, -2.7475552558898926, 7.5175347328186035, -7.86442232131958, 10.097742080688477, -4.06833553314209, 0.062744140625, 0.2802734375, -0.783203125
405, 227015259, -5.4598917961120605, -3.0121190547943115, 7.329386234283447, -7.3864006996154785, 10.408259391784668, -3.4192206859588623, 0.065185546875, 0.2822265625, -0.7822265625
406, 227031926, -5.476830959320068, -3.066053867340088, 7.288733005523682, -5.758365154266357, 10.341573715209961, -2.253995418548584, 0.065673828125, 0.283935546875, -0.7802734375
407, 227048593, -5.561439037322998, -2.995758533477783, 7.345395565032959, -4.28533935546875, 9.548385620117188, -0.6093135476112366, 0.070068359375, 0.283447265625, -0.778564453125
408, 227065260, -5.6174421310424805, -2.919163703918457, 7.37005615234375, -3.8829498291015625, 8.68928337097168, 0.4507260024547577, 0.070556640625, 0.282958984375, -0.777587890625
409, 227081927, -5.623626708984375, -2.8465347290039062, 7.327744960784912, -3.3328146934509277, 8.261345863342285, 0.6716099381446838, 0.0732421875, 0.281005859375, -0.779541015625
410, 227098594, -5.691864013671875, -2.9375181198120117, 7.25482177734375, -2.886308431625366, 8.248807907104492, 0.484867662191391, 0.07470703125, 0.286865234375, -0.775146484375
411, 227115261, -5.704223155975342, -2.94600772857666, 7.257341384887695, -2.09277606010437, 7.498933792114258, 0.7172902822494507, 0.07568359375, 0.286865234375, -0.777099609375
412, 227131928, -5.565421104431152, -3.0396029949188232, 7.169974327087402, -0.658797025680542, 6.494811058044434, 1.5821796655654907, 0.07861328125, 0.28857421875, -0.776611328125
413, 227148595, -5.578757286071777, -2.9823718070983887, 7.185744762420654, 0.813670814037323, 6.038969993591309, 3.0722758769989014, 0.080078125, 0.285888671875, -0.778076171875
414, 227165262, -5.594707012176514, -2.943480968475342, 7.258655548095703, 0.5493988394737244, 5.722075462341309, 4.359250068664551, 0.08154296875, 0.285400390625, -0.778076171875
415, 227181929, -5.661200523376465, -2.8279638290405273, 7.2028937339782715, -0.27794909477233887, 7.847433090209961, 3.7677764892578125, 0.084228515625, 0.283935546875, -0.77685546875
416, 227198596, -5.54597806930542, -2.983962297439575, 7.25922155380249, -0.4569947421550751, 9.936917304992676, 3.302841901779175, 0.087158203125, 0.283447265625, -0.772216796875
417, 227215263, -5.524374485015869, -2.7972116470336914, 7.441064834594727, -1.582110047340393, 13.280722618103027, 2.9464032649993896, 0.087646484375, 0.283935546875, -0.773193359375
418, 227231930, -5.564725875854492, -2.5609982013702393, 7.631105899810791, -5.955883026123047, 19.24737548828125, 2.6263108253479004, 0.093017578125, 0.28515625, -0.775634765625
419, 227248597, -5.418419361114502, -2.3271255493164062, 7.9451494216918945, -14.754289627075195, 28.76130485534668, 2.808974504470825, 0.10205078125, 0.28759765625, -0.77001953125
420, 227265264, -5.322978496551514, -2.5632288455963135, 7.992491722106934, -28.921524047851562, 39.09573745727539, 5.777358055114746, 0.10888671875, 0.293701171875, -0.76904296875
421, 227281931, -5.067781925201416, -3.387212038040161, 7.883664608001709, -31.16069984436035, 54.99284362792969, 7.460439205169678, 0.119873046875, 0.29833984375, -0.76171875
422, 227298598, -5.362124443054199, -2.6782541275024414, 8.077254295349121, -24.865697860717773, 83.49349975585938, 7.7264909744262695, 0.13525390625, 0.303466796875, -0.759033203125
423, 227315265, -5.289989948272705, -3.2693796157836914, 8.110309600830078, -28.278554916381836, 109.9732437133789, 13.94883918762207, 0.161376953125, 0.309814453125, -0.745361328125
424, 227331932, -5.394423961639404, -3.4425864219665527, 8.0679292678833, -31.27002716064453, 137.96693420410156, 22.853269577026367, 0.189208984375, 0.3154296875, -0.73388671875
425, 227348599, -5.6114983558654785, -3.042982339859009, 8.21739387512207, -35.35203170776367, 174.27407836914062, 27.868484497070312, 0.229248046875, 0.318359375, -0.720458984375
426, 227365266, -5.201727867126465, -3.647108316421509, 8.848525047302246, -44.25040817260742, 224.77711486816406, 35.76585388183594, 0.2734375, 0.32470703125, -0.696533203125
427, 227381933, -5.197721004486084, -5.930788040161133, 9.204724311828613, -39.98736572265625, 284.35009765625, 63.613037109375, 0.332763671875, 0.328125, -0.666748046875
428, 227398600, -7.783903121948242, -5.526482105255127, 8.724921226501465, -24.40616798400879, 349.6753234863281, 107.2308349609375, 0.402099609375, 0.3212890625, -0.624267578125
429, 227415267, -12.49275016784668, -7.317653179168701, 11.57082462310791, -9.014683723449707, 375.6396484375, 155.07423400878906, 0.482666015625, 0.30224609375, -0.566650390625
430, 227431934, -20.79418182373047, -7.323841571807861, 14.413517951965332, -5.551296710968018, 359.0251159667969, 173.50022888183594, 0.555419921875, 0.2724609375, -0.50439453125
431, 227448601, -20.69034194946289, -8.617424964904785, 15.816557884216309, 13.267902374267578, 286.27423095703125, 173.81114196777344, 0.61572265625, 0.236572265625, -0.447265625
432, 227465268, -11.84766960144043, -7.7848992347717285, 15.674826622009277, 25.237627029418945, 214.75057983398438, 161.636474609375, 0.66064453125, 0.19970703125, -0.40380859375
433, 227481935, 1.341209053993225, -4.805087566375732, 14.478925704956055, 32.498260498046875, 196.42135620117188, 144.42413330078125, 0.695556640625, 0.16015625, -0.357666015625
434, 227498602, -13.722290992736816, -6.598240852355957, 28.64640998840332, -31.273794174194336, 80.89471435546875, 88.29981231689453, 0.71533203125, 0.133056640625, -0.325439453125
435, 227515269, -0.841759443283081, -7.864625930786133, 21.013256072998047, -52.16242599487305, -82.04077911376953, 35.802921295166016, 0.714599609375, 0.12353515625, -0.329833984375
436, 227531936, 5.090561866760254, -6.23875617980957, 13.312344551086426, -28.246074676513672, -138.9072723388672, 17.226463317871094, 0.705322265625, 0.113525390625, -0.3505859375
437, 227548603, 4.605623245239258, -4.245364189147949, 10.360932350158691, -12.89413833618164, -149.75106811523438, 1.6558325290679932, 0.696044921875, 0.10595703125, -0.375244140625
438, 227565270, 1.7987850904464722, -3.7513699531555176, 9.591931343078613, -12.855023384094238, -158.08248901367188, -22.637998580932617, 0.685546875, 0.10546875, -0.400146484375
439, 227581937, -1.0704903602600098, -4.195761680603027, 9.211262702941895, -8.992870330810547, -174.20184326171875, -46.5629768371582, 0.67626953125, 0.116455078125, -0.4365234375
440, 227598604, -3.550178050994873, -4.121089458465576, 8.983962059020996, 2.3845040798187256, -197.67788696289062, -66.1933364868164, 0.65869140625, 0.1259765625, -0.485107421875
441, 227615271, -5.446077346801758, -3.5063858032226562, 8.685694694519043, 10.077106475830078, -223.97366333007812, -84.21501922607422, 0.6220703125, 0.15087890625, -0.542236328125
442, 227631938, -6.848738193511963, -2.9157230854034424, 8.133599281311035, 10.385146141052246, -244.6729278564453, -99.50935363769531, 0.559814453125, 0.172607421875, -0.59326171875
443, 227648605, -7.660658359527588, -2.7825026512145996, 8.078852653503418, 6.894476890563965, -257.4892272949219, -109.08544158935547, 0.475830078125, 0.18896484375, -0.630859375
444, 227665272, -9.712204933166504, -2.8609511852264404, 8.774138450622559, -1.5902782678604126, -266.7405090332031, -114.58040618896484, 0.38916015625, 0.1943359375, -0.6435546875
445, 227681939, -10.995199203491211, -3.1825218200683594, 8.788310050964355, -15.022504806518555, -277.85296630859375, -122.37786865234375, 0.3125, 0.1826171875, -0.636962890625
446, 227698606, -11.06310749053955, -3.3696155548095703, 8.654491424560547, -24.919546127319336, -274.64935302734375, -127.5573501586914, 0.262451171875, 0.159423828125, -0.61572265625
447, 227715273, -12.065069198608398, -3.7022244930267334, 10.067095756530762, -33.257286071777344, -251.28367614746094, -126.4678955078125, 0.267333984375, 0.130859375, -0.583984375
448, 227731940, -17.73200035095215, -4.3045830726623535, 12.908491134643555, -54.45475769042969, -237.74334716796875, -131.0255889892578, 0.34033203125, 0.123291015625, -0.59228515625
449, 227748607, -24.10677146911621, -5.65397834777832, 12.283238410949707, -68.57608795166016, -257.0858459472656, -150.68467712402344, 0.410400390625, 0.174560546875, -0.6796875
450, 227765274, -27.508865356445312, -7.560147762298584, 7.059521675109863, -37.57776641845703, -287.9666442871094, -161.00115966796875, 0.385498046875, 0.267578125, -0.806396484375
451, 227781941, -27.385053634643555, -5.148632049560547, 0.9798250794410706, 21.018028259277344, -298.1263427734375, -135.97206115722656, 0.268798828125, 0.337646484375, -0.8974609375
452, 227798608, -26.144800186157227, 0.8445593118667603, -3.4636173248291016, 23.784183502197266, -266.0845031738281, -105.31137084960938, 0.134765625, 0.372314453125, -0.9345703125
453, 227815275, -27.466917037963867, 5.670185565948486, -9.99670124053955, -22.288408279418945, -204.3830108642578, -84.16580200195312, 0.027587890625, 0.401611328125, -0.93408203125
454, 227831942, -30.994115829467773, 10.14120864868164, -17.06102180480957, -59.4927864074707, -123.69650268554688, -65.62349700927734, -0.040283203125, 0.42822265625, -0.925537109375
455, 227848609, -22.471139907836914, 9.390185356140137, -21.488441467285156, -28.660768508911133, 18.814472198486328, 5.3237690925598145, -0.06494140625, 0.449951171875, -0.919677734375
456, 227865276, -15.172442436218262, 5.938815593719482, -10.535388946533203, 27.4812068939209, 164.81381225585938, 120.36795806884766, -0.020751953125, 0.4560546875, -0.92578125
457, 227881943, -13.073623657226562, -14.032755851745605, 18.32341766357422, 41.25095748901367, 142.2671661376953, 98.33468627929688, 0.0341796875, 0.4541015625, -0.938720703125
458, 227898610, -1.0093368291854858, -10.998785972595215, 4.690125942230225, 33.43860626220703, 102.65816497802734, 47.43419647216797, 0.066650390625, 0.451171875, -0.941650390625
459, 227915277, -3.277508020401001, -0.6456828713417053, 6.985595226287842, 7.862269401550293, 185.65106201171875, 6.93461799621582, 0.110107421875, 0.455078125, -0.941162109375
460, 227931944, -12.98543643951416, 1.996913194656372, 13.578313827514648, 2.104109525680542, 174.1525115966797, 0.17740613222122192, 0.15478515625, 0.463623046875, -0.936279296875
461, 227948611, -11.38599681854248, 1.792850136756897, 12.455914497375488, -4.56810998916626, 124.79373168945312, 49.072723388671875, 0.194091796875, 0.467529296875, -0.93212890625
462, 227965278, -8.797451972961426, -6.528036594390869, 7.758831024169922, -9.659540176391602, 99.79331970214844, 46.15342712402344, 0.22900390625, 0.47216796875, -0.92578125
463, 227981945, -16.473146438598633, -8.424448013305664, 10.1707181930542, 58.412776947021484, 56.76371765136719, 41.67607116699219, 0.255126953125, 0.45849609375, -0.92626953125
464, 227998612, -5.302529335021973, -1.085014820098877, 8.872435569763184, 25.375896453857422, 22.897825241088867, 21.638124465942383, 0.263671875, 0.453369140625, -0.927001953125
465, 228015279, -6.450262069702148, -2.7304494380950928, 8.305702209472656, 22.836448669433594, 22.85797691345215, 18.118209838867188, 0.270751953125, 0.445556640625, -0.929443359375
466, 228031946, -6.258495330810547, -2.7374019622802734, 7.912538051605225, 10.205077171325684, 10.850606918334961, 6.677038669586182, 0.27734375, 0.441650390625, -0.931640625
467, 228048613, -5.28694486618042, -3.1253747940063477, 7.67008113861084, 10.819729804992676, 11.88416862487793, 7.25404167175293, 0.279296875, 0.43896484375, -0.9306640625
468, 228065280, -5.792017936706543, -2.8175315856933594, 7.722762107849121, 9.401564598083496, 9.695700645446777, 6.434778690338135, 0.281494140625, 0.4365234375, -0.93310546875
469, 228081947, -5.764626979827881, -2.5620641708374023, 8.069768905639648, 5.581374645233154, 9.66060733795166, 4.631411552429199, 0.287353515625, 0.43408203125, -0.933349609375
470, 228098614, -5.799991130828857, -2.543038845062256, 7.979997634887695, -0.8961886167526245, 10.04689884185791, 0.9159551858901978, 0.2919921875, 0.43505859375, -0.931396484375
471, 228115281, -5.730370998382568, -2.719024896621704, 7.827155113220215, -5.974714756011963, 10.57768440246582, -1.7514227628707886, 0.2939453125, 0.4345703125, -0.929443359375
472, 228131948, -5.742617607116699, -2.7106266021728516, 7.703205585479736, -9.93770980834961, 10.734463691711426, -4.414403438568115, 0.29736328125, 0.436767578125, -0.9267578125
473, 228148615, -5.706985950469971, -2.861671209335327, 7.508953094482422, -12.011637687683105, 10.536069869995117, -6.093203067779541, 0.298828125, 0.439208984375, -0.92626953125
474, 228165282, -5.713744163513184, -3.0769760608673096, 7.355836391448975, -13.146794319152832, 8.720166206359863, -6.613064765930176, 0.30078125, 0.4462890625, -0.923828125
475, 228181949, -5.550093650817871, -3.2053139209747314, 7.194984436035156, -12.464520454406738, 7.233935356140137, -5.824230670928955, 0.30322265625, 0.44970703125, -0.921630859375
476, 228198616, -5.280145645141602, -3.4699220657348633, 6.925675868988037, -9.689020156860352, 6.626322269439697, -3.870042324066162, 0.303466796875, 0.453857421875, -0.918701171875
477, 228215283, -5.429676055908203, -3.344634771347046, 7.091231346130371, -6.3729658126831055, 6.92078971862793, -1.0926380157470703, 0.307373046875, 0.455810546875, -0.918212890625
478, 228231950, -5.592172622680664, -3.2721190452575684, 7.186036109924316, -5.142249584197998, 6.277116298675537, 0.4216426908969879, 0.310546875, 0.456298828125, -0.91357421875
479, 228248617, -5.566433906555176, -3.0977590084075928, 7.235602378845215, -4.539647102355957, 6.12169885635376, 0.8814676403999329, 0.31103515625, 0.4580078125, -0.91357421875
480, 228265284, -5.379687786102295, -3.213561773300171, 7.014490604400635, -3.4485201835632324, 7.942378044128418, 1.301054835319519, 0.31298828125, 0.45849609375, -0.91357421875
481, 228281951, -5.401552677154541, -3.3368592262268066, 6.927488327026367, -1.0175288915634155, 9.515371322631836, 3.9611401557922363, 0.31591796875, 0.45703125, -0.910888671875
482, 228298618, -5.384047985076904, -3.484722375869751, 6.695428371429443, 4.603212833404541, 10.325119018554688, 7.832451343536377, 0.31689453125, 0.456787109375, -0.906982421875
483, 228315285, -5.454121112823486, -3.3361124992370605, 6.835887908935547, 10.529911994934082, 12.12220573425293, 11.220022201538086, 0.322509765625, 0.453857421875, -0.913330078125
484, 228331952, -5.750267028808594, -2.960061550140381, 7.267898082733154, 11.268178939819336, 13.230229377746582, 12.036918640136719, 0.330078125, 0.448486328125, -0.9140625
485, 228348619, -5.724457740783691, -2.8926477432250977, 7.327648639678955, 9.645586013793945, 15.362605094909668, 11.733525276184082, 0.333984375, 0.444580078125, -0.91455078125
486, 228365286, -5.751931667327881, -2.7026724815368652, 7.502876281738281, 5.189967632293701, 18.843852996826172, 10.795637130737305, 0.340576171875, 0.444091796875, -0.913330078125
487, 228381953, -5.65372371673584, -2.6507623195648193, 7.505304336547852, -2.5514917373657227, 23.67045783996582, 9.669463157653809, 0.345458984375, 0.443115234375, -0.908203125
488, 228398620, -5.615237712860107, -3.0380165576934814, 7.44420051574707, -12.190999984741211, 28.11787223815918, 11.470376968383789, 0.353515625, 0.444091796875, -0.905517578125
489, 228415287, -5.760499477386475, -3.052574396133423, 7.489851951599121, -17.087417602539062, 34.373172760009766, 12.611193656921387, 0.364501953125, 0.44775390625, -0.8974609375
490, 228431954, -5.733622074127197, -3.0421693325042725, 7.628803253173828, -8.92943286895752, 48.365299224853516, 12.311176300048828, 0.37841796875, 0.449462890625, -0.892578125
491, 228448621, -5.794365406036377, -2.8625123500823975, 7.777179718017578, -12.018803596496582, 63.82794189453125, 11.030362129211426, 0.392333984375, 0.452880859375, -0.88134765625
492, 228465288, -5.742106914520264, -2.960847854614258, 7.874863624572754, -17.1697940826416, 82.23106384277344, 11.52078914642334, 0.414306640625, 0.45556640625, -0.869384765625
493, 228481955, -5.681500434875488, -3.163968563079834, 7.977606296539307, -23.826101303100586, 103.82189178466797, 16.309202194213867, 0.439453125, 0.457763671875, -0.854248046875
494, 228498622, -5.835790157318115, -2.6111907958984375, 8.11066722869873, -29.375019073486328, 133.8414306640625, 20.419769287109375, 0.471923828125, 0.465576171875, -0.8291015625
495, 228515289, -5.634631633758545, -2.5916903018951416, 8.223661422729492, -41.944923400878906, 180.10906982421875, 19.4189510345459, 0.51220703125, 0.471923828125, -0.8017578125
496, 228531956, -5.1222052574157715, -3.7801146507263184, 8.721041679382324, -52.00253677368164, 242.22479248046875, 26.76991844177246, 0.56591796875, 0.47802734375, -0.75341796875
497, 228548623, -5.370093822479248, -5.60085391998291, 8.848726272583008, -46.71750259399414, 304.9156799316406, 54.63963317871094, 0.634521484375, 0.4833984375, -0.695068359375
498, 228565290, -9.804656982421875, -5.619014739990234, 10.036630630493164, -43.67772674560547, 362.7504577636719, 92.31393432617188, 0.70654296875, 0.475830078125, -0.6162109375
499, 228581957, -15.188457489013672, -6.687807083129883, 10.547234535217285, -44.21378707885742, 366.72027587890625, 128.2274169921875, 0.782958984375, 0.457275390625, -0.525146484375
500, 228598624, -20.4210205078125, -8.478168487548828, 14.105368614196777, -49.8992919921875, 322.7854309082031, 137.80422973632812, 0.842041015625, 0.429443359375, -0.43505859375
501, 228615291, -18.65547752380371, -8.9676513671875, 13.939770698547363, -15.131586074829102, 241.87696838378906, 157.52259826660156, 0.884521484375, 0.388671875, -0.364501953125
502, 228631958, -8.465713500976562, -7.979923248291016, 13.75030517578125, 13.551519393920898, 176.40577697753906, 161.36624145507812, 0.91259765625, 0.342041015625, -0.31689453125
503, 228648625, -2.95949649810791, -11.768828392028809, 14.996284484863281, 40.34085464477539, 166.34228515625, 129.82318115234375, 0.92724609375, 0.2998046875, -0.277099609375
504, 228665292, -8.411860466003418, -11.440937995910645, 23.5707950592041, 58.867332458496094, 45.17985153198242, 57.93253707885742, 0.92919921875, 0.275146484375, -0.262939453125
505, 228681959, 0.33847999572753906, -8.185774803161621, 17.672945022583008, 70.78466796875, -58.483516693115234, 4.571113109588623, 0.915771484375, 0.270751953125, -0.28369140625
506, 228698626, 4.0327043533325195, -5.10683536529541, 12.665213584899902, 78.46913146972656, -107.69637298583984, -16.334716796875, 0.897216796875, 0.27197265625, -0.32080078125
507, 228715293, 3.755052328109741, -3.037052631378174, 10.60470199584961, 67.26730346679688, -130.5166473388672, -24.45412254333496, 0.874755859375, 0.277099609375, -0.365478515625
508, 228731960, 1.5005826950073242, -2.4525492191314697, 9.637794494628906, 43.173885345458984, -149.64724731445312, -31.893890380859375, 0.851806640625, 0.285888671875, -0.41552734375
509, 228748627, -0.9045299887657166, -2.9873218536376953, 8.901843070983887, 23.917129516601562, -173.79481506347656, -37.02394485473633, 0.82080078125, 0.2998046875, -0.465087890625
510, 228765294, -3.453829050064087, -3.5605955123901367, 8.662408828735352, 15.062889099121094, -201.22247314453125, -39.506771087646484, 0.78271484375, 0.315185546875, -0.524658203125
511, 228781961, -5.928031921386719, -3.6084201335906982, 8.537554740905762, 7.977795124053955, -233.5941619873047, -46.08500671386719, 0.7255859375, 0.33203125, -0.589599609375
512, 228798628, -6.887937068939209, -3.590494394302368, 7.969905853271484, -0.29235368967056274, -262.8927917480469, -55.12985610961914, 0.649169921875, 0.342529296875, -0.652099609375
513, 228815295, -7.202975749969482, -3.7124078273773193, 7.353801727294922, -8.18703842163086, -277.68170166015625, -60.93463897705078, 0.560302734375, 0.34228515625, -0.702880859375
514, 228831962, -8.234858512878418, -3.8766047954559326, 7.3555755615234375, -18.8048095703125, -279.3818054199219, -64.63652801513672, 0.4716796875, 0.339111328125, -0.73779296875
515, 228848629, -10.050201416015625, -3.976094961166382, 7.831088066101074, -36.51298141479492, -275.06439208984375, -71.82325744628906, 0.383056640625, 0.33837890625, -0.76025390625
516, 228865296, -11.655034065246582, -4.69620418548584, 8.798240661621094, -57.28470230102539, -268.3536376953125, -84.24073791503906, 0.295166015625, 0.337158203125, -0.762451171875
517, 228881963, -13.312697410583496, -6.211223125457764, 10.441224098205566, -71.85442352294922, -259.7349853515625, -97.68160247802734, 0.219970703125, 0.33154296875, -0.751953125
518, 228898630, -16.939647674560547, -7.656038761138916, 12.131900787353516, -81.21770477294922, -253.5028839111328, -115.07404327392578, 0.1650390625, 0.3330078125, -0.73388671875
519, 228915297, -20.609661102294922, -8.261652946472168, 11.285287857055664, -79.1748046875, -260.0649719238281, -139.78114318847656, 0.11669921875, 0.33740234375, -0.721923828125
520, 228931964, -22.16335105895996, -4.753015518188477, 8.510212898254395, -76.79505157470703, -261.17083740234375, -162.8025665283203, 0.069091796875, 0.34521484375, -0.718505859375
521, 228948631, -23.309167861938477, -2.7193284034729004, 4.99931526184082, -76.52130889892578, -252.7230682373047, -161.34634399414062, 0.020751953125, 0.356689453125, -0.716552734375
522, 228965298, -23.414047241210938, -0.3917793035507202, 1.4917089939117432, -64.4814224243164, -230.7149658203125, -144.7740936279297, -0.02734375, 0.368408203125, -0.716552734375
523, 228981965, -23.900562286376953, 3.5030250549316406, -3.2268083095550537, -50.45071029663086, -197.51007080078125, -113.14403533935547, -0.071533203125, 0.378173828125, -0.720947265625
524, 228998632, -29.79220199584961, 8.556169509887695, -11.363537788391113, -49.55792999267578, -156.6361846923828, -75.42243194580078, -0.108642578125, 0.389892578125, -0.720703125
525, 229015299, -25.4449462890625, 10.681641578674316, -17.272823333740234, -33.84965133666992, -81.79764556884766, -2.1850156784057617, -0.133544921875, 0.397705078125, -0.719970703125
526, 229031966, -17.223451614379883, 8.184814453125, -11.413081169128418, -22.162364959716797, 31.145662307739258, 80.54426574707031, -0.124267578125, 0.40380859375, -0.723876953125
527, 229048633, -12.929509162902832, -4.19456148147583, -3.4973888397216797, 62.7371940612793, 133.95144653320312, 129.2383575439453, -0.087158203125, 0.399658203125, -0.7314453125
528, 229065300, -10.659364700317383, -10.440614700317383, 13.245253562927246, 66.18284606933594, 128.48178100585938, 76.06896209716797, -0.04296875, 0.383056640625, -0.7451171875
529, 229081967, 1.1188946962356567, -8.744148254394531, 4.064196586608887, 70.4220962524414, 121.28314971923828, 39.29612350463867, -0.006591796875, 0.3701171875, -0.754150390625
530, 229098634, -1.3481827974319458, 0.9391571283340454, 7.382914066314697, 48.962074279785156, 178.21632385253906, 33.90699005126953, 0.03564453125, 0.3544921875, -0.7587890625
531, 229115301, -13.593626976013184, 1.3468670845031738, 13.367589950561523, 37.32166290283203, 183.1952362060547, 50.7486457824707, 0.086669921875, 0.34228515625, -0.76416015625
532, 229131968, -15.449057579040527, -1.7913892269134521, 12.70658016204834, 30.90320587158203, 131.51168823242188, 64.4444808959961, 0.131591796875, 0.334228515625, -0.76416015625
533, 229148635, -9.544004440307617, -5.56663703918457, 9.063464164733887, 28.666501998901367, 105.49114990234375, 54.7650260925293, 0.162841796875, 0.325439453125, -0.763671875
534, 229165302, -14.645625114440918, -4.652570724487305, 10.08694076538086, 83.57514190673828, 57.816444396972656, 61.43791580200195, 0.1845703125, 0.303955078125, -0.7666015625
535, 229181969, -6.589259147644043, -1.0629109144210815, 9.312856674194336, 58.01753234863281, 30.192594528198242, 40.429866790771484, 0.19775390625, 0.28662109375, -0.77001953125
536, 229198636, -6.0977678298950195, -2.7534732818603516, 7.905399799346924, 49.34031677246094, 17.845836639404297, 27.344205856323242, 0.204833984375, 0.2744140625, -0.770751953125
537, 229215303, -6.529013156890869, -2.3900654315948486, 8.412426948547363, 38.30654525756836, 7.471152305603027, 18.6933650970459, 0.210693359375, 0.263916015625, -0.777587890625
538, 229231970, -6.231804847717285, -2.385460376739502, 8.392333984375, 28.027629852294922, 1.0786633491516113, 12.803390502929688, 0.214599609375, 0.256103515625, -0.778076171875
539, 229248637, -6.028462886810303, -2.515825033187866, 7.9865570068359375, 17.164094924926758, -1.1674538850784302, 7.906028747558594, 0.21337890625, 0.24853515625, -0.780029296875
540, 229265304, -5.831218242645264, -2.3118200302124023, 8.03342056274414, 9.304758071899414, 0.5314701795578003, 3.7496557235717773, 0.216796875, 0.245361328125, -0.781494140625
541, 229281971, -5.565934658050537, -2.404048442840576, 7.862931251525879, 2.907188892364502, 4.4103217124938965, 0.48484206199645996, 0.21728515625, 0.245361328125, -0.781005859375
542, 229298638, -5.399829864501953, -2.481123447418213, 7.768233299255371, -0.7472633719444275, 7.233020305633545, -0.8989418148994446, 0.220458984375, 0.244384765625, -0.7783203125
543, 229315305, -5.484010696411133, -2.600527286529541, 7.648009300231934, -2.209813117980957, 9.232592582702637, -1.1767758131027222, 0.221435546875, 0.24560546875, -0.7802734375
544, 229331972, -5.671517372131348, -2.7291886806488037, 7.540347099304199, -2.4789130687713623, 9.640680313110352, -0.22694139182567596, 0.226318359375, 0.24560546875, -0.77734375
545, 229348639, -5.714544296264648, -2.6268844604492188, 7.549264907836914, -2.8992433547973633, 9.686605453491211, -0.3463350534439087, 0.226806640625, 0.24462890625, -0.77734375
546, 229365306, -5.480310916900635, -2.610732316970825, 7.58725118637085, -3.84928297996521, 10.471301078796387, -0.1685316115617752, 0.228759765625, 0.24755859375, -0.776611328125
547, 229381973, -5.783125400543213, -2.59985613822937, 7.4297943115234375, -3.616450786590576, 10.704902648925781, -0.4255295693874359, 0.229736328125, 0.2490234375, -0.773193359375
548, 229398640, -5.7783002853393555, -2.72998309135437, 7.363207817077637, -3.231901168823242, 9.677884101867676, -1.2829022407531738, 0.233154296875, 0.248046875, -0.774169921875
549, 229415307, -5.726201057434082, -2.876797914505005, 7.231967926025391, -1.7914676666259766, 7.670255661010742, -0.4890105426311493, 0.234130859375, 0.24951171875, -0.776123046875
550, 229431974, -5.692367076873779, -2.749410390853882, 7.3350138664245605, -0.6396004557609558, 6.330545425415039, 0.4709600508213043, 0.23779296875, 0.249755859375, -0.775146484375
551, 229448641, -5.568541526794434, -2.735286235809326, 7.419727325439453, 0.6135075092315674, 6.982362270355225, 1.2750964164733887, 0.2392578125, 0.249267578125, -0.7734375
552, 229465308, -5.680173873901367, -2.7067673206329346, 7.385740280151367, 1.3751524686813354, 8.064486503601074, 1.7951240539550781, 0.24072265625, 0.249267578125, -0.7734375
553, 229481975, -5.790904998779297, -2.5097639560699463, 7.357915878295898, 1.3987804651260376, 9.521492958068848, 1.0748052597045898, 0.24267578125, 0.24755859375, -0.7724609375
554, 229498642, -5.789600372314453, -2.480926036834717, 7.465219974517822, 0.5191248059272766, 10.946533203125, -0.2104724645614624, 0.246337890625, 0.248779296875, -0.771728515625
555, 229515309, -5.775514125823975, -2.7571778297424316, 7.358564853668213, -0.6887513995170593, 12.23690128326416, 0.15235081315040588, 0.247802734375, 0.247802734375, -0.77294921875
556, 229531976, -5.789580345153809, -2.637223720550537, 7.326685905456543, -1.3673220872879028, 12.54546070098877, 1.7184274196624756, 0.252197265625, 0.248779296875, -0.773681640625
557, 229548643, -5.66080379486084, -2.858813762664795, 7.335255146026611, -1.6002763509750366, 14.174641609191895, 3.475886821746826, 0.255615234375, 0.246826171875, -0.770263671875
558, 229565310, -5.510396957397461, -2.808410882949829, 7.540561676025391, -6.736444473266602, 17.7625675201416, 8.460739135742188, 0.26123046875, 0.248291015625, -0.76611328125
559, 229581977, -5.476490497589111, -2.9877736568450928, 7.523043155670166, -3.771007776260376, 25.919919967651367, 13.270575523376465, 0.26513671875, 0.249755859375, -0.763916015625
560, 229598644, -5.6619696617126465, -2.755706787109375, 7.475378036499023, -3.3544600009918213, 33.67530822753906, 14.674999237060547, 0.275146484375, 0.24755859375, -0.7626953125
561, 229615311, -5.70833158493042, -2.9177756309509277, 7.492312908172607, -3.6812756061553955, 41.233787536621094, 17.89739227294922, 0.2841796875, 0.24755859375, -0.759521484375
562, 229631978, -5.5958251953125, -3.2324507236480713, 7.712308883666992, 0.5187076926231384, 50.94969177246094, 23.291067123413086, 0.297607421875, 0.2431640625, -0.7568359375
563, 229648645, -5.735590934753418, -3.4376087188720703, 7.802885055541992, 1.6778987646102905, 65.28048706054688, 28.331588745117188, 0.312744140625, 0.24267578125, -0.75146484375
564, 229665312, -5.900802135467529, -3.4904932975769043, 7.975924015045166, -4.2466630935668945, 84.02754974365234, 39.108787536621094, 0.33154296875, 0.24072265625, -0.743896484375
565, 229681979, -6.0549397468566895, -3.207470417022705, 8.041910171508789, -14.255499839782715, 106.62913513183594, 60.628761291503906, 0.35400390625, 0.236572265625, -0.732421875
566, 229698646, -6.0770182609558105, -3.055218458175659, 8.048603057861328, -46.580013275146484, 143.4619598388672, 90.8095703125, 0.386474609375, 0.236328125, -0.713623046875
567, 229715313, -6.33617639541626, -5.110703468322754, 8.810555458068848, -92.80279541015625, 195.04441833496094, 138.07611083984375, 0.432373046875, 0.235107421875, -0.689208984375
568, 229731980, -8.06856632232666, -6.204612731933594, 9.748480796813965, -134.43374633789062, 229.69276428222656, 191.73239135742188, 0.48681640625, 0.234375, -0.65185546875
569, 229748647, -11.603111267089844, -7.8851141929626465, 10.83845043182373, -180.26828002929688, 235.35655212402344, 227.98291015625, 0.545166015625, 0.23095703125, -0.60400390625
570, 229765314, -12.309957504272461, -8.420709609985352, 9.317007064819336, -207.43955993652344, 190.8680877685547, 248.97955322265625, 0.591064453125, 0.22119140625, -0.557861328125
571, 229781981, -12.40537166595459, -4.787214279174805, 12.508891105651855, -234.27743530273438, 145.7832794189453, 251.4456329345703, 0.629150390625, 0.21240234375, -0.51904296875
572, 229798648, -7.403600215911865, -3.2317399978637695, 10.370186805725098, -268.2520751953125, 110.56903076171875, 260.9932861328125, 0.6591796875, 0.202880859375, -0.485595703125
573, 229815315, -6.53043794631958, -1.1574655771255493, 15.487197875976562, -329.3208312988281, 36.1993522644043, 279.0174255371094, 0.67822265625, 0.19091796875, -0.45849609375
574, 229831982, -4.853371620178223, -11.117116928100586, 12.668107032775879, -334.4107360839844, -51.226463317871094, 265.4385986328125, 0.684814453125, 0.182861328125, -0.452392578125
575, 229848649, 1.5715367794036865, -9.897388458251953, 7.962072849273682, -274.69720458984375, -74.52750396728516, 192.1580047607422, 0.678466796875, 0.179443359375, -0.45556640625
576, 229865316, 2.865757465362549, -5.93327522277832, 7.240736961364746, -268.2569580078125, -52.54057693481445, 86.72513580322266, 0.669677734375, 0.1962890625, -0.454345703125
577, 229881983, 2.602246046066284, -5.011574745178223, 8.148547172546387, -252.94039916992188, -32.790435791015625, -6.257273197174072, 0.65869140625, 0.22802734375, -0.44580078125
578, 229898650, 1.0927547216415405, -1.1900935173034668, 10.721363067626953, -213.20086669921875, -31.25413703918457, -74.21561431884766, 0.6416015625, 0.265625, -0.437744140625
579, 229915317, -0.48951244354248047, 2.14235782623291, 12.544612884521484, -180.0333251953125, -48.72703170776367, -114.98007202148438, 0.613037109375, 0.30615234375, -0.42724609375
580, 229931984, -1.758599042892456, 4.617920398712158, 13.811722755432129, -146.31759643554688, -76.13249206542969, -129.7080841064453, 0.581787109375, 0.341552734375, -0.42236328125
581, 229948651, -2.6361801624298096, 8.182153701782227, 14.8654203414917, -124.23265838623047, -103.2521743774414, -130.06021118164062, 0.548828125, 0.373779296875, -0.41845703125
582, 229965318, -3.3978419303894043, 13.02426528930664, 15.59165096282959, -132.9317169189453, -129.89451599121094, -103.89804077148438, 0.515625, 0.394775390625, -0.414794921875
583, 229981985, -5.056460857391357, 14.675252914428711, 15.761343955993652, -166.9450225830078, -159.76686096191406, -46.088966369628906, 0.48583984375, 0.4130859375, -0.410400390625
584, 229998652, -7.345432758331299, 12.712760925292969, 16.078649520874023, -178.9088897705078, -190.30943298339844, 16.722877502441406, 0.46484375, 0.42236328125, -0.406494140625
585, 230015319, -8.771677017211914, 10.162066459655762, 15.504261016845703, -163.80526733398438, -217.47445678710938, 60.15735626220703, 0.45068359375, 0.42578125, -0.412109375
586, 230031986, -8.679513931274414, 8.22202205657959, 13.979475021362305, -142.91749572753906, -231.44114685058594, 77.50286102294922, 0.440673828125, 0.42578125, -0.419921875
587, 230048653, -7.922524452209473, 6.316084861755371, 12.537515640258789, -123.04325103759766, -226.60789489746094, 76.4112319946289, 0.42822265625, 0.426025390625, -0.42919921875
588, 230065320, -7.760583400726318, 4.3492045402526855, 11.692219734191895, -100.60493469238281, -210.72027587890625, 68.301513671875, 0.419189453125, 0.427978515625, -0.4375
589, 230081987, -7.812392234802246, 2.2603213787078857, 11.441211700439453, -78.26588439941406, -190.49302673339844, 59.12211990356445, 0.417236328125, 0.42822265625, -0.4521484375
590, 230098654, -8.199017524719238, 0.3489842712879181, 11.176259994506836, -58.873992919921875, -169.7851104736328, 50.40449523925781, 0.40966796875, 0.43701171875, -0.4677734375
591, 230115321, -9.120662689208984, -1.472998857498169, 10.94404411315918, -47.6198844909668, -149.66458129882812, 39.58292007446289, 0.402587890625, 0.442626953125, -0.486083984375
592, 230131988, -10.744612693786621, -3.304981231689453, 10.509228706359863, -40.310401916503906, -132.9812469482422, 25.27862548828125, 0.390625, 0.45361328125, -0.5
593, 230148655, -13.610648155212402, -6.820252895355225, 8.391901969909668, -27.140628814697266, -132.92051696777344, 4.814660549163818, 0.38037109375, 0.464111328125, -0.51416015625
594, 230165322, -14.9335355758667, -7.072311878204346, 7.701699256896973, 0.9567756056785583, -142.77337646484375, -24.611486434936523, 0.36279296875, 0.4736328125, -0.53466796875
595, 230181989, -15.382450103759766, -6.575521945953369, 6.3851237297058105, 9.892266273498535, -150.42311096191406, -71.36885833740234, 0.337646484375, 0.487060546875, -0.557861328125
596, 230198656, -13.572493553161621, -3.5771665573120117, 3.756943464279175, 26.74162483215332, -152.53256225585938, -96.67268371582031, 0.302978515625, 0.498779296875, -0.582763671875
597, 230215323, -12.607043266296387, 1.931717872619629, 0.7370865345001221, 29.8105411529541, -140.23399353027344, -96.0928726196289, 0.267578125, 0.51025390625, -0.605712890625
598, 230231990, -13.576166152954102, 7.157347202301025, -3.7680232524871826, 36.4446907043457, -112.0644760131836, -62.57804870605469, 0.234619140625, 0.510009765625, -0.623046875
599, 230248657, -12.396774291992188, 9.047801971435547, -5.938706874847412, 16.992097854614258, -65.15038299560547, 12.642643928527832, 0.22216796875, 0.50927734375, -0.63623046875
600, 230265324, -12.942939758300781, 5.644341468811035, -3.8427786827087402, -13.919285774230957, -10.703246116638184, 83.54524993896484, 0.22509765625, 0.5078125, -0.634033203125
601, 230281991, -13.619806289672852, 0.34366536140441895, -4.604209899902344, -15.985533714294434, 45.636539459228516, 121.82730102539062, 0.249755859375, 0.5029296875, -0.629638671875
602, 230298658, -5.624521255493164, -2.2960195541381836, 1.7407424449920654, -0.35004156827926636, 102.11376953125, 121.95219421386719, 0.286865234375, 0.48974609375, -0.61865234375
603, 230315325, -3.682507276535034, -11.0197172164917, 12.685964584350586, -32.64148712158203, 105.04377746582031, 36.89027786254883, 0.314697265625, 0.4853515625, -0.59912109375
604, 230331992, -0.47891485691070557, -10.767462730407715, 3.844454526901245, -28.795551300048828, 119.75769805908203, -0.4423549175262451, 0.333740234375, 0.489501953125, -0.57861328125
605, 230348659, -9.056509017944336, 1.952770471572876, 9.571249008178711, -7.665461540222168, 162.95956420898438, 0.9956014752388, 0.363525390625, 0.48681640625, -0.555419921875
606, 230365326, -12.018098831176758, 1.6887515783309937, 13.567122459411621, -24.177356719970703, 129.19407653808594, 28.33770751953125, 0.387939453125, 0.48681640625, -0.533447265625
607, 230381993, -11.831136703491211, -5.549233913421631, 9.251086235046387, -29.521190643310547, 89.44169616699219, 32.38957214355469, 0.409912109375, 0.484619140625, -0.5126953125
608, 230398660, -14.18328857421875, -9.195609092712402, 9.008344650268555, 30.906373977661133, 40.927974700927734, 24.993576049804688, 0.420654296875, 0.47607421875, -0.506591796875
609, 230415327, -5.280547618865967, -1.113051414489746, 8.894046783447266, 26.460514068603516, 24.300878524780273, 20.675161361694336, 0.42724609375, 0.468994140625, -0.5078125
610, 230431994, -6.1872453689575195, -3.1684513092041016, 7.505758762359619, 27.427213668823242, 12.830729484558105, 17.785858154296875, 0.43115234375, 0.464599609375, -0.50927734375
611, 230448661, -6.353330612182617, -1.1046303510665894, 8.804887771606445, 21.2518310546875, 5.7215118408203125, 11.947627067565918, 0.437744140625, 0.45751953125, -0.508544921875
612, 230465328, -5.683608531951904, -2.535998821258545, 8.094027519226074, 16.449947357177734, 2.2549123764038086, 8.16269302368164, 0.435791015625, 0.45361328125, -0.511962890625
613, 230481995, -5.494187355041504, -2.429325819015503, 7.915141582489014, 14.73491382598877, 0.9234986901283264, 7.611043930053711, 0.4384765625, 0.45068359375, -0.511962890625
614, 230498662, -5.317102909088135, -2.172419548034668, 7.906287670135498, 16.174074172973633, -1.9634850025177002, 8.296765327453613, 0.4384765625, 0.446044921875, -0.514404296875
615, 230515329, -5.224482536315918, -3.21315336227417, 7.270375728607178, 22.24842643737793, -7.457167148590088, 11.231828689575195, 0.438232421875, 0.43994140625, -0.51806640625
616, 230531996, -5.471080303192139, -2.825744152069092, 7.813757419586182, 18.739898681640625, -2.9112460613250732, 9.072382926940918, 0.438232421875, 0.43798828125, -0.5205078125
617, 230548663, -5.298692226409912, -1.7057241201400757, 8.193470001220703, 11.018148422241211, 0.7579379081726074, 5.137545585632324, 0.440185546875, 0.43505859375, -0.52392578125
618, 230565330, -5.424256801605225, -1.9094289541244507, 8.038922309875488, 4.41667366027832, 2.9966671466827393, 1.6810961961746216, 0.442138671875, 0.431396484375, -0.522705078125
619, 230581997, -5.359732151031494, -2.29237961769104, 7.756648063659668, 4.252457618713379, 2.0865066051483154, 1.5514957904815674, 0.44384765625, 0.43115234375, -0.522216796875
620, 230598664, -5.387759208679199, -2.4798192977905273, 7.646052837371826, 5.611441135406494, 0.6188604235649109, 2.3812060356140137, 0.4423828125, 0.427978515625, -0.521240234375
621, 230615331, -5.476181983947754, -2.412198781967163, 7.641020774841309, 8.143091201782227, -1.653146505355835, 4.019408226013184, 0.440673828125, 0.427001953125, -0.522705078125
622, 230631998, -5.446535587310791, -2.4143776893615723, 7.705036163330078, 10.56286907196045, -3.8743839263916016, 5.147111892700195, 0.44384765625, 0.424072265625, -0.525634765625
623, 230648665, -5.332298278808594, -2.4759294986724854, 7.745168685913086, 14.070932388305664, -7.56647253036499, 6.938863754272461, 0.443359375, 0.4228515625, -0.525634765625
624, 230665332, -5.389477252960205, -2.3816609382629395, 7.7300262451171875, 16.961179733276367, -11.617997169494629, 8.354974746704102, 0.44482421875, 0.41796875, -0.5283203125
625, 230681999, -5.357546329498291, -1.8077363967895508, 7.987491607666016, 10.896438598632812, -9.293728828430176, 5.68757963180542, 0.44140625, 0.41552734375, -0.53466796875
626, 230698666, -5.237114429473877, -1.7770916223526, 8.005163192749023, 6.0850348472595215, -5.672561168670654, 4.066049098968506, 0.442138671875, 0.413330078125, -0.53271484375
627, 230715333, -5.251711845397949, -1.8277758359909058, 7.95639705657959, 1.7509160041809082, -1.7163965702056885, 2.3061351776123047, 0.441650390625, 0.411376953125, -0.53515625
628, 230732000, -5.256807327270508, -1.8376713991165161, 7.9214982986450195, -1.9783376455307007, 0.7366788387298584, 0.9199890494346619, 0.442138671875, 0.410400390625, -0.53515625
629, 230748667, -5.176228046417236, -1.9949815273284912, 7.9523749351501465, -4.806671619415283, 3.3486366271972656, 0.14311736822128296, 0.441650390625, 0.412841796875, -0.533203125
630, 230765334, -5.1979193687438965, -2.233593463897705, 7.830832004547119, -4.296658515930176, 4.976477146148682, 1.4081158638000488, 0.443115234375, 0.412841796875, -0.5322265625
631, 230782001, -5.1421966552734375, -2.457998037338257, 7.730924129486084, -2.448702812194824, 5.895577907562256, 3.9464633464813232, 0.445556640625, 0.409912109375, -0.527587890625
632, 230798668, -5.068646430969238, -2.525130033493042, 7.8226799964904785, 0.29735708236694336, 6.83286190032959, 7.218513011932373, 0.447021484375, 0.410888671875, -0.529541015625
633, 230815335, -5.298201560974121, -2.1282529830932617, 7.94516658782959, -1.0255073308944702, 9.0682373046875, 9.320279121398926, 0.45068359375, 0.407470703125, -0.528076171875
634, 230832002, -5.196591854095459, -2.166738748550415, 8.006876945495605, -3.8714911937713623, 13.274147987365723, 10.878255844116211, 0.4541015625, 0.406982421875, -0.5283203125
635, 230848669, -4.976452350616455, -2.106837511062622, 8.2025785446167, -3.5580220222473145, 22.403793334960938, 11.314020156860352, 0.4580078125, 0.406005859375, -0.52294921875
636, 230865336, -5.007896900177002, -2.1607935428619385, 8.40172290802002, -5.282554626464844, 34.7884407043457, 12.50937271118164, 0.465087890625, 0.405029296875, -0.51708984375
637, 230882003, -4.589951038360596, -1.8109846115112305, 8.963123321533203, -6.866157054901123, 57.63441467285156, 11.092911720275879, 0.47412109375, 0.403076171875, -0.509033203125
638, 230898670, -4.610049724578857, -1.8268797397613525, 9.089919090270996, -14.162013053894043, 87.90283203125, 13.023923873901367, 0.485107421875, 0.400634765625, -0.498046875
639, 230915337, -4.8281450271606445, -2.2007880210876465, 9.152273178100586, -21.616594314575195, 122.09867858886719, 20.456100463867188, 0.50537109375, 0.4033203125, -0.474609375
640, 230932004, -4.6632399559021, -2.562854528427124, 9.78724479675293, -24.38469886779785, 164.1190643310547, 31.298856735229492, 0.532958984375, 0.403076171875, -0.448974609375
641, 230948671, -4.6833367347717285, -2.6123950481414795, 9.952485084533691, -20.405982971191406, 221.5088348388672, 41.90949630737305, 0.56396484375, 0.397705078125, -0.413818359375
642, 230965338, -4.904321670532227, -2.9582769870758057, 10.137128829956055, -25.457061767578125, 294.6956481933594, 68.43568420410156, 0.601806640625, 0.391357421875, -0.357666015625
643, 230982005, -6.796047210693359, -3.9835922718048096, 11.446585655212402, -36.12582015991211, 365.1195373535156, 110.34122467041016, 0.64892578125, 0.3740234375, -0.291015625
644, 230998672, -7.734918594360352, -6.0664472579956055, 11.095375061035156, -48.21286392211914, 398.61029052734375, 157.0274200439453, 0.697998046875, 0.35009765625, -0.203857421875
645, 231015339, -15.983522415161133, -5.829551696777344, 13.427234649658203, -67.71773529052734, 394.8773193359375, 172.5446014404297, 0.740966796875, 0.317626953125, -0.114990234375
646, 231032006, -17.544008255004883, -4.487875938415527, 14.469758987426758, -64.03731536865234, 361.4015197753906, 165.72640991210938, 0.771728515625, 0.282958984375, -0.0283203125
647, 231048673, -13.933528900146484, -4.625319480895996, 13.076842308044434, -60.59507751464844, 301.15411376953125, 149.05596923828125, 0.798583984375, 0.248779296875, 0.04736328125
648, 231065340, -3.0778965950012207, -4.731605052947998, 12.549399375915527, -47.49127197265625, 264.6795654296875, 153.28636169433594, 0.817138671875, 0.214599609375, 0.112060546875
649, 231082007, -13.04012680053711, -9.354488372802734, 19.680849075317383, -78.91099548339844, 186.71859741210938, 99.4220962524414, 0.826904296875, 0.185791015625, 0.163818359375
650, 231098674, -10.55135726928711, -11.896573066711426, 19.529817581176758, -69.55309295654297, -3.395704746246338, 19.673585891723633, 0.839599609375, 0.17578125, 0.173583984375
651, 231115341, -0.9067705273628235, -9.491387367248535, 11.851298332214355, -19.553863525390625, -110.39832305908203, -25.557477951049805, 0.853515625, 0.185546875, 0.14208984375
652, 231132008, 3.048004627227783, -5.366051197052002, 7.200885772705078, 20.863279342651367, -135.37709045410156, -46.544456481933594, 0.862060546875, 0.201904296875, 0.09765625
653, 231148675, 2.841541051864624, -2.638519525527954, 5.644786357879639, 27.446714401245117, -130.03904724121094, -62.23845291137695, 0.866455078125, 0.226318359375, 0.0537109375
654, 231165342, 0.5875959992408752, -1.713658094406128, 5.886169910430908, 15.41763973236084, -127.40626525878906, -80.34495544433594, 0.860595703125, 0.2509765625, 0.012451171875
655, 231182009, -1.86258864402771, -1.8730034828186035, 6.8648600578308105, 6.562840938568115, -136.0736846923828, -95.97129821777344, 0.84716796875, 0.277099609375, -0.02734375
656, 231198676, -5.052572250366211, -2.2177062034606934, 8.15312385559082, 8.606420516967773, -162.20640563964844, -109.1386947631836, 0.832763671875, 0.30810546875, -0.06640625
