sep=,
DeviceTag:,B,,,,,,,,,,,,,,,,,
FirmwareVersion:,2.2.1,,,,,,,,,,,,,,,,,
AppVersion:,2022.0.1,,,,,,,,,,,,,,,,,
SyncStatus:,Synced,,,,,,,,,,,,,,,,,
OutputRate:,60Hz,,,,,,,,,,,,,,,,,
FilterProfile:,General,,,,,,,,,,,,,,,,,
Measurement Mode:,Inertial Mode - Rate quantities (with mag),,,,,,,,,,,,,,,,,
StartTime:,2022-08-05 16:55:50.113 +0300,,,,,,,,,,,,,,,,,
© Xsens Technologies B. V. 2005-2022,,,,,,,,,,,,,,,,,,,

PacketCounter,SampleTimeFine,Acc_X,Acc_Y,Acc_Z,Gyr_X,Gyr_Y,Gyr_Z,Mag_X,Mag_Y,Mag_Z
1, 3997155392, -5.318536281585693, -2.2040343284606934, 7.772022724151611, -0.2432694435119629, -0.4734891653060913, -0.8318749070167542, 0.034423828125, 0.20556640625, -0.81689453125
2, 3997172059, -5.316455364227295, -2.21116304397583, 7.769162178039551, -0.16887733340263367, -0.44312527775764465, -0.8904126882553101, 0.035400390625, 0.20458984375, -0.818359375
3, 3997188726, -5.321569919586182, -2.203589916229248, 7.788295269012451, -0.15272851288318634, -0.48656442761421204, -0.7471479773521423, 0.034423828125, 0.20556640625, -0.821044921875
4, 3997205393, -5.324883460998535, -2.197915554046631, 7.779745578765869, -0.12468261271715164, -0.42009949684143066, -0.7138258814811707, 0.034423828125, 0.206298828125, -0.819091796875
5, 3997222060, -5.331485748291016, -2.207500457763672, 7.808694362640381, -0.03644686937332153, -0.44741541147232056, -0.7843505144119263, 0.033447265625, 0.203125, -0.8173828125
6, 3997238727, -5.324788570404053, -2.198983669281006, 7.812624454498291, -0.1408570259809494, -0.35869303345680237, -0.8197472095489502, 0.033447265625, 0.205078125, -0.818603515625
7, 3997255394, -5.342968940734863, -2.195220470428467, 7.765672206878662, -0.21611995995044708, -0.390670508146286, -0.8586145043373108, 0.032958984375, 0.20458984375, -0.818115234375
8, 3997272061, -5.3344902992248535, -2.1940624713897705, 7.779112815856934, -0.15632711350917816, -0.4599912464618683, -0.7769612073898315, 0.037109375, 0.205078125, -0.818359375
9, 3997288728, -5.327686309814453, -2.195699453353882, 7.788356781005859, -0.2162223905324936, -0.5172996520996094, -0.7738876342773438, 0.033447265625, 0.205078125, -0.820556640625
10, 3997305395, -5.328876495361328, -2.167435646057129, 7.755324840545654, -0.16876207292079926, -0.5682817101478577, -0.9059211611747742, 0.034423828125, 0.205810546875, -0.819091796875
11, 3997322062, -5.333969593048096, -2.183340311050415, 7.785280704498291, -0.18210628628730774, -0.6371542811393738, -0.9416124224662781, 0.031982421875, 0.2041015625, -0.818603515625
12, 3997338729, -5.341137886047363, -2.198316812515259, 7.770809173583984, -0.12163470685482025, -0.5501863360404968, -0.8850724101066589, 0.033935546875, 0.20556640625, -0.818603515625
13, 3997355396, -5.3209099769592285, -2.2085518836975098, 7.80561637878418, -0.23691749572753906, -0.5614688992500305, -0.9249898791313171, 0.031494140625, 0.20458984375, -0.81689453125
14, 3997372063, -5.335409164428711, -2.188445568084717, 7.793661594390869, -0.22699253261089325, -0.5087835192680359, -0.9786484241485596, 0.031494140625, 0.2060546875, -0.820068359375
15, 3997388730, -5.31737756729126, -2.205580949783325, 7.799256801605225, -0.24568980932235718, -0.4260160028934479, -0.8469479084014893, 0.035400390625, 0.205810546875, -0.819580078125
16, 3997405397, -5.319283962249756, -2.1831555366516113, 7.774982452392578, -0.21952642500400543, -0.4507962763309479, -0.8490481376647949, 0.032470703125, 0.2060546875, -0.819091796875
17, 3997422064, -5.326204299926758, -2.202855348587036, 7.765922546386719, -0.19770441949367523, -0.5021881461143494, -0.8589218854904175, 0.033935546875, 0.205078125, -0.81689453125
18, 3997438731, -5.34656286239624, -2.1825883388519287, 7.802454948425293, -0.2084745615720749, -0.5022009611129761, -0.8868396878242493, 0.033447265625, 0.2060546875, -0.81787109375
19, 3997455398, -5.32767915725708, -2.20729398727417, 7.757737636566162, -0.13152121007442474, -0.4732458293437958, -0.8402886390686035, 0.032958984375, 0.205078125, -0.8173828125
20, 3997472065, -5.348481178283691, -2.188047170639038, 7.778731346130371, -0.16182103753089905, -0.5969167947769165, -0.9564549922943115, 0.033935546875, 0.2041015625, -0.819580078125
21, 3997488732, -5.335330963134766, -2.189512252807617, 7.770913124084473, -0.1741151213645935, -0.6015270352363586, -0.9835916757583618, 0.033447265625, 0.20361328125, -0.820556640625
22, 3997505399, -5.318603038787842, -2.1939849853515625, 7.7768964767456055, -0.12314585596323013, -0.6545068621635437, -0.8518142700195312, 0.033447265625, 0.206298828125, -0.819580078125
23, 3997522066, -5.302921295166016, -2.2059316635131836, 7.780137062072754, -0.1727832406759262, -0.5298627018928528, -0.9405623078346252, 0.035400390625, 0.2041015625, -0.81591796875
24, 3997538733, -5.321605205535889, -2.1890511512756348, 7.777111053466797, -0.31134796142578125, -0.41560444235801697, -0.9628069400787354, 0.033447265625, 0.20556640625, -0.819091796875
25, 3997555400, -5.332247257232666, -2.193009614944458, 7.765353679656982, -0.2841600477695465, -0.49495255947113037, -0.9392943382263184, 0.033447265625, 0.2041015625, -0.818603515625
26, 3997572067, -5.32847785949707, -2.194169759750366, 7.771203517913818, -0.2261217087507248, -0.5596886277198792, -0.9625380039215088, 0.033447265625, 0.2041015625, -0.818603515625
27, 3997588734, -5.333776950836182, -2.1876978874206543, 7.781984806060791, -0.17020918428897858, -0.5552448630332947, -0.8817939758300781, 0.033447265625, 0.2041015625, -0.81787109375
28, 3997605401, -5.323150634765625, -2.205374002456665, 7.771952152252197, -0.2185659557580948, -0.5155195593833923, -0.9084951877593994, 0.033447265625, 0.20361328125, -0.8173828125
29, 3997622068, -5.322747230529785, -2.1869280338287354, 7.779056549072266, -0.06180344149470329, -0.7396562695503235, -0.8757493495941162, 0.033935546875, 0.205078125, -0.81787109375
30, 3997638735, -5.330445766448975, -2.1946017742156982, 7.799896717071533, -0.09684160351753235, -0.568473756313324, -0.9304196834564209, 0.033447265625, 0.206298828125, -0.818115234375
31, 3997655402, -5.318714618682861, -2.20892333984375, 7.775627136230469, -0.18030698597431183, -0.5587217807769775, -0.9384428262710571, 0.033935546875, 0.205078125, -0.819580078125
32, 3997672069, -5.340616226196289, -2.2040913105010986, 7.78249454498291, -0.08102576434612274, -0.651215672492981, -0.9169217348098755, 0.034423828125, 0.205078125, -0.819091796875
33, 3997688736, -5.328845500946045, -2.196868419647217, 7.79425048828125, -0.20752686262130737, -0.5452046990394592, -0.9445450305938721, 0.034912109375, 0.20361328125, -0.81787109375
34, 3997705403, -5.333068370819092, -2.1899936199188232, 7.791060447692871, -0.12960803508758545, -0.6642667651176453, -0.9340102076530457, 0.034423828125, 0.20458984375, -0.820068359375
35, 3997722070, -5.315732479095459, -2.2121903896331787, 7.787013530731201, -0.1988954097032547, -0.5298115015029907, -0.8851620554924011, 0.033935546875, 0.205078125, -0.818603515625
36, 3997738737, -5.305751323699951, -2.211432933807373, 7.779445171356201, -0.20036812126636505, -0.46334654092788696, -0.8565782904624939, 0.034912109375, 0.203125, -0.818359375
37, 3997755404, -5.3258056640625, -2.2024106979370117, 7.779058933258057, -0.1945028305053711, -0.35100921988487244, -0.7501703500747681, 0.032958984375, 0.20458984375, -0.818603515625
38, 3997772071, -5.3419413566589355, -2.1614906787872314, 7.78121280670166, -0.21111269295215607, -0.4305751323699951, -0.9444811344146729, 0.030517578125, 0.20654296875, -0.817626953125
39, 3997788738, -5.32587194442749, -2.2090914249420166, 7.792682647705078, -0.09978708624839783, -0.534754753112793, -0.8119226098060608, 0.033935546875, 0.205078125, -0.820556640625
40, 3997805405, -5.331714153289795, -2.176954746246338, 7.800750732421875, -0.08858151733875275, -0.6201346516609192, -0.9129133820533752, 0.033447265625, 0.2041015625, -0.818603515625
41, 3997822072, -5.325071334838867, -2.1816799640655518, 7.7774271965026855, -0.18520541489124298, -0.5981333255767822, -0.9573002457618713, 0.033447265625, 0.20361328125, -0.81689453125
42, 3997838739, -5.307857036590576, -2.186501979827881, 7.788565635681152, -0.24260346591472626, -0.4571610689163208, -0.9741149544715881, 0.031494140625, 0.201171875, -0.818603515625
43, 3997855406, -5.316126346588135, -2.1913232803344727, 7.784392356872559, -0.2708798944950104, -0.4914180338382721, -0.9476058483123779, 0.031494140625, 0.20556640625, -0.820068359375
44, 3997872073, -5.325979709625244, -2.2053818702697754, 7.78459358215332, -0.26737096905708313, -0.41600146889686584, -0.8793479800224304, 0.031494140625, 0.20556640625, -0.817626953125
45, 3997888740, -5.335236072540283, -2.1717207431793213, 7.758547782897949, -0.3099776804447174, -0.33063435554504395, -0.8912706971168518, 0.033935546875, 0.20556640625, -0.81787109375
46, 3997905407, -5.336650848388672, -2.2040836811065674, 7.795672416687012, -0.18398885428905487, -0.44608360528945923, -0.8892729878425598, 0.033935546875, 0.20556640625, -0.819091796875
47, 3997922074, -5.346583843231201, -2.198272705078125, 7.766609191894531, -0.24100272357463837, -0.555462658405304, -0.923606812953949, 0.033447265625, 0.205078125, -0.8173828125
48, 3997938741, -5.326647758483887, -2.1932525634765625, 7.802880764007568, -0.21571014821529388, -0.5634793639183044, -0.8561044335365295, 0.032470703125, 0.20458984375, -0.818115234375
49, 3997955408, -5.34013032913208, -2.1854641437530518, 7.774232864379883, -0.21321290731430054, -0.5346522927284241, -0.9132335782051086, 0.032470703125, 0.205078125, -0.81494140625
50, 3997972075, -5.333503246307373, -2.1751420497894287, 7.749974727630615, -0.2768924832344055, -0.6405672430992126, -0.9739933013916016, 0.031982421875, 0.20361328125, -0.817626953125
51, 3997988742, -5.319299697875977, -2.188961982727051, 7.7763848304748535, -0.28801479935646057, -0.5590484142303467, -1.000163197517395, 0.031005859375, 0.20458984375, -0.819580078125
52, 3998005409, -5.3132123947143555, -2.169738531112671, 7.782839298248291, -0.3567337095737457, -0.4920712113380432, -1.027812123298645, 0.033935546875, 0.2041015625, -0.818603515625
53, 3998022076, -5.32975959777832, -2.1863131523132324, 7.7795891761779785, -0.24189913272857666, -0.5716626048088074, -0.9199312925338745, 0.032958984375, 0.20166015625, -0.821044921875
54, 3998038743, -5.321209907531738, -2.1977717876434326, 7.781450271606445, -0.26892054080963135, -0.5925369262695312, -0.9139251112937927, 0.033935546875, 0.205078125, -0.81787109375
55, 3998055410, -5.31832218170166, -2.179733991622925, 7.775920391082764, -0.2172469049692154, -0.597557008266449, -0.9231456518173218, 0.031982421875, 0.20556640625, -0.818115234375
56, 3998072077, -5.307830810546875, -2.203744888305664, 7.785762786865234, -0.19269715249538422, -0.5307976007461548, -0.9719251394271851, 0.033935546875, 0.2041015625, -0.81787109375
57, 3998088744, -5.333205699920654, -2.1898043155670166, 7.803069114685059, -0.20111091434955597, -0.5076437592506409, -0.8198240399360657, 0.032470703125, 0.20556640625, -0.81689453125
58, 3998105411, -5.33467960357666, -2.190966844558716, 7.776289463043213, -0.266128808259964, -0.42314743995666504, -0.9132592678070068, 0.030029296875, 0.2041015625, -0.817138671875
59, 3998122078, -5.329471588134766, -2.2029290199279785, 7.782359600067139, -0.19324782490730286, -0.4504376947879791, -0.9269749522209167, 0.033447265625, 0.206298828125, -0.818115234375
60, 3998138745, -5.32342004776001, -2.2032456398010254, 7.78718900680542, -0.19938205182552338, -0.43953952193260193, -0.8841503262519836, 0.032470703125, 0.205078125, -0.818115234375
61, 3998155412, -5.323548316955566, -2.1888175010681152, 7.786346435546875, -0.18957237899303436, -0.4051288664340973, -0.9295616745948792, 0.032958984375, 0.20458984375, -0.81787109375
62, 3998172079, -5.321513652801514, -2.190530300140381, 7.776589870452881, -0.23773708939552307, -0.28879600763320923, -0.8896187543869019, 0.031982421875, 0.2041015625, -0.8154296875
63, 3998188746, -5.3375678062438965, -2.1829237937927246, 7.790212154388428, -0.25556349754333496, -0.30819758772850037, -0.871241569519043, 0.032958984375, 0.205078125, -0.818603515625
64, 3998205413, -5.312179088592529, -2.198828935623169, 7.78225040435791, -0.16465122997760773, -0.3211063742637634, -0.8340647220611572, 0.033447265625, 0.203125, -0.819580078125
65, 3998222080, -5.3416748046875, -2.185990571975708, 7.781713008880615, -0.19037921726703644, -0.3690534234046936, -0.8528004884719849, 0.033447265625, 0.20361328125, -0.81787109375
66, 3998238747, -5.346644401550293, -2.190214157104492, 7.7892913818359375, -0.23923541605472565, -0.5351133346557617, -0.9449548721313477, 0.033447265625, 0.207275390625, -0.81689453125
67, 3998255414, -5.325949668884277, -2.1742496490478516, 7.758749485015869, -0.23545753955841064, -0.5557315349578857, -0.9028347730636597, 0.032958984375, 0.20263671875, -0.81689453125
68, 3998272081, -5.34151554107666, -2.1941583156585693, 7.793093681335449, -0.22078189253807068, -0.6346951127052307, -0.9219971299171448, 0.033447265625, 0.20458984375, -0.818115234375
69, 3998288748, -5.33897066116333, -2.1873080730438232, 7.804022312164307, -0.13043266534805298, -0.5690884590148926, -0.9377193450927734, 0.034912109375, 0.20556640625, -0.820068359375
70, 3998305415, -5.316347599029541, -2.201082944869995, 7.807616710662842, -0.18801002204418182, -0.5666809678077698, -0.954802930355072, 0.032958984375, 0.2060546875, -0.81689453125
71, 3998322082, -5.328100204467773, -2.195124626159668, 7.788074493408203, -0.24895542860031128, -0.5859289169311523, -0.9937598705291748, 0.035888671875, 0.20556640625, -0.8193359375
72, 3998338749, -5.318479537963867, -2.1994707584381104, 7.791782855987549, -0.17928889393806458, -0.5513005256652832, -0.9471448063850403, 0.032958984375, 0.205078125, -0.819091796875
73, 3998355416, -5.3277482986450195, -2.1872365474700928, 7.815121173858643, -0.2657061219215393, -0.5738781094551086, -0.9196111559867859, 0.032470703125, 0.2041015625, -0.818603515625
74, 3998372083, -5.321706295013428, -2.1895880699157715, 7.76828145980835, -0.15121737122535706, -0.4642941653728485, -0.8984166383743286, 0.033447265625, 0.2060546875, -0.820068359375
75, 3998388750, -5.332221508026123, -2.192422389984131, 7.788390636444092, -0.26099342107772827, -0.5480477809906006, -0.9294079542160034, 0.033935546875, 0.20458984375, -0.819091796875
76, 3998405417, -5.320877552032471, -2.1857106685638428, 7.792102813720703, -0.1957322359085083, -0.5123435854911804, -0.9218522906303406, 0.033447265625, 0.20556640625, -0.81640625
77, 3998422084, -5.333132266998291, -2.1875059604644775, 7.794938564300537, -0.2096911519765854, -0.488972008228302, -0.9182024002075195, 0.032958984375, 0.205078125, -0.818115234375
78, 3998438751, -5.337576389312744, -2.186070442199707, 7.791854381561279, -0.22326591610908508, -0.5034047961235046, -1.0057851076126099, 0.032470703125, 0.20361328125, -0.8154296875
79, 3998455418, -5.331337928771973, -2.1962907314300537, 7.778956413269043, -0.3094654381275177, -0.5436680316925049, -0.9711055159568787, 0.034423828125, 0.2041015625, -0.81787109375
80, 3998472085, -5.333485126495361, -2.201589584350586, 7.787468433380127, -0.1846163421869278, -0.5521457195281982, -0.9826824069023132, 0.034423828125, 0.205078125, -0.819580078125
81, 3998488752, -5.3388824462890625, -2.193873643875122, 7.795475959777832, -0.3368197977542877, -0.5258285999298096, -0.9293054938316345, 0.034423828125, 0.20263671875, -0.8193359375
82, 3998505419, -5.322962760925293, -2.190077066421509, 7.771761894226074, -0.2050168365240097, -0.5927546620368958, -0.9339414238929749, 0.033935546875, 0.203125, -0.81787109375
83, 3998522086, -5.330257415771484, -2.1700825691223145, 7.8040900230407715, -0.20059868693351746, -0.5593301653862, -0.9004656672477722, 0.033447265625, 0.2021484375, -0.8154296875
84, 3998538753, -5.334729194641113, -2.184253215789795, 7.808351039886475, -0.1982935220003128, -0.5415805578231812, -0.9514093995094299, 0.033447265625, 0.20361328125, -0.819091796875
85, 3998555420, -5.334364414215088, -2.185263156890869, 7.777975559234619, -0.27422237396240234, -0.5515695214271545, -0.9742815494537354, 0.031005859375, 0.20458984375, -0.816650390625
86, 3998572087, -5.317446708679199, -2.1953701972961426, 7.801963806152344, -0.19009745121002197, -0.5875296592712402, -0.8968926668167114, 0.031982421875, 0.205078125, -0.817138671875
87, 3998588754, -5.318668365478516, -2.1970763206481934, 7.778240203857422, -0.17973710596561432, -0.5636970400810242, -0.9389998912811279, 0.034912109375, 0.2041015625, -0.81787109375
88, 3998605421, -5.345210075378418, -2.185382127761841, 7.784244537353516, -0.1903407722711563, -0.5192846655845642, -0.9113382697105408, 0.034912109375, 0.205078125, -0.81787109375
89, 3998622088, -5.3278069496154785, -2.1991708278656006, 7.798223972320557, -0.11611517518758774, -0.5893865823745728, -0.9056651592254639, 0.035400390625, 0.20263671875, -0.81884765625
90, 3998638755, -5.313168048858643, -2.190293788909912, 7.784180641174316, -0.24259068071842194, -0.49607959389686584, -0.9743583798408508, 0.034423828125, 0.201171875, -0.81787109375
91, 3998655422, -5.331735134124756, -2.186922311782837, 7.790815353393555, -0.23055271804332733, -0.5044165253639221, -0.8822295069694519, 0.032470703125, 0.205078125, -0.819580078125
92, 3998672089, -5.330089569091797, -2.179016351699829, 7.80881404876709, -0.18663974106311798, -0.45150065422058105, -0.9754980802536011, 0.033935546875, 0.20458984375, -0.8173828125
93, 3998688756, -5.323268890380859, -2.1858742237091064, 7.8116559982299805, -0.22699253261089325, -0.44546887278556824, -0.9521008729934692, 0.033447265625, 0.205078125, -0.819091796875
94, 3998705423, -5.337819576263428, -2.1951513290405273, 7.779340744018555, -0.23425374925136566, -0.4025035500526428, -0.9937855005264282, 0.034423828125, 0.2041015625, -0.81787109375
95, 3998722090, -5.350823879241943, -2.1835215091705322, 7.795247554779053, -0.24647100269794464, -0.367209255695343, -0.9718353748321533, 0.03564453125, 0.20166015625, -0.81591796875
96, 3998738757, -5.322922706604004, -2.180656909942627, 7.771883487701416, -0.27727028727531433, -0.4815700054168701, -0.9646895527839661, 0.033935546875, 0.20458984375, -0.81494140625
97, 3998755424, -5.3302812576293945, -2.1898579597473145, 7.780247688293457, -0.25822722911834717, -0.46996739506721497, -0.9701962471008301, 0.032470703125, 0.205078125, -0.81591796875
98, 3998772091, -5.334831714630127, -2.1809113025665283, 7.784713268280029, -0.22599364817142487, -0.44220322370529175, -0.8893240690231323, 0.035400390625, 0.2041015625, -0.81884765625
99, 3998788758, -5.3444013595581055, -2.1827142238616943, 7.793485164642334, -0.22874701023101807, -0.5721364617347717, -0.9463251829147339, 0.033447265625, 0.20361328125, -0.819580078125
100, 3998805425, -5.3343119621276855, -2.1873974800109863, 7.770559787750244, -0.23640520870685577, -0.5485471487045288, -1.0227278470993042, 0.033935546875, 0.203125, -0.81591796875
101, 3998822092, -5.330782413482666, -2.1971399784088135, 7.793914318084717, -0.2749047875404358, -0.5524863004684448, -1.0349048376083374, 0.034423828125, 0.2041015625, -0.81884765625
102, 3998838759, -5.326961994171143, -2.197934150695801, 7.797293663024902, -0.3018200397491455, -0.4438040256500244, -0.9578253030776978, 0.033935546875, 0.205078125, -0.81640625
103, 3998855426, -5.320959091186523, -2.1974291801452637, 7.772737979888916, -0.252682089805603, -0.4024011492729187, -0.9887014627456665, 0.032958984375, 0.20458984375, -0.818115234375
104, 3998872093, -5.336174488067627, -2.1860671043395996, 7.768855094909668, -0.3225151002407074, -0.41618072986602783, -0.9412794709205627, 0.034423828125, 0.20361328125, -0.81689453125
105, 3998888760, -5.347218036651611, -2.182541608810425, 7.778306007385254, -0.2418479025363922, -0.4744112193584442, -0.898749589920044, 0.034912109375, 0.20361328125, -0.81689453125
106, 3998905427, -5.336217403411865, -2.1884102821350098, 7.7800703048706055, -0.3527252972126007, -0.5598167777061462, -1.0216522216796875, 0.035400390625, 0.20361328125, -0.81787109375
107, 3998922094, -5.321488857269287, -2.1903343200683594, 7.777400016784668, -0.2747986316680908, -0.48821642994880676, -0.9489760398864746, 0.034912109375, 0.203125, -0.8193359375
108, 3998938761, -5.335856914520264, -2.1985697746276855, 7.795688152313232, -0.23107776045799255, -0.5618017315864563, -0.9895339012145996, 0.033935546875, 0.20458984375, -0.818359375
109, 3998955428, -5.334737300872803, -2.2044894695281982, 7.798089504241943, -0.03829098492860794, -0.5987480282783508, -1.0088841915130615, 0.033935546875, 0.205078125, -0.81787109375
110, 3998972095, -5.342391490936279, -2.1914453506469727, 7.776192665100098, -0.2021482139825821, -0.5450125932693481, -0.8989032506942749, 0.032958984375, 0.203125, -0.818115234375
111, 3998988762, -5.327517032623291, -2.203686475753784, 7.772151470184326, -0.05616224557161331, -0.512465238571167, -0.8563798069953918, 0.034912109375, 0.20556640625, -0.8154296875
112, 3999005429, -5.33402156829834, -2.1689796447753906, 7.7785325050354, -0.14036402106285095, -0.569338321685791, -0.8575068116188049, 0.032958984375, 0.20361328125, -0.81787109375
113, 3999022096, -5.32481050491333, -2.193469762802124, 7.793032646179199, -0.2590980529785156, -0.49770596623420715, -0.9812096357345581, 0.033447265625, 0.20361328125, -0.819091796875
114, 3999038763, -5.345820903778076, -2.1872174739837646, 7.77120304107666, -0.30572593212127686, -0.4759223163127899, -0.977098822593689, 0.033447265625, 0.20361328125, -0.81591796875
115, 3999055430, -5.328091621398926, -2.190829038619995, 7.793141841888428, -0.21731093525886536, -0.536393940448761, -0.9646639227867126, 0.034423828125, 0.20556640625, -0.8173828125
116, 3999072097, -5.338024616241455, -2.1893205642700195, 7.772313594818115, -0.20829527080059052, -0.5461011528968811, -0.8831514716148376, 0.033447265625, 0.203125, -0.818603515625
117, 3999088764, -5.336434364318848, -2.1788980960845947, 7.787741661071777, -0.20212261378765106, -0.608941912651062, -0.9204563498497009, 0.034423828125, 0.2041015625, -0.818359375
118, 3999105431, -5.337311267852783, -2.1872386932373047, 7.776939868927002, -0.22696691751480103, -0.6357712745666504, -0.9727575778961182, 0.034912109375, 0.203125, -0.81787109375
119, 3999122098, -5.313714027404785, -2.197883129119873, 7.79173469543457, -0.19627010822296143, -0.6115031838417053, -0.9756644368171692, 0.032470703125, 0.203125, -0.81787109375
120, 3999138765, -5.34414005279541, -2.1634531021118164, 7.79602575302124, -0.16212835907936096, -0.4887543022632599, -0.8816403150558472, 0.033447265625, 0.20263671875, -0.818359375
121, 3999155432, -5.330240249633789, -2.197416305541992, 7.762555122375488, -0.2890649139881134, -0.4498230218887329, -1.0471367835998535, 0.035400390625, 0.20361328125, -0.818359375
122, 3999172099, -5.3323140144348145, -2.177114963531494, 7.787752628326416, -0.3333493173122406, -0.4839135706424713, -0.9753572344779968, 0.033447265625, 0.206298828125, -0.817626953125
123, 3999188766, -5.334168910980225, -2.181070566177368, 7.788942813873291, -0.6997453570365906, -0.5786997079849243, -1.1463795900344849, 0.031982421875, 0.20361328125, -0.818115234375
124, 3999205433, -5.3288092613220215, -2.1929240226745605, 7.752481460571289, -0.3328242003917694, -0.5240102410316467, -1.053053379058838, 0.033447265625, 0.2060546875, -0.819580078125
125, 3999222100, -5.32855224609375, -2.1837222576141357, 7.770812511444092, -0.29167741537094116, -0.5722517967224121, -1.013353705406189, 0.033935546875, 0.20361328125, -0.818359375
126, 3999238767, -5.341907024383545, -2.1915128231048584, 7.804312229156494, -0.32835477590560913, -0.49240413308143616, -0.9349403381347656, 0.034912109375, 0.205078125, -0.818359375
127, 3999255434, -5.324482440948486, -2.198301315307617, 7.804841041564941, -0.2510300576686859, -0.5876577496528625, -1.0994123220443726, 0.033447265625, 0.20361328125, -0.819091796875
128, 3999272101, -5.329679012298584, -2.1786632537841797, 7.78162956237793, -0.3517135679721832, -0.5236771702766418, -1.0653856992721558, 0.033447265625, 0.2060546875, -0.820556640625
129, 3999288768, -5.32176399230957, -2.2331223487854004, 7.752728462219238, -0.29177987575531006, -0.49546492099761963, -0.9158846139907837, 0.034423828125, 0.20556640625, -0.81787109375
130, 3999305435, -5.335451126098633, -2.1674914360046387, 7.798252582550049, -0.3159966468811035, -0.4499254822731018, -0.9554176330566406, 0.033447265625, 0.20361328125, -0.81787109375
131, 3999322102, -5.3410420417785645, -2.209085464477539, 7.785417556762695, -0.3839471638202667, -0.4696856439113617, -1.0049526691436768, 0.034912109375, 0.20263671875, -0.81982421875
132, 3999338769, -5.345829963684082, -2.192559003829956, 7.797474384307861, -0.38620108366012573, -0.5422080159187317, -0.9746145606040955, 0.033935546875, 0.2041015625, -0.81689453125
133, 3999355436, -5.313729763031006, -2.2119579315185547, 7.783046245574951, -0.4491826891899109, -0.4541131258010864, -1.009614109992981, 0.033447265625, 0.2060546875, -0.81591796875
134, 3999372103, -5.33162784576416, -2.2041780948638916, 7.774083137512207, -0.37532851099967957, -0.4096111059188843, -0.9085721373558044, 0.034423828125, 0.206298828125, -0.818359375
135, 3999388770, -5.340614318847656, -2.188725233078003, 7.772164344787598, -0.3582918643951416, -0.32517269253730774, -1.0048208236694336, 0.034912109375, 0.20556640625, -0.81689453125
136, 3999405437, -5.345682144165039, -2.1957151889801025, 7.78082799911499, -0.4439321458339691, -0.4047574996948242, -1.034381628036499, 0.032958984375, 0.2060546875, -0.817626953125
137, 3999422104, -5.345658302307129, -2.175595760345459, 7.790858745574951, -0.3870846927165985, -0.3493187725543976, -1.0532710552215576, 0.033935546875, 0.20556640625, -0.818603515625
138, 3999438771, -5.341458320617676, -2.1991043090820312, 7.800331115722656, -0.5271349549293518, -0.38835254311561584, -1.1963691711425781, 0.035400390625, 0.20361328125, -0.8173828125
139, 3999455438, -5.339778900146484, -2.192528247833252, 7.791219711303711, -0.7110085487365723, -0.4301269054412842, -1.1764297485351562, 0.034423828125, 0.2041015625, -0.81884765625
140, 3999472105, -5.336017608642578, -2.215667963027954, 7.770925045013428, -0.6875344514846802, -0.40907323360443115, -1.2498996257781982, 0.034912109375, 0.205078125, -0.818359375
141, 3999488772, -5.330943584442139, -2.2233009338378906, 7.768168926239014, -0.6735755205154419, -0.4499254822731018, -1.193244457244873, 0.033935546875, 0.2060546875, -0.819580078125
142, 3999505439, -5.348506927490234, -2.1953887939453125, 7.785830497741699, -0.855118453502655, -0.39082419872283936, -1.3013941049575806, 0.032470703125, 0.2041015625, -0.819091796875
143, 3999522106, -5.332114219665527, -2.210953712463379, 7.7843499183654785, -0.9248234033584595, -0.3101698160171509, -1.457529067993164, 0.033447265625, 0.205078125, -0.8173828125
144, 3999538773, -5.344777584075928, -2.196493148803711, 7.75843620300293, -0.9490273594856262, -0.34715452790260315, -1.413321614265442, 0.032958984375, 0.203125, -0.818115234375
145, 3999555440, -5.344780921936035, -2.220567226409912, 7.785238742828369, -0.7401044964790344, -0.5190925598144531, -1.3748897314071655, 0.034912109375, 0.205078125, -0.818359375
146, 3999572107, -5.3147759437561035, -2.2215707302093506, 7.769901275634766, -0.7032734751701355, -0.5409146547317505, -1.2773308753967285, 0.032958984375, 0.207275390625, -0.81689453125
147, 3999588774, -5.311280727386475, -2.2231898307800293, 7.792159080505371, -0.6620754599571228, -0.3949606418609619, -1.2601704597473145, 0.033935546875, 0.20556640625, -0.818603515625
148, 3999605441, -5.333892345428467, -2.1926004886627197, 7.798530578613281, -1.007193922996521, -0.23456110060214996, -1.3699465990066528, 0.033447265625, 0.2060546875, -0.81640625
149, 3999622108, -5.359002590179443, -2.207383632659912, 7.797558307647705, -1.2109811305999756, -0.20170001685619354, -1.4754451513290405, 0.034423828125, 0.206787109375, -0.8173828125
150, 3999638775, -5.33330774307251, -2.2296791076660156, 7.772321701049805, -1.2948499917984009, -0.1282043606042862, -1.4989320039749146, 0.033935546875, 0.206787109375, -0.818603515625
151, 3999655442, -5.341684818267822, -2.253551959991455, 7.743580341339111, -1.025673270225525, -0.2393762767314911, -1.4832954406738281, 0.033935546875, 0.207275390625, -0.81689453125
152, 3999672109, -5.330413341522217, -2.244722366333008, 7.768666744232178, -0.858211100101471, -0.3049255907535553, -1.212217092514038, 0.032470703125, 0.207763671875, -0.818603515625
153, 3999688776, -5.336270809173584, -2.2335033416748047, 7.755736351013184, -0.7003408074378967, -0.34059762954711914, -1.175635576248169, 0.034423828125, 0.207275390625, -0.81591796875
154, 3999705443, -5.337742805480957, -2.2269346714019775, 7.775138854980469, -0.7078965902328491, -0.3773134648799896, -1.1572586297988892, 0.035400390625, 0.209228515625, -0.818359375
155, 3999722110, -5.341445446014404, -2.239588499069214, 7.7760396003723145, -0.6272101998329163, -0.46195706725120544, -1.2581406831741333, 0.034912109375, 0.208740234375, -0.8154296875
156, 3999738777, -5.322881698608398, -2.2413201332092285, 7.75352144241333, -0.5384301543235779, -0.5106275677680969, -1.1907728910446167, 0.032958984375, 0.206787109375, -0.81396484375
157, 3999755444, -5.3216986656188965, -2.2476229667663574, 7.779482364654541, -0.5237796902656555, -0.5054922103881836, -1.1944098472595215, 0.033935546875, 0.208740234375, -0.81640625
158, 3999772111, -5.325584411621094, -2.2270100116729736, 7.777493953704834, -0.4536777138710022, -0.46343618631362915, -1.1130383014678955, 0.033935546875, 0.206298828125, -0.814453125
159, 3999788778, -5.334403991699219, -2.2350571155548096, 7.775663375854492, -0.4329058825969696, -0.42734792828559875, -1.0715584754943848, 0.034912109375, 0.207275390625, -0.818603515625
160, 3999805445, -5.330451965332031, -2.233638048171997, 7.760979175567627, -0.50888592004776, -0.41520747542381287, -1.0117144584655762, 0.036376953125, 0.209228515625, -0.821044921875
161, 3999822112, -5.3416337966918945, -2.2447307109832764, 7.769731521606445, -0.3921624422073364, -0.4507002830505371, -1.0182265043258667, 0.033447265625, 0.208251953125, -0.817138671875
162, 3999838779, -5.336031913757324, -2.247882127761841, 7.76008939743042, -0.37221652269363403, -0.460964560508728, -1.0025962591171265, 0.033447265625, 0.208251953125, -0.81689453125
163, 3999855446, -5.344633102416992, -2.2291207313537598, 7.771808624267578, -0.38328760862350464, -0.4792328178882599, -0.9236643314361572, 0.033935546875, 0.207275390625, -0.81787109375
164, 3999872113, -5.339707374572754, -2.2430543899536133, 7.788280010223389, -0.29624927043914795, -0.47873979806900024, -1.0321406126022339, 0.033935546875, 0.209716796875, -0.81689453125
165, 3999888780, -5.34116268157959, -2.2362773418426514, 7.7779645919799805, -0.3087867200374603, -0.5795897841453552, -1.0656932592391968, 0.034912109375, 0.207763671875, -0.81494140625
166, 3999905447, -5.331581115722656, -2.2324936389923096, 7.797901630401611, -0.3088379204273224, -0.586799681186676, -1.0812913179397583, 0.035400390625, 0.208251953125, -0.81787109375
167, 3999922114, -5.333196640014648, -2.2520031929016113, 7.774159908294678, -0.19945889711380005, -0.585890531539917, -1.058470368385315, 0.032470703125, 0.20556640625, -0.818115234375
168, 3999938781, -5.3252081871032715, -2.238657236099243, 7.783926963806152, -0.27527618408203125, -0.5060604214668274, -0.9477010369300842, 0.033935546875, 0.209228515625, -0.817626953125
169, 3999955448, -5.330989837646484, -2.251990795135498, 7.775617599487305, -0.2722629904747009, -0.4739629924297333, -1.0217033624649048, 0.033935546875, 0.206787109375, -0.81689453125
170, 3999972115, -5.335865020751953, -2.213834285736084, 7.768884181976318, -0.2786533534526825, -0.5894634127616882, -1.0349836349487305, 0.033935546875, 0.206787109375, -0.818115234375
171, 3999988782, -5.3282060623168945, -2.2405948638916016, 7.763440132141113, -0.3500615656375885, -0.5118569731712341, -1.0339590311050415, 0.033447265625, 0.208251953125, -0.817138671875
172, 4000005449, -5.33418083190918, -2.248685598373413, 7.767293930053711, -0.37959298491477966, -0.4764218032360077, -0.9839502573013306, 0.034912109375, 0.209716796875, -0.81787109375
173, 4000022116, -5.345095157623291, -2.250225782394409, 7.762018203735352, -0.3342072665691376, -0.4812113642692566, -0.9728983640670776, 0.033447265625, 0.208251953125, -0.818115234375
174, 4000038783, -5.323400020599365, -2.2442104816436768, 7.767390251159668, -0.2708350718021393, -0.3951590955257416, -1.0060861110687256, 0.034423828125, 0.208740234375, -0.8173828125
175, 4000055450, -5.342360496520996, -2.2516183853149414, 7.771030902862549, -0.30033451318740845, -0.46312886476516724, -0.9669050574302673, 0.033447265625, 0.210693359375, -0.817626953125
176, 4000072117, -5.324704170227051, -2.2244787216186523, 7.773497104644775, -0.3785044848918915, -0.2889624834060669, -1.0559731721878052, 0.032958984375, 0.207763671875, -0.818115234375
177, 4000088784, -5.3333563804626465, -2.232109308242798, 7.7981390953063965, -0.4020552933216095, -0.36764463782310486, -1.0535398721694946, 0.034423828125, 0.209228515625, -0.820068359375
178, 4000105451, -5.334311008453369, -2.2530646324157715, 7.772839546203613, -0.29473811388015747, -0.31643208861351013, -1.073082447052002, 0.032958984375, 0.207763671875, -0.819091796875
179, 4000122118, -5.324161052703857, -2.2424614429473877, 7.77441930770874, -0.3984951972961426, -0.28034377098083496, -0.9815297722816467, 0.036376953125, 0.207275390625, -0.8193359375
180, 4000138785, -5.3253045082092285, -2.239734411239624, 7.772530555725098, -0.4282059371471405, -0.2594822645187378, -0.9696584939956665, 0.032958984375, 0.209716796875, -0.818115234375
181, 4000155452, -5.327926158905029, -2.2356276512145996, 7.76042366027832, -0.4443803131580353, -0.27719342708587646, -1.05585777759552, 0.032470703125, 0.209716796875, -0.81591796875
182, 4000172119, -5.33276891708374, -2.2307074069976807, 7.779176235198975, -0.4898300766944885, -0.27556702494621277, -1.0292590856552124, 0.033447265625, 0.209716796875, -0.817626953125
183, 4000188786, -5.355179786682129, -2.227191686630249, 7.762476444244385, -0.5050567984580994, -0.2651042342185974, -1.0398627519607544, 0.033935546875, 0.209716796875, -0.818603515625
184, 4000205453, -5.335000514984131, -2.2343177795410156, 7.761499404907227, -0.7367044687271118, -0.29550012946128845, -1.3045381307601929, 0.036376953125, 0.209228515625, -0.81689453125
185, 4000222120, -5.3463592529296875, -2.246832847595215, 7.766089916229248, -1.1208245754241943, -0.3148441016674042, -1.2589921951293945, 0.036865234375, 0.208251953125, -0.81591796875
186, 4000238787, -5.324649810791016, -2.25296950340271, 7.763554096221924, -0.8558867573738098, -0.2521953880786896, -1.2101999521255493, 0.034912109375, 0.208740234375, -0.81591796875
187, 4000255454, -5.339798450469971, -2.274946928024292, 7.766633033752441, -0.6348620057106018, -0.23946595191955566, -1.1022554636001587, 0.032958984375, 0.208740234375, -0.817138671875
188, 4000272121, -5.355940341949463, -2.2387189865112305, 7.747486114501953, -0.6612687110900879, -0.25442373752593994, -1.1599607467651367, 0.034912109375, 0.210205078125, -0.8173828125
189, 4000288788, -5.335628509521484, -2.24418568611145, 7.760100841522217, -0.8204004168510437, -0.25615260004997253, -1.29866623878479, 0.035888671875, 0.209716796875, -0.81591796875
190, 4000305455, -5.3259992599487305, -2.2523465156555176, 7.753854274749756, -0.8754165172576904, -0.25455182790756226, -1.2655748128890991, 0.033935546875, 0.208740234375, -0.8173828125
191, 4000322122, -5.367092132568359, -2.273179054260254, 7.739253044128418, -0.823025643825531, -0.12792262434959412, -1.3024824857711792, 0.034912109375, 0.207763671875, -0.8173828125
192, 4000338789, -5.314292907714844, -2.2547121047973633, 7.776124954223633, -0.7219067215919495, -0.1732827126979828, -1.1528915166854858, 0.035400390625, 0.209228515625, -0.81396484375
193, 4000355456, -5.3556623458862305, -2.2386512756347656, 7.766603469848633, -0.8324511051177979, -0.25720271468162537, -1.2264641523361206, 0.033447265625, 0.208740234375, -0.817138671875
194, 4000372123, -5.352342128753662, -2.2520761489868164, 7.755612373352051, -0.9805951118469238, -0.15386831760406494, -1.3327312469482422, 0.033935546875, 0.210205078125, -0.818603515625
195, 4000388790, -5.370164394378662, -2.276566982269287, 7.747150421142578, -0.8495476841926575, -0.354146808385849, -1.28367018699646, 0.034912109375, 0.209228515625, -0.818115234375
196, 4000405457, -5.364901065826416, -2.2604918479919434, 7.74861478805542, -1.005285620689392, -0.4728488326072693, -1.4558258056640625, 0.036865234375, 0.210205078125, -0.81787109375
197, 4000422124, -5.364925384521484, -2.2692759037017822, 7.761340141296387, -1.150407075881958, -0.5142645835876465, -1.6106288433074951, 0.037841796875, 0.209716796875, -0.81591796875
198, 4000438791, -5.33998441696167, -2.2841904163360596, 7.746129512786865, -1.1624195575714111, -0.5371366739273071, -1.6018949747085571, 0.034912109375, 0.212158203125, -0.8173828125
199, 4000455458, -5.319399833679199, -2.3220322132110596, 7.736969947814941, -0.9072787165641785, -0.3347836136817932, -1.3779505491256714, 0.034423828125, 0.209228515625, -0.814453125
200, 4000472125, -5.352285385131836, -2.302245855331421, 7.758143901824951, -0.6402279138565063, -0.48221033811569214, -1.2510268688201904, 0.034912109375, 0.210205078125, -0.81640625
201, 4000488792, -5.335720539093018, -2.2954187393188477, 7.75666618347168, -0.5836878418922424, -0.2830459177494049, -1.1900683641433716, 0.038330078125, 0.211669921875, -0.81689453125
202, 4000505459, -5.349905490875244, -2.2847843170166016, 7.764129638671875, -0.5989633202552795, -0.30993223190307617, -1.0833412408828735, 0.034912109375, 0.211669921875, -0.81689453125
203, 4000522126, -5.342987537384033, -2.2651264667510986, 7.764153957366943, -0.4827994108200073, -0.27627140283584595, -1.0669609308242798, 0.035400390625, 0.211181640625, -0.81494140625
204, 4000538793, -5.351805686950684, -2.298658847808838, 7.741208076477051, -0.3270869851112366, -0.18599943816661835, -1.065193772315979, 0.032958984375, 0.211181640625, -0.81494140625
205, 4000555460, -5.336965560913086, -2.3024816513061523, 7.7351202964782715, -0.22961783409118652, -0.16050197184085846, -0.9941824674606323, 0.035400390625, 0.212158203125, -0.81689453125
206, 4000572127, -5.332523345947266, -2.309616804122925, 7.7337236404418945, -0.25943106412887573, -0.07879747450351715, -0.929459273815155, 0.035888671875, 0.212646484375, -0.8173828125
207, 4000588794, -5.334913730621338, -2.3051443099975586, 7.766660213470459, -0.2517600357532501, 0.06724613904953003, -0.7501319050788879, 0.033935546875, 0.212646484375, -0.816650390625
208, 4000605461, -5.367994785308838, -2.2686781883239746, 7.767511367797852, -0.32218214869499207, 0.11573738604784012, -0.6321982145309448, 0.033447265625, 0.211181640625, -0.817626953125
209, 4000622128, -5.371809482574463, -2.2836151123046875, 7.756089210510254, -0.3648272752761841, 0.05000239238142967, -0.7685986161231995, 0.034423828125, 0.208740234375, -0.81689453125
210, 4000638795, -5.334728717803955, -2.3007779121398926, 7.75646448135376, -0.17690689861774445, -0.018402723595499992, -0.6328641772270203, 0.035400390625, 0.210205078125, -0.81689453125
211, 4000655462, -5.352055072784424, -2.3008744716644287, 7.718424320220947, -0.20938381552696228, -0.04632056504487991, -0.628714919090271, 0.034912109375, 0.211181640625, -0.81494140625
212, 4000672129, -5.366052627563477, -2.2795138359069824, 7.746004104614258, -0.21458318829536438, -0.05057227239012718, -0.5197072625160217, 0.034912109375, 0.211669921875, -0.8173828125
213, 4000688796, -5.359733581542969, -2.2718143463134766, 7.738544464111328, -0.11738299578428268, -0.062059566378593445, -0.5496740937232971, 0.033447265625, 0.212646484375, -0.816162109375
214, 4000705463, -5.376165866851807, -2.261847496032715, 7.7196044921875, -0.22800423204898834, -0.24594591557979584, -0.5605723261833191, 0.034423828125, 0.212158203125, -0.81640625
215, 4000722130, -5.350006103515625, -2.2696685791015625, 7.735161304473877, -0.12399106472730637, -0.33489885926246643, -0.5754789113998413, 0.035888671875, 0.210693359375, -0.81689453125
216, 4000738797, -5.345220565795898, -2.2850918769836426, 7.7449564933776855, -0.055297814309597015, -0.354146808385849, -0.5368293523788452, 0.035888671875, 0.209716796875, -0.81689453125
217, 4000755464, -5.360923767089844, -2.275601387023926, 7.745446681976318, -0.0546703040599823, -0.3754693269729614, -0.5922423601150513, 0.038330078125, 0.210693359375, -0.81591796875
218, 4000772131, -5.380993843078613, -2.266918420791626, 7.753042221069336, -0.16028429567813873, -0.28118905425071716, -0.635604739189148, 0.037841796875, 0.212158203125, -0.81494140625
219, 4000788798, -5.358217239379883, -2.2844743728637695, 7.731034278869629, -0.1784949004650116, -0.36295753717422485, -0.7139283418655396, 0.038330078125, 0.211181640625, -0.81494140625
220, 4000805465, -5.383432865142822, -2.286187171936035, 7.73216438293457, -0.04730665683746338, -0.45281973481178284, -0.6748818159103394, 0.038330078125, 0.211181640625, -0.8173828125
221, 4000822132, -5.366621017456055, -2.2604141235351562, 7.722626686096191, -0.41468244791030884, -0.3261009156703949, -0.8440025448799133, 0.036865234375, 0.211669921875, -0.8154296875
222, 4000838799, -5.364321231842041, -2.276604652404785, 7.722970962524414, -0.3282139301300049, -0.36569809913635254, -0.8573594689369202, 0.037353515625, 0.212158203125, -0.81640625
223, 4000855466, -5.360654354095459, -2.283195972442627, 7.743609428405762, -0.3625349998474121, -0.3512782156467438, -0.8549135327339172, 0.037841796875, 0.211181640625, -0.81591796875
224, 4000872133, -5.366351127624512, -2.2877707481384277, 7.748952388763428, -0.2645791471004486, -0.24565137922763824, -0.8782849907875061, 0.034912109375, 0.213623046875, -0.817138671875
225, 4000888800, -5.343757629394531, -2.2940285205841064, 7.7161641120910645, -0.09864731132984161, -0.298029363155365, -0.8047254085540771, 0.037353515625, 0.210693359375, -0.8154296875
226, 4000905467, -5.3653435707092285, -2.288722038269043, 7.745550155639648, -0.0962781310081482, -0.21638888120651245, -0.783133864402771, 0.036865234375, 0.211181640625, -0.8154296875
227, 4000922134, -5.375133991241455, -2.2642269134521484, 7.732541084289551, -0.2118554562330246, -0.33890724182128906, -0.7689829468727112, 0.036376953125, 0.209716796875, -0.8173828125
228, 4000938801, -5.359929084777832, -2.2855443954467773, 7.742213249206543, -0.2593669891357422, -0.3730233311653137, -0.7909073233604431, 0.036865234375, 0.209716796875, -0.81640625
229, 4000955468, -5.366886615753174, -2.252105712890625, 7.7371954917907715, -0.4239542484283447, -0.2763482332229614, -0.8340776562690735, 0.036376953125, 0.211669921875, -0.81689453125
230, 4000972135, -5.35299015045166, -2.285292387008667, 7.751894950866699, -0.3446700870990753, -0.15306147933006287, -0.8150472640991211, 0.038330078125, 0.212158203125, -0.81884765625
231, 4000988802, -5.37404203414917, -2.2839484214782715, 7.758138179779053, -0.280984103679657, -0.2274535745382309, -0.6972160339355469, 0.038330078125, 0.211669921875, -0.81884765625
232, 4001005469, -5.369561672210693, -2.27046275138855, 7.748464584350586, -0.31472885608673096, -0.21478809416294098, -0.7414876222610474, 0.038818359375, 0.210205078125, -0.8173828125
233, 4001022136, -5.382034778594971, -2.259950637817383, 7.739342212677002, -0.41292789578437805, -0.07603128254413605, -0.8429139256477356, 0.038330078125, 0.210693359375, -0.81787109375
234, 4001038803, -5.357426166534424, -2.288107395172119, 7.721364498138428, -0.357694149017334, -0.15522576868534088, -0.7815715074539185, 0.037841796875, 0.209716796875, -0.81494140625
235, 4001055470, -5.376917362213135, -2.2847466468811035, 7.716391086578369, -0.2240477055311203, -0.12835292518138885, -0.613473653793335, 0.040771484375, 0.211669921875, -0.81494140625
236, 4001072137, -5.381887435913086, -2.273315906524658, 7.736566543579102, -0.2746065557003021, -0.1633962094783783, -0.6675053238868713, 0.038818359375, 0.213134765625, -0.81640625
237, 4001088804, -5.379188060760498, -2.2460134029388428, 7.752297878265381, -0.4556499421596527, -0.18977728486061096, -0.7206260561943054, 0.037841796875, 0.211669921875, -0.8173828125
238, 4001105471, -5.390735626220703, -2.2643883228302, 7.726198196411133, -0.8504312634468079, 0.004418190103024244, -0.848446249961853, 0.037841796875, 0.212646484375, -0.81689453125
239, 4001122138, -5.379014015197754, -2.2815704345703125, 7.740889549255371, -0.4133889973163605, -0.219705730676651, -0.8458465933799744, 0.041015625, 0.210205078125, -0.8154296875
240, 4001138805, -5.385519981384277, -2.276516914367676, 7.723301410675049, -0.4007618725299835, -0.24036236107349396, -0.796951949596405, 0.037353515625, 0.211669921875, -0.81884765625
241, 4001155472, -5.377586364746094, -2.2856595516204834, 7.722275257110596, -0.39857199788093567, -0.23056550323963165, -0.7398355603218079, 0.040283203125, 0.212890625, -0.81787109375
242, 4001172139, -5.3777971267700195, -2.2612075805664062, 7.725916862487793, -0.20921733975410461, -0.17958344519138336, -0.7513357400894165, 0.036376953125, 0.211181640625, -0.81787109375
243, 4001188806, -5.363091468811035, -2.2905750274658203, 7.719153881072998, -0.2349196970462799, -0.1959371566772461, -0.695410430431366, 0.037353515625, 0.212158203125, -0.81787109375
244, 4001205473, -5.373012065887451, -2.28074049949646, 7.733823776245117, -0.410443514585495, -0.03482046350836754, -0.665827751159668, 0.039306640625, 0.212158203125, -0.8193359375
245, 4001222140, -5.375933647155762, -2.2699952125549316, 7.734235763549805, -0.6699641346931458, 0.12758325040340424, -0.8408776521682739, 0.038330078125, 0.211181640625, -0.81787109375
246, 4001238807, -5.377462863922119, -2.2768707275390625, 7.73205041885376, -0.574211061000824, 0.08934349566698074, -0.7190252542495728, 0.039794921875, 0.211669921875, -0.8154296875
247, 4001255474, -5.386545181274414, -2.2932183742523193, 7.6949687004089355, -0.26635926961898804, -0.13111139833927155, -0.5595478415489197, 0.039794921875, 0.211181640625, -0.818359375
248, 4001272141, -5.398850440979004, -2.2935726642608643, 7.710628509521484, -0.054881613701581955, -0.29302850365638733, -0.35375621914863586, 0.038818359375, 0.212158203125, -0.81640625
249, 4001288808, -5.405104637145996, -2.265373468399048, 7.7160210609436035, 0.021066443994641304, -0.5822278261184692, -0.5460243225097656, 0.038818359375, 0.213134765625, -0.81689453125
250, 4001305475, -5.394818305969238, -2.2622110843658447, 7.730083465576172, 0.04896507412195206, -0.6725254058837891, -0.8767610788345337, 0.039306640625, 0.211181640625, -0.81787109375
251, 4001322142, -5.397703170776367, -2.254528284072876, 7.737703323364258, -0.24900668859481812, -0.7288733720779419, -0.9342744946479797, 0.039794921875, 0.211669921875, -0.81640625
252, 4001338809, -5.40925931930542, -2.2516417503356934, 7.759403705596924, -0.4345962703227997, -0.7214713096618652, -1.0940719842910767, 0.038818359375, 0.212646484375, -0.814453125
253, 4001355476, -5.393573760986328, -2.268928289413452, 7.750446319580078, -0.5951110124588013, -0.669900119304657, -1.238053798675537, 0.038818359375, 0.212158203125, -0.8173828125
254, 4001372143, -5.443872451782227, -2.266728162765503, 7.729632377624512, -0.7367492914199829, -0.7068848609924316, -1.4551984071731567, 0.038330078125, 0.213134765625, -0.8154296875
255, 4001388810, -5.497107982635498, -2.2333731651306152, 7.750460624694824, -1.165710687637329, -1.161446213722229, -2.0061402320861816, 0.037841796875, 0.212158203125, -0.8193359375
256, 4001405477, -5.486961841583252, -2.239816904067993, 7.742962837219238, -1.5861176252365112, -1.7506664991378784, -2.751802921295166, 0.038330078125, 0.210693359375, -0.814453125
257, 4001422144, -5.471840858459473, -2.2040867805480957, 7.706895351409912, -1.5622081756591797, -1.9432097673416138, -3.456536054611206, 0.039794921875, 0.212646484375, -0.81787109375
258, 4001438811, -5.3077826499938965, -2.3829843997955322, 7.744373798370361, -2.0053210258483887, -1.7564680576324463, -3.9485182762145996, 0.036865234375, 0.213623046875, -0.818359375
259, 4001455478, -5.247570991516113, -2.409674882888794, 7.770591735839844, -2.153951406478882, -0.32913604378700256, -3.4123294353485107, 0.036865234375, 0.213134765625, -0.8154296875
260, 4001472145, -5.146565914154053, -2.4454495906829834, 7.7596211433410645, -2.7758913040161133, 1.897664189338684, -2.745565891265869, 0.034912109375, 0.213134765625, -0.817626953125
261, 4001488812, -5.094349384307861, -2.421293258666992, 7.794059753417969, -3.81174635887146, 5.002992630004883, -1.9052776098251343, 0.039306640625, 0.2177734375, -0.8154296875
262, 4001505479, -4.9591827392578125, -2.4290878772735596, 7.866032600402832, -5.646207332611084, 9.415956497192383, -0.33854880928993225, 0.040283203125, 0.21630859375, -0.81591796875
263, 4001522146, -4.875271320343018, -2.5510637760162354, 7.9208502769470215, -9.459498405456543, 15.517288208007812, 3.3345789909362793, 0.044189453125, 0.21826171875, -0.811279296875
264, 4001538813, -4.745357036590576, -1.9487385749816895, 8.443337440490723, -17.056682586669922, 24.912260055541992, 9.68193531036377, 0.046630859375, 0.21923828125, -0.813232421875
265, 4001555480, -4.057180881500244, -3.7212464809417725, 8.465989112854004, -21.291488647460938, 36.26090621948242, 23.88176155090332, 0.056640625, 0.2255859375, -0.80859375
266, 4001572147, -4.708220958709717, -1.632365345954895, 8.982598304748535, -20.271869659423828, 58.372108459472656, 27.7049560546875, 0.073486328125, 0.22802734375, -0.806884765625
267, 4001588814, -4.774839878082275, -2.7743775844573975, 8.671271324157715, -32.62409973144531, 77.69635009765625, 36.975215911865234, 0.09228515625, 0.23388671875, -0.802001953125
268, 4001605481, -5.452874660491943, -3.018159866333008, 9.02733039855957, -35.05247116088867, 90.97360229492188, 50.17139434814453, 0.1162109375, 0.239013671875, -0.79248046875
269, 4001622148, -6.024272918701172, -3.1363837718963623, 9.190836906433105, -41.66238021850586, 98.39693450927734, 58.65412139892578, 0.14013671875, 0.243896484375, -0.782470703125
270, 4001638815, -6.449252605438232, -4.190028667449951, 8.669011116027832, -45.325077056884766, 99.8508071899414, 64.64045715332031, 0.16796875, 0.24853515625, -0.7724609375
271, 4001655482, -4.775599956512451, -3.6162827014923096, 8.987886428833008, -30.642820358276367, 88.45722198486328, 70.59988403320312, 0.1943359375, 0.251220703125, -0.762451171875
272, 4001672149, -1.9863296747207642, -4.2250776290893555, 11.965392112731934, -23.48189926147461, 71.25128173828125, 67.18976593017578, 0.21923828125, 0.25341796875, -0.75244140625
273, 4001688816, -1.1888858079910278, -4.972558498382568, 13.803590774536133, -12.77664566040039, 31.861032485961914, 51.66770553588867, 0.234130859375, 0.24755859375, -0.742919921875
274, 4001705483, 1.4412760734558105, -5.050358772277832, 13.237215995788574, -3.555143356323242, -8.178621292114258, 28.026649475097656, 0.240234375, 0.2431640625, -0.73388671875
275, 4001722150, 3.137927293777466, -3.8903801441192627, 12.342206001281738, -0.5716773271560669, -29.444686889648438, 8.31412124633789, 0.238037109375, 0.23486328125, -0.727294921875
276, 4001738817, 2.7490835189819336, -3.5486395359039307, 12.261560440063477, -8.231313705444336, -43.12230682373047, -8.2513427734375, 0.2333984375, 0.232421875, -0.722412109375
277, 4001755484, 1.8673095703125, -3.8305084705352783, 12.241837501525879, -10.8232421875, -58.08269500732422, -19.964744567871094, 0.22705078125, 0.231201171875, -0.716796875
278, 4001772151, 0.9472112655639648, -3.4885313510894775, 12.23576831817627, -9.451162338256836, -72.61796569824219, -28.04716682434082, 0.219482421875, 0.229736328125, -0.713623046875
279, 4001788818, -0.059995442628860474, -3.140476942062378, 12.027998924255371, -11.684911727905273, -84.53206634521484, -34.040863037109375, 0.210693359375, 0.2265625, -0.709716796875
280, 4001805485, -1.0894438028335571, -3.179426431655884, 11.62354850769043, -13.21261215209961, -92.9234848022461, -38.71126174926758, 0.2021484375, 0.2275390625, -0.705810546875
281, 4001822152, -2.260180711746216, -3.279655694961548, 11.332643508911133, -11.759166717529297, -96.53556060791016, -42.04578399658203, 0.194091796875, 0.22998046875, -0.70751953125
282, 4001838819, -3.16335391998291, -3.362889289855957, 10.842503547668457, -8.726168632507324, -95.37422943115234, -45.285438537597656, 0.18994140625, 0.234375, -0.710693359375
283, 4001855486, -4.438738822937012, -3.361203670501709, 10.646913528442383, -7.299459934234619, -89.17718505859375, -47.13241958618164, 0.184326171875, 0.242431640625, -0.71826171875
284, 4001872153, -6.1431145668029785, -3.59507417678833, 10.727425575256348, -9.292732238769531, -84.91905212402344, -48.82440948486328, 0.17822265625, 0.261474609375, -0.730224609375
285, 4001888820, -7.56403112411499, -3.7826108932495117, 10.699972152709961, -12.356212615966797, -84.83838653564453, -49.730712890625, 0.16748046875, 0.27978515625, -0.74951171875
286, 4001905487, -8.98552417755127, -3.8072521686553955, 10.352534294128418, -16.427627563476562, -89.24397277832031, -51.207401275634766, 0.148193359375, 0.298583984375, -0.76171875
287, 4001922154, -9.513764381408691, -3.8178625106811523, 9.766490936279297, -17.85146713256836, -97.2761001586914, -52.11435317993164, 0.1201171875, 0.31494140625, -0.77587890625
288, 4001938821, -9.407716751098633, -3.462742567062378, 8.670389175415039, -15.514134407043457, -102.2114486694336, -51.82841110229492, 0.08740234375, 0.327880859375, -0.789306640625
289, 4001955488, -9.57358455657959, -3.3893659114837646, 7.683832168579102, -11.704695701599121, -102.65907287597656, -54.6794548034668, 0.04833984375, 0.3359375, -0.795166015625
290, 4001972155, -9.924362182617188, -3.7108654975891113, 6.348658561706543, -0.8493834137916565, -100.50904083251953, -59.209476470947266, 0.010498046875, 0.34130859375, -0.798828125
291, 4001988822, -11.106138229370117, -3.426893472671509, 4.778348445892334, 16.159881591796875, -95.91346740722656, -64.225830078125, -0.0224609375, 0.3388671875, -0.803466796875
292, 4002005489, -12.937433242797852, -2.150817394256592, 3.1300275325775146, 27.735666275024414, -90.97669219970703, -68.75394439697266, -0.05322265625, 0.332275390625, -0.8037109375
293, 4002022156, -14.151785850524902, -0.3859030604362488, 0.6399709582328796, 28.80255889892578, -83.90727996826172, -67.63526916503906, -0.08203125, 0.324462890625, -0.80615234375
294, 4002038823, -13.996330261230469, 1.895654559135437, -2.039008140563965, 24.491352081298828, -66.01737213134766, -51.71967315673828, -0.1083984375, 0.31396484375, -0.8076171875
295, 4002055490, -11.986371040344238, 3.907792568206787, -3.331516981124878, 10.611571311950684, -30.492286682128906, -24.790430068969727, -0.1201171875, 0.31005859375, -0.807861328125
296, 4002072157, -10.857339859008789, 2.918771982192993, -2.119971513748169, -1.9029996395111084, 8.730183601379395, 11.681589126586914, -0.122314453125, 0.309326171875, -0.80322265625
297, 4002088824, -10.310683250427246, 2.453651189804077, 0.034844718873500824, -7.2768778800964355, 36.83510971069336, 46.91453552246094, -0.1142578125, 0.310546875, -0.80615234375
298, 4002105491, -2.427661895751953, -2.14139986038208, 2.6113345623016357, -33.33686065673828, 92.21863555908203, 87.56195068359375, -0.093017578125, 0.31982421875, -0.805908203125
299, 4002122158, -1.4839622974395752, -7.094784736633301, 10.14521598815918, -26.07138442993164, 92.5635986328125, 94.87776947021484, -0.06005859375, 0.3271484375, -0.8056640625
300, 4002138825, -0.7248379588127136, -8.744404792785645, 3.36380934715271, -34.54941177368164, 121.0914535522461, 59.83863067626953, -0.03125, 0.332275390625, -0.799072265625
301, 4002155492, -7.158484935760498, -8.687808990478516, 6.555750370025635, -19.48012351989746, 164.06829833984375, 22.804534912109375, 0.007568359375, 0.338134765625, -0.79443359375
302, 4002172159, -11.876220703125, -3.472400426864624, 11.551897048950195, 5.584099769592285, 142.08042907714844, 22.720928192138672, 0.04296875, 0.3359375, -0.793212890625
303, 4002188826, -12.359701156616211, -0.3984580636024475, 11.892147064208984, 7.736956596374512, 97.48096466064453, 38.93242645263672, 0.071044921875, 0.330810546875, -0.79248046875
304, 4002205493, -8.42375659942627, -4.098541736602783, 8.649958610534668, 2.0005409717559814, 70.27096557617188, 31.545764923095703, 0.092529296875, 0.328369140625, -0.787109375
305, 4002222160, -11.174379348754883, -7.602310657501221, 9.382515907287598, 39.83293151855469, 49.496551513671875, 35.12575912475586, 0.111083984375, 0.322509765625, -0.7880859375
306, 4002238827, -5.884355545043945, -1.398685336112976, 7.77363920211792, 43.877540588378906, 20.40538787841797, 29.00176239013672, 0.119140625, 0.30859375, -0.79248046875
307, 4002255494, -6.761660099029541, -2.5883779525756836, 8.142476081848145, 38.21763229370117, 4.067471027374268, 20.61019515991211, 0.121826171875, 0.296875, -0.79541015625
308, 4002272161, -6.525116443634033, -1.5836230516433716, 8.834346771240234, 29.818056106567383, 0.1644277423620224, 13.487743377685547, 0.12255859375, 0.28955078125, -0.79931640625
309, 4002288828, -6.0435895919799805, -2.5314080715179443, 8.274474143981934, 19.834423065185547, -2.704615831375122, 7.257812023162842, 0.12353515625, 0.283447265625, -0.802734375
310, 4002305495, -5.625621795654297, -2.0187840461730957, 8.271397590637207, 10.239776611328125, -1.7006455659866333, 2.6597328186035156, 0.12158203125, 0.279296875, -0.80517578125
311, 4002322162, -5.407915115356445, -2.183187246322632, 8.118805885314941, 3.330521821975708, 0.8023562431335449, -0.414925754070282, 0.12451171875, 0.280517578125, -0.8037109375
312, 4002338829, -5.275804042816162, -2.5793657302856445, 7.7934393882751465, -0.3692454695701599, 2.363328456878662, -1.3608537912368774, 0.125, 0.279296875, -0.800537109375
313, 4002355496, -5.35940408706665, -2.5761780738830566, 7.802382469177246, -2.240535259246826, 3.721135377883911, -1.5964142084121704, 0.125, 0.279296875, -0.801025390625
314, 4002372163, -5.231354713439941, -2.656212568283081, 7.641534805297852, -2.609114646911621, 4.441184997558594, -1.1555043458938599, 0.12646484375, 0.281494140625, -0.80322265625
315, 4002388830, -5.278175354003906, -2.537736654281616, 7.630407333374023, -2.222273111343384, 5.132945537567139, -0.7734779715538025, 0.129150390625, 0.280517578125, -0.802490234375
316, 4002405497, -5.3497185707092285, -2.481326103210449, 7.616335868835449, -1.735337495803833, 5.164615631103516, -0.7194736003875732, 0.12744140625, 0.281982421875, -0.801025390625
317, 4002422164, -5.377829551696777, -2.485532283782959, 7.627658367156982, -1.3537081480026245, 5.007225513458252, -1.191810131072998, 0.131103515625, 0.281494140625, -0.799560546875
318, 4002438831, -5.289904594421387, -2.5837502479553223, 7.581060409545898, -0.902399480342865, 5.194512367248535, -1.1635593175888062, 0.132080078125, 0.280029296875, -0.800048828125
319, 4002455498, -5.450041770935059, -2.6417479515075684, 7.607038497924805, 0.3521297872066498, 4.17870569229126, -0.31316646933555603, 0.132568359375, 0.278564453125, -0.79736328125
320, 4002472165, -5.539735317230225, -2.6177940368652344, 7.6017560958862305, 0.9443210363388062, 2.616497278213501, -0.07080630958080292, 0.135009765625, 0.279541015625, -0.801025390625
321, 4002488832, -5.523453235626221, -2.5110676288604736, 7.677682399749756, 0.7858232259750366, 1.5574058294296265, -0.15438053011894226, 0.135498046875, 0.281982421875, -0.7998046875
322, 4002505499, -5.400610446929932, -2.4446609020233154, 7.718786239624023, -0.22865742444992065, 1.5192878246307373, -0.7764106392860413, 0.135009765625, 0.283447265625, -0.798828125
323, 4002522166, -5.316292762756348, -2.586366653442383, 7.643605709075928, -0.9325071573257446, 2.1161916255950928, -0.7002000212669373, 0.135009765625, 0.281982421875, -0.799560546875
324, 4002538833, -5.347118377685547, -2.63247013092041, 7.63374662399292, -1.1027932167053223, 2.864562749862671, -0.3720756769180298, 0.134521484375, 0.281005859375, -0.800048828125
325, 4002555500, -5.305479049682617, -2.7116200923919678, 7.585205554962158, -0.9034753441810608, 3.8488402366638184, 0.13617634773254395, 0.135498046875, 0.279541015625, -0.7998046875
326, 4002572167, -5.304315090179443, -2.733107805252075, 7.487504959106445, 0.032893113791942596, 3.7600409984588623, 1.434292197227478, 0.136962890625, 0.279052734375, -0.798828125
327, 4002588834, -5.212891578674316, -2.743013620376587, 7.5539093017578125, 0.9094365835189819, 3.4133729934692383, 3.0979526042938232, 0.13818359375, 0.279541015625, -0.80224609375
328, 4002605501, -5.084657669067383, -2.711214065551758, 7.773155212402344, 0.40656962990760803, 5.013833522796631, 5.234602451324463, 0.14208984375, 0.277587890625, -0.80126953125
329, 4002622168, -5.303809642791748, -2.5782382488250732, 7.827054500579834, -3.333685874938965, 7.755616664886475, 6.753007888793945, 0.1435546875, 0.278076171875, -0.79931640625
330, 4002638835, -5.480777263641357, -2.378934860229492, 7.841500759124756, -6.267050266265869, 14.94864273071289, 6.052050590515137, 0.14794921875, 0.279541015625, -0.799560546875
331, 4002655502, -5.378958225250244, -2.185770034790039, 7.852275371551514, -11.191417694091797, 22.84272575378418, 5.363401412963867, 0.151611328125, 0.281005859375, -0.795166015625
332, 4002672169, -5.037437438964844, -2.17466139793396, 8.201269149780273, -21.839401245117188, 31.842056274414062, 8.67821216583252, 0.159423828125, 0.2841796875, -0.791015625
333, 4002688836, -4.805079936981201, -3.1065452098846436, 8.197611808776855, -24.410144805908203, 44.0466194152832, 12.820871353149414, 0.170166015625, 0.291259765625, -0.787841796875
334, 4002705503, -5.015326023101807, -2.3580222129821777, 8.5449857711792, -19.501142501831055, 71.18455505371094, 11.704463005065918, 0.184814453125, 0.29345703125, -0.783447265625
335, 4002722170, -4.8675665855407715, -2.721080780029297, 8.710236549377441, -26.00992774963379, 99.29155731201172, 16.369205474853516, 0.2080078125, 0.299072265625, -0.77490234375
336, 4002738837, -5.301377773284912, -2.316074848175049, 8.421592712402344, -32.723472595214844, 129.99777221679688, 18.103572845458984, 0.2353515625, 0.302001953125, -0.764404296875
337, 4002755504, -5.569977283477783, -2.2229623794555664, 8.064850807189941, -42.024932861328125, 163.30711364746094, 16.903013229370117, 0.267333984375, 0.309814453125, -0.746826171875
338, 4002772171, -5.526967525482178, -2.4266512393951416, 8.238666534423828, -51.32630920410156, 202.07595825195312, 19.441078186035156, 0.3115234375, 0.318603515625, -0.722412109375
339, 4002788838, -5.116250038146973, -4.010560035705566, 8.36640739440918, -55.2568359375, 248.4927215576172, 30.88037109375, 0.363037109375, 0.3271484375, -0.691162109375
340, 4002805505, -5.250394344329834, -4.444141387939453, 7.68211555480957, -46.20138931274414, 300.74407958984375, 54.104888916015625, 0.41943359375, 0.330078125, -0.651611328125
341, 4002822172, -7.1977128982543945, -5.717585563659668, 8.175101280212402, -37.011932373046875, 358.61285400390625, 88.23692321777344, 0.48779296875, 0.322998046875, -0.597900390625
342, 4002838839, -10.029452323913574, -5.651765823364258, 9.579257011413574, -32.140174865722656, 380.22955322265625, 126.21993255615234, 0.562744140625, 0.308837890625, -0.533447265625
343, 4002855506, -19.71086883544922, -5.643927574157715, 12.17637825012207, -55.88692855834961, 392.1300048828125, 129.4407501220703, 0.62890625, 0.29052734375, -0.455322265625
344, 4002872173, -20.972436904907227, -8.533651351928711, 12.254638671875, -47.4775505065918, 317.6174011230469, 131.92239379882812, 0.681884765625, 0.270263671875, -0.38134765625
345, 4002888840, -16.44485092163086, -8.150214195251465, 14.034576416015625, -28.718595504760742, 227.80709838867188, 144.95687866210938, 0.72021484375, 0.243896484375, -0.322021484375
346, 4002905507, -2.177170753479004, -9.922565460205078, 12.975719451904297, 12.308704376220703, 187.26382446289062, 165.75811767578125, 0.744140625, 0.205322265625, -0.27783203125
347, 4002922174, -9.694437980651855, -13.523879051208496, 18.392784118652344, 60.346961975097656, 179.9224090576172, 124.13053131103516, 0.76611328125, 0.16796875, -0.226318359375
348, 4002938841, -11.942693710327148, -12.085870742797852, 24.209373474121094, 86.42403411865234, -17.202383041381836, 14.749917984008789, 0.771484375, 0.14697265625, -0.214111328125
349, 4002955508, -0.8413715958595276, -7.201855182647705, 16.01089859008789, 106.70487976074219, -168.0547637939453, -42.61251449584961, 0.7666015625, 0.14501953125, -0.23828125
350, 4002972175, 4.993155002593994, -3.277209520339966, 9.55122184753418, 111.15660095214844, -204.63037109375, -47.86836624145508, 0.76220703125, 0.14404296875, -0.27685546875
351, 4002988842, 5.273275375366211, -0.42806175351142883, 7.120412349700928, 89.24044036865234, -193.32962036132812, -41.04838562011719, 0.759765625, 0.142578125, -0.3134765625
352, 4003005509, 2.7877235412597656, 0.5584284067153931, 6.9912428855896, 41.685890197753906, -179.2945098876953, -40.25138473510742, 0.76806640625, 0.143798828125, -0.358154296875
353, 4003022176, -0.5816410183906555, -0.608443558216095, 7.540227890014648, -2.715315818786621, -177.76026916503906, -41.163822174072266, 0.771484375, 0.155517578125, -0.412841796875
354, 4003038843, -3.286362886428833, -2.2382662296295166, 8.042479515075684, -20.380556106567383, -190.68092346191406, -38.27241134643555, 0.763427734375, 0.170166015625, -0.48291015625
355, 4003055510, -5.452314376831055, -2.944157838821411, 8.641258239746094, -22.352285385131836, -209.1908721923828, -36.57074737548828, 0.726806640625, 0.18359375, -0.5654296875
356, 4003072177, -7.373988151550293, -3.2540740966796875, 9.220561027526855, -25.357322692871094, -229.88990783691406, -42.31664276123047, 0.659423828125, 0.194580078125, -0.629638671875
357, 4003088844, -9.173892974853516, -3.6551456451416016, 9.692602157592773, -32.281490325927734, -250.1045684814453, -52.853431701660156, 0.5869140625, 0.20068359375, -0.67138671875
358, 4003105511, -10.486939430236816, -4.09839391708374, 10.064680099487305, -39.89834976196289, -269.40338134765625, -62.580448150634766, 0.5234375, 0.2158203125, -0.7001953125
359, 4003122178, -11.696086883544922, -4.424069404602051, 10.116204261779785, -49.71951675415039, -284.3548278808594, -72.3093490600586, 0.476806640625, 0.2421875, -0.733642578125
360, 4003138845, -12.214385032653809, -4.737817287445068, 9.938694953918457, -61.678226470947266, -288.66302490234375, -81.93681335449219, 0.4228515625, 0.279541015625, -0.78515625
361, 4003155512, -12.632465362548828, -5.243397235870361, 10.270035743713379, -75.62300109863281, -275.3140869140625, -92.39443969726562, 0.3369140625, 0.326171875, -0.83740234375
362, 4003172179, -15.368471145629883, -7.088139057159424, 11.308887481689453, -81.53097534179688, -250.60980224609375, -103.77597045898438, 0.22705078125, 0.364013671875, -0.851806640625
363, 4003188846, -20.568862915039062, -6.301402568817139, 11.349774360656738, -81.76372528076172, -240.04934692382812, -130.77301025390625, 0.121826171875, 0.390625, -0.840576171875
364, 4003205513, -23.270950317382812, -6.273635387420654, 8.285994529724121, -72.80390167236328, -244.3450164794922, -157.02662658691406, 0.034912109375, 0.40283203125, -0.81494140625
365, 4003222180, -24.760990142822266, -4.987137794494629, 3.946446180343628, -40.174190521240234, -244.67295837402344, -151.7163543701172, -0.041259765625, 0.40380859375, -0.794921875
366, 4003238847, -24.643733978271484, -0.7933200597763062, -0.8093030452728271, -21.83881950378418, -226.83966064453125, -129.9585418701172, -0.105224609375, 0.398681640625, -0.778564453125
367, 4003255514, -26.677350997924805, 5.606943130493164, -6.384446144104004, -36.907962799072266, -186.8463134765625, -112.44392395019531, -0.160400390625, 0.39404296875, -0.760498046875
368, 4003272181, -30.801565170288086, 13.902190208435059, -14.973518371582031, -86.61099243164062, -136.3390350341797, -98.4212646484375, -0.203369140625, 0.402587890625, -0.742431640625
369, 4003288848, -16.686325073242188, 8.1858549118042, -19.505563735961914, -77.64373016357422, -14.900588989257812, 12.435574531555176, -0.212646484375, 0.41650390625, -0.724609375
370, 4003305515, -16.913698196411133, 2.7647905349731445, -11.655637741088867, 18.387527465820312, 105.53601837158203, 146.4694366455078, -0.182373046875, 0.42138671875, -0.72216796875
371, 4003322182, -20.879241943359375, -1.3608012199401855, -1.3198723793029785, 88.33842468261719, 142.661865234375, 161.5220184326172, -0.13330078125, 0.40771484375, -0.735107421875
372, 4003338849, -11.906977653503418, -9.157029151916504, 11.280848503112793, 89.83802795410156, 127.17487335205078, 83.58003997802734, -0.093994140625, 0.387451171875, -0.74462890625
373, 4003355516, 3.6808769702911377, -7.10827112197876, 5.9331231117248535, 68.8515625, 133.1646270751953, 26.650222778320312, -0.06396484375, 0.37109375, -0.75146484375
374, 4003372183, -4.130255699157715, 6.332580089569092, 10.091815948486328, 54.8253059387207, 208.93792724609375, 57.38883590698242, -0.019775390625, 0.35205078125, -0.75341796875
375, 4003388850, -23.74180793762207, -2.361886978149414, 18.366235733032227, 43.27838897705078, 160.7034912109375, 81.41519165039062, 0.0283203125, 0.34326171875, -0.75146484375
376, 4003405517, -19.283903121948242, -5.201001167297363, 6.984963417053223, 83.7817611694336, 29.491859436035156, 60.81049346923828, 0.046630859375, 0.32177734375, -0.7587890625
377, 4003422184, -6.35368013381958, -0.16111114621162415, 11.92660903930664, 60.08740997314453, 24.626052856445312, 39.51825714111328, 0.056396484375, 0.303955078125, -0.763427734375
378, 4003438851, -7.970590114593506, -1.6310443878173828, 8.403315544128418, 38.21668243408203, 7.622590065002441, 21.25510597229004, 0.0625, 0.296875, -0.765869140625
379, 4003455518, -6.276751518249512, -2.1202478408813477, 8.571630477905273, 20.883399963378906, 1.3286933898925781, 9.032034873962402, 0.06005859375, 0.290283203125, -0.768798828125
380, 4003472185, -6.191283226013184, -2.5889084339141846, 8.032246589660645, 12.171981811523438, 0.7198964953422546, 3.619230270385742, 0.062744140625, 0.286865234375, -0.770751953125
381, 4003488852, -5.699825286865234, -2.7682104110717773, 7.810464859008789, 7.581596374511719, -0.3615745007991791, 2.6581437587738037, 0.061279296875, 0.2841796875, -0.768798828125
382, 4003505519, -5.585772514343262, -2.4862661361694336, 7.772589206695557, 4.034384727478027, 0.2807152271270752, 2.0879476070404053, 0.06005859375, 0.28369140625, -0.771728515625
383, 4003522186, -5.545669078826904, -2.3777658939361572, 7.8608808517456055, 0.6147752404212952, 2.116307020187378, 0.44605159759521484, 0.063232421875, 0.28271484375, -0.766845703125
384, 4003538853, -5.4026007652282715, -2.4958786964416504, 7.662055015563965, -0.9021177291870117, 4.107976913452148, -0.42152100801467896, 0.064208984375, 0.2802734375, -0.768310546875
385, 4003555520, -5.476046562194824, -2.5916340351104736, 7.525588512420654, -1.5753604173660278, 5.062011241912842, -1.053617000579834, 0.065673828125, 0.283447265625, -0.766845703125
386, 4003572187, -5.417584419250488, -2.714303493499756, 7.369390964508057, -0.919291079044342, 4.594630718231201, -0.7826473712921143, 0.065185546875, 0.283935546875, -0.769287109375
387, 4003588854, -5.308859825134277, -2.940699815750122, 7.304172992706299, 2.095247268676758, 3.0255391597747803, 1.4471945762634277, 0.067626953125, 0.28271484375, -0.768798828125
388, 4003605521, -5.405747413635254, -3.0228018760681152, 7.158666610717773, 6.72735071182251, 0.07938017696142197, 4.703088760375977, 0.067626953125, 0.28173828125, -0.768798828125
389, 4003622188, -5.509397506713867, -2.8749539852142334, 7.168849468231201, 13.329252243041992, -6.286860942840576, 8.126885414123535, 0.068359375, 0.27783203125, -0.771240234375
390, 4003638855, -5.600238800048828, -3.190915107727051, 7.028420448303223, 25.756755828857422, -18.3678035736084, 13.58027458190918, 0.06982421875, 0.2734375, -0.772705078125
391, 4003655522, -5.413922309875488, -3.090928792953491, 7.358880519866943, 35.98656463623047, -30.336849212646484, 17.937585830688477, 0.0615234375, 0.265625, -0.774169921875
392, 4003672189, -5.397989273071289, -1.9522358179092407, 8.217547416687012, 29.122602462768555, -29.332185745239258, 16.401264190673828, 0.0556640625, 0.258056640625, -0.77685546875
393, 4003688856, -5.216370105743408, -1.6032664775848389, 8.3217191696167, 17.163026809692383, -17.95000457763672, 11.607616424560547, 0.05224609375, 0.251953125, -0.77880859375
394, 4003705523, -5.1956257820129395, -1.7168248891830444, 8.149285316467285, 10.165515899658203, -8.793974876403809, 8.389697074890137, 0.05078125, 0.2490234375, -0.78271484375
395, 4003722190, -5.2515106201171875, -1.8477572202682495, 8.000714302062988, 4.9765238761901855, -3.2249794006347656, 6.32773494720459, 0.0498046875, 0.24560546875, -0.783935546875
396, 4003738857, -5.1278204917907715, -2.2750351428985596, 7.944014072418213, 2.100663900375366, 0.8547983169555664, 5.403140068054199, 0.04931640625, 0.24951171875, -0.78125
397, 4003755524, -5.081904888153076, -2.625044345855713, 7.92733907699585, 0.9320463538169861, 4.991915702819824, 6.750637054443359, 0.05126953125, 0.244873046875, -0.783203125
398, 4003772191, -5.216984272003174, -2.2991087436676025, 8.060561180114746, -2.688131332397461, 10.354920387268066, 7.891937255859375, 0.05517578125, 0.24560546875, -0.78173828125
399, 4003788858, -5.008953094482422, -1.9480475187301636, 8.246661186218262, -8.333605766296387, 18.76747703552246, 8.61911678314209, 0.057861328125, 0.2470703125, -0.779541015625
400, 4003805525, -4.9070539474487305, -2.0796098709106445, 8.26101016998291, -9.997713088989258, 31.71797752380371, 8.642175674438477, 0.064697265625, 0.248046875, -0.777099609375
401, 4003822192, -4.49254035949707, -1.7255536317825317, 8.941079139709473, -10.144514083862305, 52.85157012939453, 7.033601760864258, 0.0751953125, 0.249267578125, -0.77734375
402, 4003838859, -4.75794792175293, -1.8259902000427246, 9.021711349487305, -13.945718765258789, 83.02696228027344, 3.0399892330169678, 0.093994140625, 0.25146484375, -0.77197265625
403, 4003855526, -4.504693031311035, -2.783052444458008, 9.126435279846191, -22.584108352661133, 115.13792419433594, 9.303115844726562, 0.116455078125, 0.255126953125, -0.7666015625
404, 4003872193, -4.9190592765808105, -2.279360294342041, 9.287287712097168, -27.723976135253906, 152.5587615966797, 19.88035774230957, 0.150390625, 0.259521484375, -0.75927734375
405, 4003888860, -4.555468559265137, -2.464533567428589, 9.87289810180664, -33.215789794921875, 203.23025512695312, 31.388561248779297, 0.193115234375, 0.266357421875, -0.741455078125
406, 4003905527, -4.540544509887695, -3.719747543334961, 10.141655921936035, -36.02119445800781, 273.7091979980469, 50.12734603881836, 0.2529296875, 0.268310546875, -0.71923828125
407, 4003922194, -5.166043281555176, -5.060787200927734, 10.607837677001953, -27.751617431640625, 347.7747497558594, 92.53466033935547, 0.3251953125, 0.266357421875, -0.6865234375
408, 4003938861, -6.094351291656494, -4.387724876403809, 11.252147674560547, -34.28310012817383, 407.0572204589844, 139.42677307128906, 0.41064453125, 0.25634765625, -0.635498046875
409, 4003955528, -14.964284896850586, -6.1385955810546875, 14.838000297546387, -44.97996520996094, 446.2032165527344, 167.38348388671875, 0.50244140625, 0.239501953125, -0.56396484375
410, 4003972195, -18.680856704711914, -7.367691993713379, 16.26548957824707, -46.915470123291016, 422.0594177246094, 160.64865112304688, 0.585205078125, 0.2177734375, -0.48779296875
411, 4003988862, -19.39499282836914, -6.490267753601074, 16.962472915649414, -38.152496337890625, 344.9051208496094, 154.21263122558594, 0.648193359375, 0.189697265625, -0.41650390625
412, 4004005529, -7.645709991455078, -6.341869831085205, 16.671932220458984, -33.425628662109375, 272.7626953125, 154.3836669921875, 0.691162109375, 0.15771484375, -0.35009765625
413, 4004022196, -5.093358993530273, -14.806795120239258, 17.506458282470703, -11.113109588623047, 227.72598266601562, 107.36918640136719, 0.722900390625, 0.1259765625, -0.2919921875
414, 4004038863, -14.38632583618164, -17.506059646606445, 26.36699867248535, 25.259775161743164, -1.4474562406539917, -23.276147842407227, 0.735107421875, 0.1171875, -0.275146484375
415, 4004055530, 2.4822258949279785, -11.178452491760254, 14.616340637207031, 91.67979431152344, -137.83787536621094, -83.95787811279297, 0.72705078125, 0.12109375, -0.29638671875
416, 4004072197, 6.175543308258057, -4.348618507385254, 9.279443740844727, 119.54672241210938, -154.82948303222656, -92.65154266357422, 0.720947265625, 0.124267578125, -0.327880859375
417, 4004088864, 4.066632270812988, -1.2468833923339844, 8.304492950439453, 94.88623046875, -153.9751739501953, -97.98809051513672, 0.712890625, 0.1328125, -0.361572265625
418, 4004105531, 1.0789868831634521, -0.49552440643310547, 8.459187507629395, 51.741214752197266, -164.40768432617188, -106.09624481201172, 0.69873046875, 0.147705078125, -0.404296875
419, 4004122198, -1.4694565534591675, -0.9967652559280396, 8.456344604492188, 17.312925338745117, -182.71957397460938, -109.03527069091797, 0.678466796875, 0.169921875, -0.455322265625
420, 4004138865, -4.2543134689331055, -1.8969793319702148, 8.567553520202637, 3.9933793544769287, -207.53782653808594, -105.26515197753906, 0.63134765625, 0.19921875, -0.509765625
421, 4004155532, -7.228569984436035, -2.3025519847869873, 8.498045921325684, 5.314151763916016, -240.13819885253906, -99.08401489257812, 0.565185546875, 0.2158203125, -0.554931640625
422, 4004172199, -8.999181747436523, -2.330394983291626, 8.345612525939941, 8.997699737548828, -273.30206298828125, -94.28617858886719, 0.484375, 0.2177734375, -0.586669921875
423, 4004188866, -9.506237030029297, -2.579643726348877, 8.236309051513672, 7.9215407371521, -295.82574462890625, -93.4556884765625, 0.40234375, 0.2119140625, -0.598388671875
424, 4004205533, -10.229936599731445, -3.1066341400146484, 8.713166236877441, 1.40273118019104, -305.1392517089844, -96.60438537597656, 0.341796875, 0.1923828125, -0.598388671875
425, 4004222200, -11.37384033203125, -3.121347665786743, 9.469076156616211, -14.717788696289062, -306.7845153808594, -103.00520324707031, 0.314697265625, 0.16845703125, -0.57763671875
426, 4004238867, -13.448759078979492, -3.1907050609588623, 10.472941398620605, -44.35017395019531, -299.49664306640625, -110.42410278320312, 0.338134765625, 0.156494140625, -0.56298828125
427, 4004255534, -16.97600746154785, -4.888934135437012, 10.648887634277344, -70.12689208984375, -283.494873046875, -119.40524291992188, 0.41064453125, 0.185791015625, -0.611083984375
428, 4004272201, -22.277597427368164, -7.197582721710205, 9.805456161499023, -66.36820220947266, -272.5383605957031, -131.42701721191406, 0.443359375, 0.2685546875, -0.723388671875
429, 4004288868, -27.07748031616211, -8.198172569274902, 7.127185344696045, -23.701187133789062, -277.41253662109375, -132.96905517578125, 0.374755859375, 0.360595703125, -0.84033203125
430, 4004305535, -30.464685440063477, -5.627957820892334, 2.65065860748291, 30.651226043701172, -295.9665832519531, -108.75577545166016, 0.23583984375, 0.413330078125, -0.90478515625
431, 4004322202, -29.709049224853516, 1.477418065071106, -3.7897233963012695, 34.47551727294922, -299.7026062011719, -76.31166076660156, 0.099853515625, 0.430419921875, -0.924560546875
432, 4004338869, -25.391637802124023, 7.49152946472168, -10.80267333984375, -13.475393295288086, -243.6547088623047, -38.065067291259766, -0.008056640625, 0.444580078125, -0.9228515625
433, 4004355536, -26.13795280456543, 9.709538459777832, -15.642473220825195, -48.60224914550781, -144.71969604492188, 7.18589448928833, -0.071044921875, 0.465576171875, -0.908935546875
434, 4004372203, -23.10694694519043, 7.35918664932251, -15.242231369018555, -35.96951675415039, -27.304901123046875, 63.68165969848633, -0.092041015625, 0.487060546875, -0.900390625
435, 4004388870, -16.058290481567383, 5.699544906616211, -12.750468254089355, 28.371755599975586, 110.82376098632812, 140.99803161621094, -0.05908203125, 0.495849609375, -0.9052734375
436, 4004405537, -7.473283767700195, -11.927857398986816, 12.353525161743164, 29.310237884521484, 153.7760009765625, 113.12796020507812, -7.32421875E-4, 0.495849609375, -0.916259765625
437, 4004422204, -1.2988654375076294, -13.160820960998535, 6.234586715698242, 42.95766067504883, 136.95706176757812, 67.40470886230469, 0.041259765625, 0.49072265625, -0.92333984375
438, 4004438871, -5.274170875549316, -0.7730924487113953, 6.738790988922119, 23.150922775268555, 209.68426513671875, 32.06133270263672, 0.093505859375, 0.49169921875, -0.921630859375
439, 4004455538, -15.668913841247559, 1.0750181674957275, 15.311169624328613, 17.15953826904297, 188.06956481933594, 31.88187599182129, 0.15087890625, 0.49462890625, -0.918701171875
440, 4004472205, -11.989140510559082, 0.21158136427402496, 11.66027545928955, 6.835611343383789, 120.50222778320312, 61.038108825683594, 0.192138671875, 0.49658203125, -0.912353515625
441, 4004488872, -12.474933624267578, -12.008478164672852, 9.40904426574707, 37.46372985839844, 95.39131927490234, 68.79133605957031, 0.22705078125, 0.493896484375, -0.909423828125
442, 4004505539, -11.025931358337402, -0.4180556535720825, 8.507112503051758, 57.3427734375, 42.06785583496094, 40.46635818481445, 0.248291015625, 0.474365234375, -0.916015625
443, 4004522206, -7.125906944274902, -2.300229787826538, 9.266461372375488, 35.13028335571289, 20.0573787689209, 26.196165084838867, 0.260498046875, 0.46142578125, -0.920654296875
444, 4004538873, -6.0777907371521, -1.8889483213424683, 8.661392211914062, 29.09474754333496, 14.933073043823242, 17.62636375427246, 0.267578125, 0.453369140625, -0.924072265625
445, 4004555540, -6.125998497009277, -2.4266393184661865, 8.05443000793457, 20.228395462036133, 7.946798801422119, 11.894403457641602, 0.269287109375, 0.449951171875, -0.923828125
446, 4004572207, -5.900008678436279, -2.658024787902832, 7.7941789627075195, 16.762008666992188, 5.119434833526611, 8.84252643585205, 0.273681640625, 0.44287109375, -0.92724609375
447, 4004588874, -5.772538661956787, -2.538857936859131, 8.17087459564209, 12.417794227600098, 3.8774774074554443, 6.652947902679443, 0.2734375, 0.4384765625, -0.92822265625
448, 4004605541, -5.665583610534668, -2.5938918590545654, 7.863048553466797, 9.410987854003906, 3.549044609069824, 5.112841606140137, 0.27783203125, 0.43701171875, -0.9306640625
449, 4004622208, -5.565515041351318, -2.4837899208068848, 7.7883453369140625, 5.980233192443848, 3.741119623184204, 3.994326591491699, 0.2783203125, 0.432861328125, -0.9296875
450, 4004638875, -5.563085556030273, -2.748842239379883, 7.554070472717285, 4.309983253479004, 3.7021560668945312, 3.7288830280303955, 0.280029296875, 0.432373046875, -0.9306640625
451, 4004655542, -5.469470500946045, -2.6885039806365967, 7.585513114929199, 3.7534072399139404, 4.448036193847656, 4.205752849578857, 0.280029296875, 0.430908203125, -0.931640625
452, 4004672209, -5.517487049102783, -2.4978861808776855, 7.600855827331543, 3.1946144104003906, 4.795382976531982, 4.555622100830078, 0.283935546875, 0.431396484375, -0.929931640625
453, 4004688876, -5.5034565925598145, -2.5729827880859375, 7.463609218597412, 3.7111330032348633, 4.133947849273682, 4.589457035064697, 0.286376953125, 0.428466796875, -0.931396484375
454, 4004705543, -5.451481342315674, -2.7101497650146484, 7.3915181159973145, 5.534579753875732, 3.1687846183776855, 5.295382022857666, 0.28857421875, 0.429443359375, -0.930908203125
455, 4004722210, -5.5812578201293945, -2.5672593116760254, 7.431762218475342, 6.8994669914245605, 1.0136675834655762, 5.5665693283081055, 0.28955078125, 0.422607421875, -0.932373046875
456, 4004738877, -5.643976211547852, -2.448575973510742, 7.443777084350586, 7.580663204193115, -1.1987003087997437, 5.259512424468994, 0.2900390625, 0.4208984375, -0.932861328125
457, 4004755544, -5.627328395843506, -2.391378164291382, 7.538538455963135, 7.881983757019043, -2.9825611114501953, 4.490746021270752, 0.291015625, 0.421630859375, -0.932861328125
458, 4004772211, -5.572697639465332, -2.4035143852233887, 7.5913567543029785, 7.8398895263671875, -3.5832555294036865, 3.5552802085876465, 0.28857421875, 0.4208984375, -0.9384765625
459, 4004788878, -5.4887261390686035, -2.4507975578308105, 7.618170261383057, 7.81476354598999, -3.8449153900146484, 3.398402452468872, 0.2880859375, 0.41748046875, -0.93896484375
460, 4004805545, -5.489812850952148, -2.3139631748199463, 7.733975887298584, 6.581357479095459, -3.879108190536499, 3.109811305999756, 0.2861328125, 0.4150390625, -0.9384765625
461, 4004822212, -5.457728862762451, -2.3320226669311523, 7.673285484313965, 4.848221778869629, -3.595254898071289, 3.1514060497283936, 0.286865234375, 0.410888671875, -0.939208984375
462, 4004838879, -5.462034702301025, -2.2204341888427734, 7.726027488708496, 3.258326530456543, -2.810328245162964, 2.935594081878662, 0.285888671875, 0.409912109375, -0.93896484375
463, 4004855546, -5.360513687133789, -2.3362410068511963, 7.8156328201293945, 0.995213508605957, -0.6430836915969849, 2.173602819442749, 0.284912109375, 0.408935546875, -0.939453125
464, 4004872213, -5.297855377197266, -2.5058534145355225, 7.825767993927002, -0.6891610026359558, 2.6631128787994385, 2.7349565029144287, 0.288818359375, 0.410888671875, -0.940673828125
465, 4004888880, -5.249460220336914, -2.4275481700897217, 7.7728071212768555, -1.8639005422592163, 6.974301338195801, 3.450005531311035, 0.289306640625, 0.410888671875, -0.937744140625
466, 4004905547, -5.279696464538574, -2.382158041000366, 7.820920467376709, -3.7315995693206787, 12.623674392700195, 5.089963912963867, 0.293212890625, 0.409912109375, -0.939208984375
467, 4004922214, -5.27047061920166, -2.171220064163208, 7.886706352233887, -6.675434589385986, 19.633726119995117, 7.210729122161865, 0.297119140625, 0.412109375, -0.93310546875
468, 4004938881, -5.063973426818848, -2.646462917327881, 8.176069259643555, -11.95910930633545, 26.58894157409668, 11.846451759338379, 0.30615234375, 0.41259765625, -0.931396484375
469, 4004955548, -4.751265525817871, -1.9524540901184082, 8.710514068603516, -3.7976760864257812, 51.51481628417969, 6.814848899841309, 0.318115234375, 0.414794921875, -0.927734375
470, 4004972215, -4.426039695739746, -3.263291835784912, 8.853377342224121, -10.398340225219727, 77.32064819335938, 13.380908966064453, 0.338134765625, 0.41650390625, -0.920654296875
471, 4004988882, -4.613611221313477, -2.573608160018921, 9.160684585571289, -15.402338027954102, 110.80010986328125, 22.002309799194336, 0.365966796875, 0.41748046875, -0.9052734375
472, 4005005549, -4.865603923797607, -2.79343318939209, 9.766861915588379, -22.299407958984375, 157.81298828125, 30.292739868164062, 0.40771484375, 0.42236328125, -0.88037109375
473, 4005022216, -4.026744365692139, -5.089479923248291, 10.75406265258789, -12.953051567077637, 214.46949768066406, 52.463321685791016, 0.46044921875, 0.421875, -0.8525390625
474, 4005038883, -5.172399520874023, -5.420700550079346, 10.45698070526123, -5.05732536315918, 280.3094482421875, 93.61503601074219, 0.528076171875, 0.40869140625, -0.80859375
475, 4005055550, -7.189162254333496, -4.867609977722168, 11.724735260009766, -0.18116720020771027, 334.0309753417969, 148.92202758789062, 0.6162109375, 0.3876953125, -0.749755859375
476, 4005072217, -9.792905807495117, -4.623182773590088, 12.521156311035156, -9.370588302612305, 374.8038635253906, 186.4259796142578, 0.704345703125, 0.3515625, -0.673095703125
477, 4005088884, -16.493995666503906, -6.188225746154785, 13.22234058380127, -29.12896156311035, 357.15667724609375, 186.64427185058594, 0.78662109375, 0.31396484375, -0.585205078125
478, 4005105551, -17.89249038696289, -5.617882251739502, 14.219623565673828, -33.68589401245117, 289.76678466796875, 175.40296936035156, 0.843994140625, 0.274169921875, -0.507568359375
479, 4005122218, -9.347090721130371, -6.66612434387207, 11.9753999710083, -9.279793739318848, 229.63320922851562, 174.20216369628906, 0.881591796875, 0.23046875, -0.441162109375
480, 4005138885, -8.702852249145508, -10.55168342590332, 16.85877227783203, -0.42968443036079407, 170.18963623046875, 131.06871032714844, 0.902587890625, 0.187255859375, -0.389892578125
481, 4005155552, -7.274425506591797, -11.0878324508667, 19.011051177978516, -6.583136081695557, 21.465940475463867, 44.553466796875, 0.904296875, 0.173583984375, -0.381591796875
482, 4005172219, 1.934816598892212, -8.595670700073242, 11.171439170837402, 18.150115966796875, -54.08251190185547, -4.101524353027344, 0.887451171875, 0.175048828125, -0.39404296875
483, 4005188886, 3.872347831726074, -4.973626613616943, 7.859630107879639, 34.996456146240234, -74.88906860351562, -27.28201675415039, 0.870849609375, 0.18212890625, -0.4150390625
484, 4005205553, 2.805427074432373, -2.9671638011932373, 7.187619209289551, 23.019968032836914, -85.34590911865234, -49.48100280761719, 0.8505859375, 0.196044921875, -0.442138671875
485, 4005222220, 1.1809067726135254, -2.608631134033203, 7.088791847229004, 2.969876527786255, -98.03453063964844, -71.63296508789062, 0.828369140625, 0.219970703125, -0.4677734375
486, 4005238887, -0.6549387574195862, -3.084393262863159, 7.097055435180664, -2.088380813598633, -112.84639739990234, -88.62456512451172, 0.802978515625, 0.2490234375, -0.499755859375
487, 4005255554, -2.9614317417144775, -3.4840638637542725, 7.588561058044434, 10.807860374450684, -132.66676330566406, -100.71176147460938, 0.769775390625, 0.278076171875, -0.5380859375
488, 4005272221, -5.195508003234863, -3.28981876373291, 8.134232521057129, 27.165071487426758, -160.31912231445312, -113.80327606201172, 0.722900390625, 0.307373046875, -0.578369140625
489, 4005288888, -6.126748561859131, -2.8036348819732666, 7.762749195098877, 37.47187805175781, -188.42080688476562, -128.22630310058594, 0.66064453125, 0.3349609375, -0.627197265625
490, 4005305555, -5.96191930770874, -2.0365405082702637, 6.578942775726318, 41.2027587890625, -203.04283142089844, -135.33924865722656, 0.587646484375, 0.34912109375, -0.66943359375
491, 4005322222, -6.1473846435546875, -0.9663189053535461, 5.823673248291016, 36.40259552001953, -195.8855438232422, -131.2010040283203, 0.513427734375, 0.3544921875, -0.702392578125
492, 4005338889, -8.132048606872559, -0.6070975661277771, 7.095620632171631, 19.24847984313965, -180.84986877441406, -122.82865905761719, 0.445068359375, 0.357421875, -0.7275390625
493, 4005355556, -9.655190467834473, -1.5072160959243774, 8.776411056518555, -2.396486759185791, -178.49903869628906, -114.78441619873047, 0.378173828125, 0.357421875, -0.745361328125
494, 4005372223, -11.34862995147705, -2.733088731765747, 10.232919692993164, -20.83832550048828, -187.72406005859375, -104.17143249511719, 0.31201171875, 0.3544921875, -0.747802734375
495, 4005388890, -13.23044490814209, -4.172080993652344, 10.690147399902344, -34.88884735107422, -204.0253143310547, -97.46520233154297, 0.248291015625, 0.34619140625, -0.742431640625
496, 4005405557, -15.023519515991211, -6.495326519012451, 10.911142349243164, -38.27867126464844, -220.75111389160156, -96.18990325927734, 0.195556640625, 0.33935546875, -0.7294921875
497, 4005422224, -16.808576583862305, -7.620190143585205, 9.91386604309082, -29.212921142578125, -239.6190185546875, -106.4586410522461, 0.152099609375, 0.333740234375, -0.72607421875
498, 4005438891, -14.416217803955078, -5.8200836181640625, 6.829835414886475, -18.935468673706055, -239.0242462158203, -112.78094482421875, 0.10498046875, 0.326416015625, -0.72412109375
499, 4005455558, -14.126157760620117, -2.339073896408081, 5.606021881103516, -35.42079544067383, -201.53366088867188, -106.4689712524414, 0.071044921875, 0.323974609375, -0.724365234375
500, 4005472225, -16.485902786254883, -0.6534188985824585, 5.347658157348633, -77.17756652832031, -165.29092407226562, -99.10941314697266, 0.04248046875, 0.333740234375, -0.721435546875
501, 4005488892, -18.74605941772461, 0.8854768872261047, 3.977216958999634, -114.4852294921875, -148.1171875, -89.1731948852539, 0.01708984375, 0.352783203125, -0.718017578125
502, 4005505559, -19.999547958374023, 3.673093795776367, 0.3692455589771271, -137.52096557617188, -136.58985900878906, -70.77548217773438, -0.006103515625, 0.377685546875, -0.715087890625
503, 4005522226, -24.71365737915039, 7.718325138092041, -5.404024124145508, -146.3575897216797, -126.66581726074219, -42.39262008666992, -0.031982421875, 0.40869140625, -0.71142578125
504, 4005538893, -21.163734436035156, 6.27807092666626, -9.504839897155762, -123.9870834350586, -110.8632583618164, 23.749164581298828, -0.052001953125, 0.438720703125, -0.699951171875
505, 4005555560, -13.286748886108398, 3.347565174102783, -7.231820583343506, -68.84697723388672, -65.71192169189453, 122.86428833007812, -0.05322265625, 0.4560546875, -0.691162109375
506, 4005572227, -11.389416694641113, -2.083104133605957, -3.3757433891296387, -36.829246520996094, -12.064693450927734, 175.62171936035156, -0.034912109375, 0.469482421875, -0.69189453125
507, 4005588894, -11.314037322998047, -6.2765021324157715, -4.209589004516602, 74.92942810058594, 57.616859436035156, 200.273681640625, 4.8828125E-4, 0.459228515625, -0.701171875
508, 4005605561, -10.847888946533203, -3.6431727409362793, 3.476430654525757, 145.99411010742188, 103.11998748779297, 148.61207580566406, 0.04541015625, 0.423828125, -0.719482421875
509, 4005622228, -6.257824897766113, -10.440109252929688, 9.624649047851562, 126.89214324951172, 105.62211608886719, 54.95177459716797, 0.082275390625, 0.3955078125, -0.735107421875
510, 4005638895, -1.8817373514175415, -2.0564968585968018, 8.271382331848145, 131.19187927246094, 114.90375518798828, 58.56825637817383, 0.11328125, 0.3623046875, -0.749267578125
511, 4005655562, -12.061457633972168, 7.374125003814697, 14.435338020324707, 88.31910705566406, 133.69561767578125, 68.66158294677734, 0.156494140625, 0.3369140625, -0.759765625
512, 4005672229, -24.048595428466797, -2.480529546737671, 15.34716796875, 99.19387817382812, 62.64106750488281, 77.92532348632812, 0.185302734375, 0.31201171875, -0.764404296875
513, 4005688896, -5.458177089691162, 0.8718857169151306, 9.747108459472656, 61.92213439941406, 16.92945671081543, 35.322147369384766, 0.190185546875, 0.29443359375, -0.768798828125
514, 4005705563, -6.112873554229736, -1.518432855606079, 9.104453086853027, 43.320648193359375, 5.924289703369141, 25.277931213378906, 0.200439453125, 0.279541015625, -0.7734375
515, 4005722230, -6.673914909362793, -1.4016953706741333, 8.433788299560547, 26.48812484741211, -1.682349443435669, 12.332864761352539, 0.200439453125, 0.27294921875, -0.77685546875
516, 4005738897, -5.982046127319336, -3.0971734523773193, 8.014226913452148, 17.52741241455078, -2.0760657787323, 6.49428129196167, 0.2001953125, 0.266845703125, -0.7763671875
517, 4005755564, -5.687970161437988, -2.393939971923828, 8.064600944519043, 12.346257209777832, -2.7965757846832275, 5.1032633781433105, 0.20068359375, 0.261962890625, -0.779296875
518, 4005772231, -5.537414073944092, -1.8748630285263062, 8.136884689331055, 8.421515464782715, -2.483907699584961, 3.441854953765869, 0.201171875, 0.25927734375, -0.779296875
519, 4005788898, -5.53629732131958, -1.9500137567520142, 8.03934097290039, 3.8703677654266357, -0.8249467015266418, 0.9319373965263367, 0.20166015625, 0.259521484375, -0.7783203125
520, 4005805565, -5.51432991027832, -1.904705286026001, 8.081683158874512, -0.18077442049980164, 1.7371108531951904, -0.8816275000572205, 0.20068359375, 0.25927734375, -0.77880859375
521, 4005822232, -5.4407057762146, -2.1928184032440186, 7.911580562591553, -2.365640640258789, 3.9184043407440186, -2.285139799118042, 0.203125, 0.259033203125, -0.7783203125
522, 4005838899, -5.395193576812744, -2.285635471343994, 7.7729268074035645, -2.935023784637451, 4.8071393966674805, -2.6487886905670166, 0.2041015625, 0.259521484375, -0.77880859375
523, 4005855566, -5.291879177093506, -2.548348903656006, 7.603240966796875, -2.0089449882507324, 4.783184051513672, -2.091264247894287, 0.205078125, 0.262451171875, -0.7783203125
524, 4005872233, -5.280916213989258, -2.4213318824768066, 7.638026714324951, 0.16664265096187592, 3.776906728744507, -0.6645343899726868, 0.206787109375, 0.260009765625, -0.78125
525, 4005888900, -5.2946391105651855, -2.1334376335144043, 7.774311542510986, 0.3832043707370758, 3.286839485168457, -0.5783155560493469, 0.20703125, 0.261962890625, -0.77685546875
526, 4005905567, -5.402084827423096, -2.3069305419921875, 7.730976581573486, 0.13598424196243286, 3.0447165966033936, -0.1319950670003891, 0.206787109375, 0.260009765625, -0.775634765625
527, 4005922234, -5.378476619720459, -2.4915518760681152, 7.688041687011719, 0.8219819664955139, 2.3210291862487793, 0.7892873287200928, 0.208251953125, 0.259521484375, -0.776611328125
528, 4005938901, -5.485087871551514, -2.4175779819488525, 7.659003257751465, 1.6116982698440552, 0.7145238518714905, 1.7780016660690308, 0.209716796875, 0.258544921875, -0.774658203125
529, 4005955568, -5.592498302459717, -2.267918825149536, 7.673139572143555, 1.9475321769714355, -0.5092701315879822, 2.1706442832946777, 0.210693359375, 0.259521484375, -0.779296875
530, 4005972235, -5.535670280456543, -2.1440486907958984, 7.7180399894714355, 1.8095438480377197, -1.6446683406829834, 1.7194894552230835, 0.211181640625, 0.260009765625, -0.779052734375
531, 4005988902, -5.280830383300781, -2.2350754737854004, 7.786170482635498, 1.3046342134475708, -1.5531028509140015, 1.2073187828063965, 0.211181640625, 0.258544921875, -0.778076171875
532, 4006005569, -5.345520496368408, -2.226433277130127, 7.816023826599121, 0.6169907450675964, -0.42090633511543274, 1.1085113286972046, 0.208740234375, 0.260009765625, -0.779296875
533, 4006022236, -5.350011348724365, -2.289536237716675, 7.78245735168457, -0.6254557967185974, 1.1160862445831299, 1.6579101085662842, 0.210693359375, 0.257080078125, -0.779052734375
534, 4006038903, -5.427135467529297, -2.1890695095062256, 7.7595720291137695, -2.1003053188323975, 2.431208610534668, 2.751188039779663, 0.211181640625, 0.25634765625, -0.778564453125
535, 4006055570, -5.51357889175415, -2.1467533111572266, 7.716385841369629, -3.2687442302703857, 2.667607545852661, 3.1223866939544678, 0.212158203125, 0.25634765625, -0.777099609375
536, 4006072237, -5.484007835388184, -2.0951385498046875, 7.655978679656982, -3.2280642986297607, 2.178987503051758, 2.2690675258636475, 0.212646484375, 0.259521484375, -0.779052734375
537, 4006088904, -5.37263298034668, -2.3834588527679443, 7.546066761016846, -2.131232738494873, 0.8553810715675354, 1.9657453298568726, 0.213623046875, 0.259521484375, -0.777587890625
538, 4006105571, -5.432472229003906, -2.6182210445404053, 7.390972137451172, 1.0487632751464844, -1.844165563583374, 3.0582334995269775, 0.212646484375, 0.256591796875, -0.778076171875
539, 4006122238, -5.431963920593262, -2.6977903842926025, 7.538583755493164, 4.5980634689331055, -4.9580817222595215, 4.259027481079102, 0.213134765625, 0.2548828125, -0.776611328125
540, 4006138905, -5.248918056488037, -2.6996030807495117, 7.758983612060547, 5.758677005767822, -4.816571235656738, 5.258166790008545, 0.214599609375, 0.256103515625, -0.779052734375
541, 4006155572, -5.308140754699707, -2.3273444175720215, 8.029074668884277, 5.1331892013549805, 0.2330435812473297, 6.141663551330566, 0.21337890625, 0.2529296875, -0.779052734375
542, 4006172239, -5.281713485717773, -2.5515289306640625, 8.244718551635742, 2.366403102874756, 8.973535537719727, 8.055320739746094, 0.2158203125, 0.25439453125, -0.779052734375
543, 4006188906, -4.684477806091309, -3.0591843128204346, 8.522931098937988, -5.103113651275635, 22.503589630126953, 15.994988441467285, 0.22021484375, 0.25146484375, -0.780517578125
544, 4006205573, -3.003229856491089, -4.50439977645874, 9.586596488952637, -12.931158065795898, 48.31861877441406, 39.21941375732422, 0.230712890625, 0.252197265625, -0.777099609375
545, 4006222240, -3.9567580223083496, -2.69773530960083, 10.272846221923828, -33.413814544677734, 100.13427734375, 70.38800048828125, 0.254638671875, 0.250732421875, -0.768798828125
546, 4006238907, -4.542600154876709, -4.446309566497803, 10.103140830993652, -88.40420532226562, 151.2928924560547, 133.16696166992188, 0.294921875, 0.259765625, -0.75244140625
547, 4006255574, -5.576778411865234, -5.450366973876953, 9.604843139648438, -154.4765167236328, 206.36233520507812, 198.71063232421875, 0.3447265625, 0.26904296875, -0.724365234375
548, 4006272241, -8.032533645629883, -4.369665145874023, 10.850272178649902, -204.55889892578125, 229.23458862304688, 254.96090698242188, 0.4111328125, 0.2822265625, -0.68505859375
549, 4006288908, -9.809295654296875, -8.781893730163574, 10.256071090698242, -245.5958251953125, 230.14926147460938, 283.6201477050781, 0.475341796875, 0.292724609375, -0.635986328125
550, 4006305575, -10.821574211120605, -10.87993335723877, 9.822057723999023, -239.81788635253906, 173.1556854248047, 308.7563171386719, 0.53271484375, 0.291015625, -0.589111328125
551, 4006322242, -9.540048599243164, -7.309974670410156, 9.687743186950684, -211.10733032226562, 127.87264251708984, 328.4067687988281, 0.579833984375, 0.2734375, -0.551513671875
552, 4006338909, -6.324239730834961, -3.9037394523620605, 11.386062622070312, -227.47607421875, 92.47603607177734, 335.2093505859375, 0.6181640625, 0.24853515625, -0.5185546875
553, 4006355576, -8.208389282226562, -8.88669204711914, 14.477890014648438, -280.4895935058594, 25.448156356811523, 278.5455322265625, 0.64208984375, 0.235107421875, -0.49267578125
554, 4006372243, 0.6709861755371094, -12.165928840637207, 9.004283905029297, -245.26400756835938, -19.962743759155273, 187.58697509765625, 0.651123046875, 0.234130859375, -0.482666015625
555, 4006388910, 4.368571758270264, -6.609315395355225, 8.695959091186523, -198.55859375, -6.916600704193115, 100.92191314697266, 0.653564453125, 0.244140625, -0.469970703125
556, 4006405577, 4.349795818328857, -2.227538824081421, 10.29935359954834, -200.44302368164062, 2.8055877685546875, 20.42013168334961, 0.647216796875, 0.26513671875, -0.456787109375
557, 4006422244, 3.734755277633667, -1.3043088912963867, 11.542206764221191, -195.38983154296875, -6.079408645629883, -37.664100646972656, 0.63623046875, 0.29931640625, -0.439208984375
558, 4006438911, 1.9137108325958252, -1.0040245056152344, 12.87870979309082, -155.8089599609375, -32.097713470458984, -62.16828155517578, 0.61865234375, 0.333740234375, -0.43017578125
559, 4006455578, 0.3652467131614685, 1.692315697669983, 14.258286476135254, -121.38346099853516, -68.04520416259766, -73.1813735961914, 0.59228515625, 0.361083984375, -0.426025390625
560, 4006472245, -0.6627429127693176, 4.1722636222839355, 14.855673789978027, -115.95112609863281, -101.06803894042969, -81.5539779663086, 0.56103515625, 0.386962890625, -0.42236328125
561, 4006488912, -1.7074929475784302, 5.389834880828857, 14.942060470581055, -121.75004577636719, -124.90272521972656, -83.34164428710938, 0.5263671875, 0.407470703125, -0.4169921875
562, 4006505579, -3.2017662525177, 5.629989147186279, 14.977733612060547, -119.6883544921875, -143.7284393310547, -77.31517028808594, 0.494140625, 0.42578125, -0.41845703125
563, 4006522246, -4.692249774932861, 5.4998579025268555, 15.042387008666992, -107.626220703125, -159.3092498779297, -68.58467102050781, 0.465087890625, 0.4375, -0.4169921875
564, 4006538913, -5.930180072784424, 5.01349401473999, 14.849589347839355, -88.38300323486328, -171.73548889160156, -59.67475509643555, 0.43701171875, 0.44384765625, -0.421142578125
565, 4006555580, -6.490406513214111, 4.570508003234863, 14.213663101196289, -68.17371368408203, -178.55679321289062, -49.29747009277344, 0.4130859375, 0.44775390625, -0.42724609375
566, 4006572247, -6.84589958190918, 4.147688865661621, 13.44024658203125, -54.804569244384766, -177.2064666748047, -34.333160400390625, 0.3935546875, 0.453125, -0.435546875
567, 4006588914, -7.387123107910156, 3.558151960372925, 12.750687599182129, -52.74356460571289, -171.0661163330078, -14.538718223571777, 0.385009765625, 0.45703125, -0.4462890625
568, 4006605581, -8.238014221191406, 2.4894258975982666, 12.265522003173828, -60.79222869873047, -163.75807189941406, 6.463785648345947, 0.37841796875, 0.464599609375, -0.460693359375
569, 4006622248, -9.544010162353516, 1.330233097076416, 12.159035682678223, -76.59956359863281, -158.61172485351562, 23.82308006286621, 0.37109375, 0.47607421875, -0.475341796875
570, 4006638915, -10.886897087097168, 0.25224632024765015, 11.525728225708008, -96.80648803710938, -158.8414306640625, 33.432525634765625, 0.362548828125, 0.489013671875, -0.484619140625
571, 4006655582, -11.545238494873047, -1.0458874702453613, 10.486767768859863, -111.72760009765625, -160.7633819580078, 37.31734848022461, 0.349853515625, 0.506591796875, -0.49560546875
572, 4006672249, -12.325407981872559, -2.8936238288879395, 8.331584930419922, -114.5000991821289, -165.74281311035156, 37.05283737182617, 0.33837890625, 0.528076171875, -0.49755859375
573, 4006688916, -12.76926326751709, -4.717850685119629, 6.169074535369873, -98.47203063964844, -171.87728881835938, 38.42290496826172, 0.32275390625, 0.544189453125, -0.507080078125
574, 4006705583, -14.132651329040527, -3.2574286460876465, 4.212023735046387, -89.30455017089844, -166.3488311767578, 28.566476821899414, 0.30859375, 0.56005859375, -0.512939453125
575, 4006722250, -17.44226837158203, 0.5187965035438538, 0.3080529570579529, -97.98054504394531, -157.150146484375, 21.4976749420166, 0.291259765625, 0.578125, -0.516845703125
576, 4006738917, -17.7730712890625, 5.464972019195557, -4.65408992767334, -126.75514221191406, -135.79013061523438, 10.492350578308105, 0.274169921875, 0.596923828125, -0.514892578125
577, 4006755584, -11.126991271972656, 3.2747910022735596, -7.835144519805908, -117.33952331542969, -73.08545684814453, 27.50238800048828, 0.263916015625, 0.617431640625, -0.501220703125
578, 4006772251, -9.246596336364746, 0.44773221015930176, -4.846609115600586, -51.35149383544922, 4.642991065979004, 83.77688598632812, 0.27783203125, 0.62109375, -0.492919921875
579, 4006788918, -12.55054759979248, -3.0194387435913086, 0.3888409435749054, -8.212156295776367, 42.760459899902344, 94.82258605957031, 0.30078125, 0.6123046875, -0.48583984375
580, 4006805585, -13.8423433303833, -4.065604209899902, -1.274287223815918, 109.69709014892578, 67.8604507446289, 94.63970184326172, 0.32763671875, 0.58544921875, -0.4951171875
581, 4006822252, -6.375380516052246, -3.355245590209961, 5.946250915527344, 123.40284729003906, 89.48137664794922, 52.608646392822266, 0.349609375, 0.557373046875, -0.507080078125
582, 4006838919, -1.756636381149292, -12.062335014343262, 8.653159141540527, 154.75814819335938, 73.8373031616211, 47.932960510253906, 0.370361328125, 0.528076171875, -0.52099609375
583, 4006855586, -1.459317684173584, 6.9204792976379395, 9.659473419189453, 140.81068420410156, 94.00799560546875, 75.92430114746094, 0.39208984375, 0.487548828125, -0.535888671875
584, 4006872253, -11.419437408447266, 7.221064567565918, 14.026200294494629, 74.48160552978516, 118.70336151123047, 65.51229095458984, 0.41845703125, 0.458984375, -0.530517578125
585, 4006888920, -19.074169158935547, -2.0825352668762207, 15.391517639160156, 63.300575256347656, 77.20134735107422, 61.20952606201172, 0.443115234375, 0.439453125, -0.5234375
586, 4006905587, -7.374530792236328, 1.085620403289795, 9.646164894104004, 42.765193939208984, 21.34174919128418, 24.94487762451172, 0.450439453125, 0.424560546875, -0.525146484375
587, 4006922254, -6.192690849304199, -3.047722816467285, 8.566808700561523, 30.791793823242188, 13.4371337890625, 16.332523345947266, 0.454833984375, 0.4150390625, -0.5263671875
588, 4006938921, -6.713477611541748, -2.6021761894226074, 8.173942565917969, 26.105350494384766, 7.332122802734375, 10.683477401733398, 0.45751953125, 0.408935546875, -0.52978515625
589, 4006955588, -5.919981479644775, -3.2404589653015137, 7.675118923187256, 18.827007293701172, 0.3899218738079071, 6.96013879776001, 0.458984375, 0.406494140625, -0.53173828125
590, 4006972255, -5.564934730529785, -2.2488389015197754, 8.069867134094238, 16.36542320251465, -2.005399465560913, 7.101953983306885, 0.459228515625, 0.3994140625, -0.535888671875
591, 4006988922, -5.509570598602295, -2.1279971599578857, 8.076922416687012, 11.355390548706055, -1.9374480247497559, 5.3540496826171875, 0.457763671875, 0.3955078125, -0.536865234375
592, 4007005589, -5.4358296394348145, -2.0221803188323975, 8.055460929870605, 7.592649936676025, -0.9636781215667725, 3.096928119659424, 0.461669921875, 0.39404296875, -0.53662109375
593, 4007022256, -5.3371453285217285, -1.9373064041137695, 8.027597427368164, 5.823988914489746, -0.2512606084346771, 1.900251030921936, 0.460693359375, 0.39306640625, -0.53369140625
594, 4007038923, -5.310659408569336, -2.5050413608551025, 7.655638694763184, 9.224333763122559, -2.0912773609161377, 3.8405416011810303, 0.459228515625, 0.389892578125, -0.538330078125
595, 4007055590, -5.21887731552124, -2.934065341949463, 7.464789390563965, 15.601873397827148, -5.694094181060791, 7.9671783447265625, 0.4609375, 0.387451171875, -0.541259765625
596, 4007072257, -5.250972747802734, -2.930637836456299, 7.453343868255615, 20.669652938842773, -9.898383140563965, 11.396402359008789, 0.46044921875, 0.38232421875, -0.542236328125
597, 4007088924, -5.298160076141357, -2.265941858291626, 7.8132405281066895, 24.027626037597656, -12.902631759643555, 12.704407691955566, 0.46044921875, 0.3759765625, -0.546630859375
598, 4007105591, -5.395123481750488, -1.5965099334716797, 8.181079864501953, 21.240201950073242, -13.043084144592285, 10.617382049560547, 0.460205078125, 0.370849609375, -0.551025390625
599, 4007122258, -5.256155967712402, -1.8367935419082642, 8.108682632446289, 17.70466423034668, -11.1683988571167, 7.907070159912109, 0.457275390625, 0.3671875, -0.552734375
600, 4007138925, -5.3983635902404785, -1.9823167324066162, 8.011499404907227, 16.742647171020508, -11.917532920837402, 7.63602352142334, 0.458251953125, 0.36279296875, -0.55810546875
601, 4007155592, -5.1785783767700195, -2.1636335849761963, 7.823892593383789, 16.649824142456055, -12.830446243286133, 7.567419528961182, 0.455810546875, 0.356201171875, -0.562744140625
602, 4007172259, -5.164210319519043, -1.8649303913116455, 7.978715419769287, 14.584114074707031, -11.299198150634766, 6.998877048492432, 0.455810546875, 0.355224609375, -0.563232421875
603, 4007188926, -4.975730895996094, -1.8977711200714111, 7.970888614654541, 11.897551536560059, -8.270106315612793, 6.174606800079346, 0.4560546875, 0.351806640625, -0.567626953125
604, 4007205593, -4.903928756713867, -1.8616291284561157, 8.018189430236816, 10.129340171813965, -4.523168563842773, 6.042202472686768, 0.453125, 0.3466796875, -0.566650390625
605, 4007222260, -5.091907024383545, -1.6301853656768799, 8.186182975769043, 8.008781433105469, -1.8785769939422607, 6.112825393676758, 0.455078125, 0.34326171875, -0.568603515625
606, 4007238927, -5.066344738006592, -1.5110617876052856, 8.168659210205078, 4.427456378936768, 0.9277624487876892, 5.673642158508301, 0.45703125, 0.3427734375, -0.571044921875
607, 4007255594, -5.220101356506348, -1.396447777748108, 8.079561233520508, 2.7190253734588623, 3.9958319664001465, 5.236715793609619, 0.4560546875, 0.339599609375, -0.571533203125
608, 4007272261, -5.142994403839111, -1.4740420579910278, 8.076369285583496, -0.02145063877105713, 6.997436046600342, 4.653911113739014, 0.459228515625, 0.340087890625, -0.571044921875
609, 4007288928, -5.201420307159424, -1.754285216331482, 8.024946212768555, -1.3197845220565796, 10.715314865112305, 4.738498210906982, 0.460693359375, 0.338623046875, -0.568359375
610, 4007305595, -5.142711639404297, -2.122411012649536, 8.096930503845215, -1.2203947305679321, 14.904023170471191, 5.765007019042969, 0.464599609375, 0.337158203125, -0.562744140625
611, 4007322262, -4.862604141235352, -2.1140639781951904, 8.388495445251465, -0.17941728234291077, 20.951492309570312, 8.003432273864746, 0.468505859375, 0.338134765625, -0.563720703125
612, 4007338929, -4.949230670928955, -2.037874698638916, 8.598420143127441, 1.3578510284423828, 35.233768463134766, 10.687987327575684, 0.47509765625, 0.334228515625, -0.560546875
613, 4007355596, -4.272943019866943, -1.6226972341537476, 9.26899242401123, 0.41509050130844116, 55.07855224609375, 14.01449966430664, 0.484619140625, 0.331787109375, -0.55224609375
614, 4007372263, -4.615657329559326, -1.5598253011703491, 9.329610824584961, -3.4314968585968018, 82.39828491210938, 19.585111618041992, 0.4990234375, 0.33154296875, -0.541015625
615, 4007388930, -4.760289669036865, -2.4018514156341553, 9.38833999633789, -0.3790474236011505, 112.72964477539062, 25.943883895874023, 0.51708984375, 0.326416015625, -0.525146484375
616, 4007405597, -4.834083080291748, -2.9487051963806152, 9.774189949035645, 5.614102840423584, 146.50942993164062, 40.97257995605469, 0.541748046875, 0.318115234375, -0.501953125
617, 4007422264, -4.833561897277832, -2.5187997817993164, 10.143462181091309, 9.129910469055176, 193.64486694335938, 61.98805236816406, 0.57470703125, 0.309814453125, -0.4716796875
618, 4007438931, -5.242544651031494, -3.5039424896240234, 11.294488906860352, 16.16650390625, 250.767333984375, 89.28067779541016, 0.61376953125, 0.29150390625, -0.43212890625
619, 4007455598, -7.084513187408447, -3.088416576385498, 12.806384086608887, 13.022189140319824, 303.2428283691406, 119.90939331054688, 0.659423828125, 0.27001953125, -0.375732421875
620, 4007472265, -6.815448760986328, -4.623966693878174, 12.834924697875977, 5.188246726989746, 342.4842529296875, 153.7288055419922, 0.709716796875, 0.23828125, -0.308837890625
621, 4007488932, -10.646939277648926, -3.9522032737731934, 13.535253524780273, -8.162552833557129, 355.8318176269531, 174.61224365234375, 0.756591796875, 0.205810546875, -0.229736328125
622, 4007505599, -13.46843147277832, -3.683311939239502, 14.978697776794434, -10.63155746459961, 368.01068115234375, 180.9722900390625, 0.796142578125, 0.165771484375, -0.142333984375
623, 4007522266, -13.229410171508789, -4.743575096130371, 14.48498821258545, -9.160226821899414, 326.573486328125, 167.4561767578125, 0.825927734375, 0.130615234375, -0.061767578125
624, 4007538933, -1.1104145050048828, -4.713929653167725, 11.599103927612305, -2.9083123207092285, 296.0700988769531, 166.0968017578125, 0.847900390625, 0.091796875, 0.01025390625
625, 4007555600, -17.551944732666016, -11.572516441345215, 20.47496223449707, -55.76936721801758, 240.2900390625, 72.91486358642578, 0.85791015625, 0.06298828125, 0.076416015625
626, 4007572267, -13.155295372009277, -16.267501831054688, 20.404401779174805, -38.732662200927734, 20.2452449798584, -42.917259216308594, 0.86865234375, 0.0712890625, 0.088134765625
627, 4007588934, 0.0060811638832092285, -11.271490097045898, 11.450170516967773, 38.89104461669922, -93.36060333251953, -103.08324432373047, 0.884033203125, 0.105224609375, 0.060546875
628, 4007605601, 4.790593147277832, -3.8153693675994873, 7.232936859130859, 73.36331176757812, -100.75857543945312, -130.68138122558594, 0.8896484375, 0.14306640625, 0.020263671875
629, 4007622268, 3.792180061340332, 0.15400731563568115, 6.54746675491333, 46.996788024902344, -88.7344741821289, -151.7034149169922, 0.889404296875, 0.19091796875, -0.01416015625
630, 4007638935, 1.2548909187316895, 0.7735939621925354, 7.078769683837891, 12.698270797729492, -90.0096206665039, -164.24240112304688, 0.878173828125, 0.23974609375, -0.0478515625
631, 4007655602, -1.2935055494308472, 0.5603020191192627, 7.5511016845703125, 6.1869401931762695, -106.7145767211914, -159.09991455078125, 0.861083984375, 0.28173828125, -0.082275390625
632, 4007672269, -3.968595504760742, 0.6948863863945007, 8.336026191711426, 20.55062484741211, -135.4931182861328, -138.07598876953125, 0.841064453125, 0.31884765625, -0.119384765625
633, 4007688936, -6.246783256530762, 1.506792426109314, 8.999981880187988, 30.280223846435547, -174.5618133544922, -115.41268920898438, 0.816162109375, 0.348388671875, -0.164794921875
634, 4007705603, -7.108815670013428, 2.262634754180908, 9.170467376708984, 22.4014949798584, -212.60255432128906, -97.66180419921875, 0.79248046875, 0.373046875, -0.21533203125
635, 4007722270, -8.081048011779785, 2.255539655685425, 9.26054573059082, -0.762921154499054, -240.76028442382812, -84.20823669433594, 0.7626953125, 0.401123046875, -0.275634765625
636, 4007738937, -8.729283332824707, 1.2207159996032715, 8.754895210266113, -24.080095291137695, -259.59539794921875, -74.71410369873047, 0.72705078125, 0.424072265625, -0.33642578125
637, 4007755604, -8.588693618774414, 0.07555743306875229, 8.23310661315918, -33.94658279418945, -263.9408874511719, -63.73124694824219, 0.67138671875, 0.4482421875, -0.388916015625
638, 4007772271, -9.276432991027832, -0.61378413438797, 8.452950477600098, -37.30534362792969, -254.65762329101562, -51.01763916015625, 0.61083984375, 0.4638671875, -0.42626953125
639, 4007788938, -10.309391975402832, -1.7884968519210815, 9.537261009216309, -43.221675872802734, -242.04067993164062, -42.92194366455078, 0.556640625, 0.470947265625, -0.43408203125
640, 4007805605, -13.726288795471191, -3.625425338745117, 11.87971019744873, -60.90385437011719, -233.5893096923828, -46.659515380859375, 0.5322265625, 0.475830078125, -0.428955078125
641, 4007822272, -18.54886245727539, -8.102336883544922, 12.488387107849121, -64.93675994873047, -248.6896209716797, -71.35917663574219, 0.52490234375, 0.493896484375, -0.4443359375
642, 4007838939, -21.15206527709961, -10.905488967895508, 10.291525840759277, -22.908435821533203, -274.1204528808594, -109.03411865234375, 0.503173828125, 0.524658203125, -0.49072265625
643, 4007855606, -21.289846420288086, -8.279693603515625, 7.202185153961182, 23.549633026123047, -283.8145751953125, -144.14154052734375, 0.454345703125, 0.557861328125, -0.552001953125
644, 4007872273, -20.93990707397461, -3.5869951248168945, 3.5078468322753906, 37.36397171020508, -266.6195373535156, -153.4158172607422, 0.383056640625, 0.583740234375, -0.60791015625
645, 4007888940, -20.928754806518555, 0.10063035041093826, -0.19445598125457764, 11.223212242126465, -227.3037567138672, -139.65780639648438, 0.3125, 0.602294921875, -0.646728515625
646, 4007905607, -25.27446937561035, 6.034637451171875, -6.02568244934082, -33.37859344482422, -180.26022338867188, -112.78836059570312, 0.25, 0.623291015625, -0.6650390625
647, 4007922274, -25.481887817382812, 15.292243003845215, -14.484448432922363, -135.6971893310547, -117.67383575439453, -80.78362274169922, 0.2021484375, 0.652099609375, -0.6591796875
648, 4007938941, -17.146984100341797, 6.384175777435303, -22.16124153137207, -108.5540542602539, 47.290618896484375, 34.39632797241211, 0.195068359375, 0.6826171875, -0.632568359375
649, 4007955608, -19.526742935180664, 2.7896640300750732, -10.070502281188965, 12.164892196655273, 163.19679260253906, 154.392333984375, 0.24609375, 0.677490234375, -0.62353515625
650, 4007972275, -13.710314750671387, -8.197513580322266, 6.530295372009277, 34.7794303894043, 173.50379943847656, 139.1460418701172, 0.30908203125, 0.656982421875, -0.614990234375
651, 4007988942, -7.006702899932861, -15.429183006286621, 9.486490249633789, 55.04188537597656, 132.97091674804688, 76.40142059326172, 0.352294921875, 0.63818359375, -0.6103515625
652, 4008005609, -4.061324596405029, -1.5719205141067505, 6.1153564453125, 54.938289642333984, 186.32347106933594, 41.931053161621094, 0.391357421875, 0.62548828125, -0.60205078125
