sep=,
DeviceTag:,B,,,,,,,,,,,,,,,,,
FirmwareVersion:,2.2.1,,,,,,,,,,,,,,,,,
AppVersion:,2022.0.1,,,,,,,,,,,,,,,,,
SyncStatus:,Synced,,,,,,,,,,,,,,,,,
OutputRate:,60Hz,,,,,,,,,,,,,,,,,
FilterProfile:,General,,,,,,,,,,,,,,,,,
Measurement Mode:,Inertial Mode - Rate quantities (with mag),,,,,,,,,,,,,,,,,
StartTime:,2022-08-05 17:07:57.817 +0300,,,,,,,,,,,,,,,,,
© Xsens Technologies B. V. 2005-2022,,,,,,,,,,,,,,,,,,,

PacketCounter,SampleTimeFine,Acc_X,Acc_Y,Acc_Z,Gyr_X,Gyr_Y,Gyr_Z,Mag_X,Mag_Y,Mag_Z
1, 429869316, -5.400442600250244, -2.326446771621704, 7.725068092346191, -0.22079427540302277, -0.16915906965732574, -0.801024317741394, 0.05078125, 0.21484375, -0.7900390625
2, 429885983, -5.429368495941162, -2.3131728172302246, 7.712066173553467, -0.22664675116539001, -0.14842559397220612, -0.6871631145477295, 0.0498046875, 0.21337890625, -0.78662109375
3, 429902650, -5.436382293701172, -2.3220531940460205, 7.7013750076293945, -0.2745681405067444, -0.22914402186870575, -0.8440537452697754, 0.05224609375, 0.21484375, -0.787109375
4, 429919317, -5.424307346343994, -2.32220458984375, 7.682185173034668, -0.23456108570098877, -0.2738765478134155, -0.7831081748008728, 0.05224609375, 0.216796875, -0.7900390625
5, 429935984, -5.4196672439575195, -2.3180971145629883, 7.675561904907227, -0.11804892122745514, -0.5810753107070923, -0.8170578479766846, 0.05322265625, 0.21240234375, -0.7890625
6, 429952651, -5.398473739624023, -2.3234760761260986, 7.6946587562561035, -0.023410005494952202, -0.573058545589447, -0.864851176738739, 0.052734375, 0.212890625, -0.78759765625
7, 429969318, -5.405097484588623, -2.3132660388946533, 7.688998222351074, -0.06261024624109268, -0.5979796648025513, -0.8523009419441223, 0.05419921875, 0.21337890625, -0.79150390625
8, 429985985, -5.4325690269470215, -2.312495708465576, 7.69368314743042, -0.09028477966785431, -0.6143974661827087, -0.7545117735862732, 0.04931640625, 0.212890625, -0.79052734375
9, 430002652, -5.422486782073975, -2.3234450817108154, 7.666220664978027, -0.020144391804933548, -0.758584201335907, -0.8168402314186096, 0.0517578125, 0.21435546875, -0.79150390625
10, 430019319, -5.407504558563232, -2.33915638923645, 7.699178218841553, 0.08853670209646225, -0.8767611980438232, -0.8504824638366699, 0.052734375, 0.21484375, -0.787109375
11, 430035986, -5.413247585296631, -2.302889108657837, 7.695466041564941, 0.12485551089048386, -0.9133232831954956, -0.8857383728027344, 0.05322265625, 0.21142578125, -0.78955078125
12, 430052653, -5.414064407348633, -2.3067049980163574, 7.660447120666504, 0.14497429132461548, -0.9052809476852417, -0.8400710225105286, 0.0517578125, 0.2158203125, -0.78662109375
13, 430069320, -5.398333549499512, -2.3252177238464355, 7.709657669067383, 0.11577581614255905, -0.8900797963142395, -0.8821014165878296, 0.05126953125, 0.211669921875, -0.78759765625
14, 430085987, -5.396273612976074, -2.3248231410980225, 7.679360866546631, 0.034071292728185654, -0.7174885272979736, -0.9263857007026672, 0.05224609375, 0.212890625, -0.7900390625
15, 430102654, -5.424215793609619, -2.3119876384735107, 7.685364723205566, 0.08789639174938202, -0.8222189545631409, -0.7769100069999695, 0.05322265625, 0.21435546875, -0.78857421875
16, 430119321, -5.406214237213135, -2.314905881881714, 7.7033257484436035, 0.12207651883363724, -0.7357376217842102, -0.8117432594299316, 0.05078125, 0.21435546875, -0.7890625
17, 430135988, -5.406888484954834, -2.313472032546997, 7.714020252227783, 0.09995996952056885, -0.6293809413909912, -0.7792919874191284, 0.0498046875, 0.2138671875, -0.7880859375
18, 430152655, -5.397145748138428, -2.31156325340271, 7.680808067321777, 0.12073185294866562, -0.6866251826286316, -0.779471218585968, 0.05029296875, 0.2138671875, -0.78955078125
19, 430169322, -5.397836208343506, -2.3133938312530518, 7.695536136627197, 0.13923703134059906, -0.711725652217865, -0.8283146619796753, 0.0517578125, 0.21337890625, -0.7890625
20, 430185989, -5.4072465896606445, -2.3013076782226562, 7.693350791931152, 0.21480731666088104, -0.6627030372619629, -0.7571114301681519, 0.0498046875, 0.212890625, -0.791748046875
21, 430202656, -5.398306846618652, -2.3059611320495605, 7.682870388031006, 0.16440150141716003, -0.6668010354042053, -0.7636426091194153, 0.0537109375, 0.212890625, -0.7900390625
22, 430219323, -5.415247440338135, -2.3137154579162598, 7.703053951263428, 0.10928299278020859, -0.6574652194976807, -0.8232690095901489, 0.05078125, 0.2138671875, -0.7919921875
23, 430235990, -5.413390636444092, -2.304082155227661, 7.6905364990234375, 0.1572427600622177, -0.783479630947113, -0.7867068648338318, 0.05322265625, 0.21337890625, -0.79296875
24, 430252657, -5.39134407043457, -2.3041396141052246, 7.696412563323975, 0.2304566651582718, -0.7753475904464722, -0.7429474592208862, 0.0517578125, 0.2119140625, -0.78955078125
25, 430269324, -5.40693473815918, -2.3172085285186768, 7.7096848487854, 0.25211217999458313, -0.7970799803733826, -0.7244808077812195, 0.05126953125, 0.210205078125, -0.7890625
26, 430285991, -5.410914897918701, -2.295163631439209, 7.685609817504883, 0.17664439976215363, -0.7738493084907532, -0.7331123948097229, 0.052734375, 0.212890625, -0.79052734375
27, 430302658, -5.417307376861572, -2.306760549545288, 7.701867580413818, 0.2556851804256439, -0.7624516487121582, -0.6757398247718811, 0.05078125, 0.2138671875, -0.7880859375
28, 430319325, -5.391258239746094, -2.3130009174346924, 7.678220272064209, 0.29299482703208923, -0.7139455676078796, -0.7152390480041504, 0.05126953125, 0.2119140625, -0.78857421875
29, 430335992, -5.422938346862793, -2.2975876331329346, 7.706913948059082, 0.2031279057264328, -0.695461630821228, -0.7149785161018372, 0.05126953125, 0.2119140625, -0.79052734375
30, 430352659, -5.399168014526367, -2.307384490966797, 7.690320014953613, 0.29028791189193726, -0.8068256378173828, -0.7181928753852844, 0.0517578125, 0.2119140625, -0.7880859375
31, 430369326, -5.388558864593506, -2.2973239421844482, 7.690605640411377, 0.3423585295677185, -0.7712367177009583, -0.731549859046936, 0.05322265625, 0.21240234375, -0.7861328125
32, 430385993, -5.394595623016357, -2.2973742485046387, 7.705870628356934, 0.37687164545059204, -0.8100911974906921, -0.6584511995315552, 0.05078125, 0.211181640625, -0.7900390625
33, 430402660, -5.391566753387451, -2.293736457824707, 7.724839687347412, 0.4111286401748657, -0.8178902864456177, -0.7007890939712524, 0.05078125, 0.212890625, -0.791015625
34, 430419327, -5.3900146484375, -2.2949769496917725, 7.704131126403809, 0.40056341886520386, -0.7678046822547913, -0.6647135615348816, 0.053955078125, 0.21044921875, -0.79052734375
35, 430435994, -5.394467830657959, -2.2919576168060303, 7.70875883102417, 0.3488897979259491, -0.7471864819526672, -0.5258415341377258, 0.0517578125, 0.212890625, -0.7900390625
36, 430452661, -5.400604248046875, -2.266479969024658, 7.706944942474365, 0.3024667501449585, -0.6703354716300964, -0.7445483207702637, 0.05419921875, 0.21240234375, -0.78955078125
37, 430469328, -5.411397457122803, -2.281109094619751, 7.717809200286865, 0.17724627256393433, -0.6893529891967773, -0.7488256096839905, 0.05078125, 0.209228515625, -0.78759765625
38, 430485995, -5.384424686431885, -2.2886524200439453, 7.709532737731934, 0.15831850469112396, -0.7546782493591309, -0.7731578350067139, 0.05078125, 0.209716796875, -0.78955078125
39, 430502662, -5.394709587097168, -2.3216352462768555, 7.730649948120117, 0.28643324971199036, -0.7171428799629211, -0.7286557555198669, 0.05029296875, 0.212890625, -0.7890625
40, 430519329, -5.388186931610107, -2.286055564880371, 7.722269535064697, 0.2207878679037094, -0.6189436316490173, -0.6717954874038696, 0.04931640625, 0.211181640625, -0.79052734375
41, 430535996, -5.408627510070801, -2.2749650478363037, 7.716783046722412, 0.09876896440982819, -0.4968607723712921, -0.6261792778968811, 0.05126953125, 0.211181640625, -0.78759765625
42, 430552663, -5.39141845703125, -2.270233631134033, 7.739348888397217, 0.06462724506855011, -0.3743935823440552, -0.6671082973480225, 0.05029296875, 0.211669921875, -0.78759765625
43, 430569330, -5.402411937713623, -2.2771213054656982, 7.705954074859619, -0.010462787933647633, -0.3779793977737427, -0.702210545539856, 0.05224609375, 0.210693359375, -0.787109375
44, 430585997, -5.410445213317871, -2.274000644683838, 7.692447185516357, -0.03483327478170395, -0.5144310593605042, -0.7237893342971802, 0.05029296875, 0.210693359375, -0.7880859375
45, 430602664, -5.392433166503906, -2.2910876274108887, 7.701781749725342, -0.057999953627586365, -0.463666707277298, -0.7426785826683044, 0.0498046875, 0.210205078125, -0.7919921875
46, 430619331, -5.410312175750732, -2.2832038402557373, 7.708986759185791, -0.061713796108961105, -0.5195279717445374, -0.7914963960647583, 0.05224609375, 0.2109375, -0.79150390625
47, 430635998, -5.38619327545166, -2.279500722885132, 7.685476303100586, 0.03907858207821846, -0.5622116327285767, -0.6957434415817261, 0.05126953125, 0.210205078125, -0.7890625
48, 430652665, -5.392994403839111, -2.2777817249298096, 7.717838764190674, 0.03855351731181145, -0.5960331559181213, -0.722111701965332, 0.0517578125, 0.210205078125, -0.7890625
49, 430669332, -5.41153621673584, -2.2731099128723145, 7.731743812561035, 0.0043349489569664, -0.5941377878189087, -0.7452654838562012, 0.04931640625, 0.209716796875, -0.7890625
50, 430685999, -5.402002334594727, -2.2624199390411377, 7.732420444488525, 0.0031951842829585075, -0.6305205821990967, -0.7536792755126953, 0.04931640625, 0.210205078125, -0.791015625
51, 430702666, -5.40103006362915, -2.275949239730835, 7.697736740112305, 0.14966140687465668, -0.7766794562339783, -0.7818275690078735, 0.052490234375, 0.208740234375, -0.7900390625
52, 430719333, -5.376821994781494, -2.2751669883728027, 7.6962714195251465, 0.1826377660036087, -0.8412746787071228, -0.7403479218482971, 0.0517578125, 0.211181640625, -0.79052734375
53, 430736000, -5.399426460266113, -2.2692699432373047, 7.721629619598389, 0.17594005167484283, -0.7419230937957764, -0.7268372178077698, 0.05322265625, 0.210205078125, -0.79052734375
54, 430752667, -5.413330554962158, -2.248525619506836, 7.737557411193848, 0.16153286397457123, -0.8352429270744324, -0.8699225187301636, 0.0498046875, 0.208740234375, -0.79150390625
55, 430769334, -5.392327785491943, -2.26267409324646, 7.722364902496338, 0.12680207192897797, -0.8436822891235352, -0.8249849677085876, 0.0517578125, 0.209228515625, -0.7900390625
56, 430786001, -5.399532318115234, -2.2588000297546387, 7.7054572105407715, 0.08584737032651901, -0.9173957109451294, -0.9355679750442505, 0.05078125, 0.208251953125, -0.7900390625
57, 430802668, -5.402294635772705, -2.2764668464660645, 7.727736473083496, 0.10092044621706009, -0.8834589123725891, -0.8676942586898804, 0.05126953125, 0.210693359375, -0.7900390625
58, 430819335, -5.403804302215576, -2.262758255004883, 7.734354496002197, 0.038182131946086884, -1.0033262968063354, -0.8332452178001404, 0.0517578125, 0.209716796875, -0.78955078125
59, 430836002, -5.400656223297119, -2.2567505836486816, 7.718059539794922, 0.04347115382552147, -0.8773757815361023, -0.88526451587677, 0.04931640625, 0.210205078125, -0.7900390625
60, 430852669, -5.405184268951416, -2.2665927410125732, 7.714937686920166, -0.040570519864559174, -0.8775808215141296, -0.9295105338096619, 0.05126953125, 0.207763671875, -0.78955078125
61, 430869336, -5.397486209869385, -2.2607839107513428, 7.7578229904174805, -0.05469919741153717, -0.8971641659736633, -0.9175019860267639, 0.05126953125, 0.210205078125, -0.79150390625
62, 430886003, -5.394357204437256, -2.251400947570801, 7.7196550369262695, -0.13487647473812103, -0.887275218963623, -0.9701194167137146, 0.0498046875, 0.211669921875, -0.78955078125
63, 430902670, -5.402873992919922, -2.265890121459961, 7.70866584777832, -0.2699066400527954, -0.7783315181732178, -1.0248922109603882, 0.05126953125, 0.211181640625, -0.7890625
64, 430919337, -5.3725056648254395, -2.2570993900299072, 7.694060802459717, -0.23661011457443237, -0.8565526604652405, -1.0567926168441772, 0.04833984375, 0.210693359375, -0.791015625
65, 430936004, -5.382655620574951, -2.2793142795562744, 7.7149763107299805, -0.11119753867387772, -0.8380475044250488, -0.9731929898262024, 0.05029296875, 0.208740234375, -0.7900390625
66, 430952671, -5.365489482879639, -2.2700119018554688, 7.726987838745117, -0.17905837297439575, -0.6546989679336548, -0.9136049151420593, 0.05029296875, 0.2119140625, -0.791015625
67, 430969338, -5.389571189880371, -2.259509801864624, 7.7286458015441895, -0.20931978523731232, -0.5754533410072327, -0.921237587928772, 0.0478515625, 0.208740234375, -0.78857421875
68, 430986005, -5.374000549316406, -2.249596118927002, 7.731531143188477, -0.14366163313388824, -0.6039859056472778, -0.9991385340690613, 0.0478515625, 0.210693359375, -0.7900390625
69, 431002672, -5.3890581130981445, -2.270411729812622, 7.7327985763549805, -0.21916788816452026, -0.45589324831962585, -0.9408441781997681, 0.048828125, 0.209228515625, -0.7919921875
70, 431019339, -5.40010929107666, -2.2650744915008545, 7.762983798980713, -0.25544825196266174, -0.3643278181552887, -0.9070096611976624, 0.048828125, 0.209228515625, -0.7919921875
71, 431036006, -5.400329113006592, -2.2623658180236816, 7.745227336883545, -0.24825109541416168, -0.36266300082206726, -0.8419278264045715, 0.0498046875, 0.209228515625, -0.791015625
72, 431052673, -5.396844863891602, -2.2708487510681152, 7.714566230773926, -0.1937088668346405, -0.2358289361000061, -0.9379626512527466, 0.0517578125, 0.207763671875, -0.78955078125
73, 431069340, -5.393532752990723, -2.268080949783325, 7.7169036865234375, -0.2263266146183014, -0.23004046082496643, -0.8572570085525513, 0.04931640625, 0.210693359375, -0.7880859375
74, 431086007, -5.383761405944824, -2.2559854984283447, 7.717918872833252, -0.222574383020401, -0.3933982849121094, -0.8049303889274597, 0.05029296875, 0.211181640625, -0.7880859375
75, 431102674, -5.399857997894287, -2.268528461456299, 7.733087539672852, -0.04066016152501106, -0.57326340675354, -0.7805341482162476, 0.05029296875, 0.210205078125, -0.79052734375
76, 431119341, -5.398938179016113, -2.2795186042785645, 7.7080559730529785, 0.09966541081666946, -0.6538665294647217, -0.7646287083625793, 0.04833984375, 0.210693359375, -0.78857421875
77, 431136008, -5.391769886016846, -2.2607576847076416, 7.6997175216674805, 0.23294112086296082, -0.76680588722229, -0.7962733507156372, 0.0498046875, 0.208740234375, -0.78857421875
78, 431152675, -5.374993324279785, -2.2735159397125244, 7.708995342254639, 0.23665495216846466, -0.6949622631072998, -0.7278233170509338, 0.05029296875, 0.207763671875, -0.78857421875
79, 431169342, -5.3901190757751465, -2.248631477355957, 7.729682445526123, 0.22917601466178894, -0.7133904695510864, -0.7929434776306152, 0.0517578125, 0.209228515625, -0.7919921875
80, 431186009, -5.3981242179870605, -2.2420341968536377, 7.692685127258301, 0.1627494841814041, -0.757764458656311, -0.7180392146110535, 0.051025390625, 0.206787109375, -0.79052734375
81, 431202676, -5.386640548706055, -2.2520973682403564, 7.7391886711120605, 0.28456348180770874, -0.7154778838157654, -0.692541778087616, 0.05029296875, 0.208251953125, -0.79150390625
82, 431219343, -5.386605262756348, -2.2588393688201904, 7.712072849273682, 0.3347899913787842, -0.7480316758155823, -0.6860361695289612, 0.0498046875, 0.211669921875, -0.7919921875
83, 431236010, -5.385452747344971, -2.2667858600616455, 7.7320098876953125, 0.4407753348350525, -0.8514942526817322, -0.6233619451522827, 0.05078125, 0.208251953125, -0.79150390625
84, 431252677, -5.37278938293457, -2.2614145278930664, 7.723276615142822, 0.593542218208313, -0.8553617000579834, -0.5327057242393494, 0.04833984375, 0.207275390625, -0.79052734375
85, 431269344, -5.3809709548950195, -2.26267409324646, 7.7450761795043945, 0.5672764182090759, -0.7013140916824341, -0.48616743087768555, 0.048828125, 0.208740234375, -0.793212890625
86, 431286011, -5.396068572998047, -2.24082612991333, 7.738894462585449, 0.4012037515640259, -0.580729603767395, -0.5621347427368164, 0.05029296875, 0.207275390625, -0.791015625
87, 431302678, -5.385209560394287, -2.244168758392334, 7.745748996734619, 0.3442922830581665, -0.6494099497795105, -0.4720292091369629, 0.0498046875, 0.210693359375, -0.791015625
88, 431319345, -5.402024269104004, -2.220475673675537, 7.740555763244629, 0.2225039154291153, -0.572763979434967, -0.6119000911712646, 0.05126953125, 0.208251953125, -0.78857421875
89, 431336012, -5.398059368133545, -2.2229597568511963, 7.735429286956787, 0.15322156250476837, -0.5176966190338135, -0.6386910676956177, 0.05029296875, 0.207763671875, -0.7919921875
90, 431352679, -5.377219200134277, -2.2371654510498047, 7.736563205718994, 0.05119338259100914, -0.6388063430786133, -0.7375560402870178, 0.0478515625, 0.206298828125, -0.79052734375
91, 431369346, -5.388156414031982, -2.2397570610046387, 7.7252116203308105, 0.013696390204131603, -0.5199634432792664, -0.7733370065689087, 0.04931640625, 0.208740234375, -0.78955078125
92, 431386013, -5.378035068511963, -2.2452876567840576, 7.722961902618408, -0.037906795740127563, -0.5685891509056091, -0.7654355764389038, 0.0478515625, 0.208251953125, -0.791015625
93, 431402680, -5.390617847442627, -2.2379205226898193, 7.729349613189697, 0.021930871531367302, -0.45415157079696655, -0.7700457572937012, 0.052001953125, 0.207763671875, -0.79296875
94, 431419347, -5.39415979385376, -2.238255739212036, 7.735783576965332, -0.09963340312242508, -0.447581946849823, -0.781417965888977, 0.04931640625, 0.208740234375, -0.79248046875
95, 431436014, -5.378715515136719, -2.24709415435791, 7.733224391937256, 0.055179473012685776, -0.46521860361099243, -0.7708220481872559, 0.052001953125, 0.205322265625, -0.78955078125
96, 431452681, -5.388587474822998, -2.2325780391693115, 7.729928493499756, -0.024997994303703308, -0.4607340395450592, -0.7753347754478455, 0.05029296875, 0.207763671875, -0.79052734375
97, 431469348, -5.391936779022217, -2.2243824005126953, 7.739908695220947, -0.03301476687192917, -0.4541771709918976, -0.7509258389472961, 0.052490234375, 0.207275390625, -0.79248046875
98, 431486015, -5.396905899047852, -2.235553503036499, 7.733757019042969, -0.09052807837724686, -0.45412594079971313, -0.8932812809944153, 0.052001953125, 0.206298828125, -0.79052734375
99, 431502682, -5.385831356048584, -2.2327351570129395, 7.735330581665039, -0.19004623591899872, -0.3775952458381653, -0.8501623868942261, 0.050537109375, 0.205322265625, -0.79150390625
100, 431519349, -5.393345832824707, -2.230881929397583, 7.738675594329834, -0.17028602957725525, -0.35591408610343933, -0.8571802377700806, 0.04833984375, 0.208251953125, -0.793212890625
101, 431536016, -5.394888877868652, -2.2390215396881104, 7.739363193511963, -0.24723941087722778, -0.34493908286094666, -0.843874454498291, 0.048828125, 0.206298828125, -0.792724609375
102, 431552683, -5.399764060974121, -2.23471999168396, 7.711643218994141, -0.25433412194252014, -0.4217514991760254, -0.9142836928367615, 0.052001953125, 0.206787109375, -0.79296875
103, 431569350, -5.393969535827637, -2.2386279106140137, 7.747353553771973, -0.24115636944770813, -0.4503224790096283, -0.9048070311546326, 0.052001953125, 0.206787109375, -0.79150390625
104, 431586017, -5.39833402633667, -2.241614818572998, 7.723103046417236, -0.25843214988708496, -0.44741541147232056, -0.9420222640037537, 0.05078125, 0.206787109375, -0.7900390625
105, 431602684, -5.384276866912842, -2.2340805530548096, 7.715582370758057, -0.2056187391281128, -0.37345877289772034, -0.8783106207847595, 0.05029296875, 0.206787109375, -0.79052734375
106, 431619351, -5.400269508361816, -2.2300519943237305, 7.7349934577941895, -0.22890068590641022, -0.44162696599960327, -0.869166910648346, 0.053955078125, 0.208251953125, -0.79296875
107, 431636018, -5.383544921875, -2.230363607406616, 7.73397970199585, -0.1949126124382019, -0.48894640803337097, -0.91684490442276, 0.05029296875, 0.206298828125, -0.7890625
108, 431652685, -5.379760265350342, -2.226647138595581, 7.738022327423096, -0.2034928798675537, -0.4017351269721985, -0.8680271506309509, 0.050537109375, 0.206298828125, -0.79248046875
109, 431669352, -5.4026408195495605, -2.2238729000091553, 7.727355480194092, -0.2313467264175415, -0.20591330528259277, -0.7813538312911987, 0.05029296875, 0.207763671875, -0.79052734375
110, 431686019, -5.395510196685791, -2.2374277114868164, 7.72044038772583, -0.1943875551223755, -0.37262633442878723, -0.813356876373291, 0.04931640625, 0.205322265625, -0.7919921875
111, 431702686, -5.396475315093994, -2.2246012687683105, 7.736970901489258, -0.1548415571451187, -0.3533143699169159, -0.7325999736785889, 0.04833984375, 0.208251953125, -0.792236328125
112, 431719353, -5.41101598739624, -2.2158377170562744, 7.723036289215088, -0.058870796114206314, -0.49006062746047974, -0.8605355620384216, 0.05224609375, 0.208740234375, -0.7919921875
113, 431736020, -5.406366348266602, -2.210214614868164, 7.731568336486816, -0.12548941373825073, -0.6323903203010559, -0.8978787660598755, 0.053466796875, 0.206787109375, -0.7919921875
114, 431752687, -5.395134925842285, -2.2283458709716797, 7.7367329597473145, -0.056002162396907806, -0.588618278503418, -0.8802059888839722, 0.051513671875, 0.206298828125, -0.78955078125
115, 431769354, -5.3841352462768555, -2.2357358932495117, 7.737661361694336, -0.0032912318129092455, -0.5969551801681519, -0.8583583831787109, 0.0498046875, 0.207275390625, -0.78857421875
116, 431786021, -5.392449855804443, -2.2229959964752197, 7.727414131164551, -0.17689411342144012, -0.502008855342865, -0.7798042297363281, 0.048828125, 0.207763671875, -0.7900390625
117, 431802688, -5.395938873291016, -2.239318609237671, 7.74422550201416, -0.18218311667442322, -0.41315844655036926, -0.8485743403434753, 0.04833984375, 0.206787109375, -0.78759765625
118, 431819355, -5.396387100219727, -2.2230224609375, 7.723553657531738, -0.17405109107494354, -0.31623998284339905, -0.7804317474365234, 0.04931640625, 0.208251953125, -0.79052734375
119, 431836022, -5.401476860046387, -2.2277421951293945, 7.749592304229736, -0.12491312623023987, -0.4661383330821991, -0.8766202330589294, 0.051025390625, 0.205810546875, -0.78759765625
120, 431852689, -5.396806240081787, -2.2243998050689697, 7.730286121368408, -0.13193100690841675, -0.550416886806488, -0.8812817335128784, 0.051025390625, 0.205322265625, -0.7880859375
121, 431869356, -5.399463653564453, -2.2284066677093506, 7.735692024230957, -0.268766850233078, -0.45261481404304504, -0.8990569710731506, 0.050537109375, 0.205322265625, -0.7890625
122, 431886023, -5.376773834228516, -2.218231678009033, 7.721144199371338, -0.2859017848968506, -0.4161551594734192, -0.8922056555747986, 0.0478515625, 0.209228515625, -0.7900390625
123, 431902690, -5.404120922088623, -2.2180349826812744, 7.720066547393799, -0.31420376896858215, -0.3196721076965332, -0.8844960927963257, 0.052490234375, 0.206787109375, -0.7939453125
124, 431919357, -5.394504547119141, -2.238539218902588, 7.740610599517822, -0.26943278312683105, -0.2478668987751007, -0.9080597758293152, 0.051025390625, 0.206787109375, -0.78955078125
125, 431936024, -5.400297164916992, -2.231733798980713, 7.72857141494751, -0.253476083278656, -0.3070962727069855, -0.8001280426979065, 0.05126953125, 0.208251953125, -0.78857421875
126, 431952691, -5.405849933624268, -2.2168545722961426, 7.712194442749023, -0.23983731865882874, -0.5161983966827393, -0.8535687923431396, 0.051025390625, 0.203857421875, -0.7890625
127, 431969358, -5.399885177612305, -2.218595504760742, 7.713130474090576, -0.07626180350780487, -0.6158189177513123, -0.8817683458328247, 0.05029296875, 0.207275390625, -0.78857421875
128, 431986025, -5.411000728607178, -2.2339086532592773, 7.718167304992676, -0.10421150922775269, -0.5761410593986511, -1.0125561952590942, 0.0498046875, 0.207275390625, -0.791015625
129, 432002692, -5.3951802253723145, -2.2393932342529297, 7.744598865509033, 0.16618157923221588, -0.7004048824310303, -0.8764281272888184, 0.04931640625, 0.208251953125, -0.7900390625
130, 432019359, -5.404750347137451, -2.2239174842834473, 7.707730770111084, 0.1269301325082779, -0.644825279712677, -0.7989752888679504, 0.052001953125, 0.205810546875, -0.79296875
131, 432036026, -5.393496036529541, -2.2247090339660645, 7.727619647979736, 0.02803950011730194, -0.5804861783981323, -0.8257790207862854, 0.051025390625, 0.206298828125, -0.78857421875
132, 432052693, -5.402867317199707, -2.2073974609375, 7.729567050933838, -0.11030108481645584, -0.5027516484260559, -0.8745200037956238, 0.052001953125, 0.203857421875, -0.79248046875
133, 432069360, -5.399044990539551, -2.2214808464050293, 7.736844062805176, -0.2429492473602295, -0.53366619348526, -0.8933709263801575, 0.052001953125, 0.203857421875, -0.79052734375
134, 432086027, -5.3858819007873535, -2.228806495666504, 7.717228889465332, -0.21313606202602386, -0.5704588294029236, -0.8911938667297363, 0.051025390625, 0.206298828125, -0.79345703125
135, 432102694, -5.39967155456543, -2.226407289505005, 7.717564105987549, -0.1897132396697998, -0.5987608432769775, -0.8677452802658081, 0.049560546875, 0.203125, -0.791015625
136, 432119361, -5.393054962158203, -2.225321054458618, 7.7333502769470215, -0.18127389252185822, -0.7511436343193054, -1.013609766960144, 0.05029296875, 0.206298828125, -0.791015625
137, 432136028, -5.398781776428223, -2.214071750640869, 7.752240180969238, -0.07126733660697937, -0.8089130520820618, -0.9755365252494812, 0.05029296875, 0.207763671875, -0.7890625
138, 432152695, -5.391724586486816, -2.225341558456421, 7.723852634429932, -0.14143331348896027, -0.7175140976905823, -0.9030396938323975, 0.051513671875, 0.206298828125, -0.79296875
139, 432169362, -5.3858418464660645, -2.225421667098999, 7.742133140563965, -0.08059035241603851, -0.5729945302009583, -0.852954089641571, 0.048828125, 0.206787109375, -0.78955078125
140, 432186029, -5.390113353729248, -2.232255697250366, 7.738895416259766, -0.1128111258149147, -0.4767291843891144, -0.92030268907547, 0.05029296875, 0.207763671875, -0.791015625
141, 432202696, -5.408660411834717, -2.2255935668945312, 7.731280326843262, -0.10310392826795578, -0.455957293510437, -0.8768636584281921, 0.051513671875, 0.204833984375, -0.79052734375
142, 432219363, -5.4051079750061035, -2.2220444679260254, 7.721421241760254, -0.146363765001297, -0.4807887673377991, -0.9078804850578308, 0.052490234375, 0.204833984375, -0.79052734375
143, 432236030, -5.399936199188232, -2.22756028175354, 7.727762699127197, -0.1830795705318451, -0.549289882183075, -0.9617568254470825, 0.052001953125, 0.206298828125, -0.7890625
144, 432252697, -5.406378269195557, -2.2234878540039062, 7.7308878898620605, -0.13039426505565643, -0.6692470908164978, -0.8791431784629822, 0.048828125, 0.206298828125, -0.78857421875
145, 432269364, -5.401224613189697, -2.2245678901672363, 7.7423319816589355, 0.02031727507710457, -0.7983222603797913, -0.9251179695129395, 0.051025390625, 0.204833984375, -0.79052734375
146, 432286031, -5.3937835693359375, -2.2168614864349365, 7.740806579589844, -0.002087435219436884, -0.7408217787742615, -1.0218186378479004, 0.050537109375, 0.205322265625, -0.79296875
147, 432302698, -5.398030757904053, -2.2083213329315186, 7.7336106300354, -0.07841327041387558, -0.6604875326156616, -0.9037312865257263, 0.04833984375, 0.205810546875, -0.7890625
148, 432319365, -5.3911452293396, -2.2105519771575928, 7.741810321807861, -0.07760649174451828, -0.6886487007141113, -1.0045173168182373, 0.0498046875, 0.205810546875, -0.79345703125
149, 432336032, -5.384059906005859, -2.2284865379333496, 7.7542853355407715, -0.05788470804691315, -0.7316139340400696, -0.9594132900238037, 0.052490234375, 0.205322265625, -0.79150390625
150, 432352699, -5.372215747833252, -2.217485189437866, 7.7434983253479, -0.02139941230416298, -0.6817716956138611, -0.8923977613449097, 0.050048828125, 0.204345703125, -0.79345703125
151, 432369366, -5.387620449066162, -2.209369421005249, 7.7287702560424805, 0.016603432595729828, -0.6926571130752563, -0.8974050283432007, 0.051025390625, 0.206787109375, -0.79345703125
152, 432386033, -5.370013236999512, -2.23246693611145, 7.7388811111450195, -0.13253290951251984, -0.5539515018463135, -0.8473448753356934, 0.04931640625, 0.204833984375, -0.79248046875
153, 432402700, -5.39497184753418, -2.2196497917175293, 7.748632431030273, -0.17528051137924194, -0.5980179905891418, -0.8037392497062683, 0.04931640625, 0.205810546875, -0.793212890625
154, 432419367, -5.3923869132995605, -2.213043212890625, 7.73603630065918, -0.15190893411636353, -0.448081374168396, -0.8653122782707214, 0.05029296875, 0.207275390625, -0.79248046875
155, 432436034, -5.399744987487793, -2.2067513465881348, 7.73231315612793, -0.2610062062740326, -0.4630776047706604, -0.9460946321487427, 0.050537109375, 0.205810546875, -0.79150390625
156, 432452701, -5.399805545806885, -2.203338146209717, 7.734403610229492, -0.1769709438085556, -0.6035248041152954, -0.9425473213195801, 0.052001953125, 0.204345703125, -0.7919921875
157, 432469368, -5.391977310180664, -2.2182483673095703, 7.743844985961914, -0.1695432811975479, -0.6791207790374756, -0.9444811344146729, 0.04931640625, 0.204345703125, -0.79052734375
158, 432486035, -5.390965461730957, -2.2196176052093506, 7.745006561279297, 0.012799946591258049, -0.6877906918525696, -0.8118329644203186, 0.0478515625, 0.206787109375, -0.79150390625
159, 432502702, -5.39230489730835, -2.220055341720581, 7.729009628295898, -0.15087158977985382, -0.5495460629463196, -0.8627253174781799, 0.05029296875, 0.208251953125, -0.79345703125
160, 432519369, -5.383995532989502, -2.2337770462036133, 7.753969669342041, -0.18619149923324585, -0.5126892924308777, -0.8745968341827393, 0.05078125, 0.206787109375, -0.7919921875
161, 432536036, -5.378004550933838, -2.22096848487854, 7.744427680969238, -0.17251433432102203, -0.46707314252853394, -0.973077654838562, 0.051025390625, 0.204345703125, -0.79052734375
162, 432552703, -5.3872551918029785, -2.2250943183898926, 7.716521739959717, -0.14351655542850494, -0.47378647327423096, -0.9712917804718018, 0.050048828125, 0.205322265625, -0.78955078125
163, 432569370, -5.395092487335205, -2.20290470123291, 7.7601776123046875, -0.2079622894525528, -0.4550992548465729, -0.9884708523750305, 0.051025390625, 0.206787109375, -0.79052734375
164, 432586037, -5.384472370147705, -2.206342935562134, 7.727217674255371, -0.2454080581665039, -0.47008270025253296, -1.0463299751281738, 0.0478515625, 0.206298828125, -0.791015625
165, 432602704, -5.394842147827148, -2.2137742042541504, 7.7309417724609375, -0.16964572668075562, -0.4713505506515503, -1.0987080335617065, 0.05078125, 0.206787109375, -0.79150390625
166, 432619371, -5.397353172302246, -2.210110664367676, 7.753510475158691, -0.13262255489826202, -0.5476378798484802, -1.0288363695144653, 0.05029296875, 0.206787109375, -0.7919921875
167, 432636038, -5.379850387573242, -2.2213282585144043, 7.74615478515625, -0.2736460566520691, -0.6466182470321655, -1.05703604221344, 0.04931640625, 0.205322265625, -0.78955078125
168, 432652705, -5.392125129699707, -2.2044761180877686, 7.736506938934326, -0.21775919198989868, -0.6046518683433533, -1.029067039489746, 0.050048828125, 0.205322265625, -0.791015625
169, 432669372, -5.404578685760498, -2.2131457328796387, 7.756028175354004, -0.22236944735050201, -0.6054585576057434, -0.9724757075309753, 0.04931640625, 0.205322265625, -0.79052734375
170, 432686039, -5.388016700744629, -2.2193281650543213, 7.742077827453613, -0.1727832555770874, -0.48851099610328674, -0.8968030214309692, 0.051025390625, 0.203857421875, -0.791015625
171, 432702706, -5.378795146942139, -2.2085344791412354, 7.750168800354004, -0.22920802235603333, -0.5175942182540894, -0.9003632068634033, 0.04833984375, 0.207275390625, -0.792236328125
172, 432719373, -5.3971405029296875, -2.200593948364258, 7.739677906036377, -0.2740558981895447, -0.49793654680252075, -0.9942722320556641, 0.04931640625, 0.205810546875, -0.79150390625
173, 432736040, -5.392101287841797, -2.220362424850464, 7.738471508026123, -0.2980549931526184, -0.6396644711494446, -0.9931196570396423, 0.050537109375, 0.205322265625, -0.7900390625
174, 432752707, -5.391409397125244, -2.2183477878570557, 7.750792026519775, -0.3266131579875946, -0.640842616558075, -1.02519953250885, 0.0478515625, 0.204833984375, -0.79150390625
175, 432769374, -5.394124507904053, -2.2127177715301514, 7.733767509460449, -0.3570026457309723, -0.6486160755157471, -1.0728904008865356, 0.04931640625, 0.205810546875, -0.79150390625
176, 432786041, -5.396127223968506, -2.210256814956665, 7.727961540222168, -0.33419451117515564, -0.716963529586792, -1.0796393156051636, 0.048828125, 0.205322265625, -0.7890625
177, 432802708, -5.380854606628418, -2.2220382690429688, 7.750382900238037, -0.343863308429718, -0.6171892285346985, -1.076220154762268, 0.0498046875, 0.205810546875, -0.7900390625
178, 432819375, -5.377623558044434, -2.221223831176758, 7.761790752410889, -0.26943278312683105, -0.6136418581008911, -1.100564956665039, 0.051513671875, 0.204345703125, -0.791015625
179, 432836042, -5.382643222808838, -2.2106409072875977, 7.718144416809082, -0.3241671323776245, -0.4966302514076233, -1.1421599388122559, 0.04931640625, 0.205810546875, -0.7900390625
180, 432852709, -5.378651142120361, -2.2324182987213135, 7.742717266082764, -0.3755333423614502, -0.5113831758499146, -1.0295919179916382, 0.050537109375, 0.205810546875, -0.7900390625
181, 432869376, -5.40481424331665, -2.2098162174224854, 7.765356063842773, -0.30135899782180786, -0.5684994459152222, -1.0086408853530884, 0.0498046875, 0.205810546875, -0.7890625
182, 432886043, -5.396327495574951, -2.2160398960113525, 7.731767177581787, -0.3940257728099823, -0.5611485838890076, -1.000278353691101, 0.04931640625, 0.206298828125, -0.79248046875
183, 432902710, -5.386046886444092, -2.2214066982269287, 7.7256903648376465, -0.27331310510635376, -0.5879395604133606, -1.033267617225647, 0.04833984375, 0.208251953125, -0.791015625
184, 432919377, -5.387908458709717, -2.21431827545166, 7.752650260925293, -0.3487296998500824, -0.6778016686439514, -1.1149464845657349, 0.05078125, 0.206787109375, -0.791015625
185, 432936044, -5.385066986083984, -2.2165277004241943, 7.738465785980225, -0.24305172264575958, -0.7321902513504028, -1.0565365552902222, 0.04931640625, 0.207763671875, -0.79150390625
186, 432952711, -5.3689398765563965, -2.2344822883605957, 7.72346305847168, -0.21498018503189087, -0.7182697653770447, -1.0059900283813477, 0.048828125, 0.205322265625, -0.793212890625
187, 432969378, -5.37991189956665, -2.2298059463500977, 7.745224952697754, -0.17050373554229736, -0.6741902232170105, -0.9614494442939758, 0.0498046875, 0.205322265625, -0.791015625
188, 432986045, -5.392624855041504, -2.2252607345581055, 7.746279239654541, -0.4201250970363617, -0.5205013155937195, -0.9727832078933716, 0.046875, 0.205810546875, -0.793212890625
189, 433002712, -5.379610061645508, -2.2123868465423584, 7.748012065887451, -0.38714879751205444, -0.5466902852058411, -0.982528805732727, 0.0498046875, 0.206298828125, -0.791015625
190, 433019379, -5.390449523925781, -2.219526767730713, 7.719954013824463, -0.2833532691001892, -0.56554114818573, -0.9045636653900146, 0.0498046875, 0.206787109375, -0.791015625
191, 433036046, -5.371831893920898, -2.2268993854522705, 7.732687473297119, -0.34977978467941284, -0.5496100783348083, -0.9326096177101135, 0.04931640625, 0.207275390625, -0.78857421875
192, 433052713, -5.385469913482666, -2.214601516723633, 7.75464391708374, -0.297914057970047, -0.5698056817054749, -0.9302788376808167, 0.04833984375, 0.206787109375, -0.792724609375
193, 433069380, -5.385462760925293, -2.2191741466522217, 7.750272750854492, -0.3524051308631897, -0.4802125096321106, -1.0438072681427002, 0.048828125, 0.206787109375, -0.791015625
194, 433086047, -5.385134220123291, -2.212433338165283, 7.728790760040283, -0.25729236006736755, -0.5993499755859375, -1.1041377782821655, 0.05029296875, 0.206298828125, -0.7900390625
195, 433102714, -5.3798322677612305, -2.22204852104187, 7.735178470611572, -0.30757570266723633, -0.6386140584945679, -1.026221513748169, 0.04736328125, 0.204345703125, -0.79052734375
196, 433119381, -5.389877796173096, -2.2252063751220703, 7.746386528015137, -0.29993751645088196, -0.5832779407501221, -0.9672507643699646, 0.050048828125, 0.205322265625, -0.7900390625
197, 433136048, -5.359505653381348, -2.235792636871338, 7.733278274536133, -0.2520673871040344, -0.6434294581413269, -0.983117938041687, 0.051025390625, 0.206298828125, -0.79052734375
198, 433152715, -5.3767218589782715, -2.2362637519836426, 7.743630886077881, -0.20289097726345062, -0.47967463731765747, -0.9651632905006409, 0.04833984375, 0.204833984375, -0.78955078125
199, 433169382, -5.385545253753662, -2.214155673980713, 7.748270034790039, -0.2794729769229889, -0.5028541684150696, -0.9958473443984985, 0.0478515625, 0.206298828125, -0.7900390625
200, 433186049, -5.384971618652344, -2.2320382595062256, 7.719094753265381, -0.23613625764846802, -0.5038529634475708, -0.9749090075492859, 0.048828125, 0.206787109375, -0.79052734375
201, 433202716, -5.379720687866211, -2.213848114013672, 7.745425224304199, -0.22656995058059692, -0.6320573687553406, -0.9146423935890198, 0.0498046875, 0.208251953125, -0.79150390625
202, 433219383, -5.383687973022461, -2.2119944095611572, 7.749570369720459, -0.20199456810951233, -0.5296962261199951, -0.9193806052207947, 0.051025390625, 0.206787109375, -0.79296875
203, 433236050, -5.380679607391357, -2.2167422771453857, 7.727161884307861, -0.1800316572189331, -0.5307207107543945, -0.9313545823097229, 0.04931640625, 0.204833984375, -0.7919921875
204, 433252717, -5.378580093383789, -2.231559991836548, 7.7402801513671875, -0.18488527834415436, -0.5601241588592529, -0.9825672507286072, 0.05126953125, 0.207275390625, -0.78955078125
205, 433269384, -5.371146202087402, -2.231119394302368, 7.738813400268555, -0.14959096908569336, -0.6069825887680054, -1.0445371866226196, 0.051025390625, 0.205322265625, -0.791015625
206, 433286051, -5.378133296966553, -2.2180776596069336, 7.714519023895264, -0.21576136350631714, -0.4985383450984955, -0.947016716003418, 0.048828125, 0.207275390625, -0.791015625
207, 433302718, -5.3723673820495605, -2.217315673828125, 7.7511091232299805, -0.26452791690826416, -0.4996013045310974, -0.9561476111412048, 0.04931640625, 0.205322265625, -0.79052734375
208, 433319385, -5.390072822570801, -2.2185497283935547, 7.738595485687256, -0.27994680404663086, -0.565759003162384, -0.9417662620544434, 0.05029296875, 0.206787109375, -0.79296875
209, 433336052, -5.381653308868408, -2.217763662338257, 7.76607608795166, -0.3574123978614807, -0.5065167546272278, -1.021383285522461, 0.05029296875, 0.206298828125, -0.79345703125
210, 433352719, -5.386331081390381, -2.223933219909668, 7.729250431060791, -0.36957845091819763, -0.4390144646167755, -1.013635277748108, 0.048828125, 0.206298828125, -0.7919921875
211, 433369386, -5.383651256561279, -2.219590902328491, 7.739792823791504, -0.36581337451934814, -0.4165521264076233, -1.0733513832092285, 0.050048828125, 0.205322265625, -0.791015625
212, 433386053, -5.389036655426025, -2.219162940979004, 7.712770938873291, -0.4084969460964203, -0.41021302342414856, -1.023112177848816, 0.04833984375, 0.208740234375, -0.79150390625
213, 433402720, -5.386314868927002, -2.2233681678771973, 7.721654891967773, -0.26833146810531616, -0.5400822162628174, -1.1432740688323975, 0.04931640625, 0.205810546875, -0.78955078125
214, 433419387, -5.393523216247559, -2.222752809524536, 7.747457027435303, -0.2767324149608612, -0.5759527683258057, -1.0079621076583862, 0.050537109375, 0.205322265625, -0.791015625
215, 433436054, -5.373589038848877, -2.2341344356536865, 7.746826648712158, -0.11835629492998123, -0.7057963609695435, -0.987484872341156, 0.05029296875, 0.207763671875, -0.791015625
216, 433452721, -5.3717193603515625, -2.236391067504883, 7.7267632484436035, 0.06895579397678375, -0.7923160791397095, -0.8079655170440674, 0.048828125, 0.204833984375, -0.79296875
217, 433469388, -5.377614498138428, -2.2163450717926025, 7.75973653793335, -0.13180294632911682, -0.6133601069450378, -0.8548365831375122, 0.046875, 0.206298828125, -0.79052734375
218, 433486055, -5.3788743019104, -2.208223819732666, 7.757479667663574, -0.3216058313846588, -0.5365476012229919, -0.8866219520568848, 0.04833984375, 0.206787109375, -0.793212890625
219, 433502722, -5.380961894989014, -2.2195262908935547, 7.746856689453125, -0.3341176509857178, -0.4801100492477417, -1.0768731832504272, 0.04931640625, 0.207275390625, -0.7900390625
220, 433519389, -5.376380443572998, -2.2249739170074463, 7.773752689361572, -0.40713945031166077, -0.42221251130104065, -0.9562628865242004, 0.04833984375, 0.207275390625, -0.79052734375
221, 433536056, -5.386143684387207, -2.2337865829467773, 7.753932476043701, -0.43959078192710876, -0.33105698227882385, -1.1066224575042725, 0.050537109375, 0.205322265625, -0.78955078125
222, 433552723, -5.383750915527344, -2.2188215255737305, 7.729907989501953, -0.47839391231536865, -0.4040274918079376, -1.0125212669372559, 0.04833984375, 0.205322265625, -0.78955078125
223, 433569390, -5.3835673332214355, -2.237109661102295, 7.737491130828857, -0.4048599302768707, -0.4137219190597534, -1.0791399478912354, 0.050048828125, 0.205322265625, -0.79150390625
224, 433586057, -5.388769149780273, -2.212284803390503, 7.7435622215271, -0.302831768989563, -0.42674604058265686, -1.0868749618530273, 0.05078125, 0.207763671875, -0.79248046875
225, 433602724, -5.381991386413574, -2.2129762172698975, 7.726197719573975, -0.36317530274391174, -0.6347211003303528, -1.112205982208252, 0.048828125, 0.207763671875, -0.79248046875
226, 433619391, -5.396986961364746, -2.236649990081787, 7.730179309844971, -0.3462068736553192, -0.6085962057113647, -1.164046049118042, 0.048828125, 0.206298828125, -0.793212890625
227, 433636058, -5.378971099853516, -2.2339062690734863, 7.756803035736084, -0.3111302852630615, -0.623054563999176, -0.9993947744369507, 0.05126953125, 0.207763671875, -0.7939453125
228, 433652725, -5.385333061218262, -2.2264211177825928, 7.753597736358643, -0.34360721707344055, -0.5820614695549011, -1.0822774171829224, 0.051025390625, 0.205322265625, -0.79052734375
229, 433669392, -5.37818717956543, -2.23412823677063, 7.7513885498046875, -0.2594977915287018, -0.5260907411575317, -0.9935376644134521, 0.049560546875, 0.204345703125, -0.7919921875
230, 433686059, -5.384040832519531, -2.2102723121643066, 7.759459018707275, -0.2779618203639984, -0.550224781036377, -1.1384716033935547, 0.0478515625, 0.207275390625, -0.791015625
231, 433702726, -5.397984981536865, -2.2270302772521973, 7.746925354003906, -0.3951527178287506, -0.6772510409355164, -1.2305622100830078, 0.0478515625, 0.208251953125, -0.792236328125
232, 433719393, -5.386073589324951, -2.228849411010742, 7.736446857452393, -0.3972786068916321, -0.6093645691871643, -1.1920790672302246, 0.048828125, 0.207275390625, -0.79150390625
233, 433736060, -5.361709117889404, -2.2483389377593994, 7.737673282623291, -0.36339297890663147, -0.6049591898918152, -1.1601145267486572, 0.051025390625, 0.206787109375, -0.791015625
234, 433752727, -5.3765435218811035, -2.2331037521362305, 7.742672920227051, -0.34492623805999756, -0.4988073408603668, -1.1524946689605713, 0.05078125, 0.206787109375, -0.791015625
235, 433769394, -5.381213188171387, -2.2255442142486572, 7.755590915679932, -0.4251323640346527, -0.4746033251285553, -1.1448876857757568, 0.04931640625, 0.205322265625, -0.79052734375
236, 433786061, -5.385072231292725, -2.2228803634643555, 7.75166130065918, -0.48874154686927795, -0.6091212630271912, -1.1508939266204834, 0.04638671875, 0.207763671875, -0.793701171875
237, 433802728, -5.370882987976074, -2.2207589149475098, 7.7363715171813965, -0.5407353639602661, -0.5637227296829224, -1.1772878170013428, 0.048828125, 0.207763671875, -0.79150390625
238, 433819395, -5.37277889251709, -2.2234599590301514, 7.747330188751221, -0.5696648955345154, -0.5765290260314941, -1.296425223350525, 0.05029296875, 0.206787109375, -0.791015625
239, 433836062, -5.375558853149414, -2.2559120655059814, 7.720340728759766, -0.63080233335495, -0.6594757437705994, -1.3275445699691772, 0.0498046875, 0.206298828125, -0.79150390625
240, 433852729, -5.377530097961426, -2.2475225925445557, 7.754047870635986, -0.5926650166511536, -0.7008914947509766, -1.2665222883224487, 0.048828125, 0.205322265625, -0.79296875
241, 433869396, -5.36897087097168, -2.2288503646850586, 7.752059459686279, -0.5550400018692017, -0.7151961922645569, -1.3389679193496704, 0.0498046875, 0.208740234375, -0.7900390625
242, 433886063, -5.367602825164795, -2.231661558151245, 7.749527931213379, -0.7121227383613586, -0.6038834452629089, -1.475189208984375, 0.048828125, 0.207275390625, -0.7900390625
243, 433902730, -5.362812519073486, -2.2327322959899902, 7.719758033752441, -0.8604841828346252, -0.6069313883781433, -1.489762544631958, 0.04833984375, 0.208740234375, -0.78759765625
244, 433919397, -5.377861022949219, -2.256809949874878, 7.735837459564209, -1.0207043886184692, -0.4725414216518402, -1.574258804321289, 0.04833984375, 0.209716796875, -0.7900390625
245, 433936064, -5.378596782684326, -2.245670795440674, 7.748632431030273, -1.309462070465088, -0.40530821681022644, -1.6119223833084106, 0.0498046875, 0.209228515625, -0.7900390625
246, 433952731, -5.372854232788086, -2.268677234649658, 7.737289905548096, -1.3858776092529297, -0.19414427876472473, -1.6172114610671997, 0.0498046875, 0.207275390625, -0.79150390625
247, 433969398, -5.375413417816162, -2.2601821422576904, 7.746007919311523, -1.3721108436584473, -0.16151370108127594, -1.6137281656265259, 0.05078125, 0.208740234375, -0.7890625
248, 433986065, -5.3767499923706055, -2.2781119346618652, 7.733703136444092, -1.167785406112671, -0.25921329855918884, -1.4466050863265991, 0.04736328125, 0.209716796875, -0.792236328125
249, 434002732, -5.384304523468018, -2.266007900238037, 7.730584144592285, -1.178773045539856, -0.25566592812538147, -1.4801703691482544, 0.04833984375, 0.211669921875, -0.791015625
250, 434019399, -5.369804859161377, -2.274099111557007, 7.747523307800293, -1.1846768856048584, -0.1310601830482483, -1.5103679895401, 0.048828125, 0.211181640625, -0.7890625
251, 434036066, -5.385797500610352, -2.263652801513672, 7.717811107635498, -1.0573818683624268, -0.17214293777942657, -1.42859947681427, 0.04931640625, 0.208740234375, -0.78857421875
252, 434052733, -5.383864879608154, -2.2762787342071533, 7.715328693389893, -0.9009522199630737, -0.333413302898407, -1.3368035554885864, 0.0478515625, 0.210693359375, -0.793212890625
253, 434069400, -5.38304328918457, -2.288076877593994, 7.69425630569458, -0.6824376583099365, -0.5319758057594299, -1.275781512260437, 0.048828125, 0.211181640625, -0.791748046875
254, 434086067, -5.369579315185547, -2.2892754077911377, 7.734950542449951, -0.5575116872787476, -0.5502888560295105, -1.1783379316329956, 0.046875, 0.211181640625, -0.7890625
255, 434102734, -5.38578987121582, -2.276272773742676, 7.739007949829102, -0.7150681018829346, -0.5503528118133545, -1.1028828620910645, 0.04833984375, 0.210205078125, -0.792724609375
256, 434119401, -5.382832050323486, -2.2538111209869385, 7.761274337768555, -0.7824550867080688, -0.35468462109565735, -1.305261492729187, 0.0498046875, 0.210205078125, -0.792724609375
257, 434136068, -5.3753533363342285, -2.2803616523742676, 7.7164106369018555, -0.9553409218788147, -0.36165133118629456, -1.3764777183532715, 0.048828125, 0.211669921875, -0.7890625
258, 434152735, -5.376994609832764, -2.313634157180786, 7.726656436920166, -0.8438615798950195, -0.3621123135089874, -1.3059275150299072, 0.04833984375, 0.210693359375, -0.78759765625
259, 434169402, -5.3716816902160645, -2.295591354370117, 7.722936153411865, -0.8307222127914429, -0.3097855746746063, -1.2718369960784912, 0.05126953125, 0.21142578125, -0.78955078125
260, 434186069, -5.387267112731934, -2.2860987186431885, 7.707110404968262, -0.988125205039978, -0.17821316421031952, -1.3072080612182617, 0.048828125, 0.210693359375, -0.7900390625
261, 434202736, -5.393329620361328, -2.2767460346221924, 7.752243518829346, -1.222314715385437, -0.1433926671743393, -1.398248314857483, 0.0498046875, 0.211669921875, -0.79150390625
262, 434219403, -5.38178825378418, -2.281418561935425, 7.732511043548584, -1.3159825801849365, -0.0574527233839035, -1.4938477277755737, 0.048828125, 0.211669921875, -0.7900390625
263, 434236070, -5.371854305267334, -2.298644781112671, 7.694342136383057, -1.1479226350784302, -0.1650354266166687, -1.471846580505371, 0.04931640625, 0.212158203125, -0.7890625
264, 434252737, -5.382735252380371, -2.3200058937072754, 7.6983489990234375, -1.0014694929122925, -0.18459072709083557, -1.4040881395339966, 0.04736328125, 0.212646484375, -0.787109375
265, 434269404, -5.390309810638428, -2.310756206512451, 7.729729175567627, -1.0037742853164673, -0.14715775847434998, -1.3059146404266357, 0.0478515625, 0.212646484375, -0.78759765625
266, 434286071, -5.385647296905518, -2.2913312911987305, 7.724527359008789, -1.336380958557129, -0.16566292941570282, -1.4287787675857544, 0.04833984375, 0.212890625, -0.7890625
267, 434302738, -5.394659996032715, -2.3089723587036133, 7.697047233581543, -1.270889401435852, -0.07879746705293655, -1.554947018623352, 0.04833984375, 0.212158203125, -0.78857421875
268, 434319405, -5.3877973556518555, -2.328848361968994, 7.702462673187256, -1.1591026782989502, -0.27390220761299133, -1.5172450542449951, 0.04931640625, 0.21240234375, -0.7890625
269, 434336072, -5.367068767547607, -2.3281853199005127, 7.710524082183838, -0.8595750331878662, -0.42724546790122986, -1.3843408823013306, 0.0498046875, 0.2138671875, -0.7861328125
270, 434352739, -5.380792140960693, -2.328178882598877, 7.711296558380127, -0.6087754368782043, -0.38448503613471985, -1.252012848854065, 0.05029296875, 0.21240234375, -0.7900390625
271, 434369406, -5.3726091384887695, -2.331650972366333, 7.7178215980529785, -0.5542716383934021, -0.4377722144126892, -1.1499333381652832, 0.05029296875, 0.2119140625, -0.7880859375
272, 434386073, -5.372227191925049, -2.319711208343506, 7.714810371398926, -0.4582752287387848, -0.5217819809913635, -1.1596277952194214, 0.0478515625, 0.212646484375, -0.78759765625
273, 434402740, -5.376091957092285, -2.3234899044036865, 7.724874019622803, -0.5858393311500549, -0.4683922827243805, -1.098567247390747, 0.046875, 0.21435546875, -0.790283203125
274, 434419407, -5.379331588745117, -2.319822311401367, 7.712193012237549, -0.6261281371116638, -0.2609422206878662, -1.1888391971588135, 0.05029296875, 0.21337890625, -0.79052734375
275, 434436074, -5.3949809074401855, -2.3056912422180176, 7.727487087249756, -0.8012035489082336, -0.16609834134578705, -1.2898427248001099, 0.0498046875, 0.21337890625, -0.78955078125
276, 434452741, -5.40023136138916, -2.330864906311035, 7.700436592102051, -0.7739260792732239, -0.35421085357666016, -1.1655442714691162, 0.048828125, 0.212890625, -0.7900390625
277, 434469408, -5.384471893310547, -2.328697681427002, 7.697528839111328, -0.5461780428886414, -0.3896075487136841, -1.2009025812149048, 0.0498046875, 0.210693359375, -0.7880859375
278, 434486075, -5.365797996520996, -2.335202217102051, 7.69519567489624, -0.2133922278881073, -0.611964225769043, -1.0725061893463135, 0.0498046875, 0.21240234375, -0.787109375
279, 434502742, -5.380252361297607, -2.3321402072906494, 7.714468479156494, -0.29963016510009766, -0.5057099461555481, -1.027389407157898, 0.0498046875, 0.21484375, -0.78955078125
280, 434519409, -5.37615966796875, -2.3221137523651123, 7.7124247550964355, -0.25452619791030884, -0.48610344529151917, -0.9059852361679077, 0.0478515625, 0.21337890625, -0.790283203125
281, 434536076, -5.385571479797363, -2.3305835723876953, 7.72357177734375, -0.2447037249803543, -0.47973868250846863, -1.030065894126892, 0.05029296875, 0.21435546875, -0.7890625
282, 434552743, -5.381435394287109, -2.317781448364258, 7.707504749298096, -0.3036513924598694, -0.5658101439476013, -1.025404453277588, 0.05126953125, 0.2138671875, -0.78857421875
283, 434569410, -5.378518104553223, -2.330984354019165, 7.699028968811035, -0.2625557780265808, -0.5579598546028137, -1.012367606163025, 0.04833984375, 0.21435546875, -0.78955078125
284, 434586077, -5.379108905792236, -2.326509952545166, 7.710252285003662, -0.29677438735961914, -0.5094622373580933, -1.0266467332839966, 0.04833984375, 0.2138671875, -0.78955078125
285, 434602744, -5.3805975914001465, -2.3278982639312744, 7.717951774597168, -0.5487905740737915, -0.4499511420726776, -1.0883604288101196, 0.05029296875, 0.21435546875, -0.79052734375
286, 434619411, -5.365700721740723, -2.3445074558258057, 7.70758581161499, -0.32785534858703613, -0.47332271933555603, -0.9744095206260681, 0.0517578125, 0.21337890625, -0.78857421875
287, 434636078, -5.395815372467041, -2.3360307216644287, 7.731231689453125, -0.2808816730976105, -0.6268196702003479, -0.9277560114860535, 0.048828125, 0.21337890625, -0.7890625
288, 434652745, -5.389856338500977, -2.337360143661499, 7.721703052520752, -0.16170577704906464, -0.6245912909507751, -1.000329613685608, 0.04931640625, 0.21435546875, -0.78759765625
289, 434669412, -5.380463600158691, -2.333482027053833, 7.6975789070129395, -0.3262929618358612, -0.5705869197845459, -0.9645614624023438, 0.05029296875, 0.21435546875, -0.787109375
290, 434686079, -5.385232925415039, -2.310840606689453, 7.749823093414307, -0.46323132514953613, -0.3497798442840576, -1.0203715562820435, 0.04931640625, 0.21435546875, -0.78955078125
291, 434702746, -5.389555931091309, -2.3219120502471924, 7.722475528717041, -0.44243380427360535, -0.36276549100875854, -1.0409897565841675, 0.04931640625, 0.2138671875, -0.7900390625
292, 434719413, -5.379380226135254, -2.3404877185821533, 7.7116289138793945, -0.37000104784965515, -0.471926748752594, -0.9423808455467224, 0.05029296875, 0.21435546875, -0.791015625
293, 434736080, -5.393239498138428, -2.3335297107696533, 7.69639778137207, -0.4098159670829773, -0.5040578842163086, -1.0665383338928223, 0.04931640625, 0.21484375, -0.78955078125
294, 434752747, -5.389642715454102, -2.321474075317383, 7.698452472686768, -0.3687203824520111, -0.5569865107536316, -1.0425136089324951, 0.04833984375, 0.21240234375, -0.78857421875
295, 434769414, -5.372681140899658, -2.335090160369873, 7.7052717208862305, -0.3060973882675171, -0.6433653831481934, -1.061928153038025, 0.05029296875, 0.21484375, -0.7880859375
296, 434786081, -5.373414993286133, -2.3413443565368652, 7.727403163909912, -0.3008776307106018, -0.5377452969551086, -1.0190752744674683, 0.05029296875, 0.21533203125, -0.791748046875
297, 434802748, -5.370126724243164, -2.327275276184082, 7.706542491912842, -0.15550750494003296, -0.6382044553756714, -0.9452751278877258, 0.0478515625, 0.2138671875, -0.787109375
298, 434819415, -5.384644508361816, -2.3162665367126465, 7.738886833190918, -0.19974064826965332, -0.5666810274124146, -0.9652786254882812, 0.0498046875, 0.21435546875, -0.7880859375
299, 434836082, -5.376318454742432, -2.3050618171691895, 7.755070209503174, -0.31289759278297424, -0.3838319480419159, -0.967852771282196, 0.04931640625, 0.21630859375, -0.78759765625
300, 434852749, -5.385274887084961, -2.327986478805542, 7.707554817199707, -0.3960876166820526, -0.3502664864063263, -1.0554736852645874, 0.05126953125, 0.212890625, -0.787109375
301, 434869416, -5.353909969329834, -2.3483335971832275, 7.701592922210693, -0.4190877676010132, -0.24940364062786102, -0.9960394501686096, 0.05078125, 0.2138671875, -0.7880859375
302, 434886083, -5.376844882965088, -2.347517728805542, 7.693450450897217, -0.27409428358078003, -0.30830004811286926, -0.8521729111671448, 0.0478515625, 0.2158203125, -0.78955078125
303, 434902750, -5.371009349822998, -2.33880877494812, 7.704277515411377, -0.16563734412193298, -0.2478668987751007, -0.8050456643104553, 0.04833984375, 0.21630859375, -0.791259765625
304, 434919417, -5.397318363189697, -2.3261361122131348, 7.714396953582764, -0.19816544651985168, -0.3095550239086151, -0.7672668099403381, 0.0498046875, 0.21435546875, -0.7880859375
305, 434936084, -5.377849102020264, -2.3298778533935547, 7.689502716064453, -0.15088441967964172, -0.3097471594810486, -0.784273624420166, 0.05029296875, 0.2138671875, -0.78564453125
306, 434952751, -5.381682395935059, -2.3272266387939453, 7.718985557556152, -0.12135296314954758, -0.39455080032348633, -0.774463951587677, 0.04931640625, 0.212890625, -0.78857421875
307, 434969418, -5.383388042449951, -2.339596748352051, 7.686263084411621, -0.09800699353218079, -0.4120955169200897, -0.835473358631134, 0.05029296875, 0.2138671875, -0.7880859375
308, 434986085, -5.386414051055908, -2.339057683944702, 7.704257488250732, -0.07861818373203278, -0.4979877173900604, -0.713313639163971, 0.05029296875, 0.21337890625, -0.78759765625
309, 435002752, -5.375093460083008, -2.3155179023742676, 7.74428129196167, -0.15189611911773682, -0.3978164494037628, -0.7235075235366821, 0.04931640625, 0.21533203125, -0.7900390625
310, 435019419, -5.385506629943848, -2.337165355682373, 7.70491361618042, -0.12108403444290161, -0.2904095947742462, -0.6985479593276978, 0.05078125, 0.2138671875, -0.78759765625
311, 435036086, -5.399697303771973, -2.3287761211395264, 7.69624137878418, -0.17775213718414307, -0.2620179057121277, -0.7590835690498352, 0.05126953125, 0.21435546875, -0.78857421875
312, 435052753, -5.389748573303223, -2.3569531440734863, 7.698687553405762, 0.025542262941598892, -0.3399573862552643, -0.5792439579963684, 0.0478515625, 0.21337890625, -0.78857421875
313, 435069420, -5.384824275970459, -2.3404738903045654, 7.700132369995117, 0.12467620521783829, -0.3378058671951294, -0.5141493082046509, 0.0546875, 0.212890625, -0.7880859375
314, 435086087, -5.40247917175293, -2.312328577041626, 7.702592849731445, -0.013088090345263481, -0.2522338628768921, -0.5760936737060547, 0.05126953125, 0.2138671875, -0.78759765625
315, 435102754, -5.403434753417969, -2.306710958480835, 7.704992294311523, -0.08621235191822052, -0.22575034201145172, -0.6687732338905334, 0.05078125, 0.2138671875, -0.7900390625
316, 435119421, -5.3730010986328125, -2.3285436630249023, 7.693037033081055, -0.10330883413553238, -0.19469495117664337, -0.7222013473510742, 0.05126953125, 0.2138671875, -0.78955078125
317, 435136088, -5.405855655670166, -2.3131051063537598, 7.71442985534668, -0.16639289259910583, -0.10170803219079971, -0.7367748618125916, 0.05078125, 0.212890625, -0.78857421875
318, 435152755, -5.383157730102539, -2.3258543014526367, 7.7041730880737305, -0.2771294116973877, -0.12427280843257904, -0.7811872959136963, 0.05029296875, 0.21337890625, -0.78857421875
319, 435169422, -5.4055376052856445, -2.3232650756835938, 7.681163787841797, -0.21729813516139984, -0.22892633080482483, -0.6995468735694885, 0.05029296875, 0.21435546875, -0.78662109375
320, 435186089, -5.403756618499756, -2.328042984008789, 7.695075511932373, 0.11801690608263016, -0.25169599056243896, -0.5875424742698669, 0.0517578125, 0.2119140625, -0.78955078125
321, 435202756, -5.418265342712402, -2.317718505859375, 7.7043914794921875, 0.29110753536224365, -0.4437143802642822, -0.5155580043792725, 0.05419921875, 0.21435546875, -0.78955078125
322, 435219423, -5.400918960571289, -2.3248116970062256, 7.723814487457275, 0.2944371998310089, -0.5913203954696655, -0.5926394462585449, 0.052734375, 0.212890625, -0.79150390625
323, 435236090, -5.395595550537109, -2.30875301361084, 7.716099739074707, 0.2169075310230255, -0.41753822565078735, -0.668965220451355, 0.05224609375, 0.21435546875, -0.7880859375
324, 435252757, -5.378540515899658, -2.3086493015289307, 7.701176643371582, 0.07164512574672699, -0.25882911682128906, -0.5943682789802551, 0.052734375, 0.2109375, -0.79150390625
325, 435269424, -5.3977274894714355, -2.2891414165496826, 7.712033748626709, -0.12235187739133835, -0.1841168850660324, -0.6081095337867737, 0.05078125, 0.2119140625, -0.7900390625
326, 435286091, -5.394190311431885, -2.319213390350342, 7.714258193969727, -0.1528821885585785, -0.06893657892942429, -0.6780065298080444, 0.05078125, 0.212890625, -0.7900390625
327, 435302758, -5.413959503173828, -2.3154261112213135, 7.7012410163879395, 0.050604283809661865, 0.009226974099874496, -0.4788550138473511, 0.05029296875, 0.21337890625, -0.7900390625
328, 435319425, -5.423622131347656, -2.3123254776000977, 7.719690322875977, -0.47584545612335205, 0.3301796615123749, -0.5577036142349243, 0.05078125, 0.21533203125, -0.79150390625
329, 435336092, -5.4098896980285645, -2.312218189239502, 7.690805435180664, -0.0703708827495575, -0.07359809428453445, -0.4961179494857788, 0.0517578125, 0.2138671875, -0.78857421875
330, 435352759, -5.4122772216796875, -2.3136370182037354, 7.686613082885742, 0.07263556122779846, -0.1612544059753418, -0.44844120740890503, 0.0537109375, 0.21337890625, -0.78857421875
331, 435369426, -5.465220928192139, -2.3026554584503174, 7.691166400909424, 0.08728166669607162, -0.297734797000885, -0.5359712839126587, 0.052734375, 0.2119140625, -0.78955078125
332, 435386093, -5.509357452392578, -2.267847776412964, 7.7403998374938965, -0.07773454487323761, -0.7854006886482239, -1.0788581371307373, 0.0517578125, 0.21484375, -0.78759765625
333, 435402760, -5.617169380187988, -2.140939712524414, 7.653326988220215, -0.4816852807998657, -1.4593219757080078, -1.7674044370651245, 0.05029296875, 0.21435546875, -0.78662109375
334, 435419427, -5.524661540985107, -2.297801971435547, 7.732177734375, -1.0198079347610474, -1.9098364114761353, -3.005624532699585, 0.05078125, 0.211181640625, -0.78759765625
335, 435436094, -5.335110664367676, -2.3314380645751953, 7.683687210083008, -1.1511245965957642, -1.9577710628509521, -3.368710994720459, 0.05322265625, 0.21484375, -0.7890625
336, 435452761, -5.237072944641113, -2.404998540878296, 7.720771789550781, -1.264575719833374, -0.9903790354728699, -3.0637013912200928, 0.05029296875, 0.21484375, -0.7890625
337, 435469428, -5.240889072418213, -2.423372268676758, 7.728750705718994, -1.4223883152008057, 0.7053545117378235, -2.446716785430908, 0.05029296875, 0.2158203125, -0.7890625
338, 435486095, -5.232980251312256, -2.4568984508514404, 7.725996017456055, -1.7904046773910522, 2.662600517272949, -2.08217191696167, 0.05126953125, 0.21484375, -0.78955078125
339, 435502762, -5.174439430236816, -2.4655275344848633, 7.7791571617126465, -2.517869472503662, 5.182506561279297, -1.3438471555709839, 0.05078125, 0.216796875, -0.78759765625
340, 435519429, -4.980913162231445, -2.516079902648926, 7.828344821929932, -3.2098610401153564, 8.953081130981445, 0.050642725080251694, 0.0537109375, 0.216796875, -0.787109375
341, 435536096, -4.966850280761719, -2.40561580657959, 7.9020795822143555, -6.199341773986816, 15.274373054504395, 2.6249775886535645, 0.0576171875, 0.2177734375, -0.785888671875
342, 435552763, -4.8913140296936035, -2.527869701385498, 8.03082275390625, -10.741607666015625, 22.598861694335938, 6.8517913818359375, 0.064208984375, 0.218017578125, -0.78271484375
343, 435569430, -4.782395839691162, -2.355238676071167, 8.475553512573242, -16.51575469970703, 33.968074798583984, 16.306928634643555, 0.070068359375, 0.220947265625, -0.78369140625
344, 435586097, -4.534706115722656, -2.7469685077667236, 8.574853897094727, -17.114450454711914, 48.00270080566406, 26.617197036743164, 0.0810546875, 0.2236328125, -0.779541015625
345, 435602764, -5.021610736846924, -2.238947868347168, 8.975846290588379, -26.13804054260254, 65.26209259033203, 32.204288482666016, 0.097412109375, 0.227294921875, -0.7783203125
346, 435619431, -5.456815242767334, -3.315995693206787, 9.069526672363281, -29.668617248535156, 77.58920288085938, 40.20185089111328, 0.118896484375, 0.234619140625, -0.768798828125
347, 435636098, -5.503698825836182, -3.0929040908813477, 8.748583793640137, -27.96298599243164, 87.41876220703125, 49.961971282958984, 0.1416015625, 0.235107421875, -0.76220703125
348, 435652765, -6.091751575469971, -3.648923873901367, 8.456130981445312, -31.275903701782227, 91.55843353271484, 54.50105285644531, 0.16455078125, 0.23681640625, -0.751953125
349, 435669432, -4.223320484161377, -4.495672225952148, 10.091109275817871, -17.35099220275879, 86.11094665527344, 54.91041946411133, 0.1904296875, 0.240478515625, -0.742431640625
350, 435686099, -0.9226080179214478, -4.266561985015869, 12.236760139465332, -2.914813280105591, 63.688297271728516, 44.94609832763672, 0.21142578125, 0.23681640625, -0.73681640625
351, 435702766, -0.6740777492523193, -4.799564838409424, 13.698138236999512, 0.3976963758468628, 27.299104690551758, 20.392690658569336, 0.2255859375, 0.23291015625, -0.732421875
352, 435719433, 1.4423307180404663, -4.469829559326172, 12.85820198059082, 6.153112888336182, -7.546412467956543, -3.8560054302215576, 0.23046875, 0.230224609375, -0.724365234375
353, 435736100, 2.4865715503692627, -2.91583251953125, 11.962006568908691, 6.4012227058410645, -27.668399810791016, -19.726444244384766, 0.2275390625, 0.226318359375, -0.723388671875
354, 435752767, 2.1095151901245117, -2.3893134593963623, 11.727580070495605, 0.8972525000572205, -41.517364501953125, -27.05946922302246, 0.22607421875, 0.2216796875, -0.71826171875
355, 435769434, 1.2342779636383057, -2.1115100383758545, 11.647135734558105, -1.5222342014312744, -54.372108459472656, -28.35000991821289, 0.220703125, 0.21923828125, -0.71533203125
356, 435786101, 0.14586125314235687, -1.9687119722366333, 11.602495193481445, -4.529655456542969, -63.44137954711914, -26.161884307861328, 0.214599609375, 0.21923828125, -0.714111328125
357, 435802768, -1.433284044265747, -2.346555471420288, 11.763928413391113, -7.293359756469727, -70.62229919433594, -23.381563186645508, 0.210693359375, 0.218994140625, -0.714599609375
358, 435819435, -3.594266414642334, -2.9237189292907715, 12.070074081420898, -8.635610580444336, -82.28475189208984, -22.608352661132812, 0.204833984375, 0.220458984375, -0.71533203125
359, 435836102, -4.76081657409668, -3.4183366298675537, 11.671278953552246, -6.742893218994141, -96.43492126464844, -23.613759994506836, 0.1962890625, 0.22412109375, -0.718017578125
360, 435852769, -5.369185447692871, -3.6016972064971924, 10.9375, -4.4884419441223145, -105.79216766357422, -24.82494354248047, 0.189208984375, 0.22900390625, -0.7216796875
361, 435869436, -5.819042682647705, -3.649773597717285, 10.233203887939453, -3.8693132400512695, -108.11497497558594, -25.952011108398438, 0.176025390625, 0.241455078125, -0.736083984375
362, 435886103, -6.497918128967285, -3.8694705963134766, 9.581864356994629, -5.397925853729248, -106.10883331298828, -27.80412483215332, 0.160888671875, 0.25390625, -0.7490234375
363, 435902770, -6.8897318840026855, -4.012287616729736, 8.886703491210938, -4.544379234313965, -102.95777130126953, -29.236759185791016, 0.143798828125, 0.264892578125, -0.763916015625
364, 435919437, -7.009616374969482, -3.7713162899017334, 8.30395221710205, -5.612265110015869, -96.06922149658203, -31.42088508605957, 0.12109375, 0.2802734375, -0.780517578125
365, 435936104, -7.741316318511963, -3.584397077560425, 8.286112785339355, -11.975491523742676, -88.11839294433594, -35.68275833129883, 0.094482421875, 0.289794921875, -0.791259765625
366, 435952771, -8.446762084960938, -3.7131826877593994, 7.998500347137451, -17.349435806274414, -85.64823913574219, -41.011043548583984, 0.06591796875, 0.300537109375, -0.799560546875
367, 435969438, -8.87174129486084, -3.490010976791382, 7.763533115386963, -17.330564498901367, -88.15074157714844, -44.91781234741211, 0.036376953125, 0.310302734375, -0.80517578125
368, 435986105, -8.931965827941895, -2.9756686687469482, 7.073436260223389, -13.884794235229492, -93.7435073852539, -46.82624053955078, 0.0048828125, 0.315673828125, -0.809326171875
369, 436002772, -8.180109977722168, -2.1056413650512695, 5.90838623046875, -8.955074310302734, -95.36204528808594, -43.703617095947266, -0.027587890625, 0.32177734375, -0.810546875
370, 436019439, -7.694571495056152, -1.0641214847564697, 4.841874599456787, -8.838775634765625, -87.77118682861328, -35.594268798828125, -0.0556640625, 0.321533203125, -0.81005859375
371, 436036106, -7.959843158721924, -0.4402315616607666, 4.1825480461120605, -15.573742866516113, -76.072265625, -24.506559371948242, -0.0810546875, 0.324462890625, -0.80517578125
372, 436052773, -8.56309700012207, -0.3089410960674286, 3.6878459453582764, -23.984655380249023, -65.56112670898438, -11.000042915344238, -0.10107421875, 0.3271484375, -0.802978515625
373, 436069440, -9.077704429626465, -0.3751886188983917, 2.961352825164795, -28.942623138427734, -56.698848724365234, 3.7195234298706055, -0.11572265625, 0.334228515625, -0.79638671875
374, 436086107, -9.3230562210083, -0.5022308826446533, 1.9074105024337769, -30.793975830078125, -43.65265655517578, 17.534029006958008, -0.127197265625, 0.341064453125, -0.793212890625
375, 436102774, -9.451421737670898, -0.8438968658447266, 0.9509822130203247, -29.841196060180664, -23.792694091796875, 27.734834671020508, -0.13037109375, 0.34765625, -0.78759765625
376, 436119441, -9.820578575134277, -1.424046277999878, 0.5811043381690979, -26.165725708007812, -0.5790171027183533, 32.49095916748047, -0.12744140625, 0.35498046875, -0.7861328125
377, 436136108, -10.291481018066406, -2.074890375137329, 0.7360599637031555, -19.83278465270996, 20.999853134155273, 31.850006103515625, -0.12451171875, 0.360595703125, -0.78515625
378, 436152775, -4.11943244934082, -4.911362171173096, 2.323636293411255, 16.25128746032715, 79.59009552001953, 37.302494049072266, -0.107666015625, 0.3603515625, -0.786865234375
379, 436169442, -1.219216227531433, -5.078361511230469, 10.840200424194336, 18.302640914916992, 100.55793762207031, 30.35237693786621, -0.08251953125, 0.35498046875, -0.789794921875
380, 436186109, -0.1613401174545288, -4.0887250900268555, 5.73400354385376, 20.309715270996094, 109.73433685302734, 31.802921295166016, -0.055908203125, 0.349609375, -0.793701171875
381, 436202776, -5.273838996887207, -2.581697463989258, 8.426466941833496, 13.325140953063965, 130.1785430908203, 24.128162384033203, -0.025634765625, 0.345947265625, -0.797119140625
382, 436219443, -7.414763927459717, -2.6131346225738525, 9.544807434082031, 10.834589958190918, 120.35972595214844, 15.807502746582031, 0.00341796875, 0.3408203125, -0.79638671875
383, 436236110, -6.517248153686523, -1.4313569068908691, 9.37207317352295, 5.30715799331665, 119.7891845703125, 20.352046966552734, 0.033447265625, 0.341064453125, -0.79541015625
384, 436252777, -7.85588264465332, -1.6917916536331177, 10.421202659606934, -3.878633975982666, 112.74710845947266, 21.098918914794922, 0.061767578125, 0.338134765625, -0.793212890625
385, 436269444, -8.543800354003906, -2.032003164291382, 9.568116188049316, -6.090198516845703, 91.8510513305664, 31.669254302978516, 0.0869140625, 0.33544921875, -0.786865234375
386, 436286111, -7.309310436248779, -4.400970935821533, 8.299909591674805, -4.200596332550049, 76.17518615722656, 31.52768898010254, 0.106201171875, 0.3359375, -0.786865234375
387, 436302778, -13.151572227478027, -8.574975967407227, 8.159530639648438, 48.899139404296875, 29.32105255126953, 36.51002502441406, 0.121826171875, 0.32763671875, -0.786865234375
388, 436319445, -6.211319923400879, -1.6808027029037476, 8.722206115722656, 48.13695526123047, 15.145832061767578, 27.617891311645508, 0.125, 0.314697265625, -0.790283203125
389, 436336112, -5.85239315032959, -2.839613914489746, 7.651149272918701, 40.30097579956055, 2.6264920234680176, 20.448997497558594, 0.130126953125, 0.301513671875, -0.796630859375
390, 436352779, -6.7684807777404785, -0.7479051351547241, 9.161643028259277, 28.054243087768555, 0.09184104204177856, 12.319127082824707, 0.13232421875, 0.29443359375, -0.799072265625
391, 436369446, -5.853488922119141, -2.081631898880005, 8.265803337097168, 14.497626304626465, -1.5838905572891235, 3.8195416927337646, 0.133544921875, 0.28955078125, -0.800048828125
392, 436386113, -5.626791000366211, -2.077113389968872, 8.075543403625488, 6.791932106018066, -0.8604332208633423, 0.35434532165527344, 0.13232421875, 0.2880859375, -0.801025390625
393, 436402780, -5.334217548370361, -2.5771143436431885, 7.727062702178955, 4.268887996673584, -0.7050024271011353, -0.6091724634170532, 0.132080078125, 0.285400390625, -0.800537109375
394, 436419447, -5.289391040802002, -2.709057569503784, 7.603212833404541, 4.477746963500977, -1.0759000778198242, 0.6445629596710205, 0.133056640625, 0.28662109375, -0.802001953125
395, 436436114, -5.313694477081299, -2.646946907043457, 7.658526420593262, 4.304374694824219, -1.5104578733444214, 1.5061100721359253, 0.133544921875, 0.284423828125, -0.802490234375
396, 436452781, -5.389981746673584, -2.4861299991607666, 7.7145304679870605, 4.595911979675293, -1.9192110300064087, 2.2165682315826416, 0.135009765625, 0.283935546875, -0.800537109375
397, 436469448, -5.353036403656006, -2.3139591217041016, 7.83135461807251, 4.145069122314453, -1.8541122674942017, 2.501826047897339, 0.131103515625, 0.283935546875, -0.802978515625
398, 436486115, -5.385133266448975, -2.2980196475982666, 7.78281831741333, 3.4675943851470947, -1.4763799905776978, 1.7922805547714233, 0.131103515625, 0.281494140625, -0.802978515625
399, 436502782, -5.444700241088867, -2.3495988845825195, 7.730923652648926, 2.5393004417419434, -0.6184186339378357, 1.1124683618545532, 0.131591796875, 0.281494140625, -0.804443359375
400, 436519449, -5.351242542266846, -2.3855509757995605, 7.709211826324463, 2.6077888011932373, -0.8619697690010071, 0.6602505445480347, 0.132568359375, 0.279052734375, -0.803466796875
401, 436536116, -5.318098545074463, -2.5503594875335693, 7.638304710388184, 3.470949649810791, -1.5222010612487793, 1.8666726350784302, 0.132080078125, 0.278564453125, -0.804931640625
402, 436552783, -5.360949993133545, -2.4366626739501953, 7.6937336921691895, 4.179346084594727, -2.496918201446533, 2.770545482635498, 0.132080078125, 0.278564453125, -0.804443359375
403, 436569450, -5.4096760749816895, -2.298746347427368, 7.747269153594971, 3.6855077743530273, -2.3452017307281494, 2.7849137783050537, 0.132080078125, 0.2734375, -0.802490234375
404, 436586117, -5.3570942878723145, -2.2832984924316406, 7.741963863372803, 3.599846601486206, -2.6735565662384033, 2.9703500270843506, 0.131103515625, 0.27490234375, -0.80810546875
405, 436602784, -5.349864482879639, -2.3391354084014893, 7.730628967285156, 4.047581195831299, -2.646918535232544, 3.719815492630005, 0.131591796875, 0.27099609375, -0.804443359375
406, 436619451, -5.4130449295043945, -2.178553819656372, 7.7204976081848145, 2.9684669971466064, -2.0439960956573486, 3.2299344539642334, 0.132080078125, 0.27392578125, -0.806396484375
407, 436636118, -5.3257317543029785, -2.2066240310668945, 7.802023410797119, 1.5967148542404175, -0.7033503651618958, 2.2033133506774902, 0.132568359375, 0.27294921875, -0.804931640625
408, 436652785, -5.223273754119873, -2.4399561882019043, 7.786660671234131, 0.8057050704956055, 1.2904767990112305, 2.0677709579467773, 0.13232421875, 0.271484375, -0.805908203125
409, 436669452, -5.253694534301758, -2.428131341934204, 7.669548511505127, 1.1557797193527222, 3.5056045055389404, 2.974947690963745, 0.1318359375, 0.269287109375, -0.804931640625
410, 436686119, -5.311749458312988, -2.4223740100860596, 7.681216239929199, 2.161001205444336, 4.753096580505371, 4.108258247375488, 0.13330078125, 0.26953125, -0.804931640625
411, 436702786, -5.389016628265381, -2.3512139320373535, 7.701411724090576, 2.488856792449951, 5.103273391723633, 4.608998775482178, 0.134765625, 0.267822265625, -0.806884765625
412, 436719453, -5.420936584472656, -2.3573198318481445, 7.668125152587891, 2.800447940826416, 4.5120038986206055, 4.972827911376953, 0.13818359375, 0.266845703125, -0.806884765625
413, 436736120, -5.285201549530029, -2.351809501647949, 7.7750983238220215, 2.4001986980438232, 5.443705081939697, 5.684068202972412, 0.138671875, 0.2685546875, -0.807861328125
414, 436752787, -5.24664831161499, -2.3168866634368896, 7.867646217346191, 1.0867280960083008, 7.216272354125977, 6.855682849884033, 0.142333984375, 0.264892578125, -0.80517578125
415, 436769454, -5.307849407196045, -2.302877902984619, 7.881847858428955, -1.8260846138000488, 11.107398986816406, 9.078039169311523, 0.145263671875, 0.263916015625, -0.8037109375
416, 436786121, -5.356136798858643, -2.215344190597534, 7.939472675323486, -3.2461323738098145, 16.621274948120117, 9.702815055847168, 0.148193359375, 0.26611328125, -0.8046875
417, 436802788, -5.263625144958496, -2.2317240238189697, 7.975654125213623, -2.7386064529418945, 24.734111785888672, 9.634438514709473, 0.15673828125, 0.2666015625, -0.80078125
418, 436819455, -5.021609306335449, -1.977543830871582, 8.364251136779785, -2.2349488735198975, 35.527671813964844, 8.640873908996582, 0.162841796875, 0.2646484375, -0.798828125
419, 436836122, -4.971153736114502, -2.169708251953125, 8.40115737915039, -4.991488933563232, 51.23112106323242, 9.861092567443848, 0.17578125, 0.265869140625, -0.797607421875
420, 436852789, -5.1498541831970215, -2.0692477226257324, 8.423504829406738, -9.546606063842773, 71.00206756591797, 10.917492866516113, 0.190673828125, 0.267822265625, -0.792724609375
421, 436869456, -5.27646541595459, -2.205118179321289, 8.442090034484863, -14.404800415039062, 93.53038024902344, 12.298338890075684, 0.214111328125, 0.2666015625, -0.78466796875
422, 436886123, -5.495779514312744, -2.220696210861206, 8.526103973388672, -18.68120765686035, 118.1681900024414, 16.798725128173828, 0.236328125, 0.269287109375, -0.77734375
423, 436902790, -5.308601379394531, -2.340818405151367, 8.852323532104492, -19.297901153564453, 149.81063842773438, 22.641407012939453, 0.269287109375, 0.2724609375, -0.763916015625
424, 436919457, -5.323599338531494, -2.6953959465026855, 8.785593032836914, -21.006542205810547, 192.95632934570312, 31.18465232849121, 0.31298828125, 0.27685546875, -0.744140625
425, 436936124, -5.687047958374023, -3.9053053855895996, 9.110941886901855, -19.006986618041992, 242.1268768310547, 50.10783767700195, 0.363037109375, 0.275390625, -0.716064453125
426, 436952791, -7.170710563659668, -4.241921424865723, 10.535408020019531, -8.925676345825195, 292.3943176269531, 79.52667999267578, 0.42529296875, 0.2666015625, -0.677978515625
427, 436969458, -6.618040084838867, -3.821194887161255, 9.360180854797363, -16.661359786987305, 341.655029296875, 114.32862091064453, 0.491943359375, 0.252197265625, -0.626953125
428, 436986125, -12.866028785705566, -4.6776323318481445, 12.082229614257812, -23.9805908203125, 357.5271301269531, 143.6808624267578, 0.56494140625, 0.23486328125, -0.568603515625
429, 437002792, -16.129581451416016, -4.911949157714844, 13.096562385559082, -38.75226593017578, 342.38385009765625, 140.51620483398438, 0.62744140625, 0.2138671875, -0.498046875
430, 437019459, -16.629121780395508, -5.487944602966309, 12.420270919799805, -33.648719787597656, 287.9217834472656, 129.80758666992188, 0.67724609375, 0.18994140625, -0.43359375
431, 437036126, -9.088085174560547, -5.368222713470459, 10.382209777832031, -8.551521301269531, 238.74642944335938, 136.74220275878906, 0.712158203125, 0.162353515625, -0.3759765625
432, 437052793, -5.097456455230713, -7.303070545196533, 13.464883804321289, 0.24054816365242004, 215.73553466796875, 118.43314361572266, 0.739990234375, 0.13037109375, -0.321533203125
433, 437069460, -12.264142036437988, -10.743224143981934, 21.476343154907227, -19.978843688964844, 78.02033233642578, 37.120262145996094, 0.754638671875, 0.11669921875, -0.287353515625
434, 437086127, -2.7739076614379883, -10.568292617797852, 15.053479194641113, 7.842844009399414, -51.632110595703125, -22.498435974121094, 0.756103515625, 0.117431640625, -0.283447265625
435, 437102794, 3.067622423171997, -6.757676124572754, 9.382757186889648, 49.95777130126953, -97.28618621826172, -39.959102630615234, 0.75146484375, 0.117919921875, -0.297607421875
436, 437119461, 3.1278998851776123, -3.3881072998046875, 7.637716770172119, 58.176109313964844, -102.2353744506836, -48.00185012817383, 0.755615234375, 0.117919921875, -0.310546875
437, 437136128, 1.0709458589553833, -2.0436367988586426, 7.81093692779541, 35.85648727416992, -104.96297454833984, -61.18678283691406, 0.760498046875, 0.1220703125, -0.329345703125
438, 437152795, -1.4267345666885376, -2.314080238342285, 8.215572357177734, 11.68043041229248, -117.21315002441406, -72.96363067626953, 0.773193359375, 0.1337890625, -0.352294921875
439, 437169462, -3.6575558185577393, -3.095426559448242, 8.519041061401367, 4.445857048034668, -137.8083953857422, -79.06378173828125, 0.782470703125, 0.151123046875, -0.39453125
440, 437186129, -5.773379325866699, -3.5543713569641113, 8.534567832946777, 12.274632453918457, -164.2419891357422, -82.42666625976562, 0.779296875, 0.17724609375, -0.4580078125
441, 437202796, -6.919264793395996, -3.2793946266174316, 8.31464958190918, 24.00922966003418, -190.4631805419922, -84.5345458984375, 0.7490234375, 0.19921875, -0.5361328125
442, 437219463, -7.411266803741455, -2.7572357654571533, 8.172578811645508, 27.613656997680664, -209.1806182861328, -85.52371978759766, 0.69189453125, 0.2109375, -0.60791015625
443, 437236130, -8.26242733001709, -2.540410041809082, 8.634138107299805, 20.48865509033203, -221.0656280517578, -87.36327362060547, 0.619140625, 0.216552734375, -0.65869140625
444, 437252797, -9.948532104492188, -2.7942192554473877, 9.331995010375977, 6.664190769195557, -235.03970336914062, -90.07241821289062, 0.5517578125, 0.230224609375, -0.69287109375
445, 437269464, -11.342256546020508, -3.2859766483306885, 9.836886405944824, -9.004660606384277, -254.6280059814453, -95.18473815917969, 0.49951171875, 0.248291015625, -0.718017578125
446, 437286131, -11.433932304382324, -3.8658223152160645, 9.543991088867188, -19.585737228393555, -270.77978515625, -98.66099548339844, 0.45166015625, 0.278564453125, -0.7568359375
447, 437302798, -11.15131950378418, -3.994813919067383, 9.1314115524292, -25.184711456298828, -270.2567138671875, -95.68631744384766, 0.382568359375, 0.309326171875, -0.8076171875
448, 437319465, -12.555924415588379, -3.444622278213501, 9.645013809204102, -36.891841888427734, -252.66583251953125, -89.95458984375, 0.290771484375, 0.337890625, -0.847900390625
449, 437336132, -16.71819496154785, -2.9578986167907715, 10.461217880249023, -63.19959259033203, -239.90818786621094, -94.03035736083984, 0.187255859375, 0.361572265625, -0.858642578125
450, 437352799, -20.162479400634766, -3.816277503967285, 9.393098831176758, -81.03191375732422, -246.02798461914062, -107.12405395507812, 0.09375, 0.3779296875, -0.842041015625
451, 437369466, -22.04484748840332, -5.530637264251709, 6.873140335083008, -63.8520393371582, -255.04119873046875, -108.83287811279297, 0.0126953125, 0.390625, -0.8203125
452, 437386133, -22.350061416625977, -4.555120944976807, 3.5299220085144043, -25.834980010986328, -258.8411560058594, -88.68604278564453, -0.06201171875, 0.391845703125, -0.802734375
453, 437402800, -21.3173885345459, -0.3944284915924072, 0.3461473882198334, -21.619781494140625, -242.2347412109375, -68.59085083007812, -0.122314453125, 0.38623046875, -0.7841796875
454, 437419467, -23.07024383544922, 4.1794939041137695, -4.444503307342529, -55.807003021240234, -207.89544677734375, -54.53227233886719, -0.171875, 0.389404296875, -0.765869140625
455, 437436134, -25.79564094543457, 8.77643871307373, -11.992827415466309, -96.24529266357422, -158.87841796875, -44.95866394042969, -0.2119140625, 0.400634765625, -0.74560546875
456, 437452801, -18.84632682800293, 7.279467582702637, -15.74640941619873, -91.47319030761719, -68.45101928710938, 2.0245659351348877, -0.235107421875, 0.41845703125, -0.72412109375
457, 437469468, -14.318318367004395, 3.6850786209106445, -10.826146125793457, -32.205535888671875, 40.307796478271484, 82.05157470703125, -0.222412109375, 0.428955078125, -0.71728515625
458, 437486135, -13.154278755187988, -6.921020030975342, -3.338268756866455, 39.083168029785156, 124.5870361328125, 104.07524108886719, -0.19140625, 0.432373046875, -0.71826171875
459, 437502802, -8.472082138061523, -6.934465408325195, 11.709249496459961, 131.15370178222656, 144.9633026123047, 90.37369537353516, -0.148193359375, 0.402587890625, -0.740234375
460, 437519469, -1.4612051248550415, -9.420087814331055, 6.145779132843018, 92.50061798095703, 131.38462829589844, 12.397893905639648, -0.118896484375, 0.3828125, -0.7490234375
461, 437536136, 0.008097514510154724, 2.2879319190979004, 7.071972370147705, 84.11023712158203, 177.03041076660156, 26.306732177734375, -0.0791015625, 0.357421875, -0.76171875
462, 437552803, -12.582402229309082, 4.151161193847656, 13.937921524047852, 54.411067962646484, 190.47909545898438, 19.892621994018555, -0.033935546875, 0.341796875, -0.76171875
463, 437569470, -15.533302307128906, 5.28024959564209, 14.437202453613281, 44.73990249633789, 139.85330200195312, 64.81985473632812, 0.002685546875, 0.3291015625, -0.7626953125
464, 437586137, -15.337817192077637, -7.871109962463379, 11.55904483795166, 52.583194732666016, 96.07150268554688, 74.86931610107422, 0.03173828125, 0.3193359375, -0.7646484375
465, 437602804, -10.515120506286621, -2.0204477310180664, 8.440664291381836, 78.99369049072266, 29.003480911254883, 46.43146514892578, 0.04638671875, 0.29931640625, -0.769287109375
466, 437619471, -7.845194339752197, -0.9122666120529175, 10.32433795928955, 46.74678421020508, -1.6560704708099365, 27.45770835876465, 0.05126953125, 0.28515625, -0.774658203125
467, 437636138, -6.171341419219971, -2.413795232772827, 8.804217338562012, 42.79739761352539, -7.961197853088379, 21.6629695892334, 0.05029296875, 0.275146484375, -0.778564453125
468, 437652805, -6.193343162536621, -3.7158660888671875, 7.964034557342529, 37.24835968017578, -11.347065925598145, 19.728281021118164, 0.050048828125, 0.26513671875, -0.781982421875
469, 437669472, -5.858743190765381, -2.645651340484619, 8.015865325927734, 36.32670211791992, -18.812177658081055, 20.412324905395508, 0.047119140625, 0.255126953125, -0.783935546875
470, 437686139, -5.448618412017822, -1.8501598834991455, 8.153955459594727, 31.731334686279297, -19.009212493896484, 16.411602020263672, 0.045166015625, 0.24853515625, -0.783447265625
471, 437702806, -5.407835006713867, -1.511695384979248, 8.140625, 23.640642166137695, -15.479851722717285, 11.978438377380371, 0.04345703125, 0.240966796875, -0.7900390625
472, 437719473, -5.421308517456055, -1.1489721536636353, 8.29202651977539, 15.130332946777344, -10.662812232971191, 7.0211873054504395, 0.0400390625, 0.2353515625, -0.7900390625
473, 437736140, -5.301025390625, -1.5320734977722168, 8.180065155029297, 8.272066116333008, -5.054616928100586, 3.350661277770996, 0.03857421875, 0.23388671875, -0.7880859375
474, 437752807, -5.340451717376709, -1.8227391242980957, 7.91168737411499, 4.780425071716309, -2.963940143585205, 1.6825944185256958, 0.03857421875, 0.2353515625, -0.78955078125
475, 437769474, -5.247576713562012, -1.8793386220932007, 7.828891754150391, 4.339450836181641, -3.3988566398620605, 1.1474169492721558, 0.0400390625, 0.230712890625, -0.791015625
476, 437786141, -5.227551460266113, -1.761535882949829, 7.958133220672607, 3.64361834526062, -3.3748960494995117, 0.8089579343795776, 0.03857421875, 0.23193359375, -0.79150390625
477, 437802808, -5.2170491218566895, -1.7728314399719238, 7.984582901000977, 2.1962568759918213, -2.5828356742858887, 0.04025675728917122, 0.03662109375, 0.229248046875, -0.79150390625
478, 437819475, -5.186766147613525, -1.7130851745605469, 7.9526896476745605, 0.8423952460289001, -1.242971420288086, -0.47654989361763, 0.037109375, 0.231689453125, -0.79150390625
479, 437836142, -5.149168491363525, -1.739982008934021, 7.977041721343994, 0.05453583970665932, -0.20556750893592834, -0.9482589960098267, 0.0390625, 0.2314453125, -0.7919921875
480, 437852809, -5.184889793395996, -1.9427002668380737, 7.894829273223877, 0.03980854153633118, 0.04887543246150017, -1.078204870223999, 0.0361328125, 0.227294921875, -0.78955078125
481, 437869476, -5.176517009735107, -1.9807038307189941, 7.899670124053955, 0.054113227874040604, -0.18801000714302063, -0.7227007150650024, 0.037109375, 0.231201171875, -0.7919921875
482, 437886143, -5.126704216003418, -1.9686377048492432, 7.933923244476318, 0.3813154697418213, -0.4180888831615448, -0.4827224910259247, 0.03759765625, 0.23291015625, -0.79248046875
483, 437902810, -5.066484451293945, -1.8472005128860474, 7.959178447723389, 0.2518945038318634, -0.4567384421825409, -0.3415197432041168, 0.037109375, 0.23291015625, -0.7919921875
484, 437919477, -5.089057922363281, -1.6893452405929565, 8.028770446777344, -1.2305749654769897, 0.6958522200584412, -0.6464901566505432, 0.0400390625, 0.229736328125, -0.789306640625
485, 437936144, -5.095401763916016, -1.6617003679275513, 7.97211217880249, -3.183274269104004, 2.4490416049957275, -1.9997754096984863, 0.03955078125, 0.2314453125, -0.7900390625
486, 437952811, -5.070554256439209, -1.9687236547470093, 7.902347087860107, -4.279383182525635, 3.574246406555176, -2.245850086212158, 0.0390625, 0.231201171875, -0.78857421875
487, 437969478, -5.039551734924316, -2.073794364929199, 7.9167351722717285, -4.465639114379883, 4.634701728820801, -1.2168339490890503, 0.04150390625, 0.23095703125, -0.79150390625
488, 437986145, -5.060057163238525, -1.9872486591339111, 7.952240467071533, -5.254946231842041, 7.056832313537598, -1.6035090684890747, 0.04052734375, 0.23388671875, -0.7900390625
489, 438002812, -4.967689514160156, -2.1376094818115234, 8.006441116333008, -7.762945652008057, 11.484288215637207, -1.6028310060501099, 0.04296875, 0.2373046875, -0.789306640625
490, 438019479, -5.085471153259277, -2.1075992584228516, 7.982507228851318, -10.831767082214355, 17.11685562133789, -1.022550106048584, 0.049560546875, 0.237060546875, -0.787353515625
491, 438036146, -5.047771453857422, -1.8147128820419312, 8.152132987976074, -15.030983924865723, 24.279109954833984, -1.9887293577194214, 0.052001953125, 0.239990234375, -0.786376953125
492, 438052813, -4.999438762664795, -2.4522321224212646, 8.18480110168457, -15.124656677246094, 35.26652908325195, -0.8186372518539429, 0.060302734375, 0.244140625, -0.783203125
493, 438069480, -4.443655014038086, -2.5261690616607666, 8.884925842285156, -10.875631332397461, 51.728092193603516, 2.165863513946533, 0.07275390625, 0.247802734375, -0.782958984375
494, 438086147, -4.1871867179870605, -2.5799925327301025, 9.014495849609375, -15.270957946777344, 75.0651626586914, 10.533080101013184, 0.086669921875, 0.249267578125, -0.781005859375
495, 438102814, -4.448765754699707, -2.066742420196533, 9.338082313537598, -24.898975372314453, 108.5994873046875, 17.278301239013672, 0.109619140625, 0.253662109375, -0.771240234375
496, 438119481, -4.698365688323975, -2.0810093879699707, 9.958110809326172, -30.973630905151367, 152.26455688476562, 22.134206771850586, 0.140869140625, 0.25732421875, -0.763916015625
497, 438136148, -4.362854957580566, -2.2595062255859375, 9.973467826843262, -27.739002227783203, 208.39076232910156, 28.052515029907227, 0.185791015625, 0.26171875, -0.75
498, 438152815, -5.014650821685791, -2.406115770339966, 10.164252281188965, -32.05980682373047, 278.20526123046875, 40.835052490234375, 0.242431640625, 0.26611328125, -0.726318359375
499, 438169482, -5.991827964782715, -4.234180450439453, 11.62802791595459, -27.706653594970703, 348.7262268066406, 67.27906799316406, 0.317138671875, 0.265869140625, -0.69580078125
500, 438186149, -6.592325210571289, -4.821535587310791, 10.468419075012207, -30.67742919921875, 397.1661071777344, 105.36193084716797, 0.399169921875, 0.25927734375, -0.643310546875
501, 438202816, -13.52801513671875, -5.754178524017334, 13.618956565856934, -38.352378845214844, 408.8865051269531, 140.30874633789062, 0.484375, 0.247314453125, -0.582763671875
502, 438219483, -16.81291961669922, -5.892370700836182, 14.717558860778809, -38.02363967895508, 390.1130676269531, 144.3850555419922, 0.564453125, 0.227783203125, -0.511474609375
503, 438236150, -16.63678741455078, -4.845825672149658, 14.46962833404541, -29.86288833618164, 328.1962585449219, 130.80064392089844, 0.624755859375, 0.20703125, -0.4453125
504, 438252817, -8.09591293334961, -3.968358039855957, 12.22126579284668, -29.404327392578125, 276.78521728515625, 121.26200866699219, 0.669921875, 0.18212890625, -0.384033203125
505, 438269484, -3.4765524864196777, -6.130602836608887, 14.472488403320312, -40.429443359375, 247.7428741455078, 98.55318450927734, 0.70654296875, 0.15771484375, -0.32470703125
506, 438286151, -16.426538467407227, -13.117667198181152, 24.92078399658203, -53.423919677734375, 70.14791107177734, 19.98970603942871, 0.72412109375, 0.149169921875, -0.292236328125
507, 438302818, -2.4344358444213867, -12.52586841583252, 15.94576644897461, 14.476278305053711, -97.39665222167969, -30.2794246673584, 0.720703125, 0.149169921875, -0.2998046875
508, 438319485, 4.1208906173706055, -6.858016490936279, 9.59902572631836, 81.25918579101562, -142.07485961914062, -36.466556549072266, 0.712158203125, 0.145263671875, -0.328125
509, 438336152, 3.5338809490203857, -2.7592101097106934, 7.800170421600342, 88.5749282836914, -143.72329711914062, -40.685550689697266, 0.704833984375, 0.1376953125, -0.354736328125
510, 438352819, 1.2459235191345215, -1.4525151252746582, 7.779993534088135, 53.52870559692383, -148.51046752929688, -57.530616760253906, 0.694580078125, 0.1376953125, -0.3896484375
511, 438369486, -0.7595020532608032, -2.1586737632751465, 7.437383651733398, 19.763681411743164, -162.20040893554688, -70.80043029785156, 0.684814453125, 0.149169921875, -0.428466796875
512, 438386153, -2.626976251602173, -3.025641679763794, 7.224453926086426, 9.330179214477539, -180.97329711914062, -73.80760192871094, 0.66162109375, 0.169189453125, -0.475341796875
513, 438402820, -5.237146377563477, -3.378946304321289, 7.5651140213012695, 12.17403507232666, -204.77125549316406, -74.13172912597656, 0.623046875, 0.190185546875, -0.52392578125
514, 438419487, -7.378281116485596, -3.2372851371765137, 7.808238506317139, 13.19212818145752, -234.55075073242188, -77.98057556152344, 0.560546875, 0.203857421875, -0.573974609375
515, 438436154, -8.25151252746582, -3.217437744140625, 7.841974258422852, 8.595816612243652, -262.5923156738281, -83.17962646484375, 0.483642578125, 0.212646484375, -0.61279296875
516, 438452821, -9.28808879852295, -3.4571497440338135, 8.206982612609863, -1.7616835832595825, -281.9946594238281, -87.82168579101562, 0.40087890625, 0.21240234375, -0.62744140625
517, 438469488, -10.671133041381836, -3.878896474838257, 8.334576606750488, -20.519668579101562, -297.3979187011719, -96.2037582397461, 0.3291015625, 0.201416015625, -0.62841796875
518, 438486155, -11.142911911010742, -3.612081527709961, 8.193340301513672, -42.88003921508789, -298.71484375, -103.42475128173828, 0.2744140625, 0.183837890625, -0.61572265625
519, 438502822, -11.743017196655273, -3.6658101081848145, 8.570226669311523, -72.29339599609375, -283.3667907714844, -109.93238067626953, 0.260498046875, 0.163330078125, -0.59521484375
520, 438519489, -14.055367469787598, -6.052977561950684, 10.044584274291992, -84.52275085449219, -256.65399169921875, -108.5049057006836, 0.302734375, 0.158203125, -0.593017578125
521, 438536156, -19.811986923217773, -9.69087028503418, 12.089655876159668, -73.66300201416016, -250.03582763671875, -120.02740478515625, 0.3681640625, 0.192626953125, -0.6484375
522, 438552823, -22.527881622314453, -9.52763557434082, 10.381867408752441, -38.37263870239258, -269.7785339355469, -153.16586303710938, 0.37548828125, 0.26806640625, -0.761962890625
523, 438569490, -20.786231994628906, -4.084761142730713, 5.531397819519043, -17.199840545654297, -271.28076171875, -170.9969940185547, 0.28955078125, 0.353515625, -0.8564453125
524, 438586157, -20.106496810913086, -0.48767223954200745, 1.0937159061431885, -15.205208778381348, -239.9446258544922, -146.68190002441406, 0.16552734375, 0.414794921875, -0.903076171875
525, 438602824, -20.583850860595703, 1.8744091987609863, -1.7472262382507324, -24.28284454345703, -195.78834533691406, -109.62474060058594, 0.05126953125, 0.45263671875, -0.90966796875
526, 438619491, -24.898378372192383, 6.068302154541016, -6.338376998901367, -48.44194412231445, -153.51882934570312, -74.2722396850586, -0.027587890625, 0.48095703125, -0.900634765625
527, 438636158, -26.065059661865234, 8.740469932556152, -14.398537635803223, -61.9737548828125, -87.86515808105469, -26.635311126708984, -0.083740234375, 0.508056640625, -0.8837890625
528, 438652825, -18.58536720275879, 7.970931053161621, -17.794931411743164, 6.990864276885986, 52.246578216552734, 77.55573272705078, -0.08544921875, 0.523193359375, -0.88134765625
529, 438669492, -16.765239715576172, 4.435909271240234, -7.712800025939941, 83.85025787353516, 154.84375, 162.44418334960938, -0.034423828125, 0.5166015625, -0.892822265625
530, 438686159, -11.467086791992188, -9.72401237487793, 14.646085739135742, 99.23345947265625, 143.44183349609375, 147.48426818847656, 0.026123046875, 0.500732421875, -0.91455078125
531, 438702826, -2.5672597885131836, -9.444733619689941, 7.422088146209717, 90.95610809326172, 114.45740509033203, 94.66703033447266, 0.068359375, 0.4814453125, -0.9267578125
532, 438719493, -6.501830577850342, -0.2107175588607788, 8.427395820617676, 41.69022750854492, 187.46673583984375, 31.202489852905273, 0.11279296875, 0.478759765625, -0.9287109375
533, 438736160, -14.689297676086426, 3.579850435256958, 16.008108139038086, 32.809478759765625, 168.27528381347656, 33.95835494995117, 0.1630859375, 0.47509765625, -0.923828125
534, 438752827, -10.84719467163086, 3.3368215560913086, 10.947457313537598, 3.606462001800537, 120.54924774169922, 65.16645812988281, 0.203369140625, 0.47509765625, -0.91943359375
535, 438769494, -16.6373233795166, -15.358841896057129, 9.915172576904297, 48.92707443237305, 86.91210174560547, 60.36674880981445, 0.241455078125, 0.46533203125, -0.9189453125
536, 438786161, -7.986232757568359, 1.6190656423568726, 8.966245651245117, 58.447139739990234, 43.777225494384766, 39.04713821411133, 0.26025390625, 0.449951171875, -0.924072265625
537, 438802828, -6.314908981323242, -2.1951558589935303, 8.546223640441895, 38.49509811401367, 11.9448823928833, 21.580310821533203, 0.266845703125, 0.43701171875, -0.927978515625
538, 438819495, -6.64748477935791, -0.9558558464050293, 9.465929985046387, 26.279855728149414, 5.5894317626953125, 11.903173446655273, 0.27294921875, 0.427001953125, -0.93115234375
539, 438836162, -5.856592655181885, -2.567173480987549, 7.939613342285156, 12.787104606628418, 1.2438496351242065, 3.953585386276245, 0.272705078125, 0.4248046875, -0.935302734375
540, 438852829, -5.8240556716918945, -2.248185157775879, 8.17193603515625, 5.004908084869385, 3.281442165374756, 0.5680192708969116, 0.274169921875, 0.4228515625, -0.935546875
541, 438869496, -5.7960734367370605, -2.367037773132324, 8.083231925964355, -1.684022307395935, 5.1903557777404785, -2.1913201808929443, 0.274658203125, 0.42138671875, -0.93603515625
542, 438886163, -5.570192337036133, -2.3273823261260986, 7.926332473754883, -5.744110584259033, 6.7471747398376465, -3.158520460128784, 0.276123046875, 0.4248046875, -0.93408203125
543, 438902830, -5.543852806091309, -2.522642135620117, 7.714879512786865, -7.578301429748535, 7.808746337890625, -3.6954662799835205, 0.278564453125, 0.427978515625, -0.93359375
544, 438919497, -5.501773357391357, -2.7563600540161133, 7.683619976043701, -8.137351989746094, 8.720968246459961, -3.2311208248138428, 0.280029296875, 0.431396484375, -0.93115234375
545, 438936164, -5.409125804901123, -2.6649649143218994, 7.661116123199463, -7.8759613037109375, 9.375093460083008, -1.7746537923812866, 0.283447265625, 0.43408203125, -0.929443359375
546, 438952831, -5.468358039855957, -2.496629238128662, 7.591513156890869, -7.743159294128418, 10.014885902404785, -1.0249056816101074, 0.285400390625, 0.43310546875, -0.927978515625
547, 438969498, -5.6046671867370605, -2.5936837196350098, 7.449253559112549, -7.1479573249816895, 10.262354850769043, -1.158936858177185, 0.290283203125, 0.43505859375, -0.92626953125
548, 438986165, -5.611172199249268, -2.721677303314209, 7.465682506561279, -6.37951135635376, 9.284192085266113, -0.6835008263587952, 0.290771484375, 0.438232421875, -0.923828125
549, 439002832, -5.645208835601807, -2.631145477294922, 7.360573768615723, -6.063795566558838, 7.713695526123047, -0.25304070115089417, 0.2939453125, 0.4375, -0.921875
550, 439019499, -5.591482162475586, -2.7080540657043457, 7.375767707824707, -5.04763650894165, 6.105229377746582, 0.14484623074531555, 0.29638671875, 0.440185546875, -0.92138671875
551, 439036166, -5.669561862945557, -2.740783214569092, 7.318549633026123, -3.9120843410491943, 4.516781330108643, 0.1440906524658203, 0.29833984375, 0.440673828125, -0.919677734375
552, 439052833, -5.5707550048828125, -2.743281602859497, 7.266993522644043, -1.4321726560592651, 2.6169967651367188, 0.8469672203063965, 0.30126953125, 0.4443359375, -0.918701171875
553, 439069500, -5.572641849517822, -2.7067999839782715, 7.251746654510498, 0.8341864347457886, 1.235588550567627, 1.637144684791565, 0.30029296875, 0.441650390625, -0.917236328125
554, 439086167, -5.53963565826416, -2.834231376647949, 7.138192653656006, 4.019074440002441, -0.8180953860282898, 3.066307783126831, 0.29931640625, 0.441650390625, -0.916748046875
555, 439102834, -5.538796901702881, -2.7209391593933105, 7.3758544921875, 5.990855693817139, -1.6106163263320923, 3.8992974758148193, 0.29931640625, 0.440673828125, -0.920166015625
556, 439119501, -5.5048065185546875, -2.6667749881744385, 7.471974849700928, 6.156084060668945, -1.060775637626648, 4.4422221183776855, 0.30224609375, 0.435302734375, -0.921142578125
557, 439136168, -5.501201152801514, -2.517488956451416, 7.581367015838623, 5.185208797454834, 0.18291953206062317, 4.668369770050049, 0.30029296875, 0.43359375, -0.921630859375
558, 439152835, -5.524155616760254, -2.518456220626831, 7.54292631149292, 1.7822277545928955, 1.6590051651000977, 4.490067005157471, 0.302734375, 0.43408203125, -0.923095703125
559, 439169502, -5.636959075927734, -2.440922498703003, 7.540215492248535, 0.36607593297958374, 3.9914891719818115, 2.9503846168518066, 0.304443359375, 0.43212890625, -0.921630859375
560, 439186169, -5.418882369995117, -2.6490516662597656, 7.592175483703613, -0.009015670977532864, 6.275516033172607, 2.842069149017334, 0.304931640625, 0.43310546875, -0.921630859375
561, 439202836, -5.474153518676758, -2.571800708770752, 7.62817907333374, -1.6969701051712036, 9.593297958374023, 3.417125701904297, 0.309814453125, 0.433349609375, -0.91943359375
562, 439219503, -5.579263210296631, -2.4585752487182617, 7.600830078125, -4.708795547485352, 13.407726287841797, 3.930124282836914, 0.313232421875, 0.433837890625, -0.91845703125
563, 439236170, -5.491672992706299, -2.418628454208374, 7.712056636810303, -9.326432228088379, 18.501998901367188, 5.590102195739746, 0.31689453125, 0.434326171875, -0.914794921875
564, 439252837, -5.426916122436523, -2.672295331954956, 7.7338738441467285, -13.968570709228516, 23.337867736816406, 8.722393989562988, 0.3251953125, 0.4384765625, -0.91015625
565, 439269504, -5.058385848999023, -2.7755398750305176, 8.117287635803223, -8.70643138885498, 37.07291030883789, 9.069448471069336, 0.333740234375, 0.44140625, -0.905517578125
566, 439286171, -5.060070514678955, -2.5611019134521484, 8.480531692504883, -11.994219779968262, 60.381107330322266, 9.694684982299805, 0.34814453125, 0.445556640625, -0.898681640625
567, 439302838, -5.074697017669678, -2.679194211959839, 8.513092994689941, -20.57282257080078, 86.13467407226562, 15.7174711227417, 0.370361328125, 0.4482421875, -0.8876953125
568, 439319505, -5.289120674133301, -2.344238758087158, 8.410468101501465, -24.87725067138672, 114.77741241455078, 18.895946502685547, 0.4013671875, 0.4521484375, -0.8701171875
569, 439336172, -5.612128734588623, -2.0938029289245605, 8.145425796508789, -33.47238540649414, 151.68910217285156, 18.391931533813477, 0.435546875, 0.457275390625, -0.849365234375
570, 439352839, -5.444482326507568, -2.8663177490234375, 8.576141357421875, -40.28084182739258, 194.5452880859375, 23.11970329284668, 0.482421875, 0.464599609375, -0.814453125
571, 439369506, -5.050466537475586, -4.756263256072998, 8.898796081542969, -32.9531364440918, 239.1382598876953, 41.27550506591797, 0.5380859375, 0.467041015625, -0.773193359375
572, 439386173, -5.706963062286377, -4.388672351837158, 8.588164329528809, -25.12806510925293, 294.88092041015625, 70.0557632446289, 0.60546875, 0.463134765625, -0.718017578125
573, 439402840, -9.003803253173828, -6.39009952545166, 10.799508094787598, -18.484209060668945, 346.5369567871094, 117.39043426513672, 0.682373046875, 0.447998046875, -0.650146484375
574, 439419507, -11.818082809448242, -4.59247350692749, 9.823037147521973, -20.208444595336914, 373.46588134765625, 151.56166076660156, 0.76513671875, 0.41796875, -0.5625
575, 439436174, -17.80335807800293, -7.243957996368408, 11.954007148742676, -27.2359561920166, 344.2071838378906, 154.8580780029297, 0.832763671875, 0.385009765625, -0.47607421875
576, 439452841, -19.06352996826172, -6.3507795333862305, 13.138528823852539, -11.198312759399414, 277.80987548828125, 153.98814392089844, 0.880859375, 0.345947265625, -0.39794921875
577, 439469508, -12.105220794677734, -6.64646053314209, 11.650588989257812, 13.159920692443848, 225.91915893554688, 153.18299865722656, 0.912353515625, 0.301513671875, -0.332763671875
578, 439486175, -4.378343105316162, -8.685592651367188, 12.54623794555664, 31.202770233154297, 202.99278259277344, 139.39395141601562, 0.934326171875, 0.2568359375, -0.2841796875
579, 439502842, -12.96777629852295, -11.25050163269043, 21.523927688598633, 28.35824203491211, 97.20525360107422, 60.24666213989258, 0.939208984375, 0.23095703125, -0.247802734375
580, 439519509, -3.6856038570404053, -10.196846961975098, 16.866880416870117, 42.6216926574707, -40.500247955322266, -9.782635688781738, 0.932373046875, 0.23095703125, -0.260009765625
581, 439536176, 3.118265390396118, -7.339743137359619, 10.451830863952637, 73.66243743896484, -91.01978302001953, -35.57905578613281, 0.913330078125, 0.238525390625, -0.29248046875
582, 439552843, 3.1769111156463623, -4.475054740905762, 8.436652183532715, 85.9855728149414, -101.44993591308594, -44.7328987121582, 0.892333984375, 0.246337890625, -0.32763671875
583, 439569510, 1.1989718675613403, -3.0205628871917725, 8.245484352111816, 71.5501480102539, -112.92094421386719, -56.18012619018555, 0.875732421875, 0.2578125, -0.36865234375
584, 439586177, -0.9867749214172363, -2.9017558097839355, 8.202075004577637, 48.66147994995117, -133.54380798339844, -66.99807739257812, 0.848388671875, 0.279296875, -0.40771484375
585, 439602844, -2.900843620300293, -3.294010639190674, 7.901172161102295, 35.38297653198242, -159.45089721679688, -71.16390228271484, 0.818115234375, 0.298828125, -0.458984375
586, 439619511, -5.024266719818115, -3.2647180557250977, 7.92746114730835, 29.048437118530273, -188.62982177734375, -73.34263610839844, 0.7744140625, 0.3212890625, -0.517333984375
587, 439636178, -6.556774139404297, -2.9047513008117676, 7.892029762268066, 20.041440963745117, -220.3321990966797, -77.34500122070312, 0.715087890625, 0.3369140625, -0.578369140625
588, 439652845, -6.9640631675720215, -2.7875099182128906, 7.4678192138671875, 9.271645545959473, -246.36631774902344, -80.4666748046875, 0.6435546875, 0.34912109375, -0.632080078125
589, 439669512, -7.511031627655029, -2.9147274494171143, 7.324190139770508, -1.5789002180099487, -261.1548156738281, -80.0855484008789, 0.559814453125, 0.350341796875, -0.680419921875
590, 439686179, -8.702085494995117, -3.1558563709259033, 7.402708530426025, -14.420682907104492, -270.5317077636719, -79.1263656616211, 0.47802734375, 0.351318359375, -0.716796875
591, 439702846, -9.445518493652344, -3.337679147720337, 7.385185718536377, -31.604507446289062, -272.2712097167969, -81.81336212158203, 0.393798828125, 0.3505859375, -0.740478515625
592, 439719513, -10.157585144042969, -3.4045937061309814, 7.645823001861572, -48.42403030395508, -261.5986022949219, -86.6275405883789, 0.31103515625, 0.348388671875, -0.74462890625
593, 439736180, -11.48523235321045, -4.543299198150635, 9.241754531860352, -62.65495300292969, -241.5787353515625, -89.01007080078125, 0.24169921875, 0.3447265625, -0.736572265625
594, 439752847, -15.83944320678711, -6.197177886962891, 11.993019104003906, -75.88984680175781, -233.21128845214844, -102.35725402832031, 0.18798828125, 0.341552734375, -0.722412109375
595, 439769514, -19.00184440612793, -7.732607364654541, 11.536827087402344, -71.96630859375, -243.41259765625, -127.40937042236328, 0.14404296875, 0.34521484375, -0.71044921875
596, 439786181, -20.706939697265625, -5.9065656661987305, 9.241192817687988, -51.95772171020508, -248.27401733398438, -148.83071899414062, 0.09814453125, 0.349853515625, -0.707275390625
597, 439802848, -21.931352615356445, -3.5455322265625, 6.110579490661621, -38.64714813232422, -245.9565887451172, -152.15753173828125, 0.050048828125, 0.35302734375, -0.709716796875
598, 439819515, -22.717870712280273, -1.8577985763549805, 2.437749147415161, -25.09920883178711, -234.22048950195312, -134.28219604492188, 0.007080078125, 0.357666015625, -0.7177734375
599, 439836182, -23.346582412719727, 1.5564069747924805, -2.2260618209838867, -18.315372467041016, -212.44285583496094, -104.37467956542969, -0.036865234375, 0.36279296875, -0.728759765625
600, 439852849, -30.439138412475586, 9.041959762573242, -10.497618675231934, -42.13629150390625, -184.14859008789062, -75.29853820800781, -0.078369140625, 0.366943359375, -0.732177734375
601, 439869516, -23.790508270263672, 13.613924026489258, -17.933164596557617, -81.73915100097656, -106.74214935302734, -28.23593521118164, -0.10888671875, 0.3828125, -0.729736328125
602, 439886183, -12.444130897521973, 5.047943115234375, -15.89745807647705, -28.396106719970703, 52.58442687988281, 92.81590270996094, -0.1015625, 0.3984375, -0.728271484375
603, 439902850, -14.974260330200195, 1.157365322113037, -3.679030656814575, 67.03325653076172, 150.01467895507812, 176.71791076660156, -0.05224609375, 0.386962890625, -0.73779296875
604, 439919517, -12.227155685424805, -10.32412338256836, 12.665790557861328, 82.87175750732422, 123.85042572021484, 134.58181762695312, -0.001953125, 0.36865234375, -0.74853515625
605, 439936184, 0.7735905647277832, -9.95531177520752, 4.410510063171387, 67.26303100585938, 122.08468627929688, 70.47875213623047, 0.0361328125, 0.350341796875, -0.75732421875
606, 439952851, -4.995284080505371, -0.4091239273548126, 8.449002265930176, 29.778703689575195, 204.0108184814453, 32.50643539428711, 0.085205078125, 0.33935546875, -0.75927734375
607, 439969518, -19.64803123474121, 3.0533769130706787, 17.229175567626953, 29.227312088012695, 177.0684356689453, 46.159576416015625, 0.13671875, 0.330810546875, -0.759033203125
608, 439986185, -18.914194107055664, -3.794743537902832, 13.64975643157959, 29.626943588256836, 88.24813842773438, 73.0439682006836, 0.17236328125, 0.322021484375, -0.75390625
609, 440002852, -7.850396156311035, -7.785703182220459, 4.489579677581787, 62.6556396484375, 38.72304916381836, 38.84931945800781, 0.1845703125, 0.306396484375, -0.760009765625
610, 440019519, -8.347533226013184, -0.009080439805984497, 11.144448280334473, 55.53754425048828, 29.990398406982422, 39.831092834472656, 0.2001953125, 0.2890625, -0.761962890625
611, 440036186, -7.098841190338135, -2.6933975219726562, 7.721532821655273, 42.54533386230469, 8.889570236206055, 22.44957160949707, 0.203857421875, 0.277099609375, -0.765380859375
612, 440052853, -5.659402847290039, -2.026820421218872, 8.43791389465332, 31.39986228942871, 0.16450464725494385, 14.76511001586914, 0.20703125, 0.267578125, -0.770751953125
613, 440069520, -6.0885748863220215, -2.1621527671813965, 8.196999549865723, 22.40371322631836, -3.6207079887390137, 9.519574165344238, 0.209228515625, 0.260009765625, -0.774169921875
614, 440086187, -5.600157260894775, -2.5734474658966064, 7.878273010253906, 13.479531288146973, -2.350914716720581, 5.884515285491943, 0.208251953125, 0.2578125, -0.775146484375
615, 440102854, -5.760369300842285, -2.354994297027588, 7.954510688781738, 7.5277862548828125, 0.12905603647232056, 3.546534299850464, 0.211669921875, 0.25439453125, -0.772705078125
616, 440119521, -5.636631488800049, -2.376544713973999, 7.8767523765563965, 2.782134532928467, 1.9531538486480713, 0.9173892140388489, 0.211181640625, 0.2548828125, -0.772216796875
617, 440136188, -5.527204513549805, -2.5742099285125732, 7.70847749710083, 0.1543869525194168, 3.2684431076049805, -0.07443050295114517, 0.211669921875, 0.2548828125, -0.773193359375
618, 440152855, -5.485718727111816, -2.7109386920928955, 7.6349382400512695, 0.15229955315589905, 4.5836944580078125, 0.0802253931760788, 0.214599609375, 0.25537109375, -0.7724609375
619, 440169522, -5.444789409637451, -2.787689208984375, 7.5173211097717285, 1.1942113637924194, 4.542943954467773, 0.8882677555084229, 0.2158203125, 0.25341796875, -0.77294921875
620, 440186189, -5.5470075607299805, -2.5590462684631348, 7.597044944763184, 2.0845987796783447, 4.335929870605469, 1.9349819421768188, 0.21435546875, 0.251953125, -0.7734375
621, 440202856, -5.560388088226318, -2.4216971397399902, 7.621223449707031, 1.9783440828323364, 3.8756048679351807, 2.123939275741577, 0.21630859375, 0.2490234375, -0.7734375
622, 440219523, -5.59173059463501, -2.583810806274414, 7.527514457702637, 2.50083065032959, 3.4411497116088867, 2.8784773349761963, 0.21728515625, 0.25146484375, -0.77294921875
623, 440236190, -5.63788366317749, -2.4784095287323, 7.535467624664307, 2.7923803329467773, 1.7659382820129395, 3.1080055236816406, 0.2197265625, 0.25146484375, -0.77099609375
624, 440252857, -5.625298023223877, -2.7016937732696533, 7.318463325500488, 4.446320056915283, -1.2816849946975708, 3.591188907623291, 0.2177734375, 0.24853515625, -0.77490234375
625, 440269524, -5.538944721221924, -2.737215995788574, 7.422206401824951, 7.383471965789795, -4.999767303466797, 4.7613444328308105, 0.2197265625, 0.2470703125, -0.77587890625
626, 440286191, -5.471367359161377, -2.8630290031433105, 7.512504577636719, 9.853629112243652, -7.038808822631836, 6.47208309173584, 0.218994140625, 0.243896484375, -0.7744140625
627, 440302858, -5.523512363433838, -2.4968760013580322, 7.621379375457764, 10.11751651763916, -7.365821361541748, 7.258509635925293, 0.2177734375, 0.243408203125, -0.77685546875
628, 440319525, -5.433498382568359, -2.1692934036254883, 7.76182746887207, 9.226934432983398, -4.963602066040039, 6.930447101593018, 0.218505859375, 0.239501953125, -0.77783203125
629, 440336192, -5.467237949371338, -2.2134575843811035, 7.788998126983643, 7.586451053619385, -1.9568233489990234, 5.973349571228027, 0.218017578125, 0.236328125, -0.77783203125
630, 440352859, -5.429179668426514, -2.343705177307129, 7.753777027130127, 6.9290242195129395, 0.6482767462730408, 4.81332540512085, 0.216552734375, 0.234375, -0.78076171875
631, 440369526, -5.498351573944092, -2.4108543395996094, 7.583621501922607, 7.122085094451904, 2.268583059310913, 5.032897472381592, 0.216552734375, 0.23046875, -0.7783203125
632, 440386193, -5.482036590576172, -2.4636070728302, 7.581339359283447, 9.19708251953125, 1.8699265718460083, 7.19381046295166, 0.218994140625, 0.23046875, -0.77880859375
633, 440402860, -5.4205803871154785, -2.437932252883911, 7.67519998550415, 9.162941932678223, 2.9804811477661133, 8.645103454589844, 0.22216796875, 0.224365234375, -0.78173828125
634, 440419527, -5.433652877807617, -2.226840019226074, 7.722283363342285, 6.998898983001709, 6.411778450012207, 8.677287101745605, 0.224609375, 0.223876953125, -0.7802734375
635, 440436194, -5.397546291351318, -2.200115442276001, 7.886137008666992, 4.782273292541504, 12.619099617004395, 8.74237060546875, 0.227294921875, 0.222412109375, -0.779052734375
636, 440452861, -5.31088924407959, -2.1028037071228027, 8.107909202575684, 3.516035318374634, 21.078542709350586, 8.684842109680176, 0.231689453125, 0.221923828125, -0.780029296875
637, 440469528, -5.486092567443848, -2.0428967475891113, 7.964502334594727, 1.4722808599472046, 30.93658447265625, 8.452484130859375, 0.23974609375, 0.217529296875, -0.7763671875
638, 440486195, -5.53180456161499, -2.2718935012817383, 7.840195178985596, -0.2433219999074936, 39.04697799682617, 7.635591506958008, 0.247314453125, 0.218505859375, -0.777587890625
639, 440502862, -5.532018661499023, -2.350541830062866, 7.882464408874512, -1.4116170406341553, 47.3498649597168, 7.9742913246154785, 0.258056640625, 0.218505859375, -0.77490234375
640, 440519529, -5.70521354675293, -2.3883674144744873, 7.796145915985107, -0.7048694491386414, 55.82130813598633, 10.088208198547363, 0.269775390625, 0.216796875, -0.7666015625
641, 440536196, -5.848154067993164, -2.4345710277557373, 7.792913436889648, 0.9237942099571228, 65.74336242675781, 13.139836311340332, 0.2861328125, 0.21630859375, -0.764892578125
642, 440552863, -5.798596382141113, -2.7175381183624268, 7.947033882141113, 3.3535943031311035, 79.35896301269531, 19.190298080444336, 0.3046875, 0.21337890625, -0.7587890625
643, 440569530, -5.721035957336426, -2.603713274002075, 8.338705062866211, 2.5713398456573486, 101.34366607666016, 27.538686752319336, 0.323974609375, 0.210205078125, -0.748046875
644, 440586197, -5.732011795043945, -3.1210899353027344, 9.043622016906738, -0.01039945799857378, 131.74819946289062, 42.7476806640625, 0.35107421875, 0.207763671875, -0.73486328125
645, 440602864, -5.651562690734863, -3.0742502212524414, 9.354414939880371, -5.705895900726318, 170.45068359375, 63.83650588989258, 0.388427734375, 0.200927734375, -0.717041015625
646, 440619531, -6.602601051330566, -2.9719951152801514, 9.0628662109375, -16.045711517333984, 213.2794952392578, 90.98865509033203, 0.43212890625, 0.19384765625, -0.693359375
647, 440636198, -6.784508228302002, -3.165863037109375, 9.301848411560059, -37.979774475097656, 245.7821807861328, 119.41104125976562, 0.485595703125, 0.18505859375, -0.6591796875
648, 440652865, -9.826310157775879, -3.706773519515991, 9.975541114807129, -64.4901123046875, 263.8028869628906, 135.63499450683594, 0.5419921875, 0.173583984375, -0.619384765625
649, 440669532, -11.608011245727539, -4.581042766571045, 8.487248420715332, -80.76846313476562, 248.45509338378906, 146.98992919921875, 0.589599609375, 0.163330078125, -0.572998046875
650, 440686199, -12.799016952514648, -2.0025670528411865, 9.461078643798828, -100.53718566894531, 215.2496795654297, 146.66754150390625, 0.632080078125, 0.152587890625, -0.531005859375
651, 440702866, -10.101909637451172, -1.6709399223327637, 7.927656650543213, -135.7333221435547, 178.19314575195312, 138.36264038085938, 0.6650390625, 0.14501953125, -0.4931640625
652, 440719533, -5.236462116241455, -0.10915660858154297, 11.82687759399414, -181.5137939453125, 136.18438720703125, 135.4594268798828, 0.68603515625, 0.143798828125, -0.459716796875
653, 440736200, -6.38663387298584, -0.6267905831336975, 16.379323959350586, -245.44943237304688, 27.383506774902344, 141.23793029785156, 0.697509765625, 0.144775390625, -0.44482421875
654, 440752867, -2.7073988914489746, -5.097282886505127, 10.76062297821045, -249.45436096191406, -70.59681701660156, 142.3154296875, 0.6904296875, 0.150390625, -0.450927734375
655, 440769534, 0.6321252584457397, -4.430525779724121, 6.274719715118408, -217.60076904296875, -91.11611938476562, 124.23834228515625, 0.67724609375, 0.1533203125, -0.46142578125
656, 440786201, -0.44104400277137756, -2.9587721824645996, 6.087194442749023, -208.64346313476562, -85.02438354492188, 83.50550842285156, 0.6630859375, 0.164306640625, -0.473876953125
657, 440802868, -1.6874847412109375, -2.5213801860809326, 7.037895679473877, -204.9164581298828, -89.68843078613281, 39.236473083496094, 0.642333984375, 0.185546875, -0.482421875
658, 440819535, -2.193432092666626, -1.3474242687225342, 7.660859107971191, -190.619140625, -103.51049041748047, 8.733838081359863, 0.619140625, 0.211669921875, -0.486572265625
