sep=,
DeviceTag:,B,,,,,,,,,,,,,,,,,
FirmwareVersion:,2.2.1,,,,,,,,,,,,,,,,,
AppVersion:,2022.0.1,,,,,,,,,,,,,,,,,
SyncStatus:,Synced,,,,,,,,,,,,,,,,,
OutputRate:,60Hz,,,,,,,,,,,,,,,,,
FilterProfile:,General,,,,,,,,,,,,,,,,,
Measurement Mode:,Inertial Mode - Rate quantities (with mag),,,,,,,,,,,,,,,,,
StartTime:,2022-08-05 16:51:13.336 +0300,,,,,,,,,,,,,,,,,
© Xsens Technologies B. V. 2005-2022,,,,,,,,,,,,,,,,,,,

PacketCounter,SampleTimeFine,Acc_X,Acc_Y,Acc_Z,Gyr_X,Gyr_Y,Gyr_Z,Mag_X,Mag_Y,Mag_Z
1, 3720366523, -5.3129563331604, -2.102803945541382, 7.816407680511475, -0.31347382068634033, -0.6443515419960022, -1.0145831108093262, 0.03466796875, 0.197998046875, -0.79638671875
2, 3720383190, -5.309570789337158, -2.1047322750091553, 7.835026264190674, -0.3513677716255188, -0.5635946393013, -1.0391072034835815, 0.0322265625, 0.197021484375, -0.7998046875
3, 3720399857, -5.306354522705078, -2.1324269771575928, 7.8292927742004395, -0.39490944147109985, -0.6078662276268005, -1.0804206132888794, 0.033447265625, 0.198974609375, -0.796875
4, 3720416524, -5.289752006530762, -2.1206858158111572, 7.807451248168945, -0.33135148882865906, -0.6275239586830139, -1.0599817037582397, 0.0322265625, 0.197509765625, -0.7998046875
5, 3720433191, -5.292808532714844, -2.1228201389312744, 7.80605936050415, -0.40939339995384216, -0.6081735491752625, -1.041553258895874, 0.03369140625, 0.197998046875, -0.79736328125
6, 3720449858, -5.285642623901367, -2.1155972480773926, 7.832650184631348, -0.3481021821498871, -0.515775740146637, -1.0987462997436523, 0.03369140625, 0.198486328125, -0.79931640625
7, 3720466525, -5.284898281097412, -2.1181867122650146, 7.836312770843506, -0.3532119691371918, -0.48518136143684387, -1.0351756811141968, 0.03466796875, 0.198486328125, -0.79638671875
8, 3720483192, -5.291101455688477, -2.140026569366455, 7.847925662994385, -0.319902628660202, -0.41644972562789917, -0.9583632946014404, 0.0361328125, 0.198486328125, -0.796875
9, 3720499859, -5.295421123504639, -2.1231729984283447, 7.831453800201416, -0.25187528133392334, -0.4408201575279236, -0.9432389140129089, 0.03369140625, 0.196533203125, -0.79736328125
10, 3720516526, -5.3085784912109375, -2.120540142059326, 7.829943656921387, -0.22662116587162018, -0.47406551241874695, -0.9526644349098206, 0.032470703125, 0.197998046875, -0.794921875
11, 3720533193, -5.293192386627197, -2.110851764678955, 7.846285820007324, -0.19779406487941742, -0.49812859296798706, -0.9709133505821228, 0.03515625, 0.198974609375, -0.7978515625
12, 3720549860, -5.28875207901001, -2.1246843338012695, 7.825109958648682, -0.23506054282188416, -0.4668426215648651, -0.9563909769058228, 0.031982421875, 0.198486328125, -0.79541015625
13, 3720566527, -5.300477504730225, -2.111515998840332, 7.823486328125, -0.37765923142433167, -0.491840660572052, -1.0078212022781372, 0.033203125, 0.197021484375, -0.79736328125
14, 3720583194, -5.280102729797363, -2.1172776222229004, 7.83836030960083, -0.2944692075252533, -0.49841031432151794, -0.9698503613471985, 0.033203125, 0.196533203125, -0.796875
15, 3720599861, -5.293887138366699, -2.125218391418457, 7.839949131011963, -0.40964949131011963, -0.4627702832221985, -1.044677972793579, 0.033203125, 0.196533203125, -0.79736328125
16, 3720616528, -5.28941011428833, -2.1161482334136963, 7.835172653198242, -0.2473418265581131, -0.36594143509864807, -0.9271156787872314, 0.032958984375, 0.198974609375, -0.79736328125
17, 3720633195, -5.29755163192749, -2.1199615001678467, 7.830282688140869, -0.298029363155365, -0.48149311542510986, -0.9060236215591431, 0.032958984375, 0.198974609375, -0.79833984375
18, 3720649862, -5.302095413208008, -2.130533456802368, 7.835809707641602, -0.16621360182762146, -0.37651947140693665, -0.9065101742744446, 0.03564453125, 0.198974609375, -0.79638671875
19, 3720666529, -5.302659034729004, -2.123281717300415, 7.822286605834961, -0.2598024308681488, -0.4653315544128418, -0.9492962956428528, 0.037109375, 0.197509765625, -0.79931640625
20, 3720683196, -5.302009582519531, -2.1253790855407715, 7.835577964782715, -0.31585580110549927, -0.44682639837265015, -0.9967054128646851, 0.03466796875, 0.195556640625, -0.7958984375
21, 3720699863, -5.287330627441406, -2.1220858097076416, 7.8235273361206055, -0.3948197662830353, -0.39613884687423706, -0.9923767447471619, 0.0341796875, 0.197998046875, -0.79541015625
22, 3720716530, -5.304274082183838, -2.1274874210357666, 7.83405065536499, -0.439206600189209, -0.5104483366012573, -1.0082567930221558, 0.0341796875, 0.196533203125, -0.79736328125
23, 3720733197, -5.288486003875732, -2.1259493827819824, 7.832663536071777, -0.32799622416496277, -0.5164800882339478, -1.0127389430999756, 0.03466796875, 0.198486328125, -0.79833984375
24, 3720749864, -5.285233974456787, -2.11030650138855, 7.833095073699951, -0.32419273257255554, -0.4473769962787628, -0.9263345003128052, 0.03515625, 0.197509765625, -0.79833984375
25, 3720766531, -5.304129600524902, -2.1246325969696045, 7.828557968139648, -0.3384590446949005, -0.32909759879112244, -0.9085337519645691, 0.033935546875, 0.19970703125, -0.79931640625
26, 3720783198, -5.304806709289551, -2.111677408218384, 7.824153900146484, -0.327291876077652, -0.42385178804397583, -0.9610269665718079, 0.03466796875, 0.196533203125, -0.7958984375
27, 3720799865, -5.3048248291015625, -2.114567518234253, 7.844246864318848, -0.36297035217285156, -0.36549320816993713, -0.9982548952102661, 0.033203125, 0.196533203125, -0.79345703125
28, 3720816532, -5.300322532653809, -2.113386631011963, 7.803476810455322, -0.41000813245773315, -0.2954040765762329, -0.9447885155677795, 0.0341796875, 0.198974609375, -0.7958984375
29, 3720833199, -5.296172142028809, -2.1184961795806885, 7.857320785522461, -0.6155755519866943, -0.31460079550743103, -1.1265231370925903, 0.03515625, 0.197509765625, -0.798828125
30, 3720849866, -5.3009562492370605, -2.1310949325561523, 7.833081245422363, -0.6717827320098877, -0.2968512177467346, -1.062363624572754, 0.03564453125, 0.197998046875, -0.79541015625
31, 3720866533, -5.290668487548828, -2.1084072589874268, 7.832615375518799, -0.8466277122497559, -0.25902122259140015, -1.1705515384674072, 0.0341796875, 0.197998046875, -0.79931640625
32, 3720883200, -5.277632713317871, -2.116981267929077, 7.830408573150635, -1.2119117975234985, -0.03895924612879753, -1.3738065958023071, 0.0341796875, 0.198974609375, -0.7958984375
33, 3720899867, -5.327103137969971, -2.0896224975585938, 7.84773588180542, -1.5385164022445679, 0.08013573288917542, -1.5127886533737183, 0.03515625, 0.198974609375, -0.79833984375
34, 3720916534, -5.301142692565918, -2.115567684173584, 7.810816764831543, -1.5567911863327026, 0.05681537464261055, -1.5353662967681885, 0.03271484375, 0.197998046875, -0.796875
35, 3720933201, -5.313958644866943, -2.1409695148468018, 7.835412979125977, -1.703116536140442, 0.041101980954408646, -1.6354862451553345, 0.03466796875, 0.19921875, -0.79638671875
36, 3720949868, -5.319939613342285, -2.143310070037842, 7.845943450927734, -1.6358064413070679, 0.09582351893186569, -1.6685010194778442, 0.03564453125, 0.201171875, -0.79541015625
37, 3720966535, -5.294824600219727, -2.1759562492370605, 7.821108341217041, -1.5085241794586182, 0.04322783648967743, -1.6806285381317139, 0.03466796875, 0.19970703125, -0.798828125
38, 3720983202, -5.30918025970459, -2.1982386112213135, 7.789972305297852, -1.1874175071716309, -0.13111139833927155, -1.386620283126831, 0.0361328125, 0.19921875, -0.792724609375
39, 3720999869, -5.306254863739014, -2.1632888317108154, 7.794222354888916, -0.9813762307167053, -0.23019416630268097, -1.3293119668960571, 0.034423828125, 0.20068359375, -0.79541015625
40, 3721016536, -5.278067588806152, -2.1820669174194336, 7.824307441711426, -0.8087337613105774, -0.31299999356269836, -1.2822868824005127, 0.03515625, 0.2001953125, -0.7958984375
41, 3721033203, -5.311171531677246, -2.1498494148254395, 7.8035173416137695, -0.559829592704773, -0.2122652530670166, -1.1074931621551514, 0.033935546875, 0.201171875, -0.794921875
42, 3721049870, -5.312046527862549, -2.1654253005981445, 7.82742977142334, -0.6241430640220642, -0.308338463306427, -1.1030750274658203, 0.033935546875, 0.201171875, -0.79638671875
43, 3721066537, -5.319272518157959, -2.1656649112701416, 7.804971694946289, -0.5426946878433228, -0.43348217010498047, -1.068907618522644, 0.0361328125, 0.2021484375, -0.79443359375
44, 3721083204, -5.308470726013184, -2.1708364486694336, 7.796627521514893, -0.5015350580215454, -0.5064142942428589, -1.0557811260223389, 0.03662109375, 0.19921875, -0.794189453125
45, 3721099871, -5.3045148849487305, -2.1574461460113525, 7.810251712799072, -0.6426354050636292, -0.4603498578071594, -1.0439480543136597, 0.03662109375, 0.20068359375, -0.793701171875
46, 3721116538, -5.3027472496032715, -2.146928310394287, 7.829671382904053, -0.7420766949653625, -0.3519056737422943, -1.1877504587173462, 0.03515625, 0.19921875, -0.793212890625
47, 3721133205, -5.324003219604492, -2.1641955375671387, 7.812223434448242, -0.7483006119728088, -0.38529184460639954, -1.2055385112762451, 0.034423828125, 0.203125, -0.79638671875
48, 3721149872, -5.309470176696777, -2.165560245513916, 7.808327674865723, -0.6024363040924072, -0.44987425208091736, -1.1647887229919434, 0.034423828125, 0.20068359375, -0.79345703125
49, 3721166539, -5.298881530761719, -2.187653064727783, 7.826084136962891, -0.4286156892776489, -0.5282875299453735, -1.0923049449920654, 0.034423828125, 0.20263671875, -0.79443359375
50, 3721183206, -5.305222034454346, -2.1730587482452393, 7.810403347015381, -0.2596103250980377, -0.6569529175758362, -0.8628789782524109, 0.034423828125, 0.20263671875, -0.79296875
51, 3721199873, -5.299210548400879, -2.1769049167633057, 7.797107219696045, -0.19689762592315674, -0.5569737553596497, -0.9264241456985474, 0.0341796875, 0.198974609375, -0.79443359375
52, 3721216540, -5.3103928565979, -2.164637804031372, 7.799806594848633, -0.242142453789711, -0.5081815719604492, -0.8830618262290955, 0.035888671875, 0.20263671875, -0.7958984375
53, 3721233207, -5.314136981964111, -2.1656177043914795, 7.810052871704102, -0.38577842712402344, -0.43711912631988525, -0.9879969358444214, 0.034912109375, 0.201171875, -0.79345703125
54, 3721249874, -5.3304667472839355, -2.1521871089935303, 7.787713050842285, -0.41286394000053406, -0.3942434787750244, -1.0192701816558838, 0.035888671875, 0.20263671875, -0.79638671875
55, 3721266541, -5.318441390991211, -2.166620969772339, 7.8034749031066895, -0.3092861771583557, -0.5239077806472778, -1.0583552122116089, 0.0361328125, 0.20263671875, -0.79443359375
56, 3721283208, -5.320375919342041, -2.1720786094665527, 7.787506103515625, -0.3579246401786804, -0.45372894406318665, -0.9565830230712891, 0.03662109375, 0.2001953125, -0.792724609375
57, 3721299875, -5.322299003601074, -2.178079843521118, 7.805832862854004, -0.18703672289848328, -0.5836237668991089, -0.9746016263961792, 0.035400390625, 0.20166015625, -0.79443359375
58, 3721316542, -5.305531024932861, -2.173391580581665, 7.814263343811035, -0.14669673144817352, -0.6020649671554565, -0.9503848552703857, 0.03564453125, 0.20068359375, -0.79541015625
59, 3721333209, -5.312742710113525, -2.171022415161133, 7.804769992828369, -0.15899081528186798, -0.5518896579742432, -0.9178822636604309, 0.033935546875, 0.201171875, -0.79443359375
60, 3721349876, -5.3148322105407715, -2.188568115234375, 7.81550931930542, -0.13385196030139923, -0.5977491140365601, -0.9389998912811279, 0.03515625, 0.20068359375, -0.79736328125
61, 3721366543, -5.294851779937744, -2.1841630935668945, 7.788976669311523, -0.026547562330961227, -0.6490129828453064, -0.8866987824440002, 0.03564453125, 0.20166015625, -0.79541015625
62, 3721383210, -5.2936530113220215, -2.185513973236084, 7.820700645446777, 0.09304453432559967, -0.7186026573181152, -0.7885381579399109, 0.0361328125, 0.2021484375, -0.7939453125
63, 3721399877, -5.313772201538086, -2.172356367111206, 7.790147304534912, 0.0908290296792984, -0.6599112153053284, -0.7672155499458313, 0.03662109375, 0.201171875, -0.79443359375
64, 3721416544, -5.302396774291992, -2.164724588394165, 7.809906959533691, 0.04759480804204941, -0.5628263354301453, -0.7157469391822815, 0.033935546875, 0.201171875, -0.79345703125
65, 3721433211, -5.304958343505859, -2.191758155822754, 7.8025221824646, 0.12652792036533356, -0.5864379405975342, -0.6951448321342468, 0.03466796875, 0.19921875, -0.796875
66, 3721449878, -5.31475305557251, -2.183928966522217, 7.814014434814453, 0.5159997940063477, -0.7391055822372437, -0.48095524311065674, 0.03662109375, 0.20263671875, -0.7958984375
67, 3721466545, -5.296668529510498, -2.1703014373779297, 7.810731410980225, 0.67856365442276, -0.9232096672058105, -0.4792008399963379, 0.034423828125, 0.201171875, -0.796875
68, 3721483212, -5.311288356781006, -2.1501288414001465, 7.819845676422119, 0.6718659400939941, -0.8492530584335327, -0.400339275598526, 0.0361328125, 0.19921875, -0.79833984375
69, 3721499879, -5.3085103034973145, -2.1632649898529053, 7.7901082038879395, 0.6528741717338562, -0.8704731464385986, -0.3771982491016388, 0.033447265625, 0.20068359375, -0.794921875
70, 3721516546, -5.299290657043457, -2.152141571044922, 7.813818454742432, 0.5575180649757385, -0.7891400456428528, -0.4405127763748169, 0.037109375, 0.19970703125, -0.793212890625
71, 3721533213, -5.306163311004639, -2.143798828125, 7.794161796569824, 0.5007089972496033, -0.8300050497055054, -0.4673292934894562, 0.034423828125, 0.2021484375, -0.79541015625
72, 3721549880, -5.311187744140625, -2.1375861167907715, 7.822220325469971, 0.26406049728393555, -0.6526755690574646, -0.48022526502609253, 0.033935546875, 0.2001953125, -0.796875
73, 3721566547, -5.312234401702881, -2.1203367710113525, 7.816519737243652, 0.14656226336956024, -0.5764905214309692, -0.5804093480110168, 0.03466796875, 0.19970703125, -0.79443359375
74, 3721583214, -5.312939167022705, -2.1268274784088135, 7.821432113647461, 0.05682818219065666, -0.515711784362793, -0.7215097546577454, 0.033447265625, 0.199462890625, -0.796875
75, 3721599881, -5.300549030303955, -2.148658514022827, 7.82869815826416, -0.0903744176030159, -0.4843233823776245, -0.8240630626678467, 0.03662109375, 0.19970703125, -0.793701171875
76, 3721616548, -5.302596569061279, -2.1540324687957764, 7.843291282653809, 0.012338917702436447, -0.5217050909996033, -0.7351868748664856, 0.033935546875, 0.199462890625, -0.794921875
77, 3721633215, -5.321163654327393, -2.1502180099487305, 7.791299343109131, 0.052909430116415024, -0.545115053653717, -0.7127373218536377, 0.0341796875, 0.19970703125, -0.794921875
78, 3721649882, -5.305139064788818, -2.1581718921661377, 7.80942440032959, 0.04627574235200882, -0.6442746520042419, -0.7433189153671265, 0.033935546875, 0.2001953125, -0.79345703125
79, 3721666549, -5.294873237609863, -2.12903094291687, 7.82342004776001, -0.012204451486468315, -0.6930028200149536, -0.7852341532707214, 0.03515625, 0.2001953125, -0.7958984375
80, 3721683216, -5.294797897338867, -2.153722047805786, 7.826789855957031, -0.025740761309862137, -0.49159732460975647, -0.6910178065299988, 0.03515625, 0.198974609375, -0.7978515625
81, 3721699883, -5.305680274963379, -2.125309705734253, 7.829409122467041, -0.09264113008975983, -0.4112630784511566, -0.7616192102432251, 0.033935546875, 0.199462890625, -0.7939453125
82, 3721716550, -5.315382957458496, -2.145656108856201, 7.81723165512085, -0.14183031022548676, -0.34173741936683655, -0.7847473621368408, 0.033447265625, 0.20068359375, -0.7939453125
83, 3721733217, -5.330968379974365, -2.1289751529693604, 7.819502353668213, -0.3140501081943512, -0.480276495218277, -0.8627637624740601, 0.03369140625, 0.198974609375, -0.794921875
84, 3721749884, -5.317878246307373, -2.1384365558624268, 7.819052219390869, -0.2600841522216797, -0.49253225326538086, -0.9269877076148987, 0.034423828125, 0.201171875, -0.796875
85, 3721766551, -5.303877353668213, -2.1391873359680176, 7.7862677574157715, -0.24982625246047974, -0.4573403596878052, -0.8679758906364441, 0.03466796875, 0.19970703125, -0.796875
86, 3721783218, -5.300603866577148, -2.149726152420044, 7.846113681793213, -0.1537146270275116, -0.47533324360847473, -0.8524802327156067, 0.03515625, 0.198974609375, -0.79736328125
87, 3721799885, -5.303199768066406, -2.1426148414611816, 7.836864948272705, -0.16403652727603912, -0.483490914106369, -0.8726374506950378, 0.0361328125, 0.197021484375, -0.79638671875
88, 3721816552, -5.30773401260376, -2.1489057540893555, 7.825691223144531, -0.1442122906446457, -0.4015046954154968, -0.8732777237892151, 0.03515625, 0.198974609375, -0.79736328125
89, 3721833219, -5.314483165740967, -2.140490770339966, 7.795599937438965, -0.2586626410484314, -0.4318813681602478, -0.855758786201477, 0.03564453125, 0.19970703125, -0.794921875
90, 3721849886, -5.307105541229248, -2.139458417892456, 7.812455654144287, -0.08152521401643753, -0.4728616178035736, -0.8444761633872986, 0.03564453125, 0.19970703125, -0.79638671875
91, 3721866553, -5.31574010848999, -2.1334147453308105, 7.8116455078125, -0.28103533387184143, -0.4195232093334198, -0.8462180495262146, 0.037109375, 0.19921875, -0.79638671875
92, 3721883220, -5.30933141708374, -2.134840965270996, 7.7948737144470215, -0.2251996397972107, -0.5257006287574768, -0.9179590940475464, 0.03515625, 0.197021484375, -0.7978515625
93, 3721899887, -5.3046345710754395, -2.1403744220733643, 7.798813819885254, -0.297235369682312, -0.5181832909584045, -0.886212170124054, 0.03466796875, 0.197509765625, -0.7939453125
94, 3721916554, -5.303152561187744, -2.1391777992248535, 7.797288417816162, -0.1762409806251526, -0.45281967520713806, -0.8978531360626221, 0.03564453125, 0.19921875, -0.796875
95, 3721933221, -5.308801174163818, -2.1281368732452393, 7.834282875061035, -0.2718275785446167, -0.48397761583328247, -0.8827289342880249, 0.03515625, 0.19970703125, -0.798828125
96, 3721949888, -5.298407554626465, -2.133547306060791, 7.804393768310547, -0.2175670564174652, -0.5296450257301331, -0.8985319137573242, 0.0341796875, 0.19970703125, -0.7958984375
97, 3721966555, -5.301171779632568, -2.144097089767456, 7.818935394287109, -0.23771144449710846, -0.5449230074882507, -0.8984423279762268, 0.0361328125, 0.19970703125, -0.79638671875
98, 3721983222, -5.308427333831787, -2.1356403827667236, 7.812201976776123, -0.25503844022750854, -0.46291109919548035, -0.8994027376174927, 0.03564453125, 0.19970703125, -0.79541015625
99, 3721999889, -5.314279556274414, -2.1485557556152344, 7.8310089111328125, -0.3248268961906433, -0.4701491892337799, -0.9778872728347778, 0.03466796875, 0.197021484375, -0.79443359375
100, 3722016556, -5.297916889190674, -2.150733709335327, 7.817054748535156, -0.31439587473869324, -0.4774206876754761, -0.8665288090705872, 0.03466796875, 0.198486328125, -0.7939453125
101, 3722033223, -5.304593086242676, -2.1502931118011475, 7.7882866859436035, -0.27646344900131226, -0.45987600088119507, -0.8686802983283997, 0.03662109375, 0.197998046875, -0.79541015625
102, 3722049890, -5.313515663146973, -2.1364552974700928, 7.788628578186035, -0.28533828258514404, -0.5301316976547241, -0.9120042324066162, 0.03466796875, 0.19921875, -0.796875
103, 3722066557, -5.30647087097168, -2.1469297409057617, 7.803326606750488, -0.23379270732402802, -0.5129199028015137, -0.9049735069274902, 0.03564453125, 0.19970703125, -0.7978515625
104, 3722083224, -5.325315952301025, -2.146033525466919, 7.805205821990967, -0.1704268902540207, -0.5760807991027832, -0.9455952048301697, 0.03466796875, 0.198486328125, -0.79833984375
105, 3722099891, -5.316591739654541, -2.1469061374664307, 7.821603775024414, -0.1941186636686325, -0.5229985117912292, -0.9274102449417114, 0.03564453125, 0.197998046875, -0.79638671875
106, 3722116558, -5.3161468505859375, -2.1355092525482178, 7.824970245361328, -0.2102034091949463, -0.6553649306297302, -0.9755493402481079, 0.03466796875, 0.197509765625, -0.794921875
107, 3722133225, -5.301620960235596, -2.1468911170959473, 7.81061315536499, -0.149027481675148, -0.5654003024101257, -0.8899516463279724, 0.03564453125, 0.198486328125, -0.794189453125
108, 3722149892, -5.317969799041748, -2.1357626914978027, 7.833323001861572, -0.23462511599063873, -0.616676926612854, -0.901579737663269, 0.033447265625, 0.19970703125, -0.79736328125
109, 3722166559, -5.319944858551025, -2.132261276245117, 7.814608573913574, -0.19678236544132233, -0.43070313334465027, -0.8845345377922058, 0.0341796875, 0.19921875, -0.79638671875
110, 3722183226, -5.322528839111328, -2.144904375076294, 7.814755439758301, -0.1370791643857956, -0.5434117913246155, -0.8714592456817627, 0.03369140625, 0.197021484375, -0.79443359375
111, 3722199893, -5.3134026527404785, -2.1531293392181396, 7.814652442932129, -0.21863000094890594, -0.5365987420082092, -0.8750834465026855, 0.03515625, 0.197509765625, -0.79736328125
112, 3722216560, -5.316065788269043, -2.145928382873535, 7.792662143707275, -0.22549419105052948, -0.550365686416626, -0.9779312610626221, 0.0361328125, 0.19921875, -0.79443359375
113, 3722233227, -5.3113226890563965, -2.134831666946411, 7.814361572265625, -0.17182278633117676, -0.5984790921211243, -0.9977809190750122, 0.03466796875, 0.198486328125, -0.794921875
114, 3722249894, -5.310824871063232, -2.1494197845458984, 7.817557334899902, -0.20048341155052185, -0.5833805203437805, -1.0169267654418945, 0.03466796875, 0.19921875, -0.79638671875
115, 3722266561, -5.297443389892578, -2.151855707168579, 7.803471565246582, -0.13866713643074036, -0.5863003134727478, -0.9931067228317261, 0.03466796875, 0.19970703125, -0.79638671875
116, 3722283228, -5.297862529754639, -2.1418280601501465, 7.817319869995117, -0.1995101273059845, -0.6036273241043091, -0.8596134781837463, 0.0361328125, 0.197021484375, -0.79541015625
117, 3722299895, -5.322636604309082, -2.1273717880249023, 7.812595844268799, -0.2125598043203354, -0.6598472595214844, -0.864787220954895, 0.03564453125, 0.198486328125, -0.7958984375
118, 3722316562, -5.3078155517578125, -2.1502528190612793, 7.817229747772217, -0.21464724838733673, -0.6210182905197144, -0.8660165667533875, 0.03759765625, 0.20068359375, -0.794189453125
119, 3722333229, -5.306369304656982, -2.1448376178741455, 7.825093746185303, -0.13317322731018066, -0.6013861894607544, -0.9072017669677734, 0.03564453125, 0.198974609375, -0.79541015625
120, 3722349896, -5.312093734741211, -2.1504971981048584, 7.801847457885742, -0.19852402806282043, -0.4907905161380768, -0.8287500739097595, 0.032958984375, 0.199951171875, -0.7939453125
121, 3722366563, -5.317593097686768, -2.1346027851104736, 7.8351149559021, -0.12470822036266327, -0.4766523241996765, -0.9435973763465881, 0.0361328125, 0.19921875, -0.79541015625
122, 3722383230, -5.311008453369141, -2.1423051357269287, 7.811097621917725, -0.13661813735961914, -0.5314250588417053, -0.9220187664031982, 0.03662109375, 0.19970703125, -0.79736328125
123, 3722399897, -5.317032814025879, -2.1317617893218994, 7.8242340087890625, -0.1389104723930359, -0.49858957529067993, -0.984027087688446, 0.03564453125, 0.2001953125, -0.79541015625
124, 3722416564, -5.3055338859558105, -2.1518471240997314, 7.8095927238464355, -0.1917494684457779, -0.43631231784820557, -0.9728727340698242, 0.0341796875, 0.19921875, -0.796875
125, 3722433231, -5.317773342132568, -2.1322383880615234, 7.826202392578125, -0.2064639776945114, -0.42077821493148804, -0.9650736451148987, 0.03515625, 0.19970703125, -0.796875
126, 3722449898, -5.317096710205078, -2.1425814628601074, 7.825475692749023, -0.14344391226768494, -0.5578957796096802, -0.9892520904541016, 0.0361328125, 0.19970703125, -0.794921875
127, 3722466565, -5.308315753936768, -2.13960862159729, 7.820156097412109, -0.20773179829120636, -0.5567688941955566, -1.0038641691207886, 0.0341796875, 0.198486328125, -0.793212890625
128, 3722483232, -5.301878452301025, -2.145589828491211, 7.815690994262695, -0.22432881593704224, -0.5805758833885193, -0.9508457779884338, 0.0341796875, 0.199462890625, -0.79345703125
129, 3722499899, -5.305278301239014, -2.127657413482666, 7.807431221008301, -0.19478456676006317, -0.48268407583236694, -0.8564246296882629, 0.03759765625, 0.197509765625, -0.795654296875
130, 3722516566, -5.310118198394775, -2.1361355781555176, 7.8007354736328125, -0.2214345932006836, -0.44210079312324524, -0.9862425923347473, 0.03662109375, 0.19970703125, -0.79736328125
131, 3722533233, -5.303247928619385, -2.1489627361297607, 7.782434940338135, -0.19683358073234558, -0.4333796799182892, -0.8715617060661316, 0.03564453125, 0.19873046875, -0.7978515625
132, 3722549900, -5.308999538421631, -2.1463701725006104, 7.804351806640625, -0.19395217299461365, -0.43121537566185, -0.974448025226593, 0.03466796875, 0.19921875, -0.7958984375
133, 3722566567, -5.311929702758789, -2.145524024963379, 7.7807393074035645, -0.23439587652683258, -0.5790226459503174, -1.0099564790725708, 0.03515625, 0.20068359375, -0.794921875
134, 3722583234, -5.312907695770264, -2.138483762741089, 7.800796985626221, -0.10510170459747314, -0.544922947883606, -0.9198672771453857, 0.03564453125, 0.198486328125, -0.798828125
135, 3722599901, -5.295195579528809, -2.134986400604248, 7.795000076293945, -0.1259632408618927, -0.6053433418273926, -0.9174980521202087, 0.037109375, 0.197021484375, -0.795166015625
136, 3722616568, -5.3070526123046875, -2.1210174560546875, 7.819429874420166, -0.19697445631027222, -0.38559916615486145, -0.9429187178611755, 0.03515625, 0.19970703125, -0.7939453125
137, 3722633235, -5.315042495727539, -2.1334643363952637, 7.818223476409912, -0.25269484519958496, -0.47434720396995544, -0.9502310752868652, 0.03515625, 0.197021484375, -0.798828125
138, 3722649902, -5.313969135284424, -2.1434872150421143, 7.8050432205200195, -0.24726499617099762, -0.4612078368663788, -0.9614493250846863, 0.0341796875, 0.19921875, -0.79736328125
139, 3722666569, -5.32787561416626, -2.1321170330047607, 7.821163177490234, -0.26087814569473267, -0.4783939719200134, -0.9909297227859497, 0.03759765625, 0.197509765625, -0.7978515625
140, 3722683236, -5.322056770324707, -2.125758647918701, 7.804873466491699, -0.2189885973930359, -0.5790135264396667, -0.9233250617980957, 0.03564453125, 0.197021484375, -0.79736328125
141, 3722699903, -5.29355001449585, -2.125701904296875, 7.808342933654785, -0.3155996799468994, -0.6427122950553894, -0.9718098640441895, 0.0361328125, 0.197509765625, -0.79638671875
142, 3722716570, -5.304914474487305, -2.150256872177124, 7.820710182189941, -0.3271125853061676, -0.5428355932235718, -1.0424495935440063, 0.0341796875, 0.197509765625, -0.7939453125
143, 3722733237, -5.301361560821533, -2.133768320083618, 7.826254844665527, -0.18578170239925385, -0.6069441437721252, -1.0591875314712524, 0.03515625, 0.19921875, -0.79443359375
144, 3722749904, -5.312341690063477, -2.155264377593994, 7.821138858795166, -0.2099216729402542, -0.5801275968551636, -0.9212119579315186, 0.034423828125, 0.2001953125, -0.79638671875
145, 3722766571, -5.306068420410156, -2.1400883197784424, 7.788311958312988, -0.2568185329437256, -0.5354334712028503, -0.9034751057624817, 0.0341796875, 0.198486328125, -0.79541015625
146, 3722783238, -5.310538291931152, -2.1341593265533447, 7.823122501373291, -0.14541609585285187, -0.5665656328201294, -0.8401477336883545, 0.03466796875, 0.198974609375, -0.793701171875
147, 3722799905, -5.313993453979492, -2.1418700218200684, 7.833878517150879, -0.2323584258556366, -0.5025724172592163, -0.8662984371185303, 0.03515625, 0.19970703125, -0.7939453125
148, 3722816572, -5.314393997192383, -2.1609761714935303, 7.798839569091797, -0.22280487418174744, -0.41028985381126404, -0.9287933707237244, 0.03466796875, 0.2001953125, -0.79638671875
149, 3722833239, -5.302880764007568, -2.142331838607788, 7.797825813293457, -0.14609482884407043, -0.45128291845321655, -0.8783618807792664, 0.03466796875, 0.198974609375, -0.79638671875
150, 3722849906, -5.323659896850586, -2.137673854827881, 7.80712366104126, -0.1612575501203537, -0.45750683546066284, -0.8852773308753967, 0.037109375, 0.198486328125, -0.7958984375
151, 3722866573, -5.306939125061035, -2.122941493988037, 7.8083977699279785, -0.2422577142715454, -0.5176966190338135, -0.9769835472106934, 0.033447265625, 0.20068359375, -0.79638671875
152, 3722883240, -5.301511764526367, -2.152413845062256, 7.809011936187744, -0.22841401398181915, -0.5264049172401428, -0.9653425812721252, 0.03564453125, 0.19921875, -0.79443359375
153, 3722899907, -5.323948383331299, -2.139329671859741, 7.811150550842285, -0.22662115097045898, -0.5207189321517944, -0.9405623078346252, 0.0361328125, 0.197509765625, -0.794677734375
154, 3722916574, -5.305403709411621, -2.1505985260009766, 7.793173789978027, -0.22217737138271332, -0.5269685387611389, -0.9695944786071777, 0.0361328125, 0.19970703125, -0.79541015625
155, 3722933241, -5.315337657928467, -2.1378896236419678, 7.785088539123535, -0.19101953506469727, -0.4540107250213623, -0.9285116195678711, 0.037109375, 0.197998046875, -0.7958984375
156, 3722949908, -5.318905830383301, -2.1315114498138428, 7.813920974731445, -0.15874750912189484, -0.5673725605010986, -0.963934063911438, 0.03564453125, 0.197998046875, -0.79638671875
157, 3722966575, -5.312702655792236, -2.138035774230957, 7.811806678771973, -0.20049619674682617, -0.4555602967739105, -0.9954887628555298, 0.03466796875, 0.196533203125, -0.796875
158, 3722983242, -5.322378635406494, -2.131324052810669, 7.800040245056152, -0.2211272269487381, -0.5056971311569214, -0.9524850249290466, 0.03564453125, 0.198486328125, -0.7958984375
159, 3722999909, -5.317841053009033, -2.130070686340332, 7.81629753112793, -0.26393887400627136, -0.5630439519882202, -1.032973051071167, 0.03369140625, 0.198486328125, -0.79345703125
160, 3723016576, -5.318203449249268, -2.1481685638427734, 7.819016933441162, -0.2773599326610565, -0.5834829211235046, -1.0841087102890015, 0.0341796875, 0.197509765625, -0.793701171875
161, 3723033243, -5.305271625518799, -2.141079902648926, 7.814507484436035, -0.2407209426164627, -0.5050568580627441, -1.0218955278396606, 0.03466796875, 0.2001953125, -0.79736328125
162, 3723049910, -5.315556049346924, -2.1419155597686768, 7.8155083656311035, -0.2700859010219574, -0.590808093547821, -0.9868956208229065, 0.03369140625, 0.199462890625, -0.7958984375
163, 3723066577, -5.321230888366699, -2.144108295440674, 7.815244674682617, -0.2888728380203247, -0.6006433963775635, -1.0132126808166504, 0.033203125, 0.197509765625, -0.7958984375
164, 3723083244, -5.306399822235107, -2.138718843460083, 7.808889389038086, -0.36664578318595886, -0.5248042345046997, -0.9503463506698608, 0.03564453125, 0.19970703125, -0.7958984375
165, 3723099911, -5.3189311027526855, -2.1282918453216553, 7.816216945648193, -0.22446972131729126, -0.5307591557502747, -1.0526435375213623, 0.03515625, 0.19970703125, -0.794921875
166, 3723116578, -5.292120456695557, -2.1485207080841064, 7.819886207580566, -0.2769923508167267, -0.5135910511016846, -1.100221037864685, 0.03466796875, 0.198486328125, -0.7958984375
167, 3723133245, -5.312145233154297, -2.1374166011810303, 7.838155746459961, -0.3053545653820038, -0.5687171220779419, -0.963267982006073, 0.032470703125, 0.199462890625, -0.79736328125
168, 3723149912, -5.30557918548584, -2.140751361846924, 7.809631824493408, -0.26425901055336, -0.559880793094635, -0.9639723300933838, 0.037109375, 0.19970703125, -0.796875
169, 3723166579, -5.298275947570801, -2.1264750957489014, 7.816597938537598, -0.281919002532959, -0.5342681407928467, -1.0764505863189697, 0.0341796875, 0.198486328125, -0.79541015625
170, 3723183246, -5.322195529937744, -2.1442301273345947, 7.83499813079834, -0.255115270614624, -0.5319629311561584, -0.9995227456092834, 0.03515625, 0.19921875, -0.7939453125
171, 3723199913, -5.3145012855529785, -2.1490225791931152, 7.811905384063721, -0.27839726209640503, -0.6078662276268005, -1.0319613218307495, 0.0341796875, 0.198486328125, -0.79638671875
172, 3723216580, -5.308184623718262, -2.138237476348877, 7.820444583892822, -0.25718992948532104, -0.6293296217918396, -0.9485791325569153, 0.03466796875, 0.19970703125, -0.79443359375
173, 3723233247, -5.316224098205566, -2.1354501247406006, 7.805086612701416, -0.179019957780838, -0.5575883984565735, -0.9770219922065735, 0.03466796875, 0.198974609375, -0.796875
174, 3723249914, -5.307618141174316, -2.145528793334961, 7.811637878417969, -0.2769501507282257, -0.5408633947372437, -1.0404391288757324, 0.0380859375, 0.19970703125, -0.794189453125
175, 3723266581, -5.299715042114258, -2.149561882019043, 7.7988200187683105, -0.22580157220363617, -0.5211416482925415, -0.9613342881202698, 0.0341796875, 0.198974609375, -0.79638671875
176, 3723283248, -5.3078813552856445, -2.139544725418091, 7.804210662841797, -0.23731444776058197, -0.5175429582595825, -0.9661365747451782, 0.03515625, 0.198486328125, -0.79833984375
177, 3723299915, -5.317773342132568, -2.1319491863250732, 7.8163838386535645, -0.24187348783016205, -0.44975894689559937, -0.939781129360199, 0.03515625, 0.197998046875, -0.7958984375
178, 3723316582, -5.297080993652344, -2.1509532928466797, 7.835742950439453, -0.2611599266529083, -0.4119034707546234, -0.9734747409820557, 0.0341796875, 0.198974609375, -0.79443359375
179, 3723333249, -5.312364101409912, -2.14524507522583, 7.8126397132873535, -0.2909218668937683, -0.42335233092308044, -0.9337878227233887, 0.03515625, 0.19921875, -0.79443359375
180, 3723349916, -5.303384780883789, -2.1340935230255127, 7.8234100341796875, -0.2666025757789612, -0.5340504050254822, -0.9086489677429199, 0.03466796875, 0.2001953125, -0.796875
181, 3723366583, -5.302640914916992, -2.1348612308502197, 7.787496089935303, -0.2668459117412567, -0.4629879593849182, -0.9912754893302917, 0.03466796875, 0.198486328125, -0.79541015625
182, 3723383250, -5.30505895614624, -2.151897430419922, 7.808710098266602, -0.18904732167720795, -0.5785396695137024, -0.8338725566864014, 0.03466796875, 0.199462890625, -0.7939453125
183, 3723399917, -5.317691326141357, -2.1448826789855957, 7.806774139404297, -0.24344870448112488, -0.5487520098686218, -0.902809202671051, 0.03369140625, 0.198974609375, -0.79443359375
184, 3723416584, -5.318381309509277, -2.1495206356048584, 7.830109119415283, -0.17934012413024902, -0.5360609292984009, -0.9598486423492432, 0.037109375, 0.198486328125, -0.793212890625
185, 3723433251, -5.299066543579102, -2.1493241786956787, 7.807445049285889, -0.28097134828567505, -0.5094877481460571, -0.9808255434036255, 0.03466796875, 0.2001953125, -0.7958984375
186, 3723449918, -5.3215227127075195, -2.133931875228882, 7.813910961151123, -0.2210119664669037, -0.505812406539917, -0.8978403210639954, 0.03515625, 0.19970703125, -0.79541015625
187, 3723466585, -5.324070930480957, -2.140010118484497, 7.831166744232178, -0.24344873428344727, -0.4971553385257721, -0.9202515482902527, 0.033447265625, 0.19970703125, -0.7939453125
188, 3723483252, -5.302399158477783, -2.1494719982147217, 7.826955318450928, -0.22822193801403046, -0.5550783276557922, -0.9007857441902161, 0.03515625, 0.19970703125, -0.7939453125
189, 3723499919, -5.310214996337891, -2.1401944160461426, 7.798069477081299, -0.1457618772983551, -0.5600345134735107, -0.9270645976066589, 0.0361328125, 0.198974609375, -0.794677734375
190, 3723516586, -5.305812835693359, -2.1466219425201416, 7.821141719818115, -0.21941117942333221, -0.5152890682220459, -0.9117223620414734, 0.03466796875, 0.198486328125, -0.79541015625
191, 3723533253, -5.312630653381348, -2.1381633281707764, 7.806013584136963, -0.1880740523338318, -0.5183369517326355, -1.001328468322754, 0.03564453125, 0.19970703125, -0.794921875
192, 3723549920, -5.3099141120910645, -2.1525020599365234, 7.793905735015869, -0.18090248107910156, -0.4893946349620819, -0.9813248515129089, 0.034423828125, 0.2001953125, -0.79443359375
193, 3723566587, -5.310550689697266, -2.1444406509399414, 7.82936429977417, -0.18733130395412445, -0.569344699382782, -0.9196240305900574, 0.0341796875, 0.199462890625, -0.794921875
194, 3723583254, -5.323140621185303, -2.13041090965271, 7.822785377502441, -0.1664569228887558, -0.5459474921226501, -0.9393072724342346, 0.037109375, 0.19921875, -0.79638671875
195, 3723599921, -5.322199821472168, -2.1332056522369385, 7.820074558258057, -0.2635802924633026, -0.5968782901763916, -0.942496120929718, 0.0361328125, 0.197998046875, -0.793701171875
196, 3723616588, -5.323995590209961, -2.134650230407715, 7.8264923095703125, -0.18943151831626892, -0.6432884931564331, -0.9356319904327393, 0.033203125, 0.197021484375, -0.791748046875
197, 3723633255, -5.303106307983398, -2.1383702754974365, 7.817238807678223, -0.2144935429096222, -0.5862106680870056, -0.9763688445091248, 0.0361328125, 0.19921875, -0.794921875
198, 3723649922, -5.3056960105896, -2.155238151550293, 7.8163323402404785, -0.13209748268127441, -0.7174373865127563, -1.0068097114562988, 0.03564453125, 0.197998046875, -0.79443359375
199, 3723666589, -5.3011884689331055, -2.150527238845825, 7.802793979644775, -0.18884243071079254, -0.6460804343223572, -0.9316108226776123, 0.03515625, 0.198974609375, -0.7958984375
200, 3723683256, -5.3016743659973145, -2.1378095149993896, 7.829341411590576, -0.13748441636562347, -0.5854005813598633, -0.9117003679275513, 0.03369140625, 0.197998046875, -0.794921875
201, 3723699923, -5.308656215667725, -2.147199869155884, 7.843688488006592, -0.1939905881881714, -0.6110036373138428, -0.9924407005310059, 0.03369140625, 0.196533203125, -0.79443359375
202, 3723716590, -5.2958598136901855, -2.137364625930786, 7.825687885284424, -0.1318797767162323, -0.5582159161567688, -0.9868700504302979, 0.03515625, 0.198974609375, -0.793701171875
203, 3723733257, -5.310677528381348, -2.1313698291778564, 7.808920383453369, -0.22304818034172058, -0.5113319158554077, -0.9553408026695251, 0.03369140625, 0.197998046875, -0.79638671875
204, 3723749924, -5.3078131675720215, -2.148155450820923, 7.824122428894043, -0.19157017767429352, -0.5442569851875305, -0.8520320057868958, 0.03369140625, 0.197998046875, -0.79345703125
205, 3723766591, -5.319999694824219, -2.139476776123047, 7.814039707183838, -0.14359760284423828, -0.60209059715271, -0.7836205959320068, 0.032470703125, 0.19970703125, -0.79736328125
206, 3723783258, -5.310211181640625, -2.1344518661499023, 7.827014446258545, -0.16987621784210205, -0.5159934163093567, -0.9457360506057739, 0.0341796875, 0.197021484375, -0.79736328125
207, 3723799925, -5.304535388946533, -2.1438910961151123, 7.829307556152344, -0.25821441411972046, -0.509039580821991, -0.8697047829627991, 0.03564453125, 0.198486328125, -0.793701171875
208, 3723816592, -5.3025593757629395, -2.146458387374878, 7.8461432456970215, -0.20789827406406403, -0.5556418895721436, -0.8890295624732971, 0.03515625, 0.198486328125, -0.79541015625
209, 3723833259, -5.315315246582031, -2.1558377742767334, 7.812798500061035, -0.21353308856487274, -0.5498149991035461, -0.9189708828926086, 0.03759765625, 0.198486328125, -0.794677734375
210, 3723849926, -5.315885543823242, -2.141655445098877, 7.811354637145996, -0.22733834385871887, -0.6491283178329468, -0.8930380940437317, 0.037109375, 0.19970703125, -0.794189453125
211, 3723866593, -5.29250431060791, -2.1280717849731445, 7.829784870147705, -0.17590802907943726, -0.5631847977638245, -0.923734724521637, 0.033935546875, 0.20068359375, -0.79638671875
212, 3723883260, -5.293005466461182, -2.138568878173828, 7.800415515899658, -0.11155612021684647, -0.5470104217529297, -0.9088283181190491, 0.03662109375, 0.19970703125, -0.7958984375
213, 3723899927, -5.306715488433838, -2.134065628051758, 7.818679332733154, -0.13795000314712524, -0.5062221884727478, -0.8834971785545349, 0.037109375, 0.198486328125, -0.794189453125
214, 3723916594, -5.305823802947998, -2.1340384483337402, 7.808284759521484, -0.19342710077762604, -0.4712353050708771, -0.9193806052207947, 0.03564453125, 0.19921875, -0.793701171875
215, 3723933261, -5.3137359619140625, -2.1360085010528564, 7.812017917633057, -0.21138159930706024, -0.44122999906539917, -0.9357984662055969, 0.03466796875, 0.199462890625, -0.792236328125
216, 3723949928, -5.319219589233398, -2.1377203464508057, 7.810523986816406, -0.1812739074230194, -0.528748631477356, -0.882421612739563, 0.0341796875, 0.19921875, -0.79638671875
217, 3723966595, -5.314126014709473, -2.143303155899048, 7.804164886474609, -0.19570662081241608, -0.5604314208030701, -1.0132254362106323, 0.033447265625, 0.2001953125, -0.792236328125
218, 3723983262, -5.311822414398193, -2.1347086429595947, 7.817380905151367, -0.22955383360385895, -0.5652979016304016, -0.9633193016052246, 0.03466796875, 0.197998046875, -0.79541015625
219, 3723999929, -5.308957576751709, -2.135859727859497, 7.801209926605225, -0.21020343899726868, -0.5599192380905151, -1.0431541204452515, 0.03515625, 0.198486328125, -0.793701171875
220, 3724016596, -5.308196067810059, -2.150501251220703, 7.801388740539551, -0.2483663260936737, -0.5251500010490417, -0.9453006386756897, 0.03515625, 0.19921875, -0.7939453125
221, 3724033263, -5.3094964027404785, -2.144085168838501, 7.800606727600098, -0.2014310657978058, -0.552158534526825, -0.8882611989974976, 0.0341796875, 0.196533203125, -0.79443359375
222, 3724049930, -5.318535327911377, -2.1414833068847656, 7.798631191253662, -0.17191244661808014, -0.5771180987358093, -0.8767098784446716, 0.03564453125, 0.19921875, -0.7958984375
223, 3724066597, -5.297574043273926, -2.140428066253662, 7.807426929473877, -0.25954627990722656, -0.6039730310440063, -0.8918213248252869, 0.03564453125, 0.19921875, -0.796875
224, 3724083264, -5.303791522979736, -2.144381523132324, 7.79736852645874, -0.09109155088663101, -0.6136674284934998, -0.908905029296875, 0.03662109375, 0.19921875, -0.79638671875
225, 3724099931, -5.313919544219971, -2.130613088607788, 7.824545383453369, -0.12960025668144226, -0.6389343738555908, -0.9170882105827332, 0.03466796875, 0.19921875, -0.794921875
226, 3724116598, -5.317251205444336, -2.134202480316162, 7.813288688659668, -0.0201443899422884, -0.6154989004135132, -0.8799371719360352, 0.0341796875, 0.199462890625, -0.794921875
227, 3724133265, -5.301236629486084, -2.142653226852417, 7.834650993347168, -0.05872991681098938, -0.704490065574646, -0.9424962401390076, 0.03564453125, 0.198486328125, -0.7958984375
228, 3724149932, -5.297563552856445, -2.13879132270813, 7.84507417678833, -0.004136451054364443, -0.6566711664199829, -0.9866907596588135, 0.03515625, 0.198974609375, -0.79443359375
229, 3724166599, -5.319375514984131, -2.1422815322875977, 7.8187947273254395, 0.044098664075136185, -0.7037985920906067, -0.8471657037734985, 0.032958984375, 0.199462890625, -0.79736328125
230, 3724183266, -5.313817024230957, -2.1405718326568604, 7.8007025718688965, 0.0040660155937075615, -0.8720740675926208, -1.029924988746643, 0.033935546875, 0.199462890625, -0.7939453125
231, 3724199933, -5.302680969238281, -2.1504335403442383, 7.808082103729248, -0.07514766603708267, -0.836203396320343, -0.9829385280609131, 0.0341796875, 0.197998046875, -0.79638671875
232, 3724216600, -5.308505535125732, -2.1219165325164795, 7.826426982879639, 0.059094905853271484, -0.8694359660148621, -0.919098973274231, 0.03662109375, 0.197998046875, -0.795166015625
233, 3724233267, -5.3057661056518555, -2.129530429840088, 7.825117588043213, -0.07294933497905731, -0.8492398858070374, -0.954860270023346, 0.03466796875, 0.198974609375, -0.79541015625
234, 3724249934, -5.308606147766113, -2.1299948692321777, 7.817961692810059, -0.10606219619512558, -0.8063774704933167, -1.093546986579895, 0.0341796875, 0.198486328125, -0.7978515625
235, 3724266601, -5.300634384155273, -2.1205217838287354, 7.843879222869873, -0.13560643792152405, -0.7964653372764587, -1.104842185974121, 0.034423828125, 0.20068359375, -0.79638671875
236, 3724283268, -5.318222999572754, -2.1360538005828857, 7.839099884033203, -0.2554226517677307, -0.7867709994316101, -1.1584752798080444, 0.03564453125, 0.19873046875, -0.7978515625
237, 3724299935, -5.299713134765625, -2.1364808082580566, 7.838791847229004, -0.15625029802322388, -0.8789767026901245, -1.2021833658218384, 0.03369140625, 0.196533203125, -0.79541015625
238, 3724316602, -5.2823262214660645, -2.1597213745117188, 7.852303504943848, 0.012082792818546295, -0.9753187894821167, -1.0670634508132935, 0.03515625, 0.196044921875, -0.794677734375
239, 3724333269, -5.297539710998535, -2.1399075984954834, 7.811806678771973, 0.05233313888311386, -0.9264880418777466, -1.0025066137313843, 0.033203125, 0.196533203125, -0.79541015625
240, 3724349936, -5.302576065063477, -2.1320102214813232, 7.837065696716309, 0.07047975063323975, -0.9265267252922058, -1.0464452505111694, 0.033935546875, 0.199462890625, -0.79541015625
241, 3724366603, -5.30659818649292, -2.107339382171631, 7.839245319366455, 0.17506921291351318, -0.992005467414856, -0.9913907647132874, 0.03515625, 0.2001953125, -0.79638671875
242, 3724383270, -5.315771579742432, -2.1327109336853027, 7.821289539337158, 0.1503145396709442, -0.9970255494117737, -0.9873310923576355, 0.03369140625, 0.198486328125, -0.7978515625
243, 3724399937, -5.3017497062683105, -2.116485118865967, 7.830629348754883, -0.005071314517408609, -1.0308854579925537, -1.1066352128982544, 0.03369140625, 0.198974609375, -0.794921875
244, 3724416604, -5.295845031738281, -2.121752977371216, 7.853031158447266, -0.00945108663290739, -0.9340695738792419, -1.129648208618164, 0.03369140625, 0.197998046875, -0.79541015625
245, 3724433271, -5.310134410858154, -2.1286606788635254, 7.814272403717041, -0.12297937273979187, -0.8622003197669983, -1.2616560459136963, 0.032470703125, 0.198486328125, -0.79541015625
246, 3724449938, -5.298247337341309, -2.124263286590576, 7.853520393371582, -0.24630454182624817, -0.9224413633346558, -1.336675763130188, 0.032470703125, 0.198486328125, -0.794921875
247, 3724466605, -5.2811384201049805, -2.1261136531829834, 7.825063705444336, -0.3882501423358917, -0.9305989742279053, -1.430328369140625, 0.0341796875, 0.197998046875, -0.79541015625
248, 3724483272, -5.27747917175293, -2.1493892669677734, 7.816856384277344, -0.32960984110832214, -0.8119994401931763, -1.3949445486068726, 0.0341796875, 0.198486328125, -0.79833984375
249, 3724499939, -5.2697343826293945, -2.1187853813171387, 7.822023868560791, -0.38161641359329224, -0.6926442384719849, -1.363440752029419, 0.03173828125, 0.196533203125, -0.7958984375
250, 3724516606, -5.296291828155518, -2.1313095092773438, 7.813959121704102, -0.505902111530304, -0.6911330223083496, -1.409005880355835, 0.03466796875, 0.198486328125, -0.794921875
251, 3724533273, -5.269410610198975, -2.152923583984375, 7.834885597229004, -0.531937301158905, -0.6534055471420288, -1.401642084121704, 0.032470703125, 0.199951171875, -0.79541015625
252, 3724549940, -5.265699863433838, -2.161827564239502, 7.817602157592773, -0.4597479999065399, -0.6308535933494568, -1.326366662979126, 0.033935546875, 0.19970703125, -0.7958984375
253, 3724566607, -5.280654430389404, -2.1467416286468506, 7.824329376220703, -0.4079078733921051, -0.5680384635925293, -1.2710943222045898, 0.03515625, 0.19921875, -0.79541015625
254, 3724583274, -5.290710926055908, -2.1375210285186768, 7.8070783615112305, -0.5323343276977539, -0.482530415058136, -1.274910569190979, 0.033203125, 0.197998046875, -0.7958984375
255, 3724599941, -5.27500057220459, -2.136366844177246, 7.8319244384765625, -0.5974034070968628, -0.5451534986495972, -1.3432965278625488, 0.033935546875, 0.19970703125, -0.7958984375
256, 3724616608, -5.2397260665893555, -2.1471102237701416, 7.828315258026123, -0.5716882944107056, -0.42803946137428284, -1.247107982635498, 0.031494140625, 0.197509765625, -0.7939453125
257, 3724633275, -5.290616512298584, -2.15228271484375, 7.797398567199707, -0.42079102993011475, -0.39649736881256104, -1.2249913215637207, 0.033203125, 0.197998046875, -0.7958984375
258, 3724649942, -5.296102046966553, -2.095707654953003, 7.817892551422119, -1.0055030584335327, -0.40518003702163696, -1.6321049928665161, 0.031982421875, 0.2001953125, -0.794921875
259, 3724666609, -5.328591823577881, -2.096639633178711, 7.7984700202941895, -1.2502583265304565, -0.3828202486038208, -2.131962776184082, 0.03515625, 0.20068359375, -0.7978515625
260, 3724683276, -5.307748794555664, -2.1048452854156494, 7.807318687438965, -1.5027867555618286, -0.8126397728919983, -2.540280342102051, 0.033447265625, 0.198974609375, -0.79443359375
261, 3724699943, -5.265522480010986, -2.194822311401367, 7.837038516998291, -1.1534678936004639, -1.3528114557266235, -2.365614652633667, 0.032470703125, 0.199462890625, -0.79443359375
262, 3724716610, -5.2333574295043945, -2.234776258468628, 7.80986213684082, -0.6388959288597107, -1.3862104415893555, -2.1559104919433594, 0.030517578125, 0.20068359375, -0.794921875
263, 3724733277, -5.344432830810547, -2.028494119644165, 7.8215813636779785, -0.6931052803993225, -1.7657396793365479, -2.20312762260437, 0.030517578125, 0.198974609375, -0.79345703125
264, 3724749944, -5.3459601402282715, -2.0450921058654785, 7.894163131713867, -1.260606050491333, -2.0061278343200684, -3.3137588500976562, 0.030517578125, 0.200439453125, -0.7939453125
265, 3724766611, -5.330063819885254, -2.257262706756592, 7.854684352874756, -1.5650511980056763, -1.7358237504959106, -3.679584264755249, 0.031982421875, 0.201171875, -0.79541015625
266, 3724783278, -5.273845672607422, -2.2530059814453125, 7.859354496002197, -1.6809102296829224, -1.5854132175445557, -3.3916335105895996, 0.031494140625, 0.201171875, -0.794921875
267, 3724799945, -5.232043266296387, -2.2428884506225586, 7.857839584350586, -1.8412150144577026, -1.1630910634994507, -2.9101483821868896, 0.030517578125, 0.20361328125, -0.79736328125
268, 3724816612, -5.264652252197266, -2.2162888050079346, 7.822615623474121, -1.7636138200759888, -0.47884225845336914, -2.3189098834991455, 0.028076171875, 0.203125, -0.794921875
269, 3724833279, -5.210083484649658, -2.210622787475586, 7.8569183349609375, -1.9362561702728271, -0.46711161732673645, -2.300251007080078, 0.030029296875, 0.20263671875, -0.7958984375
270, 3724849946, -5.245560169219971, -2.1779911518096924, 7.812017440795898, -1.7202258110046387, -0.44591712951660156, -2.1358046531677246, 0.030029296875, 0.201171875, -0.79443359375
271, 3724866613, -5.1790666580200195, -2.231374979019165, 7.848649978637695, -1.632643222808838, -0.3493700623512268, -2.1526196002960205, 0.029052734375, 0.2021484375, -0.7958984375
272, 3724883280, -5.174983501434326, -2.3387668132781982, 7.791022300720215, -0.7143510580062866, -0.4960155487060547, -1.3908592462539673, 0.028076171875, 0.2041015625, -0.79296875
273, 3724899947, -5.2400617599487305, -2.334698438644409, 7.773141860961914, 0.16491375863552094, -0.7892040610313416, -0.4600168764591217, 0.029052734375, 0.20556640625, -0.79443359375
274, 3724916614, -5.256108283996582, -2.228902816772461, 7.839699745178223, 0.5349276065826416, -1.004299521446228, -0.17642027139663696, 0.031005859375, 0.20166015625, -0.79541015625
275, 3724933281, -5.23518705368042, -2.2075607776641846, 7.879398345947266, 0.27886462211608887, -0.7920727133750916, -0.3299811780452728, 0.031005859375, 0.203125, -0.79833984375
276, 3724949948, -5.2232465744018555, -2.193108558654785, 7.8578643798828125, -0.13273781538009644, -0.2649762034416199, -0.4971296787261963, 0.028076171875, 0.20361328125, -0.7958984375
277, 3724966615, -5.212843894958496, -2.2273404598236084, 7.842344284057617, -0.311527281999588, -0.027175074443221092, -0.39164379239082336, 0.030029296875, 0.20458984375, -0.79736328125
278, 3724983282, -5.240009307861328, -2.274503707885742, 7.823128700256348, -0.1816708743572235, 0.4668874442577362, -0.022872138768434525, 0.027587890625, 0.20361328125, -0.7958984375
279, 3724999949, -5.2171430587768555, -2.279900074005127, 7.776981353759766, 0.20607337355613708, 0.3471353054046631, 0.19144850969314575, 0.032958984375, 0.2041015625, -0.79443359375
280, 3725016616, -5.244053363800049, -2.27057147026062, 7.791454315185547, 0.9620577692985535, 0.30230027437210083, 0.5954887866973877, 0.029541015625, 0.2021484375, -0.7939453125
281, 3725033283, -5.270110607147217, -2.304924488067627, 7.782294750213623, 1.5611900091171265, 0.13451148569583893, 1.0845504999160767, 0.031494140625, 0.20361328125, -0.79638671875
282, 3725049950, -5.2706828117370605, -2.310741424560547, 7.817272663116455, 2.529670238494873, 0.045968394726514816, 1.7321805953979492, 0.031494140625, 0.20263671875, -0.79736328125
283, 3725066617, -5.26442289352417, -2.2440719604492188, 7.782317638397217, 3.568380355834961, -0.04566744714975357, 2.072662830352783, 0.030517578125, 0.20166015625, -0.7978515625
284, 3725083284, -5.205613613128662, -2.177788257598877, 7.891993522644043, 3.4824881553649902, 0.7678495049476624, 2.1049091815948486, 0.031982421875, 0.2001953125, -0.79833984375
285, 3725099951, -5.0959696769714355, -2.209352970123291, 7.95603084564209, 1.981494665145874, 3.0707387924194336, 2.3830888271331787, 0.031494140625, 0.199462890625, -0.79541015625
286, 3725116618, -5.010759353637695, -2.322439670562744, 7.962601184844971, -0.760658860206604, 6.693848609924316, 3.0302071571350098, 0.033203125, 0.197998046875, -0.79638671875
287, 3725133285, -4.809263706207275, -2.4182331562042236, 8.082627296447754, -3.881939649581909, 11.966266632080078, 4.374990463256836, 0.0380859375, 0.19970703125, -0.794677734375
288, 3725149952, -4.810932159423828, -2.537360668182373, 8.178415298461914, -5.736088275909424, 18.89873695373535, 7.780030250549316, 0.04052734375, 0.2001953125, -0.793701171875
289, 3725166619, -4.8162455558776855, -2.2663955688476562, 8.599858283996582, -8.522374153137207, 27.660781860351562, 13.988970756530762, 0.046875, 0.20361328125, -0.792236328125
290, 3725183286, -4.434704303741455, -2.2424490451812744, 9.244488716125488, -16.899330139160156, 44.06945037841797, 29.167930603027344, 0.059326171875, 0.204345703125, -0.790283203125
291, 3725199953, -4.337313175201416, -3.6635687351226807, 9.605911254882812, -24.302011489868164, 65.15824127197266, 48.66597366333008, 0.075927734375, 0.2060546875, -0.78662109375
292, 3725216620, -4.658661842346191, -3.865382194519043, 9.52443790435791, -25.053112030029297, 79.86405181884766, 67.59762573242188, 0.09765625, 0.210693359375, -0.780517578125
293, 3725233287, -3.3434665203094482, -4.533873081207275, 11.046939849853516, -23.674686431884766, 85.33404541015625, 77.18437957763672, 0.12109375, 0.2119140625, -0.772705078125
294, 3725249954, -1.233775019645691, -6.9195380210876465, 14.010886192321777, -17.05972671508789, 63.10797882080078, 67.28094482421875, 0.146484375, 0.212158203125, -0.76708984375
295, 3725266621, 0.4247911870479584, -7.6308722496032715, 14.707112312316895, -5.289310932159424, 26.96999740600586, 31.963451385498047, 0.162109375, 0.211181640625, -0.76025390625
296, 3725283288, 3.395827531814575, -5.811943054199219, 13.55618667602539, -7.3454179763793945, 0.45286470651626587, -7.957241535186768, 0.1689453125, 0.209716796875, -0.756103515625
297, 3725299955, 4.394566535949707, -4.228774070739746, 12.872966766357422, -13.966025352478027, -13.972902297973633, -33.248199462890625, 0.171875, 0.211669921875, -0.75
298, 3725316622, 3.6905903816223145, -2.811462640762329, 13.323197364807129, -16.801462173461914, -31.501300811767578, -44.87926483154297, 0.1708984375, 0.21337890625, -0.741943359375
299, 3725333289, 2.8334789276123047, -2.010821580886841, 13.42458438873291, -17.999643325805664, -53.01731872558594, -50.05263900756836, 0.16943359375, 0.21630859375, -0.740966796875
300, 3725349956, 2.2825188636779785, -1.3904834985733032, 12.965765953063965, -16.444608688354492, -70.71134948730469, -50.08084487915039, 0.161376953125, 0.2197265625, -0.73583984375
301, 3725366623, 1.8679838180541992, -1.0611073970794678, 12.293265342712402, -14.818870544433594, -78.92604064941406, -46.73543167114258, 0.15283203125, 0.227294921875, -0.737548828125
302, 3725383290, 0.23657163977622986, -1.1771208047866821, 12.542817115783691, -17.49150848388672, -77.64105987548828, -43.82595443725586, 0.149658203125, 0.229248046875, -0.735107421875
303, 3725399957, -3.449906349182129, -1.7699925899505615, 13.3936767578125, -26.758634567260742, -82.11016845703125, -46.46519088745117, 0.14306640625, 0.2392578125, -0.7373046875
304, 3725416624, -6.29680061340332, -3.0445008277893066, 13.253352165222168, -29.308137893676758, -99.81031036376953, -51.063323974609375, 0.132080078125, 0.251708984375, -0.744140625
305, 3725433291, -7.742992401123047, -4.007395267486572, 12.088308334350586, -18.105026245117188, -120.06135559082031, -52.16572570800781, 0.11572265625, 0.2685546875, -0.753662109375
306, 3725449958, -7.7994537353515625, -4.229163646697998, 10.311790466308594, 1.6555628776550293, -133.62881469726562, -48.400962829589844, 0.087158203125, 0.281494140625, -0.766845703125
307, 3725466625, -7.208775997161865, -3.442113161087036, 8.788155555725098, 12.16529369354248, -134.57150268554688, -44.85612487792969, 0.05419921875, 0.290283203125, -0.782958984375
308, 3725483292, -6.8949198722839355, -3.108785390853882, 7.842134475708008, 6.821826934814453, -123.9286880493164, -43.74860382080078, 0.020751953125, 0.2939453125, -0.792724609375
309, 3725499959, -7.921815395355225, -2.7936863899230957, 7.632931232452393, -7.220015525817871, -112.11383056640625, -44.441951751708984, -0.013427734375, 0.3017578125, -0.800537109375
310, 3725516626, -8.77976131439209, -2.6335787773132324, 7.006206035614014, -20.586719512939453, -107.86088562011719, -44.47719955444336, -0.04931640625, 0.3076171875, -0.803466796875
311, 3725533293, -8.826799392700195, -1.7366011142730713, 5.802107810974121, -27.04187774658203, -103.61839294433594, -38.506900787353516, -0.083984375, 0.31884765625, -0.801025390625
312, 3725549960, -8.691636085510254, -0.46865755319595337, 4.4851837158203125, -32.081764221191406, -94.76963806152344, -27.994016647338867, -0.112548828125, 0.3251953125, -0.80078125
313, 3725566627, -8.741439819335938, 0.34369564056396484, 3.4860360622406006, -34.83771896362305, -81.90884399414062, -12.784431457519531, -0.137939453125, 0.331787109375, -0.795654296875
314, 3725583294, -9.324506759643555, 0.5486804842948914, 2.4850680828094482, -32.595272064208984, -68.34064483642578, 6.941919326782227, -0.158203125, 0.34228515625, -0.789794921875
315, 3725599961, -9.975011825561523, 0.3790690004825592, 1.401381492614746, -26.594512939453125, -53.4906005859375, 28.790203094482422, -0.170654296875, 0.3486328125, -0.783935546875
316, 3725616628, -10.973784446716309, -0.08196735382080078, 0.5571898818016052, -24.316829681396484, -33.2553825378418, 45.593101501464844, -0.17578125, 0.35302734375, -0.778564453125
317, 3725633295, -11.545140266418457, -0.9622801542282104, -0.010842327028512955, -20.612131118774414, -10.31770133972168, 53.58888626098633, -0.17431640625, 0.36279296875, -0.776611328125
318, 3725649962, -11.778849601745605, -1.6614809036254883, -0.16444066166877747, -11.95147705078125, 13.68790340423584, 52.804405212402344, -0.16796875, 0.3662109375, -0.7734375
319, 3725666629, -11.839554786682129, -2.1295957565307617, -0.047842636704444885, -1.21351957321167, 37.729331970214844, 47.0404167175293, -0.157470703125, 0.367431640625, -0.775390625
320, 3725683296, -1.6052008867263794, -4.606739521026611, 6.997506618499756, 3.4220757484436035, 84.61295318603516, 44.54824447631836, -0.14013671875, 0.36962890625, -0.778564453125
321, 3725699963, 4.0015339851379395, -9.696861267089844, 11.664559364318848, 14.508716583251953, 97.44904327392578, 48.217262268066406, -0.112548828125, 0.3671875, -0.781982421875
322, 3725716630, 2.168201208114624, -3.9617950916290283, 2.5635714530944824, 7.1799092292785645, 136.1095733642578, 59.93027114868164, -0.07861328125, 0.364013671875, -0.7841796875
323, 3725733297, -9.769135475158691, -5.242388725280762, 9.72006893157959, -18.724756240844727, 170.25848388671875, 13.947931289672852, -0.038818359375, 0.367431640625, -0.783447265625
324, 3725749964, -10.845643997192383, -4.971282005310059, 10.656290054321289, -1.5150116682052612, 134.90667724609375, 1.029984712600708, -0.007080078125, 0.370361328125, -0.782958984375
325, 3725766631, -8.988773345947266, -1.0042012929916382, 11.274673461914062, 11.002593040466309, 109.84872436523438, 18.840347290039062, 0.01953125, 0.364990234375, -0.785400390625
326, 3725783298, -8.750948905944824, -1.8296220302581787, 10.82605266571045, -4.81345796585083, 93.81652069091797, 14.516656875610352, 0.0458984375, 0.36669921875, -0.78271484375
327, 3725799965, -7.914023399353027, -2.9286856651306152, 9.659717559814453, -6.346425533294678, 76.43721771240234, 16.31198501586914, 0.06396484375, 0.36474609375, -0.7802734375
328, 3725816632, -5.56626033782959, -2.6112077236175537, 7.8428730964660645, -5.048635482788086, 62.43256759643555, 21.182958602905273, 0.082763671875, 0.365966796875, -0.777587890625
329, 3725833299, -5.878778457641602, -5.94913911819458, 8.243841171264648, 4.840919494628906, 58.22157287597656, 30.845458984375, 0.095947265625, 0.36572265625, -0.776123046875
330, 3725849966, -10.121301651000977, -5.93414306640625, 6.432953834533691, 47.48078155517578, 24.207754135131836, 31.857563018798828, 0.10791015625, 0.35205078125, -0.780029296875
331, 3725866633, -5.463461875915527, -2.5408811569213867, 8.51422119140625, 45.151912689208984, 17.13115119934082, 28.825899124145508, 0.1162109375, 0.34228515625, -0.7841796875
332, 3725883300, -6.645358085632324, -2.8847901821136475, 8.175930976867676, 43.683204650878906, 11.617279052734375, 24.91292953491211, 0.119873046875, 0.3310546875, -0.78759765625
333, 3725899967, -6.738402366638184, -1.0318477153778076, 9.30475902557373, 25.805557250976562, 4.568825721740723, 12.4468412399292, 0.125, 0.3251953125, -0.7900390625
334, 3725916634, -5.69517183303833, -2.2586135864257812, 8.446589469909668, 13.285133361816406, 3.6789047718048096, 4.928444862365723, 0.12646484375, 0.320068359375, -0.79248046875
335, 3725933301, -5.527950286865234, -2.564678192138672, 7.95106840133667, 6.512740612030029, 3.6254844665527344, 1.8791464567184448, 0.12646484375, 0.315185546875, -0.791259765625
336, 3725949968, -5.405967712402344, -2.795387029647827, 7.729454517364502, 3.6189279556274414, 3.7508201599121094, 0.6731210350990295, 0.12841796875, 0.315673828125, -0.792724609375
337, 3725966635, -5.198944568634033, -2.8566486835479736, 7.666716575622559, 2.595456838607788, 4.138864994049072, 0.9148408770561218, 0.129150390625, 0.313720703125, -0.791259765625
338, 3725983302, -5.212716102600098, -2.6847293376922607, 7.677738666534424, 1.930346131324768, 5.124698162078857, 1.5875968933105469, 0.129638671875, 0.3115234375, -0.792724609375
339, 3725999969, -5.288433074951172, -2.537971258163452, 7.628421783447266, 1.2789381742477417, 5.821799278259277, 1.4720195531845093, 0.131591796875, 0.313232421875, -0.795166015625
340, 3726016636, -5.160416126251221, -2.8544137477874756, 7.346073150634766, 2.6615757942199707, 5.652128219604492, 2.056001901626587, 0.135986328125, 0.312255859375, -0.793701171875
341, 3726033303, -5.197097301483154, -2.8986880779266357, 7.234981060028076, 6.4329962730407715, 5.0391011238098145, 4.224924564361572, 0.1376953125, 0.310302734375, -0.79150390625
342, 3726049970, -5.164316177368164, -2.964174747467041, 7.248640537261963, 9.171457290649414, 4.885605335235596, 5.561076641082764, 0.13818359375, 0.30859375, -0.7939453125
343, 3726066637, -5.361230373382568, -2.7741780281066895, 7.576991558074951, 10.854035377502441, 5.168038368225098, 6.682837963104248, 0.1396484375, 0.3056640625, -0.7958984375
344, 3726083304, -5.639357566833496, -2.5113472938537598, 7.709100246429443, 9.558146476745605, 2.971221923828125, 5.771946430206299, 0.1416015625, 0.3037109375, -0.79541015625
345, 3726099971, -5.650214195251465, -2.387944221496582, 7.7592644691467285, 7.553335666656494, 0.6637340188026428, 3.987046480178833, 0.14208984375, 0.3017578125, -0.794921875
346, 3726116638, -5.329431533813477, -2.5563201904296875, 7.645690441131592, 6.5624542236328125, -0.41265904903411865, 3.010164737701416, 0.144775390625, 0.2998046875, -0.79541015625
347, 3726133305, -5.27725076675415, -2.6275975704193115, 7.720366954803467, 7.423529624938965, -0.7955690622329712, 4.37352991104126, 0.142822265625, 0.300048828125, -0.79541015625
348, 3726149972, -5.434026718139648, -2.5854196548461914, 7.6779046058654785, 6.958913326263428, -0.5222942233085632, 4.65808629989624, 0.142333984375, 0.294677734375, -0.796875
349, 3726166639, -5.3030500411987305, -2.592832088470459, 7.678491115570068, 6.758316516876221, 0.09132850915193558, 5.370901584625244, 0.143798828125, 0.293701171875, -0.79833984375
350, 3726183306, -5.257663249969482, -2.5860941410064697, 7.734042167663574, 5.416132926940918, 0.9978644847869873, 6.441678047180176, 0.142822265625, 0.291015625, -0.80126953125
351, 3726199973, -5.383471965789795, -2.520481586456299, 7.760733604431152, 3.481311082839966, 3.340991973876953, 7.683498382568359, 0.1474609375, 0.28955078125, -0.796630859375
352, 3726216640, -5.381622314453125, -2.385786771774292, 7.81398344039917, -0.17880232632160187, 7.071751594543457, 7.972986698150635, 0.1484375, 0.28759765625, -0.798828125
353, 3726233307, -5.146384239196777, -2.4829039573669434, 7.849265098571777, -4.440184116363525, 13.643213272094727, 9.097031593322754, 0.15234375, 0.28515625, -0.797119140625
354, 3726249974, -5.070932388305664, -2.6752333641052246, 7.7710394859313965, -8.482385635375977, 22.78702163696289, 13.373611450195312, 0.1572265625, 0.290771484375, -0.796142578125
355, 3726266641, -4.740809440612793, -2.351768970489502, 8.480173110961914, -14.050699234008789, 33.58012008666992, 20.0675106048584, 0.166748046875, 0.291748046875, -0.794921875
356, 3726283308, -4.417257308959961, -2.6286540031433105, 8.989165306091309, -2.286745309829712, 57.20671081542969, 22.79355239868164, 0.177734375, 0.288818359375, -0.79052734375
357, 3726299975, -4.587699890136719, -2.9147326946258545, 9.065105438232422, -10.026782989501953, 89.51669311523438, 25.50400733947754, 0.19873046875, 0.28955078125, -0.78369140625
358, 3726316642, -4.763240337371826, -2.153205633163452, 9.331411361694336, -17.7877254486084, 130.18655395507812, 30.612319946289062, 0.228515625, 0.290283203125, -0.77294921875
359, 3726333309, -4.795443534851074, -2.117263078689575, 9.676198959350586, -33.61953353881836, 184.58164978027344, 34.99264907836914, 0.26806640625, 0.295166015625, -0.7578125
360, 3726349976, -4.008418083190918, -3.004574775695801, 10.321158409118652, -35.369930267333984, 252.98414611816406, 47.0937614440918, 0.3203125, 0.299560546875, -0.733154296875
361, 3726366643, -3.8634371757507324, -3.866708755493164, 10.092400550842285, -33.46270751953125, 338.6891174316406, 72.81253814697266, 0.387451171875, 0.299072265625, -0.689453125
362, 3726383310, -8.148269653320312, -5.468469619750977, 12.536192893981934, -19.072654724121094, 416.8764343261719, 124.14983367919922, 0.475830078125, 0.2880859375, -0.633544921875
363, 3726399977, -13.657208442687988, -6.5168561935424805, 13.426656723022461, -28.535913467407227, 433.9819641113281, 144.16030883789062, 0.5615234375, 0.26513671875, -0.560302734375
364, 3726416644, -22.054018020629883, -7.436108112335205, 17.26041030883789, -51.17949676513672, 372.7364807128906, 126.52055358886719, 0.631591796875, 0.246337890625, -0.48291015625
365, 3726433311, -14.792868614196777, -8.213671684265137, 18.87761688232422, -47.66458511352539, 302.12396240234375, 135.93373107910156, 0.68408203125, 0.2275390625, -0.41357421875
366, 3726449978, -6.7386322021484375, -15.21497917175293, 21.14912986755371, -27.579626083374023, 216.88441467285156, 114.41874694824219, 0.71533203125, 0.2021484375, -0.353515625
367, 3726466645, -1.4069581031799316, -26.693941116333008, 24.411348342895508, 96.27494812011719, 77.00794982910156, -21.914823532104492, 0.73193359375, 0.192626953125, -0.323974609375
368, 3726483312, 5.7339253425598145, -12.309295654296875, 22.278759002685547, 174.4125518798828, -24.002347946166992, -82.61917877197266, 0.728515625, 0.18505859375, -0.325927734375
369, 3726499979, 4.992766380310059, -3.4800190925598145, 19.633968353271484, 151.60789489746094, -101.47743225097656, -95.73438262939453, 0.72314453125, 0.18701171875, -0.334716796875
370, 3726516646, 4.645018100738525, -0.5813573002815247, 15.930018424987793, 92.22618103027344, -167.18804931640625, -81.7402114868164, 0.720458984375, 0.191162109375, -0.36279296875
371, 3726533313, 2.5337865352630615, -0.2666294574737549, 12.06743049621582, 42.222015380859375, -213.43032836914062, -53.433372497558594, 0.72509765625, 0.1982421875, -0.403076171875
372, 3726549980, -0.17883402109146118, -0.594851016998291, 9.786112785339355, 9.106253623962402, -240.56088256835938, -24.795419692993164, 0.724853515625, 0.2080078125, -0.46875
373, 3726566647, -3.3178815841674805, -1.4902615547180176, 8.54474925994873, -15.732251167297363, -257.583740234375, -9.473854064941406, 0.707763671875, 0.218017578125, -0.56005859375
374, 3726583314, -5.237608432769775, -2.5977628231048584, 7.759521961212158, -33.072853088378906, -268.6100769042969, -7.581820011138916, 0.6474609375, 0.226318359375, -0.650146484375
375, 3726599981, -6.670443058013916, -3.134225606918335, 7.759886264801025, -48.495933532714844, -269.4761657714844, -14.64317798614502, 0.561767578125, 0.228271484375, -0.7177734375
376, 3726616648, -9.080163955688477, -3.6681392192840576, 8.742738723754883, -68.42892456054688, -266.0608825683594, -30.171480178833008, 0.479248046875, 0.2431640625, -0.744140625
377, 3726633315, -11.513040542602539, -5.018409252166748, 9.878865242004395, -86.66104888916016, -269.44415283203125, -53.539608001708984, 0.42138671875, 0.269287109375, -0.760009765625
378, 3726649982, -13.405147552490234, -6.9105024337768555, 10.414604187011719, -90.67498779296875, -276.5144348144531, -82.83991241455078, 0.37060546875, 0.309326171875, -0.785400390625
379, 3726666649, -15.589946746826172, -8.092449188232422, 10.645398139953613, -82.5419692993164, -271.7029724121094, -116.31658172607422, 0.29248046875, 0.3583984375, -0.827880859375
380, 3726683316, -19.031511306762695, -5.872802257537842, 10.565408706665039, -80.72249603271484, -252.59115600585938, -160.9366912841797, 0.18408203125, 0.40087890625, -0.848876953125
381, 3726699983, -24.314884185791016, -3.4073283672332764, 9.512919425964355, -96.6410140991211, -235.42755126953125, -207.03158569335938, 0.070556640625, 0.430419921875, -0.83203125
382, 3726716650, -27.767681121826172, -4.7489118576049805, 5.377445220947266, -72.60105895996094, -236.68914794921875, -224.2748565673828, -0.027099609375, 0.441162109375, -0.802978515625
383, 3726733317, -27.274412155151367, -3.247253894805908, 0.2137618064880371, 6.7111616134643555, -235.16612243652344, -190.8563232421875, -0.110107421875, 0.433837890625, -0.784912109375
384, 3726749984, -26.97288703918457, 2.3148796558380127, -4.365547180175781, 50.847900390625, -216.6440887451172, -126.71582794189453, -0.176025390625, 0.410400390625, -0.77001953125
385, 3726766651, -31.869319915771484, 10.046404838562012, -10.493185043334961, 14.74785041809082, -186.83311462402344, -62.058128356933594, -0.2216796875, 0.3935546875, -0.7578125
386, 3726783318, -26.783254623413086, 14.83124828338623, -18.116348266601562, -75.6368408203125, -111.39215087890625, -5.3729023933410645, -0.252685546875, 0.398681640625, -0.73583984375
387, 3726799985, -18.65083885192871, 6.326066493988037, -23.660314559936523, -23.65355682373047, 88.79226684570312, 96.84953308105469, -0.239013671875, 0.413818359375, -0.729248046875
388, 3726816652, -14.018757820129395, -1.6357256174087524, -3.1946041584014893, 82.08148193359375, 220.10992431640625, 154.8335723876953, -0.181640625, 0.40283203125, -0.743408203125
389, 3726833319, -15.096874237060547, -16.880847930908203, 16.916894912719727, 89.1697998046875, 171.4533233642578, 72.7200927734375, -0.12939453125, 0.38671875, -0.7568359375
390, 3726849986, -5.082367420196533, -3.795492649078369, 7.2210693359375, 74.5805435180664, 149.4744873046875, 29.054948806762695, -0.09521484375, 0.367431640625, -0.76806640625
391, 3726866653, -9.11190414428711, 5.233824253082275, 12.649848937988281, 42.632041931152344, 170.882080078125, 24.77220916748047, -0.05712890625, 0.353759765625, -0.773193359375
392, 3726883320, -13.654515266418457, 2.127373218536377, 14.331841468811035, 28.059410095214844, 126.88277435302734, 52.40486145019531, -0.02099609375, 0.344482421875, -0.77294921875
393, 3726899987, -10.294539451599121, -3.4039831161499023, 8.75722599029541, 21.019081115722656, 86.7535400390625, 67.14726257324219, 0.00390625, 0.336669921875, -0.771240234375
394, 3726916654, -13.70212173461914, -10.628206253051758, 9.569452285766602, 69.25530242919922, 64.87242889404297, 56.754547119140625, 0.026611328125, 0.326171875, -0.771728515625
395, 3726933321, -6.959112644195557, 1.8852437734603882, 9.438681602478027, 67.54826354980469, 25.49650001525879, 43.678043365478516, 0.038330078125, 0.3056640625, -0.777587890625
396, 3726949988, -7.150224685668945, -2.4858880043029785, 8.970928192138672, 45.42967987060547, 6.684846878051758, 26.98750877380371, 0.04345703125, 0.294677734375, -0.78369140625
397, 3726966655, -7.034216403961182, -1.3652914762496948, 9.110244750976562, 33.771484375, 1.7238909006118774, 17.498090744018555, 0.046142578125, 0.28564453125, -0.7841796875
398, 3726983322, -5.619439125061035, -2.3601949214935303, 8.103992462158203, 20.6793155670166, -1.990891695022583, 9.469640731811523, 0.04443359375, 0.279052734375, -0.787109375
399, 3726999989, -5.338892936706543, -2.5524802207946777, 8.001581192016602, 18.0738525390625, -1.156914472579956, 8.412638664245605, 0.0439453125, 0.273193359375, -0.78759765625
400, 3727016656, -5.47699499130249, -2.7139527797698975, 7.827024459838867, 17.187942504882812, -1.3370486497879028, 8.715685844421387, 0.044921875, 0.27001953125, -0.791015625
401, 3727033323, -5.295306205749512, -3.093661308288574, 7.433043003082275, 19.297624588012695, -3.867576837539673, 10.843274116516113, 0.04541015625, 0.26708984375, -0.791015625
402, 3727049990, -5.147469520568848, -2.646416425704956, 7.588920593261719, 20.40254783630371, -4.774486064910889, 12.752786636352539, 0.045654296875, 0.259033203125, -0.79345703125
403, 3727066657, -5.181602954864502, -1.6470012664794922, 8.061776161193848, 16.16908073425293, -3.178668260574341, 10.798052787780762, 0.047119140625, 0.255615234375, -0.79638671875
404, 3727083324, -5.373685836791992, -1.7122018337249756, 8.088065147399902, 7.901123523712158, 0.35710516571998596, 5.510778903961182, 0.046630859375, 0.254638671875, -0.79345703125
405, 3727099991, -5.396562576293945, -2.2547175884246826, 7.797702789306641, 3.7024500370025635, 1.8956276178359985, 2.662292718887329, 0.047119140625, 0.25341796875, -0.791015625
406, 3727116658, -5.444135665893555, -2.5709595680236816, 7.707869529724121, 5.70404577255249, 1.1253517866134644, 4.73597526550293, 0.04931640625, 0.24853515625, -0.794921875
407, 3727133325, -5.532764911651611, -2.4840919971466064, 7.6760149002075195, 7.444108009338379, -0.6360147595405579, 5.9666266441345215, 0.04931640625, 0.2509765625, -0.79443359375
408, 3727149992, -5.177866458892822, -2.4975268840789795, 7.9699177742004395, 7.215183734893799, -2.0712616443634033, 7.729576587677002, 0.048828125, 0.248046875, -0.79833984375
409, 3727166659, -5.429641246795654, -1.9947794675827026, 7.95452880859375, 5.7670793533325195, -0.1696329563856125, 8.025043487548828, 0.05029296875, 0.24609375, -0.79638671875
410, 3727183326, -5.318336486816406, -2.16357159614563, 7.90122127532959, 3.8063995838165283, 3.250540256500244, 7.256494522094727, 0.05126953125, 0.2451171875, -0.79443359375
411, 3727199993, -5.288590431213379, -2.2591023445129395, 7.885498523712158, 3.1462459564208984, 6.989664077758789, 8.956950187683105, 0.05126953125, 0.240966796875, -0.79736328125
412, 3727216660, -5.093884468078613, -2.5714473724365234, 8.01845645904541, -0.8069162368774414, 12.392021179199219, 12.878047943115234, 0.056396484375, 0.241455078125, -0.794677734375
413, 3727233327, -4.864707946777344, -2.857771396636963, 8.295822143554688, -3.09428071975708, 24.594158172607422, 18.16216278076172, 0.059814453125, 0.240966796875, -0.793212890625
414, 3727249994, -4.072784423828125, -2.5032637119293213, 9.298467636108398, -4.210331916809082, 45.02913284301758, 24.93981170654297, 0.07275390625, 0.2421875, -0.79248046875
415, 3727266661, -4.790490627288818, -1.2601925134658813, 9.199895858764648, -7.8200860023498535, 77.52832794189453, 23.75540542602539, 0.08935546875, 0.240234375, -0.7890625
416, 3727283328, -4.896071910858154, -1.6324419975280762, 9.17026138305664, -13.55566692352295, 113.19512939453125, 22.456737518310547, 0.11376953125, 0.242919921875, -0.783447265625
417, 3727299995, -4.6081953048706055, -2.6642980575561523, 9.726075172424316, -10.394461631774902, 154.12338256835938, 28.069087982177734, 0.150634765625, 0.244384765625, -0.77685546875
418, 3727316662, -4.4420485496521, -3.1898322105407715, 10.2276611328125, -7.583136558532715, 214.19007873535156, 43.210289001464844, 0.195556640625, 0.24365234375, -0.763427734375
419, 3727333329, -4.184621334075928, -3.933454751968384, 11.442233085632324, -11.610529899597168, 290.9158630371094, 81.23297119140625, 0.259765625, 0.23974609375, -0.740966796875
420, 3727349996, -6.790956020355225, -5.376315116882324, 12.693009376525879, -30.501008987426758, 369.8517761230469, 136.51524353027344, 0.341796875, 0.231689453125, -0.703125
421, 3727366663, -7.680441379547119, -5.491946697235107, 13.96025562286377, -47.866600036621094, 409.1217956542969, 183.98291015625, 0.43359375, 0.21728515625, -0.64794921875
422, 3727383330, -16.192058563232422, -5.1568379402160645, 15.48897647857666, -64.8940658569336, 406.87109375, 189.5940704345703, 0.51904296875, 0.197265625, -0.579345703125
423, 3727399997, -18.931570053100586, -3.7235770225524902, 17.474369049072266, -94.22982788085938, 351.5426940917969, 161.2723846435547, 0.591796875, 0.17724609375, -0.5078125
424, 3727416664, -12.978887557983398, -4.453232765197754, 16.918598175048828, -112.58956909179688, 249.29029846191406, 138.82904052734375, 0.640869140625, 0.162841796875, -0.44921875
425, 3727433331, -9.2398681640625, -17.4798583984375, 23.158782958984375, -90.41482543945312, 122.78327941894531, 74.14948272705078, 0.67041015625, 0.152099609375, -0.408203125
426, 3727449998, -1.8590221405029297, -18.483062744140625, 19.638097763061523, 31.358184814453125, -38.1707763671875, -2.001073122024536, 0.673828125, 0.1435546875, -0.404052734375
427, 3727466665, 5.9750590324401855, -9.56306266784668, 12.446304321289062, 127.20072937011719, -69.09510040283203, -43.73357009887695, 0.669189453125, 0.1298828125, -0.416748046875
428, 3727483332, 4.9549994468688965, -2.4210705757141113, 12.125747680664062, 109.63817596435547, -81.27840423583984, -81.65887451171875, 0.658935546875, 0.121826171875, -0.429443359375
429, 3727499999, 3.7707016468048096, -0.8524722456932068, 11.006336212158203, 59.07322692871094, -102.79810333251953, -99.8621597290039, 0.650390625, 0.126220703125, -0.445556640625
430, 3727516666, 2.1998984813690186, -0.2998954951763153, 10.016303062438965, 37.79335021972656, -125.79817962646484, -85.73947143554688, 0.642333984375, 0.1337890625, -0.466552734375
431, 3727533333, -0.33461225032806396, 0.8396283388137817, 9.92416763305664, 27.19240951538086, -152.3061981201172, -60.173187255859375, 0.631103515625, 0.140380859375, -0.500732421875
432, 3727550000, -2.741321563720703, 1.158133864402771, 9.624481201171875, 5.459870338439941, -179.82440185546875, -42.2624626159668, 0.606689453125, 0.15185546875, -0.54248046875
433, 3727566667, -4.594130039215088, -0.1720494031906128, 8.987727165222168, -17.29522705078125, -202.9380340576172, -36.31740951538086, 0.568603515625, 0.167724609375, -0.588134765625
434, 3727583334, -6.060874938964844, -1.990169882774353, 8.631084442138672, -27.374935150146484, -217.03211975097656, -41.118316650390625, 0.507568359375, 0.1806640625, -0.633056640625
435, 3727600001, -7.957686901092529, -3.7443854808807373, 8.923084259033203, -27.02963638305664, -226.6653289794922, -55.42475128173828, 0.433349609375, 0.1953125, -0.654296875
436, 3727616668, -10.053342819213867, -5.347007751464844, 9.367329597473145, -17.34882354736328, -238.15345764160156, -78.58953857421875, 0.355712890625, 0.193603515625, -0.664306640625
437, 3727633335, -11.606496810913086, -5.720088005065918, 9.826203346252441, -7.196389198303223, -251.07308959960938, -108.0520248413086, 0.29248046875, 0.182373046875, -0.65087890625
438, 3727650002, -12.374499320983887, -5.556188106536865, 9.905389785766602, -6.871844291687012, -259.1875, -137.1037139892578, 0.25390625, 0.161865234375, -0.632568359375
439, 3727666669, -13.013806343078613, -5.379741668701172, 10.139801979064941, -13.947335243225098, -256.2503662109375, -159.30812072753906, 0.253173828125, 0.138671875, -0.61474609375
440, 3727683336, -15.393826484680176, -5.336244106292725, 10.844109535217285, -26.242313385009766, -246.6887664794922, -175.2429656982422, 0.30126953125, 0.14013671875, -0.6298828125
441, 3727700003, -20.420799255371094, -4.605632305145264, 10.85371208190918, -41.101409912109375, -243.47225952148438, -195.32383728027344, 0.348876953125, 0.188720703125, -0.709716796875
442, 3727716670, -25.22077751159668, -5.294633865356445, 7.703943729400635, -40.88734436035156, -256.721923828125, -204.79212951660156, 0.318603515625, 0.272705078125, -0.81884765625
443, 3727733337, -28.050100326538086, -5.921867847442627, 2.0482163429260254, -2.899254560470581, -269.580810546875, -173.34678649902344, 0.21337890625, 0.34326171875, -0.89453125
444, 3727750004, -27.836082458496094, -0.3909011781215668, -4.543005466461182, 26.469863891601562, -257.8312072753906, -114.1089096069336, 0.083984375, 0.371826171875, -0.925537109375
445, 3727766671, -31.589176177978516, 13.037303924560547, -11.679665565490723, -30.660995483398438, -211.81533813476562, -69.06731414794922, -0.0185546875, 0.3916015625, -0.93017578125
446, 3727783338, -28.03472900390625, 18.095069885253906, -21.175825119018555, -181.94091796875, -120.73992156982422, -22.870071411132812, -0.082275390625, 0.44140625, -0.907470703125
447, 3727800005, -19.009246826171875, 0.5043165683746338, -21.485225677490234, -139.9727020263672, 45.249168395996094, 93.85353088378906, -0.087646484375, 0.49658203125, -0.884765625
448, 3727816672, -12.553961753845215, -4.796300411224365, -1.7916808128356934, 80.90550231933594, 166.2058563232422, 203.1178741455078, -0.02685546875, 0.49853515625, -0.900146484375
449, 3727833339, -11.813941955566406, -18.136171340942383, 14.272418022155762, 81.13082885742188, 121.29757690429688, 109.81897735595703, 0.027587890625, 0.489990234375, -0.91748046875
450, 3727850006, 0.3495384156703949, -7.555952548980713, 1.662574052810669, 86.00074768066406, 141.7244873046875, 56.923728942871094, 0.064453125, 0.475830078125, -0.9296875
451, 3727866673, -9.10599422454834, 3.135956287384033, 12.722949028015137, 61.1756706237793, 211.42514038085938, 21.638809204101562, 0.1171875, 0.46875, -0.93408203125
452, 3727883340, -16.316532135009766, 7.22352933883667, 16.843830108642578, 41.02777099609375, 154.23583984375, 51.51677703857422, 0.162353515625, 0.462646484375, -0.93408203125
453, 3727900007, -11.127317428588867, -1.6359833478927612, 10.511125564575195, 16.96525001525879, 104.22103118896484, 81.72394561767578, 0.2041015625, 0.46044921875, -0.933349609375
454, 3727916674, -14.064274787902832, -13.066915512084961, 8.942303657531738, 63.42924118041992, 91.39249420166016, 60.14873123168945, 0.23876953125, 0.44921875, -0.93359375
455, 3727933341, -8.593568801879883, 4.212930202484131, 10.673601150512695, 62.0952262878418, 35.54920959472656, 41.76455307006836, 0.256103515625, 0.42724609375, -0.940673828125
456, 3727950008, -6.663275718688965, -4.12994909286499, 8.455154418945312, 41.72124481201172, 12.907294273376465, 24.191720962524414, 0.263671875, 0.414794921875, -0.94580078125
457, 3727966675, -6.618620872497559, -1.1448333263397217, 9.101152420043945, 30.29454231262207, 6.281091690063477, 15.116599082946777, 0.266845703125, 0.40234375, -0.9462890625
458, 3727983342, -5.643044471740723, -2.5603485107421875, 8.304703712463379, 18.219778060913086, 5.3796281814575195, 7.915608882904053, 0.26904296875, 0.399169921875, -0.94970703125
459, 3728000009, -5.876735210418701, -2.2959187030792236, 8.144575119018555, 8.247888565063477, 5.018855094909668, 3.5310001373291016, 0.27197265625, 0.394287109375, -0.95263671875
460, 3728016676, -5.659694194793701, -2.160435199737549, 8.16553020477295, 3.22615647315979, 4.780949592590332, 1.9687907695770264, 0.27294921875, 0.394775390625, -0.95263671875
461, 3728033343, -5.312551498413086, -2.4209413528442383, 7.872190952301025, 1.790859341621399, 5.728838920593262, 2.312039852142334, 0.277587890625, 0.392333984375, -0.950439453125
462, 3728050010, -5.378125190734863, -2.6614558696746826, 7.720880508422852, 1.8398696184158325, 5.942320823669434, 4.169332504272461, 0.277587890625, 0.392822265625, -0.950439453125
463, 3728066677, -5.507636547088623, -2.3081629276275635, 7.822303771972656, 1.6480940580368042, 5.403415679931641, 4.6907172203063965, 0.278564453125, 0.393798828125, -0.952392578125
464, 3728083344, -5.705902099609375, -1.8894015550613403, 7.931472301483154, -0.16234615445137024, 5.904081344604492, 3.648728609085083, 0.281982421875, 0.393310546875, -0.950927734375
465, 3728100011, -5.6559247970581055, -2.0182812213897705, 7.823428630828857, -2.934537172317505, 7.319822311401367, 0.9688838124275208, 0.28369140625, 0.391845703125, -0.9482421875
466, 3728116678, -5.476663112640381, -2.3943521976470947, 7.647535800933838, -3.941833734512329, 7.443659782409668, -0.2528998553752899, 0.2880859375, 0.394287109375, -0.94970703125
467, 3728133345, -5.502708435058594, -2.423150062561035, 7.5645365715026855, -2.604504346847534, 6.809309482574463, -0.1657526046037674, 0.28662109375, 0.392822265625, -0.94580078125
468, 3728150012, -5.540009021759033, -2.468437433242798, 7.499730587005615, -0.33021870255470276, 5.700108528137207, 0.1898719221353531, 0.291015625, 0.3955078125, -0.947265625
469, 3728166679, -5.501389026641846, -2.4497945308685303, 7.566081523895264, 1.288888692855835, 5.090928077697754, 1.0318524837493896, 0.29052734375, 0.395263671875, -0.944091796875
470, 3728183346, -5.35127067565918, -2.34609317779541, 7.6611199378967285, 1.3220443725585938, 7.020358562469482, 1.6800203323364258, 0.2939453125, 0.394287109375, -0.944580078125
471, 3728200013, -5.29348087310791, -2.3528027534484863, 7.570492744445801, -0.8993136286735535, 13.148921012878418, 3.319042921066284, 0.29833984375, 0.3955078125, -0.943115234375
472, 3728216680, -5.359649181365967, -2.412600517272949, 7.691232204437256, -4.189896583557129, 17.265291213989258, 6.812069892883301, 0.303466796875, 0.39306640625, -0.943359375
473, 3728233347, -5.26211404800415, -2.440575361251831, 7.842625141143799, -9.289616584777832, 18.236797332763672, 12.908846855163574, 0.307861328125, 0.396484375, -0.94140625
474, 3728250014, -5.317569732666016, -2.7099599838256836, 7.742319107055664, -11.501200675964355, 20.18218421936035, 17.120868682861328, 0.31591796875, 0.397705078125, -0.935546875
475, 3728266681, -5.398347854614258, -2.095959424972534, 7.972057342529297, -5.768374919891357, 31.044607162475586, 14.445332527160645, 0.324951171875, 0.399169921875, -0.932861328125
476, 3728283348, -5.357237339019775, -2.120070457458496, 8.17856216430664, -9.708898544311523, 42.888431549072266, 13.297616004943848, 0.336669921875, 0.399658203125, -0.92578125
477, 3728300015, -5.273669242858887, -2.14101243019104, 8.391289710998535, -12.338469505310059, 61.926429748535156, 12.80235481262207, 0.351806640625, 0.40283203125, -0.92236328125
478, 3728316682, -5.367714881896973, -1.8256499767303467, 8.314604759216309, -14.249549865722656, 84.1156005859375, 11.544746398925781, 0.37255859375, 0.404052734375, -0.909912109375
479, 3728333349, -5.267210483551025, -2.035902500152588, 8.30819034576416, -17.89301872253418, 112.09183502197266, 10.68100357055664, 0.402099609375, 0.4072265625, -0.892822265625
480, 3728350016, -4.99332332611084, -2.816009998321533, 8.832180976867676, -25.891630172729492, 152.96018981933594, 16.692981719970703, 0.440673828125, 0.412109375, -0.8740234375
481, 3728366683, -4.358182907104492, -4.878783226013184, 9.87516975402832, -28.97473907470703, 207.07228088378906, 37.59825897216797, 0.489501953125, 0.416015625, -0.83935546875
482, 3728383350, -4.424427509307861, -4.410761833190918, 10.058048248291016, -27.643375396728516, 280.33905029296875, 71.71736907958984, 0.556884765625, 0.41357421875, -0.79345703125
483, 3728400017, -5.934647083282471, -5.917855262756348, 10.879438400268555, -20.95670509338379, 358.684814453125, 127.16056823730469, 0.638427734375, 0.401123046875, -0.724365234375
484, 3728416684, -9.757277488708496, -4.520507335662842, 12.988128662109375, -15.749661445617676, 406.36358642578125, 172.6826171875, 0.73291015625, 0.371337890625, -0.637939453125
485, 3728433351, -19.65935707092285, -5.686593055725098, 15.342635154724121, -43.720027923583984, 407.0760192871094, 163.64044189453125, 0.818603515625, 0.337158203125, -0.5341796875
486, 3728450018, -23.593095779418945, -8.03616714477539, 18.318126678466797, -42.91956329345703, 324.1698303222656, 152.33209228515625, 0.87646484375, 0.298828125, -0.43994140625
487, 3728466685, -12.664578437805176, -8.175819396972656, 14.95673942565918, -26.785181045532227, 250.30416870117188, 161.59396362304688, 0.908447265625, 0.2607421875, -0.3681640625
488, 3728483352, -7.707623481750488, -11.588300704956055, 18.77509880065918, -3.713331460952759, 189.77496337890625, 141.01266479492188, 0.928955078125, 0.218505859375, -0.311279296875
489, 3728500019, -10.40391731262207, -11.900172233581543, 23.714712142944336, -4.769886016845703, 36.502140045166016, 66.52861022949219, 0.928955078125, 0.197265625, -0.29443359375
490, 3728516686, 2.0894675254821777, -9.256771087646484, 14.638836860656738, 13.231100082397461, -59.595497131347656, 24.463157653808594, 0.91650390625, 0.189208984375, -0.311767578125
491, 3728533353, 4.473638534545898, -5.965222358703613, 9.486394882202148, 34.33536911010742, -75.7074203491211, 7.710206985473633, 0.897216796875, 0.188720703125, -0.335205078125
492, 3728550020, 2.868459701538086, -3.3117520809173584, 8.407567024230957, 27.374807357788086, -88.40951538085938, -12.576095581054688, 0.880126953125, 0.193115234375, -0.365234375
493, 3728566687, 1.1559107303619385, -2.5971791744232178, 7.892212390899658, 2.7752764225006104, -110.47169494628906, -38.670040130615234, 0.85888671875, 0.21142578125, -0.3984375
494, 3728583354, -0.12344789505004883, -2.86743426322937, 6.999956130981445, -8.192755699157715, -135.14683532714844, -57.18667984008789, 0.834716796875, 0.232421875, -0.435546875
495, 3728600021, -1.6388617753982544, -2.8041446208953857, 6.257702350616455, -3.101717710494995, -159.0778045654297, -67.61994934082031, 0.802978515625, 0.256103515625, -0.481201171875
496, 3728616688, -3.060698986053467, -2.655956268310547, 5.895991802215576, 2.5523059368133545, -177.17628479003906, -79.9146728515625, 0.75830078125, 0.281005859375, -0.52880859375
497, 3728633355, -4.160442352294922, -2.8303110599517822, 5.863595962524414, 6.008363723754883, -187.8519287109375, -97.5196762084961, 0.70361328125, 0.30615234375, -0.577392578125
498, 3728650022, -5.509862899780273, -3.0950024127960205, 6.447051048278809, 12.015538215637207, -194.86923217773438, -115.49315643310547, 0.639892578125, 0.32373046875, -0.620849609375
499, 3728666689, -7.750863552093506, -3.2133755683898926, 7.137123107910156, 18.603361129760742, -205.1642303466797, -131.32354736328125, 0.56689453125, 0.334228515625, -0.654541015625
500, 3728683356, -8.979950904846191, -3.5242414474487305, 7.901607513427734, 25.187551498413086, -219.1120147705078, -145.04649353027344, 0.490966796875, 0.3427734375, -0.687255859375
501, 3728700023, -9.478886604309082, -5.483590126037598, 6.401645183563232, 56.529502868652344, -223.9514617919922, -158.82278442382812, 0.411865234375, 0.336669921875, -0.71044921875
502, 3728716690, -11.864594459533691, -1.7019511461257935, 10.323704719543457, 52.66410827636719, -227.72232055664062, -172.80722045898438, 0.332763671875, 0.3193359375, -0.721923828125
503, 3728733357, -11.680082321166992, -1.9694374799728394, 10.382444381713867, 10.527385711669922, -232.77113342285156, -185.1186981201172, 0.267333984375, 0.30859375, -0.720703125
504, 3728750024, -13.620970726013184, -2.5373167991638184, 10.810806274414062, -20.05997657775879, -227.7451934814453, -177.06967163085938, 0.20947265625, 0.3037109375, -0.71826171875
505, 3728766691, -17.378585815429688, -3.212245225906372, 11.366207122802734, -40.471435546875, -223.2692108154297, -160.67201232910156, 0.17236328125, 0.307373046875, -0.712646484375
506, 3728783358, -22.708873748779297, -4.538415431976318, 10.287948608398438, -46.60136413574219, -231.84170532226562, -143.35401916503906, 0.130615234375, 0.31201171875, -0.7158203125
507, 3728800025, -27.498573303222656, -6.995284080505371, 6.670880317687988, -21.2656307220459, -263.16094970703125, -111.99164581298828, 0.091064453125, 0.315673828125, -0.723388671875
508, 3728816692, -28.030174255371094, -5.234307765960693, 1.3536369800567627, 14.912983894348145, -295.15179443359375, -64.84342193603516, 0.040771484375, 0.318359375, -0.743408203125
509, 3728833359, -26.92296028137207, 1.520257592201233, -4.905636787414551, -4.241223335266113, -290.6190490722656, -24.476032257080078, -0.01806640625, 0.313720703125, -0.757080078125
510, 3728850026, -27.71352767944336, 13.220964431762695, -13.243229866027832, -106.60023498535156, -236.977783203125, -12.979131698608398, -0.0751953125, 0.33349609375, -0.762939453125
511, 3728866693, -21.01946258544922, 12.991267204284668, -21.012863159179688, -212.59495544433594, -117.78800964355469, 9.55698299407959, -0.1103515625, 0.377685546875, -0.744384765625
512, 3728883360, -15.714902877807617, -1.0113873481750488, -23.215415954589844, -44.61298370361328, 91.5135269165039, 142.06192016601562, -0.09521484375, 0.404052734375, -0.73974609375
513, 3728900027, -14.310717582702637, -2.4503672122955322, 1.779370903968811, 93.74437713623047, 178.14317321777344, 208.8984832763672, -0.0302734375, 0.388671875, -0.75341796875
514, 3728916694, -12.886988639831543, -16.39689064025879, 13.749512672424316, 81.71994018554688, 126.08671569824219, 108.6527328491211, 0.01708984375, 0.366455078125, -0.767822265625
515, 3728933361, -1.3453348875045776, -6.464664936065674, 4.473239421844482, 54.94612503051758, 147.32730102539062, 44.18769454956055, 0.05712890625, 0.34814453125, -0.77685546875
516, 3728950028, -13.877045631408691, 5.265678882598877, 15.629781723022461, 37.132869720458984, 189.56915283203125, 24.848146438598633, 0.103271484375, 0.338134765625, -0.77734375
517, 3728966695, -17.18978500366211, 6.774833679199219, 15.405072212219238, 11.028310775756836, 116.19855499267578, 59.514163970947266, 0.141845703125, 0.332763671875, -0.777587890625
518, 3728983362, -16.284286499023438, -15.465660095214844, 8.347803115844727, 41.779747009277344, 49.39775085449219, 58.6190071105957, 0.162841796875, 0.324462890625, -0.779541015625
519, 3729000029, -4.100121021270752, -0.6049138307571411, 7.683429718017578, 73.58343505859375, 41.556034088134766, 47.10584259033203, 0.176513671875, 0.305419921875, -0.78662109375
520, 3729016696, -7.71055793762207, -2.9366462230682373, 7.821654796600342, 59.596336364746094, 9.468987464904785, 38.064388275146484, 0.185791015625, 0.288330078125, -0.788818359375
521, 3729033363, -6.932693004608154, -1.2467066049575806, 9.778825759887695, 58.006324768066406, 2.2285754680633545, 30.265623092651367, 0.19140625, 0.27392578125, -0.794677734375
522, 3729050030, -6.091939926147461, -2.129528522491455, 8.32376480102539, 39.83987045288086, -12.52029037475586, 21.942398071289062, 0.190185546875, 0.261474609375, -0.798583984375
523, 3729066697, -5.155555725097656, -3.302804708480835, 7.547302722930908, 40.56390380859375, -18.298620223999023, 23.860139846801758, 0.18798828125, 0.250732421875, -0.8037109375
524, 3729083364, -5.5733256340026855, -2.7390246391296387, 8.057634353637695, 45.199913024902344, -20.44434356689453, 24.863292694091797, 0.18408203125, 0.23876953125, -0.810302734375
525, 3729100031, -5.622565269470215, -1.3630553483963013, 8.654938697814941, 35.91448974609375, -15.279818534851074, 20.063451766967773, 0.182861328125, 0.2265625, -0.81103515625
526, 3729116698, -5.603731155395508, -1.0319023132324219, 8.48825740814209, 20.333829879760742, -7.796534538269043, 10.909375190734863, 0.182861328125, 0.220458984375, -0.8134765625
527, 3729133365, -5.2828192710876465, -1.6351910829544067, 8.044499397277832, 11.74283504486084, -2.980090856552124, 5.8747053146362305, 0.183837890625, 0.215576171875, -0.816162109375
528, 3729150032, -5.352987766265869, -1.9039465188980103, 7.980713367462158, 9.431706428527832, -1.484960675239563, 4.611715316772461, 0.181884765625, 0.214599609375, -0.817626953125
529, 3729166699, -5.428888320922852, -1.7641724348068237, 7.884568214416504, 7.361276626586914, -1.479043960571289, 3.0383903980255127, 0.1826171875, 0.2119140625, -0.818115234375
530, 3729183366, -5.416937828063965, -1.8689531087875366, 7.874361038208008, 3.9478323459625244, -1.053155779838562, 0.6820982098579407, 0.182373046875, 0.213134765625, -0.817138671875
531, 3729200033, -5.3051652908325195, -1.8800570964813232, 7.913350582122803, 2.584929943084717, -0.8851878046989441, -0.18213191628456116, 0.18115234375, 0.2099609375, -0.818603515625
532, 3729216700, -5.311976909637451, -2.023303747177124, 7.914725303649902, 2.6071741580963135, -0.7911250591278076, -0.7134160995483398, 0.18310546875, 0.2099609375, -0.819091796875
533, 3729233367, -5.280519485473633, -2.0839998722076416, 7.859153747558594, 2.764781951904297, -0.3980341851711273, -0.428897500038147, 0.18359375, 0.20751953125, -0.819091796875
534, 3729250034, -5.309146404266357, -1.900874376296997, 7.847784996032715, 3.6296205520629883, -1.1307752132415771, -0.050098445266485214, 0.185546875, 0.20849609375, -0.819580078125
535, 3729266701, -5.256425380706787, -1.9147897958755493, 7.893692970275879, 4.1676859855651855, -1.4596400260925293, -0.048731084913015366, 0.18310546875, 0.2080078125, -0.819091796875
536, 3729283368, -5.285334587097168, -1.9634912014007568, 7.867135047912598, 4.506241321563721, -1.1616770029067993, 0.9447053670883179, 0.18212890625, 0.2060546875, -0.817626953125
537, 3729300035, -5.181351661682129, -1.9570211172103882, 7.92612361907959, 4.524797439575195, -1.018232822418213, 2.2273383140563965, 0.1806640625, 0.205078125, -0.81591796875
538, 3729316702, -4.811390399932861, -1.9603601694107056, 8.043298721313477, 3.1411733627319336, 2.4887285232543945, 4.719197750091553, 0.18505859375, 0.203125, -0.821044921875
539, 3729333369, -5.042628765106201, -1.9306347370147705, 7.917667388916016, 1.6516804695129395, 8.10732650756836, 9.0457763671875, 0.18505859375, 0.201904296875, -0.818359375
540, 3729350036, -5.398671627044678, -1.866234540939331, 7.640303611755371, 0.5339162945747375, 10.19507122039795, 9.211658477783203, 0.188232421875, 0.200927734375, -0.81982421875
541, 3729366703, -5.603192329406738, -1.731065273284912, 7.685542583465576, 0.854036808013916, 11.732922554016113, 7.268971920013428, 0.193115234375, 0.2021484375, -0.81787109375
542, 3729383370, -5.7140583992004395, -1.6929945945739746, 7.9530229568481445, 2.559074878692627, 10.156792640686035, 5.540318012237549, 0.196044921875, 0.199462890625, -0.819091796875
543, 3729400037, -5.195440292358398, -2.264737129211426, 8.08811092376709, 4.238987445831299, 11.932419776916504, 5.708913803100586, 0.19775390625, 0.198974609375, -0.815673828125
544, 3729416704, -4.290099143981934, -3.5611732006073, 8.592290878295898, 2.0841946601867676, 24.3504695892334, 15.585827827453613, 0.20458984375, 0.196044921875, -0.818603515625
545, 3729433371, -3.427640914916992, -3.78493595123291, 10.190752983093262, -9.138599395751953, 52.890625, 44.08544158935547, 0.216064453125, 0.19580078125, -0.814697265625
546, 3729450038, -2.870164155960083, -5.9070143699646, 12.017083168029785, -59.89790344238281, 116.50717163085938, 114.74344635009766, 0.242431640625, 0.197509765625, -0.80419921875
547, 3729466705, -3.6225454807281494, -7.402617931365967, 12.092695236206055, -109.78517150878906, 206.3006591796875, 205.9103240966797, 0.293701171875, 0.2080078125, -0.7861328125
548, 3729483372, -6.573454856872559, -4.993281364440918, 11.30788803100586, -159.47308349609375, 264.36090087890625, 285.91326904296875, 0.361083984375, 0.2099609375, -0.754150390625
549, 3729500039, -10.221235275268555, -7.570215225219727, 11.392300605773926, -208.47340393066406, 267.660888671875, 328.9884338378906, 0.436279296875, 0.214111328125, -0.70751953125
550, 3729516706, -10.303016662597656, -8.642070770263672, 12.508946418762207, -234.34645080566406, 221.8667449951172, 350.4338073730469, 0.49951171875, 0.2099609375, -0.65966796875
551, 3729533373, -8.170713424682617, -7.77479887008667, 12.686056137084961, -249.52162170410156, 172.35704040527344, 362.8164978027344, 0.551513671875, 0.19775390625, -0.619384765625
552, 3729550040, -5.523499011993408, -9.932138442993164, 16.56841468811035, -261.31146240234375, 92.43798828125, 335.6321716308594, 0.584716796875, 0.182861328125, -0.58544921875
553, 3729566707, -4.149077415466309, -16.991477966308594, 14.526102066040039, -241.8869171142578, 14.791529655456543, 218.67532348632812, 0.5986328125, 0.182373046875, -0.568603515625
554, 3729583374, 5.473953723907471, -12.162114143371582, 9.553281784057617, -196.7853546142578, 7.981682300567627, 88.13776397705078, 0.596435546875, 0.197021484375, -0.5546875
555, 3729600041, 5.246450901031494, -4.849787712097168, 11.475226402282715, -201.11471557617188, 32.05060577392578, -18.300079345703125, 0.590576171875, 0.22900390625, -0.538330078125
556, 3729616708, 3.3898558616638184, -0.9725896120071411, 13.68554973602295, -203.2465362548828, 16.047405242919922, -81.07499694824219, 0.579833984375, 0.270263671875, -0.517333984375
557, 3729633375, 1.7666552066802979, 1.4724634885787964, 13.842626571655273, -165.87667846679688, -25.117982864379883, -90.98502349853516, 0.559814453125, 0.30712890625, -0.5
558, 3729650042, 1.3093898296356201, 5.937188625335693, 15.206149101257324, -142.5511932373047, -59.36109161376953, -86.3310546875, 0.534423828125, 0.332763671875, -0.4921875
559, 3729666709, 0.5014047622680664, 8.686416625976562, 15.745623588562012, -150.5579071044922, -89.03724670410156, -83.67497253417969, 0.507568359375, 0.3564453125, -0.482421875
560, 3729683376, -0.6680325269699097, 10.759293556213379, 15.970443725585938, -153.5159149169922, -120.57005310058594, -58.8103141784668, 0.48291015625, 0.372802734375, -0.474853515625
561, 3729700043, -2.160785675048828, 12.494081497192383, 15.81813907623291, -163.9329376220703, -152.77716064453125, -18.127273559570312, 0.458740234375, 0.3876953125, -0.469970703125
562, 3729716710, -3.825294017791748, 11.598854064941406, 15.139766693115234, -177.52684020996094, -177.4990234375, 20.445831298828125, 0.441162109375, 0.397216796875, -0.4677734375
563, 3729733377, -5.689549446105957, 9.149744987487793, 14.720921516418457, -177.29364013671875, -191.16725158691406, 42.48141860961914, 0.43017578125, 0.404541015625, -0.465576171875
564, 3729750044, -7.281453609466553, 6.6326727867126465, 14.56212329864502, -162.84730529785156, -202.6668701171875, 47.30057144165039, 0.422607421875, 0.41162109375, -0.472412109375
565, 3729766711, -7.797623157501221, 4.7251296043396, 13.995353698730469, -141.35830688476562, -209.34271240234375, 42.73733139038086, 0.410400390625, 0.41845703125, -0.481689453125
566, 3729783378, -7.8623881340026855, 3.182018280029297, 13.190141677856445, -119.09622192382812, -206.40557861328125, 35.80315399169922, 0.3994140625, 0.427978515625, -0.49462890625
567, 3729800045, -8.206624031066895, 2.2849762439727783, 12.45853042602539, -101.56782531738281, -196.6894073486328, 30.58394432067871, 0.38671875, 0.43896484375, -0.511962890625
568, 3729816712, -8.821426391601562, 1.8733665943145752, 12.136120796203613, -94.20745849609375, -181.88876342773438, 20.64183235168457, 0.37255859375, 0.45654296875, -0.52880859375
569, 3729833379, -9.57301139831543, 0.43506526947021484, 11.699114799499512, -83.78604125976562, -165.6697540283203, 9.195996284484863, 0.357177734375, 0.4755859375, -0.54345703125
570, 3729850046, -10.679774284362793, -1.0265817642211914, 11.316115379333496, -61.7888069152832, -151.5440673828125, -0.4293989837169647, 0.339111328125, 0.49365234375, -0.556396484375
571, 3729866713, -12.329575538635254, -1.4866647720336914, 10.843117713928223, -37.73210906982422, -145.02520751953125, -11.56890869140625, 0.31982421875, 0.510986328125, -0.568115234375
572, 3729883380, -12.70567798614502, -1.50955069065094, 9.361844062805176, -16.907367706298828, -145.5044403076172, -23.16048812866211, 0.298095703125, 0.52783203125, -0.57763671875
573, 3729900047, -12.5629301071167, -2.1545069217681885, 6.4664411544799805, 4.323814392089844, -148.234375, -26.933124542236328, 0.271728515625, 0.537353515625, -0.59423828125
574, 3729916714, -12.074812889099121, -2.134941816329956, 3.901613712310791, 29.297393798828125, -148.46873474121094, -19.47591781616211, 0.244140625, 0.54052734375, -0.612548828125
575, 3729933381, -13.120101928710938, 0.8725991249084473, 1.7394334077835083, 20.654638290405273, -130.06039428710938, -21.415325164794922, 0.22021484375, 0.5458984375, -0.62841796875
576, 3729950048, -14.18409538269043, 4.330187797546387, -2.059142827987671, -3.5990524291992188, -101.94584655761719, -15.527514457702637, 0.19970703125, 0.55029296875, -0.640380859375
577, 3729966715, -11.060518264770508, 6.010818004608154, -4.1959004402160645, -8.969021797180176, -53.140743255615234, 11.603028297424316, 0.18701171875, 0.556884765625, -0.642822265625
578, 3729983382, -9.62203311920166, 4.894064426422119, -2.5505387783050537, 23.995189666748047, 3.722153425216675, 76.34652709960938, 0.19775390625, 0.5498046875, -0.64697265625
579, 3730000049, -12.0527982711792, 4.6442036628723145, 1.117260456085205, 36.85344696044922, 31.78424835205078, 133.0613250732422, 0.223876953125, 0.534423828125, -0.6494140625
580, 3730016716, -14.274027824401855, 2.525686740875244, 2.82767653465271, 1.012812614440918, 30.93187141418457, 146.3672637939453, 0.25146484375, 0.51513671875, -0.647216796875
581, 3730033383, -14.931559562683105, -3.0876219272613525, 2.7151191234588623, -22.479267120361328, 21.365345001220703, 132.83938598632812, 0.276611328125, 0.502197265625, -0.6376953125
582, 3730050050, -2.621699810028076, -6.720044136047363, 5.690504550933838, 1.0177116394042969, 35.59075164794922, 110.94422912597656, 0.29736328125, 0.49072265625, -0.630126953125
583, 3730066717, 2.7168617248535156, -16.504423141479492, 11.67838191986084, 43.536827087402344, 83.98808288574219, 84.22470092773438, 0.325439453125, 0.471435546875, -0.625732421875
584, 3730083384, 1.8683775663375854, -16.104429244995117, 2.255812168121338, 35.427547454833984, 112.21209716796875, 61.038333892822266, 0.352783203125, 0.451171875, -0.61962890625
585, 3730100051, -5.476269245147705, -1.141748309135437, 6.425741672515869, 39.21187973022461, 170.68695068359375, 1.2908210754394531, 0.38525390625, 0.436767578125, -0.605224609375
586, 3730116718, -16.414182662963867, 5.887583255767822, 15.982134819030762, 35.212158203125, 138.96739196777344, 1.1146366596221924, 0.4130859375, 0.42236328125, -0.590576171875
587, 3730133385, -11.736014366149902, 5.127856254577637, 11.969688415527344, 11.724503517150879, 68.06249237060547, 55.02909469604492, 0.431640625, 0.409912109375, -0.58251953125
588, 3730150052, -14.723898887634277, -14.095999717712402, 9.233948707580566, 44.14167404174805, 27.18133544921875, 36.84483337402344, 0.44580078125, 0.39599609375, -0.581298828125
589, 3730166719, -5.470218658447266, 3.6606061458587646, 10.556730270385742, 38.8690071105957, 13.965822219848633, 26.93459129333496, 0.451904296875, 0.383056640625, -0.58154296875
590, 3730183386, -6.566524028778076, -3.516470432281494, 7.8060832023620605, 16.826448440551758, 3.7818164825439453, 11.6226167678833, 0.45556640625, 0.3779296875, -0.583984375
591, 3730200053, -5.883368492126465, -0.21128436923027039, 9.07968807220459, 3.9995203018188477, 6.894702911376953, 2.2528486251831055, 0.45703125, 0.37353515625, -0.581787109375
592, 3730216720, -5.75400972366333, -1.5905332565307617, 8.526968002319336, -5.657181739807129, 7.967685699462891, -5.006426811218262, 0.45751953125, 0.37353515625, -0.581298828125
593, 3730233387, -5.521921634674072, -2.0778586864471436, 8.066314697265625, -10.275157928466797, 8.406344413757324, -7.606875896453857, 0.458984375, 0.3759765625, -0.578857421875
594, 3730250054, -5.390291213989258, -2.2046751976013184, 7.983908176422119, -11.96115493774414, 8.598710060119629, -8.507343292236328, 0.45703125, 0.3798828125, -0.578369140625
595, 3730266721, -5.4034247398376465, -2.3271749019622803, 7.9466233253479, -13.44449234008789, 9.34486198425293, -9.08407974243164, 0.458984375, 0.384033203125, -0.57275390625
596, 3730283388, -5.2163777351379395, -2.70634126663208, 7.687063694000244, -12.46831226348877, 9.044013023376465, -7.672957897186279, 0.4619140625, 0.387939453125, -0.56884765625
597, 3730300055, -5.24579381942749, -2.814502000808716, 7.454358100891113, -9.768728256225586, 7.394627571105957, -5.182720184326172, 0.46044921875, 0.390625, -0.565185546875
598, 3730316722, -5.081512928009033, -2.8659660816192627, 7.298415660858154, -4.252464771270752, 5.416722297668457, -1.5365190505981445, 0.46142578125, 0.39013671875, -0.56884765625
599, 3730333389, -5.277198314666748, -2.358412265777588, 7.553213119506836, -0.5185291767120361, 4.9960713386535645, 0.5087130665779114, 0.46435546875, 0.39013671875, -0.564208984375
600, 3730350056, -5.286337852478027, -2.2318742275238037, 7.626716613769531, 0.907630980014801, 4.932692527770996, 0.6276968717575073, 0.4619140625, 0.389404296875, -0.563720703125
601, 3730366723, -5.311020374298096, -2.374199151992798, 7.561071395874023, 1.9238916635513306, 4.419234275817871, 0.5855511426925659, 0.46533203125, 0.38916015625, -0.563720703125
602, 3730383390, -5.298115253448486, -2.6190929412841797, 7.45217227935791, 4.014666557312012, 2.5035674571990967, 1.4927016496658325, 0.4658203125, 0.387451171875, -0.562744140625
603, 3730400057, -5.2762370109558105, -2.7653589248657227, 7.501239776611328, 6.276987552642822, 0.10090763866901398, 3.4277286529541016, 0.46484375, 0.386962890625, -0.561767578125
604, 3730416724, -5.3174729347229, -2.5233254432678223, 7.726925373077393, 6.498231410980225, -1.0413997173309326, 4.536849021911621, 0.466796875, 0.385009765625, -0.5615234375
605, 3730433391, -5.439799785614014, -2.144336223602295, 7.844151973724365, 6.037778377532959, -1.1366534233093262, 4.492155075073242, 0.467041015625, 0.384033203125, -0.565185546875
606, 3730450058, -5.370178699493408, -2.18157958984375, 7.910553455352783, 4.626492977142334, -0.6815155148506165, 3.5847086906433105, 0.468505859375, 0.382568359375, -0.566650390625
607, 3730466725, -5.441278457641602, -2.1148037910461426, 7.856679439544678, 2.957850694656372, 0.5367590188980103, 2.644710063934326, 0.467041015625, 0.380615234375, -0.567626953125
608, 3730483392, -5.296436786651611, -2.2703027725219727, 7.76561975479126, 1.6913408041000366, 1.449454665184021, 2.281841516494751, 0.468994140625, 0.37890625, -0.56494140625
609, 3730500059, -5.217508792877197, -2.366852283477783, 7.801499366760254, -0.4626806080341339, 1.986207127571106, 2.9848718643188477, 0.468505859375, 0.37744140625, -0.565673828125
610, 3730516726, -5.314847946166992, -2.3526108264923096, 7.876021862030029, -3.325874090194702, 5.044877052307129, 3.3943047523498535, 0.470458984375, 0.3759765625, -0.56494140625
611, 3730533393, -5.348802089691162, -2.3240418434143066, 7.810639381408691, -6.696803092956543, 8.378437995910645, 4.553806781768799, 0.471923828125, 0.375, -0.5634765625
612, 3730550060, -5.275595664978027, -2.302117347717285, 7.786584854125977, -8.086447715759277, 11.283561706542969, 6.046426296234131, 0.474609375, 0.3759765625, -0.560302734375
613, 3730566727, -5.0893940925598145, -2.570059061050415, 7.778393745422363, -10.851682662963867, 17.03008460998535, 8.326042175292969, 0.47998046875, 0.377197265625, -0.556884765625
614, 3730583394, -4.925804615020752, -2.3791935443878174, 8.08767318725586, -17.260671615600586, 25.83951759338379, 13.070666313171387, 0.485107421875, 0.375732421875, -0.55322265625
615, 3730600061, -4.846480369567871, -2.54662823677063, 8.375746726989746, -28.832881927490234, 34.68772506713867, 22.18808937072754, 0.494873046875, 0.378173828125, -0.54345703125
616, 3730616728, -4.644452095031738, -1.8555489778518677, 8.956616401672363, -15.380167007446289, 64.46407318115234, 17.04108238220215, 0.50439453125, 0.375244140625, -0.5322265625
617, 3730633395, -4.937192916870117, -2.064720392227173, 9.01955795288086, -24.86556053161621, 95.92622375488281, 13.825551986694336, 0.517822265625, 0.376708984375, -0.519287109375
618, 3730650062, -4.838044166564941, -1.8781589269638062, 9.065547943115234, -32.203216552734375, 133.8712158203125, 14.59529972076416, 0.537841796875, 0.37890625, -0.492431640625
619, 3730666729, -4.874377250671387, -2.272897958755493, 9.30207633972168, -46.030670166015625, 182.45974731445312, 19.451244354248047, 0.565673828125, 0.383544921875, -0.458740234375
620, 3730683396, -4.277410507202148, -3.686985492706299, 10.412396430969238, -55.451473236083984, 245.17843627929688, 34.591888427734375, 0.597412109375, 0.38525390625, -0.411376953125
621, 3730700063, -4.221118927001953, -4.38308048248291, 10.22512149810791, -53.3525276184082, 322.019287109375, 63.49138259887695, 0.636474609375, 0.3798828125, -0.343994140625
622, 3730716730, -7.060978889465332, -7.6205010414123535, 11.182525634765625, -44.2947883605957, 399.32977294921875, 121.01914978027344, 0.684814453125, 0.36474609375, -0.262451171875
623, 3730733397, -11.007108688354492, -5.044340133666992, 12.744078636169434, -40.012977600097656, 435.6269836425781, 169.36444091796875, 0.732666015625, 0.334228515625, -0.16552734375
624, 3730750064, -21.23046112060547, -7.645107746124268, 15.914207458496094, -67.58812713623047, 410.5014953613281, 154.0741729736328, 0.771484375, 0.3056640625, -0.0634765625
625, 3730766731, -21.47800064086914, -6.434731960296631, 17.460548400878906, -68.56121063232422, 307.5395812988281, 142.16848754882812, 0.796142578125, 0.278564453125, 0.0205078125
626, 3730783398, -7.322589874267578, -7.4360127449035645, 14.531587600708008, -55.5312385559082, 234.8257293701172, 152.3167724609375, 0.817138671875, 0.25341796875, 0.085693359375
627, 3730800065, -3.6430904865264893, -13.887989044189453, 16.887062072753906, -30.55323600769043, 207.67543029785156, 134.65762329101562, 0.829345703125, 0.227294921875, 0.143310546875
628, 3730816732, -10.117236137390137, -15.241621017456055, 24.821571350097656, 10.429437637329102, 48.25794219970703, 47.118324279785156, 0.842041015625, 0.2177734375, 0.163330078125
629, 3730833399, 0.6092608571052551, -10.048471450805664, 17.133752822875977, 51.77376174926758, -85.31555938720703, -20.195863723754883, 0.856201171875, 0.2314453125, 0.137451171875
630, 3730850066, 5.425199031829834, -4.791715621948242, 11.17636489868164, 65.43827819824219, -125.79959869384766, -41.45539474487305, 0.86376953125, 0.254150390625, 0.091796875
631, 3730866733, 3.9454903602600098, -1.97369384765625, 9.197176933288574, 49.094974517822266, -134.85052490234375, -48.51405715942383, 0.86767578125, 0.275634765625, 0.04541015625
632, 3730883400, 1.0800541639328003, -0.8297814130783081, 8.969344139099121, 17.32676124572754, -150.7062225341797, -59.49546813964844, 0.8623046875, 0.297119140625, -9.765625E-4
633, 3730900067, -1.492898941040039, -1.3659297227859497, 8.601873397827148, -6.212016582489014, -175.3079071044922, -66.58639526367188, 0.84814453125, 0.31787109375, -0.048583984375
634, 3730916734, -3.7619009017944336, -2.215920925140381, 8.212499618530273, -9.393952369689941, -201.94967651367188, -67.67535400390625, 0.828369140625, 0.3349609375, -0.101806640625
635, 3730933401, -5.783453941345215, -2.4418997764587402, 7.819161891937256, -1.5024865865707397, -228.2538604736328, -69.67247772216797, 0.8095703125, 0.3564453125, -0.154541015625
636, 3730950068, -6.746440887451172, -2.4555931091308594, 7.535025596618652, 5.075364112854004, -248.6055908203125, -73.82101440429688, 0.785400390625, 0.376953125, -0.21533203125
637, 3730966735, -7.832728385925293, -2.5633013248443604, 7.837730407714844, 3.6714658737182617, -259.5126953125, -80.24288940429688, 0.754638671875, 0.400634765625, -0.281005859375
638, 3730983402, -9.686590194702148, -2.9969828128814697, 8.534343719482422, -7.598628997802734, -268.45703125, -92.02278137207031, 0.705810546875, 0.430419921875, -0.34228515625
639, 3731000069, -10.822715759277344, -3.54720401763916, 8.377198219299316, -21.787731170654297, -277.9327087402344, -106.09355163574219, 0.640869140625, 0.45361328125, -0.39111328125
640, 3731016736, -11.351472854614258, -3.4728848934173584, 8.709633827209473, -34.0599250793457, -269.9305114746094, -113.26260375976562, 0.57763671875, 0.474609375, -0.410888671875
641, 3731033403, -14.196118354797363, -3.637938976287842, 10.07341480255127, -50.6281852722168, -249.77963256835938, -113.1148910522461, 0.53662109375, 0.489501953125, -0.411376953125
642, 3731050070, -18.952899932861328, -3.6963651180267334, 10.68934154510498, -74.62557220458984, -242.1949920654297, -119.24981689453125, 0.527099609375, 0.51611328125, -0.42626953125
643, 3731066737, -22.689260482788086, -4.456095218658447, 8.768570899963379, -80.93866729736328, -244.46534729003906, -125.39111328125, 0.506591796875, 0.560302734375, -0.462646484375
644, 3731083404, -26.534324645996094, -5.5853424072265625, 5.973176002502441, -55.631221771240234, -254.3238525390625, -122.43087005615234, 0.461669921875, 0.601318359375, -0.503662109375
645, 3731100071, -27.51657485961914, -3.4517288208007812, 2.2443594932556152, -18.668846130371094, -270.5472106933594, -113.57606506347656, 0.4013671875, 0.633056640625, -0.548095703125
646, 3731116738, -25.103004455566406, 1.1070775985717773, -2.6996347904205322, -12.667703628540039, -261.87884521484375, -101.52799224853516, 0.332275390625, 0.654052734375, -0.5849609375
647, 3731133405, -25.54902458190918, 4.5264177322387695, -8.924505233764648, -22.911834716796875, -221.19754028320312, -75.38605499267578, 0.2734375, 0.671630859375, -0.609375
648, 3731150072, -28.23983383178711, 9.5823335647583, -15.355436325073242, -35.031314849853516, -158.4950408935547, -47.0064582824707, 0.2265625, 0.683349609375, -0.623291015625
649, 3731166739, -18.53675079345703, 8.701210021972656, -18.15843391418457, -24.843080520629883, -30.855424880981445, -3.896782636642456, 0.203369140625, 0.692626953125, -0.622314453125
650, 3731183406, -12.114941596984863, 5.479915618896484, -15.023294448852539, 68.7000961303711, 149.6226806640625, 113.5741195678711, 0.241943359375, 0.680419921875, -0.62353515625
651, 3731200073, -9.815069198608398, -9.316458702087402, 13.626643180847168, 72.54497528076172, 192.86602783203125, 103.86729431152344, 0.299072265625, 0.659912109375, -0.6201171875
652, 3731216740, -4.3870954513549805, -11.389572143554688, 8.476533889770508, 77.5702896118164, 137.18931579589844, 60.312156677246094, 0.337890625, 0.63916015625, -0.621337890625
653, 3731233407, -3.5548832416534424, 1.779663324356079, 6.402144432067871, 59.9393310546875, 197.64552307128906, 45.37187194824219, 0.377685546875, 0.620849609375, -0.617431640625
654, 3731250074, -15.64713191986084, 4.168989658355713, 16.369630813598633, 31.485652923583984, 202.27569580078125, 25.26708221435547, 0.419677734375, 0.611572265625, -0.59375
655, 3731266741, -14.786309242248535, 4.538576602935791, 13.133956909179688, 7.918423652648926, 127.05586242675781, 68.7052001953125, 0.4541015625, 0.601318359375, -0.578125
