sep=,
DeviceTag:,B,,,,,,,,,,,,,,,,,
FirmwareVersion:,2.2.1,,,,,,,,,,,,,,,,,
AppVersion:,2022.0.1,,,,,,,,,,,,,,,,,
SyncStatus:,Synced,,,,,,,,,,,,,,,,,
OutputRate:,60Hz,,,,,,,,,,,,,,,,,
FilterProfile:,General,,,,,,,,,,,,,,,,,
Measurement Mode:,Inertial Mode - Rate quantities (with mag),,,,,,,,,,,,,,,,,
StartTime:,2022-08-05 16:47:22.490 +0300,,,,,,,,,,,,,,,,,
© Xsens Technologies B. V. 2005-2022,,,,,,,,,,,,,,,,,,,

PacketCounter,SampleTimeFine,Acc_X,Acc_Y,Acc_Z,Gyr_X,Gyr_Y,Gyr_Z,Mag_X,Mag_Y,Mag_Z
1, 3489528573, -5.36244010925293, -2.1667771339416504, 7.774376392364502, 0.19768522679805756, -0.8464996814727783, -0.8108212947845459, 0.034423828125, 0.210693359375, -0.79345703125
2, 3489545240, -5.363481044769287, -2.1566169261932373, 7.757270812988281, 0.13976210355758667, -0.8113975524902344, -0.8080039024353027, 0.036865234375, 0.211181640625, -0.79443359375
3, 3489561907, -5.359375476837158, -2.1666929721832275, 7.77551794052124, 0.19708330929279327, -0.7603641748428345, -0.6742286682128906, 0.034912109375, 0.209228515625, -0.7919921875
4, 3489578574, -5.350038051605225, -2.1537392139434814, 7.79393196105957, 0.19584108889102936, -0.672832727432251, -0.7212919592857361, 0.037353515625, 0.208740234375, -0.79296875
5, 3489595241, -5.3517255783081055, -2.1541483402252197, 7.801623821258545, 0.1145976185798645, -0.6491538882255554, -0.7918166518211365, 0.033935546875, 0.211181640625, -0.79296875
6, 3489611908, -5.342165470123291, -2.1627721786499023, 7.782954216003418, 0.0842977911233902, -0.6647647023200989, -0.7598775029182434, 0.035400390625, 0.212158203125, -0.79296875
7, 3489628575, -5.358022212982178, -2.132938861846924, 7.799135684967041, 0.0647168830037117, -0.7511308193206787, -0.779061496257782, 0.035888671875, 0.211669921875, -0.79296875
8, 3489645242, -5.349850177764893, -2.135206460952759, 7.7921953201293945, 0.11181863397359848, -0.829467236995697, -0.8237555623054504, 0.036376953125, 0.210693359375, -0.79296875
9, 3489661909, -5.345512866973877, -2.1459460258483887, 7.804534435272217, 0.019062252715229988, -0.8307478427886963, -0.902886152267456, 0.034423828125, 0.211669921875, -0.79541015625
10, 3489678576, -5.350597381591797, -2.149110794067383, 7.780001640319824, -0.01904304139316082, -0.8008450269699097, -0.9245031476020813, 0.035400390625, 0.210205078125, -0.7919921875
11, 3489695243, -5.362115859985352, -2.145881414413452, 7.78550910949707, -0.008452191948890686, -0.9109669923782349, -0.8870446681976318, 0.034423828125, 0.209228515625, -0.7939453125
12, 3489711910, -5.353135108947754, -2.13883900642395, 7.791852951049805, -0.07870781421661377, -1.0035310983657837, -0.9171522855758667, 0.033935546875, 0.212158203125, -0.794921875
13, 3489728577, -5.334339141845703, -2.163863182067871, 7.799307823181152, -0.028506934642791748, -0.9030654430389404, -0.9621923565864563, 0.036865234375, 0.213623046875, -0.791259765625
14, 3489745244, -5.3428449630737305, -2.134996175765991, 7.786476135253906, -0.07942497730255127, -0.8215786218643188, -0.9270772933959961, 0.037841796875, 0.211181640625, -0.792724609375
15, 3489761911, -5.353683948516846, -2.145681858062744, 7.789553165435791, -0.19683358073234558, -0.6522529721260071, -0.9461202621459961, 0.034423828125, 0.210205078125, -0.79150390625
16, 3489778578, -5.3434929847717285, -2.14778733253479, 7.785801410675049, -0.2028653919696808, -0.660820484161377, -1.0045044422149658, 0.034912109375, 0.208251953125, -0.7919921875
17, 3489795245, -5.34429931640625, -2.146448850631714, 7.78342342376709, -0.12824277579784393, -0.724263072013855, -1.0021096467971802, 0.035400390625, 0.210693359375, -0.790771484375
18, 3489811912, -5.362022399902344, -2.1597273349761963, 7.780981540679932, -0.13859033584594727, -0.80893874168396, -0.9341464042663574, 0.033935546875, 0.208740234375, -0.79296875
19, 3489828579, -5.361566543579102, -2.1440672874450684, 7.787362575531006, -0.1925818771123886, -0.7374663949012756, -0.9839118123054504, 0.035400390625, 0.209228515625, -0.79248046875
20, 3489845246, -5.349767684936523, -2.1324660778045654, 7.807750225067139, -0.12404229491949081, -0.7273494005203247, -1.045804738998413, 0.033935546875, 0.211669921875, -0.794921875
21, 3489861913, -5.35225248336792, -2.1386892795562744, 7.7756547927856445, -0.27353084087371826, -0.6695031523704529, -0.9913139343261719, 0.036376953125, 0.210205078125, -0.79248046875
22, 3489878580, -5.3462324142456055, -2.148888349533081, 7.787688255310059, -0.2647969126701355, -0.5949189066886902, -0.9252074956893921, 0.036865234375, 0.210205078125, -0.792236328125
23, 3489895247, -5.34417724609375, -2.1497180461883545, 7.784408092498779, -0.26716604828834534, -0.576785147190094, -0.9640235900878906, 0.033447265625, 0.209716796875, -0.79345703125
24, 3489911914, -5.354869365692139, -2.138654947280884, 7.803127288818359, -0.20167367160320282, -0.5444306135177612, -0.9878769516944885, 0.032470703125, 0.211181640625, -0.7939453125
25, 3489928581, -5.3445210456848145, -2.170952796936035, 7.784440040588379, -0.20202016830444336, -0.6100048422813416, -0.9347867369651794, 0.035400390625, 0.213134765625, -0.79443359375
26, 3489945248, -5.364591598510742, -2.1604528427124023, 7.800586223602295, -0.08755700290203094, -0.5936254858970642, -0.8960474133491516, 0.035888671875, 0.210693359375, -0.79248046875
27, 3489961915, -5.342875957489014, -2.1469943523406982, 7.7877655029296875, -0.15001358091831207, -0.6806318163871765, -0.8473448753356934, 0.035400390625, 0.209228515625, -0.79296875
28, 3489978582, -5.355466365814209, -2.1376922130584717, 7.797939300537109, -0.1151546984910965, -0.624258279800415, -0.8803468942642212, 0.034912109375, 0.210205078125, -0.791015625
29, 3489995249, -5.347982883453369, -2.154244899749756, 7.795169353485107, -0.15088440477848053, -0.6541739106178284, -0.9113767147064209, 0.035400390625, 0.209716796875, -0.79296875
30, 3490011916, -5.329509258270264, -2.1559085845947266, 7.80405330657959, -0.06791207194328308, -0.5641069412231445, -0.8981348872184753, 0.034912109375, 0.209716796875, -0.79345703125
31, 3490028583, -5.342588424682617, -2.1522035598754883, 7.77858304977417, -0.14939884841442108, -0.4997933804988861, -0.9876128435134888, 0.033447265625, 0.210205078125, -0.79345703125
32, 3490045250, -5.35920524597168, -2.147749423980713, 7.800333023071289, -0.1969744712114334, -0.5556802749633789, -0.8982885479927063, 0.036376953125, 0.211669921875, -0.79443359375
33, 3490061917, -5.3550543785095215, -2.1349287033081055, 7.788117408752441, -0.1301637440919876, -0.5417085886001587, -0.9601304531097412, 0.037353515625, 0.209228515625, -0.79443359375
34, 3490078584, -5.341722011566162, -2.1516292095184326, 7.777161121368408, -0.12368372082710266, -0.5248169898986816, -0.8679758906364441, 0.034423828125, 0.208251953125, -0.79443359375
35, 3490095251, -5.35603141784668, -2.141810655593872, 7.788309097290039, -0.12949779629707336, -0.6605131030082703, -0.8607659339904785, 0.034423828125, 0.209228515625, -0.794921875
36, 3490111918, -5.357763767242432, -2.1348276138305664, 7.796308517456055, -0.10452541708946228, -0.6703483462333679, -0.9121962189674377, 0.034423828125, 0.210205078125, -0.79443359375
37, 3490128585, -5.348509311676025, -2.1437878608703613, 7.794508457183838, -0.03922584652900696, -0.6927210688591003, -0.9447115659713745, 0.034912109375, 0.209716796875, -0.7958984375
38, 3490145252, -5.341602325439453, -2.1490743160247803, 7.767593860626221, -0.09408824145793915, -0.7174116969108582, -0.9137201905250549, 0.031982421875, 0.209716796875, -0.79150390625
39, 3490161919, -5.343480110168457, -2.1513118743896484, 7.785675048828125, -0.09784051030874252, -0.6542892456054688, -0.9278839826583862, 0.036865234375, 0.209228515625, -0.7958984375
40, 3490178586, -5.3321685791015625, -2.159759759902954, 7.798179626464844, -0.09408824890851974, -0.6002976298332214, -0.8875441551208496, 0.033447265625, 0.210693359375, -0.7919921875
41, 3490195253, -5.327868938446045, -2.1413278579711914, 7.770928382873535, -0.12822997570037842, -0.5223069787025452, -0.8514173030853271, 0.033935546875, 0.20751953125, -0.79296875
42, 3490211920, -5.351556301116943, -2.138700485229492, 7.780327796936035, -0.07708141207695007, -0.49189186096191406, -0.9267058968544006, 0.033935546875, 0.208740234375, -0.79296875
43, 3490228587, -5.352032661437988, -2.1410698890686035, 7.784691333770752, -0.16896696388721466, -0.439411461353302, -0.9141812324523926, 0.035400390625, 0.211181640625, -0.79296875
44, 3490245254, -5.334475040435791, -2.1452789306640625, 7.794248104095459, -0.25140145421028137, -0.386982262134552, -0.8636602163314819, 0.032958984375, 0.210205078125, -0.79443359375
45, 3490261921, -5.357734680175781, -2.13631534576416, 7.7814435958862305, -0.0231538787484169, -0.5071057677268982, -0.8182744383811951, 0.035400390625, 0.210205078125, -0.7939453125
46, 3490278588, -5.342584133148193, -2.122218608856201, 7.778488636016846, 0.04368885979056358, -0.6294448971748352, -0.843144416809082, 0.036376953125, 0.208740234375, -0.79443359375
47, 3490295255, -5.35359525680542, -2.122774839401245, 7.786861419677734, 0.01208279188722372, -0.7053865790367126, -0.9588242173194885, 0.034912109375, 0.20751953125, -0.7919921875
48, 3490311922, -5.337594032287598, -2.172081470489502, 7.800891876220703, -0.018979007378220558, -0.6285740733146667, -0.7793559432029724, 0.033935546875, 0.210693359375, -0.79248046875
49, 3490328589, -5.350846767425537, -2.120306968688965, 7.788097381591797, -0.07838766276836395, -0.5608028173446655, -0.7647439241409302, 0.035400390625, 0.211181640625, -0.79443359375
50, 3490345256, -5.340605735778809, -2.1370749473571777, 7.794756889343262, -0.04902270436286926, -0.4982438385486603, -0.9481693506240845, 0.035888671875, 0.209716796875, -0.79443359375
51, 3490361923, -5.34619665145874, -2.1454129219055176, 7.798133373260498, 0.032880302518606186, -0.6134113669395447, -0.8568729162216187, 0.034423828125, 0.210205078125, -0.79248046875
52, 3490378590, -5.339935302734375, -2.1350064277648926, 7.776418685913086, -0.010603656992316246, -0.5862618684768677, -0.862571656703949, 0.036376953125, 0.209228515625, -0.7939453125
53, 3490395257, -5.350069522857666, -2.1335012912750244, 7.797205924987793, -0.11069808155298233, -0.7111493945121765, -0.9084568023681641, 0.035888671875, 0.209228515625, -0.79345703125
54, 3490411924, -5.348042964935303, -2.1303608417510986, 7.780147552490234, -0.11314409971237183, -0.6651361584663391, -0.9230431914329529, 0.034423828125, 0.210205078125, -0.79296875
55, 3490428591, -5.344890594482422, -2.1311614513397217, 7.800276756286621, -0.14308534562587738, -0.6133601069450378, -0.9157052040100098, 0.036376953125, 0.210693359375, -0.79296875
56, 3490445258, -5.34459114074707, -2.1285736560821533, 7.811641693115234, -0.14049847424030304, -0.5149561166763306, -0.957351565361023, 0.032958984375, 0.209228515625, -0.79638671875
57, 3490461925, -5.349321365356445, -2.13927960395813, 7.778328895568848, -0.17658674716949463, -0.4615536034107208, -0.8502007126808167, 0.035888671875, 0.209716796875, -0.7958984375
58, 3490478592, -5.356429100036621, -2.1122493743896484, 7.786238193511963, -0.2914387583732605, -0.42564454674720764, -0.9249940514564514, 0.036865234375, 0.20654296875, -0.792236328125
59, 3490495259, -5.329680919647217, -2.139676570892334, 7.80791711807251, -0.2240726798772812, -0.4305110573768616, -0.8724709749221802, 0.033935546875, 0.208740234375, -0.7939453125
60, 3490511926, -5.345651626586914, -2.1281285285949707, 7.803494930267334, -0.31388360261917114, -0.2298995852470398, -0.9082390666007996, 0.033447265625, 0.210205078125, -0.79296875
61, 3490528593, -5.343573570251465, -2.1362178325653076, 7.799887657165527, -0.21823298931121826, -0.25391149520874023, -0.9021304249763489, 0.033935546875, 0.210693359375, -0.794921875
62, 3490545260, -5.36283540725708, -2.1240060329437256, 7.7853851318359375, -0.25160637497901917, -0.331620454788208, -0.8678735494613647, 0.035888671875, 0.210205078125, -0.79443359375
63, 3490561927, -5.349697113037109, -2.1259138584136963, 7.793278694152832, -0.22138336300849915, -0.3690277636051178, -0.8438487648963928, 0.035400390625, 0.209228515625, -0.796875
64, 3490578594, -5.3488993644714355, -2.130183458328247, 7.786936283111572, -0.30096203088760376, -0.4507962763309479, -1.0222668647766113, 0.035400390625, 0.208740234375, -0.79296875
65, 3490595261, -5.339639663696289, -2.1394855976104736, 7.783325672149658, -0.2447037249803543, -0.5961867570877075, -0.9246952533721924, 0.032470703125, 0.208740234375, -0.79248046875
66, 3490611928, -5.3542890548706055, -2.1300041675567627, 7.799287796020508, -0.1917494833469391, -0.6159598231315613, -0.8717922568321228, 0.034912109375, 0.210693359375, -0.79296875
67, 3490628595, -5.330698490142822, -2.1290860176086426, 7.802688121795654, -0.19943328201770782, -0.6364628076553345, -0.9328272342681885, 0.033935546875, 0.209228515625, -0.79248046875
68, 3490645262, -5.3394904136657715, -2.156503915786743, 7.803062915802002, -0.19933082163333893, -0.5695239901542664, -0.938846230506897, 0.035888671875, 0.211181640625, -0.79541015625
69, 3490661929, -5.341278076171875, -2.1400246620178223, 7.807819843292236, -0.21279031038284302, -0.4150538146495819, -0.8717667460441589, 0.035888671875, 0.210693359375, -0.79541015625
70, 3490678596, -5.342315196990967, -2.134033441543579, 7.794313907623291, -0.27409425377845764, -0.33646121621131897, -0.8918213248252869, 0.033935546875, 0.208740234375, -0.7919921875
71, 3490695263, -5.340787410736084, -2.1370816230773926, 7.778825759887695, -0.25037696957588196, -0.45456141233444214, -0.8636859059333801, 0.034912109375, 0.210693359375, -0.7919921875
72, 3490711930, -5.356725692749023, -2.129178524017334, 7.808019638061523, -0.168390691280365, -0.4554450213909149, -0.8751603364944458, 0.034912109375, 0.209716796875, -0.79296875
73, 3490728597, -5.332817554473877, -2.1460819244384766, 7.787660598754883, -0.24291083216667175, -0.5449357628822327, -0.8834971785545349, 0.035400390625, 0.208740234375, -0.794921875
74, 3490745264, -5.343484878540039, -2.1515989303588867, 7.811923980712891, -0.24935241043567657, -0.40885552763938904, -0.9256301522254944, 0.037353515625, 0.208740234375, -0.796875
75, 3490761931, -5.353405952453613, -2.1311137676239014, 7.816046237945557, -0.2722629904747009, -0.39854639768600464, -0.8920774459838867, 0.039306640625, 0.210693359375, -0.79443359375
76, 3490778598, -5.356281280517578, -2.133423089981079, 7.807589054107666, -0.30012959241867065, -0.37304896116256714, -0.9865498542785645, 0.035400390625, 0.210205078125, -0.79443359375
77, 3490795265, -5.361021041870117, -2.135065793991089, 7.7876458168029785, -0.22703097760677338, -0.3219004273414612, -0.9424834251403809, 0.035400390625, 0.208251953125, -0.7939453125
78, 3490811932, -5.361935615539551, -2.141371726989746, 7.7660369873046875, -0.3569001853466034, -0.48162123560905457, -1.036699652671814, 0.034423828125, 0.209228515625, -0.794921875
79, 3490828599, -5.3474812507629395, -2.141054391860962, 7.794863224029541, -0.22084550559520721, -0.5495973229408264, -0.9706572890281677, 0.034912109375, 0.210205078125, -0.79296875
80, 3490845266, -5.34849214553833, -2.13549542427063, 7.803695201873779, -0.27073901891708374, -0.5186315178871155, -0.9130414724349976, 0.034423828125, 0.210205078125, -0.79443359375
81, 3490861933, -5.348954677581787, -2.1332345008850098, 7.765124797821045, -0.2985288202762604, -0.5930748581886292, -0.959490180015564, 0.037353515625, 0.211181640625, -0.792236328125
82, 3490878600, -5.354457378387451, -2.1342790126800537, 7.806883335113525, -0.30207619071006775, -0.5495973229408264, -1.023918867111206, 0.035888671875, 0.209716796875, -0.79296875
83, 3490895267, -5.349521160125732, -2.147214651107788, 7.794689178466797, -0.23517578840255737, -0.585391104221344, -1.0703803300857544, 0.034912109375, 0.209228515625, -0.79296875
84, 3490911934, -5.35046911239624, -2.1467058658599854, 7.795486927032471, -0.24177105724811554, -0.5669499039649963, -0.9851667284965515, 0.033935546875, 0.209228515625, -0.79638671875
85, 3490928601, -5.344966411590576, -2.1327221393585205, 7.792766094207764, -0.24732902646064758, -0.5074003338813782, -0.9478875994682312, 0.035400390625, 0.211181640625, -0.794921875
86, 3490945268, -5.354740619659424, -2.131988763809204, 7.805258750915527, -0.3035617470741272, -0.5028926134109497, -1.0756566524505615, 0.032958984375, 0.209228515625, -0.79296875
87, 3490961935, -5.332891941070557, -2.1492807865142822, 7.802125930786133, -0.24548490345478058, -0.54105544090271, -0.9719122648239136, 0.035400390625, 0.210205078125, -0.7939453125
88, 3490978602, -5.348329544067383, -2.1390280723571777, 7.818824768066406, -0.1781875491142273, -0.5295681953430176, -0.9449165463447571, 0.036376953125, 0.212158203125, -0.790283203125
89, 3490995269, -5.340010166168213, -2.1459426879882812, 7.812406539916992, -0.2759256064891815, -0.3970864415168762, -0.9753187894821167, 0.034912109375, 0.209228515625, -0.790771484375
90, 3491011936, -5.364338397979736, -2.1247262954711914, 7.774880409240723, -0.25718992948532104, -0.43944987654685974, -0.9550718665122986, 0.033447265625, 0.209228515625, -0.79296875
91, 3491028603, -5.352889537811279, -2.1238350868225098, 7.79597806930542, -0.31629735231399536, -0.38349634408950806, -1.051720380783081, 0.034423828125, 0.211181640625, -0.79541015625
92, 3491045270, -5.34680700302124, -2.1490530967712402, 7.785369396209717, -0.21272629499435425, -0.502534031867981, -0.9938368201255798, 0.035400390625, 0.209716796875, -0.79443359375
93, 3491061937, -5.348270416259766, -2.140822410583496, 7.7888336181640625, -0.23713518679141998, -0.49779561161994934, -0.9753956198692322, 0.036865234375, 0.209228515625, -0.791748046875
94, 3491078604, -5.346000671386719, -2.115083694458008, 7.795708656311035, -0.20168720185756683, -0.5367780923843384, -1.0240981578826904, 0.033935546875, 0.209228515625, -0.7919921875
95, 3491095271, -5.349100112915039, -2.14312744140625, 7.804813861846924, -0.2283628135919571, -0.5014454126358032, -0.9060108661651611, 0.035400390625, 0.207763671875, -0.79248046875
96, 3491111938, -5.344216823577881, -2.1488747596740723, 7.776717662811279, -0.21567171812057495, -0.6053432822227478, -0.9299586415290833, 0.035888671875, 0.20703125, -0.79296875
97, 3491128605, -5.349534034729004, -2.1342976093292236, 7.753916263580322, -0.21697799861431122, -0.6268067955970764, -0.9054346680641174, 0.034423828125, 0.210205078125, -0.79443359375
98, 3491145272, -5.346489906311035, -2.136383533477783, 7.781611919403076, -0.1932990401983261, -0.6749585866928101, -0.8304405212402344, 0.034912109375, 0.210205078125, -0.79443359375
99, 3491161939, -5.346593379974365, -2.129504442214966, 7.776971340179443, -0.08744176477193832, -0.7167714238166809, -0.9422016739845276, 0.034912109375, 0.210693359375, -0.794921875
100, 3491178606, -5.343419075012207, -2.1408307552337646, 7.76486349105835, -0.19857525825500488, -0.6774559020996094, -0.8424272537231445, 0.035400390625, 0.207763671875, -0.79248046875
101, 3491195273, -5.335689544677734, -2.138542413711548, 7.790038585662842, -0.15814560651779175, -0.6499862670898438, -0.7584304809570312, 0.035888671875, 0.207275390625, -0.7939453125
102, 3491211940, -5.346724510192871, -2.1428823471069336, 7.799431800842285, -0.11051879078149796, -0.5745952725410461, -0.8535047769546509, 0.036376953125, 0.207275390625, -0.792236328125
103, 3491228607, -5.333540439605713, -2.1361842155456543, 7.807089805603027, -0.17731669545173645, -0.45353683829307556, -0.8533126711845398, 0.035400390625, 0.209716796875, -0.79345703125
104, 3491245274, -5.336697101593018, -2.1441457271575928, 7.777675628662109, -0.1993180215358734, -0.43507009744644165, -0.80320143699646, 0.033447265625, 0.2080078125, -0.79345703125
105, 3491261941, -5.337789058685303, -2.127136707305908, 7.771451473236084, -0.3005777895450592, -0.4112502932548523, -0.8183512687683105, 0.036376953125, 0.209716796875, -0.79541015625
106, 3491278608, -5.346735000610352, -2.147853136062622, 7.796367645263672, -0.23840300738811493, -0.3179304301738739, -0.8336676955223083, 0.035400390625, 0.208251953125, -0.790771484375
107, 3491295275, -5.357722282409668, -2.1365280151367188, 7.821444034576416, -0.23105217516422272, -0.44764596223831177, -0.8231537938117981, 0.036376953125, 0.207763671875, -0.790771484375
108, 3491311942, -5.351387023925781, -2.133312463760376, 7.7833333015441895, -0.10134945064783096, -0.49085453152656555, -0.8066591024398804, 0.033447265625, 0.208740234375, -0.7919921875
109, 3491328609, -5.35557222366333, -2.1310856342315674, 7.804304122924805, -0.1559429168701172, -0.48842135071754456, -0.9190092086791992, 0.035400390625, 0.210693359375, -0.79345703125
110, 3491345276, -5.351049900054932, -2.12937593460083, 7.7893900871276855, -0.19810141623020172, -0.5473817586898804, -0.8814353942871094, 0.036865234375, 0.210693359375, -0.79345703125
111, 3491361943, -5.348130702972412, -2.132535934448242, 7.776116371154785, -0.14740107953548431, -0.5288254022598267, -0.8385853171348572, 0.036865234375, 0.210205078125, -0.792236328125
112, 3491378610, -5.351617813110352, -2.1272237300872803, 7.794755458831787, -0.09043843299150467, -0.5963660478591919, -0.8923079967498779, 0.035400390625, 0.208740234375, -0.79296875
113, 3491395277, -5.3363823890686035, -2.1336350440979004, 7.772130966186523, -0.06205955892801285, -0.6160750389099121, -0.8535944223403931, 0.034912109375, 0.20751953125, -0.7919921875
114, 3491411944, -5.353748798370361, -2.1238937377929688, 7.797213077545166, -0.05958795174956322, -0.5564870834350586, -0.8112438321113586, 0.033935546875, 0.208740234375, -0.7939453125
115, 3491428611, -5.342623233795166, -2.127171516418457, 7.789289951324463, -0.0700763389468193, -0.5507882833480835, -0.8242166638374329, 0.037841796875, 0.209228515625, -0.7939453125
116, 3491445278, -5.358920574188232, -2.127347469329834, 7.787759304046631, -0.11012179404497147, -0.5707533359527588, -0.923875629901886, 0.035400390625, 0.208251953125, -0.79638671875
117, 3491461945, -5.348161220550537, -2.1226541996002197, 7.770217418670654, -0.0377403125166893, -0.571137547492981, -0.8869677186012268, 0.038818359375, 0.208740234375, -0.7939453125
118, 3491478612, -5.348576545715332, -2.1381826400756836, 7.783320426940918, -0.0795658528804779, -0.6800556182861328, -0.8632760047912598, 0.036376953125, 0.2060546875, -0.79443359375
119, 3491495279, -5.336258888244629, -2.1326584815979004, 7.807346343994141, -0.11264464259147644, -0.6813874244689941, -0.8780929446220398, 0.034423828125, 0.210693359375, -0.79296875
120, 3491511946, -5.356499671936035, -2.118995189666748, 7.788811206817627, -0.11724213510751724, -0.6839358806610107, -0.9218522906303406, 0.035888671875, 0.208251953125, -0.79541015625
121, 3491528613, -5.335020065307617, -2.126044273376465, 7.814298152923584, -0.08222956210374832, -0.6099279522895813, -0.9033598899841309, 0.033447265625, 0.210205078125, -0.79443359375
122, 3491545280, -5.3392744064331055, -2.1294939517974854, 7.794185161590576, -0.05408121272921562, -0.5509675741195679, -0.8851492404937744, 0.037353515625, 0.208740234375, -0.796875
123, 3491561947, -5.340477466583252, -2.1257450580596924, 7.772932529449463, -0.11487294733524323, -0.5310024619102478, -0.9115302562713623, 0.036376953125, 0.210693359375, -0.79345703125
124, 3491578614, -5.335794925689697, -2.118425130844116, 7.789941787719727, -0.1540219634771347, -0.5398260354995728, -0.9720274806022644, 0.033935546875, 0.20751953125, -0.79345703125
125, 3491595281, -5.355467319488525, -2.117184638977051, 7.7802019119262695, -0.2319113165140152, -0.5523965954780579, -0.8982400894165039, 0.036376953125, 0.207763671875, -0.792236328125
126, 3491611948, -5.350793361663818, -2.1314313411712646, 7.797830104827881, -0.13131630420684814, -0.5551936626434326, -0.9803645014762878, 0.034912109375, 0.210205078125, -0.794921875
127, 3491628615, -5.343555927276611, -2.134495973587036, 7.799722194671631, -0.211125448346138, -0.5582543015480042, -0.9128237366676331, 0.034423828125, 0.212158203125, -0.79296875
128, 3491645282, -5.331034183502197, -2.1281015872955322, 7.78087043762207, -0.29403379559516907, -0.46228358149528503, -0.9431876540184021, 0.035400390625, 0.208251953125, -0.79443359375
129, 3491661949, -5.355525970458984, -2.138195037841797, 7.778379440307617, -0.2681777775287628, -0.4185371994972229, -0.9815042614936829, 0.036865234375, 0.207763671875, -0.7939453125
130, 3491678616, -5.359782695770264, -2.1308255195617676, 7.794834613800049, -0.17791861295700073, -0.329571396112442, -0.9646639227867126, 0.034912109375, 0.208740234375, -0.79296875
131, 3491695283, -5.361321449279785, -2.1271495819091797, 7.793426036834717, -0.31481847167015076, -0.3672732710838318, -0.9911346435546875, 0.035888671875, 0.207763671875, -0.79248046875
132, 3491711950, -5.360403537750244, -2.1381866931915283, 7.792011260986328, -0.3231426179409027, -0.4432661533355713, -1.0124956369400024, 0.033447265625, 0.209716796875, -0.79345703125
133, 3491728617, -5.354557991027832, -2.132533073425293, 7.801473617553711, -0.260711669921875, -0.4715554118156433, -1.0367635488510132, 0.035400390625, 0.210693359375, -0.79443359375
134, 3491745284, -5.35075569152832, -2.125192880630493, 7.788533687591553, -0.27588722109794617, -0.4182041585445404, -0.8671051263809204, 0.035888671875, 0.212646484375, -0.79443359375
135, 3491761951, -5.361388206481934, -2.1156888008117676, 7.778608798980713, -0.2627350389957428, -0.3928731679916382, -1.0309110879898071, 0.034423828125, 0.210205078125, -0.7958984375
136, 3491778618, -5.350557327270508, -2.116525888442993, 7.803426742553711, -0.2973122000694275, -0.36743974685668945, -0.9879457950592041, 0.035400390625, 0.209228515625, -0.7919921875
137, 3491795285, -5.350302219390869, -2.1231398582458496, 7.799849033355713, -0.3416222035884857, -0.41204431653022766, -1.0466117858886719, 0.036865234375, 0.208740234375, -0.79345703125
138, 3491811952, -5.353946208953857, -2.117769241333008, 7.787292003631592, -0.28695186972618103, -0.5031486749649048, -1.0020712614059448, 0.035888671875, 0.209228515625, -0.79296875
139, 3491828619, -5.347530364990234, -2.1382246017456055, 7.791277885437012, -0.27454251050949097, -0.6014374494552612, -1.0743118524551392, 0.036865234375, 0.210205078125, -0.79296875
140, 3491845286, -5.3318963050842285, -2.1399970054626465, 7.7995758056640625, -0.2449854612350464, -0.5011508464813232, -1.020358681678772, 0.033935546875, 0.208251953125, -0.796875
141, 3491861953, -5.343167304992676, -2.142435073852539, 7.786882400512695, -0.1697353720664978, -0.5427074432373047, -1.0071297883987427, 0.035400390625, 0.210205078125, -0.79296875
142, 3491878620, -5.349012851715088, -2.1235649585723877, 7.793933868408203, -0.30645596981048584, -0.5109733939170837, -1.0625172853469849, 0.035400390625, 0.207763671875, -0.79345703125
143, 3491895287, -5.340331554412842, -2.138768196105957, 7.811358451843262, -0.30105170607566833, -0.4845026731491089, -1.0025194883346558, 0.036376953125, 0.208251953125, -0.7939453125
144, 3491911954, -5.355646133422852, -2.129188060760498, 7.781044960021973, -0.2943667471408844, -0.436043381690979, -1.0384924411773682, 0.036376953125, 0.208740234375, -0.7958984375
145, 3491928621, -5.343177795410156, -2.1332943439483643, 7.794535160064697, -0.19438757002353668, -0.42988350987434387, -0.9655858874320984, 0.036865234375, 0.209716796875, -0.79638671875
146, 3491945288, -5.361480712890625, -2.143740177154541, 7.78274393081665, -0.29197198152542114, -0.5404919981956482, -0.9726676940917969, 0.033935546875, 0.210205078125, -0.7939453125
147, 3491961955, -5.348690509796143, -2.1405372619628906, 7.811158657073975, -0.27628418803215027, -0.4391937851905823, -1.029259204864502, 0.036376953125, 0.207275390625, -0.7958984375
148, 3491978622, -5.346441268920898, -2.1510934829711914, 7.799429416656494, -0.2718404233455658, -0.642737865447998, -1.0697911977767944, 0.036865234375, 0.210205078125, -0.79443359375
149, 3491995289, -5.33021354675293, -2.144648313522339, 7.7976460456848145, -0.2520546019077301, -0.6162543296813965, -0.9977171421051025, 0.035400390625, 0.211181640625, -0.79541015625
150, 3492011956, -5.346650123596191, -2.1328461170196533, 7.798035144805908, -0.2712384760379791, -0.5378026366233826, -0.9062796831130981, 0.033447265625, 0.209228515625, -0.79638671875
151, 3492028623, -5.340072154998779, -2.127697706222534, 7.791244029998779, -0.23527824878692627, -0.48805001378059387, -0.8946643471717834, 0.034423828125, 0.209716796875, -0.79345703125
152, 3492045290, -5.348292350769043, -2.1321423053741455, 7.7765374183654785, -0.2965310215950012, -0.5296705961227417, -1.0016999244689941, 0.036865234375, 0.209716796875, -0.79541015625
153, 3492061957, -5.351166248321533, -2.1315040588378906, 7.79019021987915, -0.204914391040802, -0.5729817152023315, -0.9603480696678162, 0.036865234375, 0.208251953125, -0.79296875
154, 3492078624, -5.337158679962158, -2.1402699947357178, 7.782495498657227, -0.22476424276828766, -0.6016039252281189, -0.9624483585357666, 0.034912109375, 0.209228515625, -0.79296875
155, 3492095291, -5.362332820892334, -2.143998861312866, 7.779515266418457, -0.10074755549430847, -0.6146151423454285, -0.9126572608947754, 0.035888671875, 0.210205078125, -0.79296875
156, 3492111958, -5.362282752990723, -2.135657548904419, 7.788677215576172, -0.1832972913980484, -0.5447052717208862, -0.923081636428833, 0.035888671875, 0.209716796875, -0.7919921875
157, 3492128625, -5.357566833496094, -2.129337787628174, 7.782286167144775, -0.1760488897562027, -0.709881603717804, -0.9624869227409363, 0.034912109375, 0.210205078125, -0.7939453125
158, 3492145292, -5.3637542724609375, -2.1353485584259033, 7.818837642669678, -0.14872905611991882, -0.6656115651130676, -0.8580513000488281, 0.034423828125, 0.210205078125, -0.7958984375
159, 3492161959, -5.347202301025391, -2.134754180908203, 7.77738094329834, -0.24461407959461212, -0.6797354817390442, -0.983963131904602, 0.033447265625, 0.209228515625, -0.79248046875
160, 3492178626, -5.353896617889404, -2.1345837116241455, 7.798595428466797, -0.22869578003883362, -0.6026796102523804, -0.86500483751297, 0.034912109375, 0.207763671875, -0.7919921875
161, 3492195293, -5.35383939743042, -2.135789394378662, 7.802070617675781, -0.21519789099693298, -0.49819260835647583, -0.9271156787872314, 0.033935546875, 0.20703125, -0.791015625
162, 3492211960, -5.3627519607543945, -2.124940872192383, 7.804690837860107, -0.20442774891853333, -0.558010995388031, -0.9303556680679321, 0.035400390625, 0.209228515625, -0.79296875
163, 3492228627, -5.343960762023926, -2.121270179748535, 7.786113739013672, -0.2635931372642517, -0.6074436902999878, -1.0230354070663452, 0.032958984375, 0.210693359375, -0.794921875
164, 3492245294, -5.350979804992676, -2.1357696056365967, 7.776674747467041, -0.20095723867416382, -0.59576416015625, -0.9816451668739319, 0.034912109375, 0.209228515625, -0.79248046875
165, 3492261961, -5.3509392738342285, -2.1304752826690674, 7.798551559448242, -0.17990359663963318, -0.6764954328536987, -0.8522369265556335, 0.036376953125, 0.208251953125, -0.79541015625
166, 3492278628, -5.352138042449951, -2.117387294769287, 7.804915904998779, -0.12308182567358017, -0.7343032360076904, -0.884035050868988, 0.033447265625, 0.2080078125, -0.79296875
167, 3492295295, -5.348224639892578, -2.1187312602996826, 7.7955732345581055, -0.08940111100673676, -0.7030685544013977, -0.9860759973526001, 0.036865234375, 0.208740234375, -0.7939453125
168, 3492311962, -5.332579612731934, -2.118173599243164, 7.7839884757995605, -0.0930253267288208, -0.7352381944656372, -0.942432165145874, 0.035400390625, 0.208251953125, -0.7939453125
169, 3492328629, -5.346513748168945, -2.1441118717193604, 7.816158294677734, -0.162679061293602, -0.6060221195220947, -1.0361874103546143, 0.034912109375, 0.209228515625, -0.79296875
170, 3492345296, -5.338191509246826, -2.1390137672424316, 7.810518264770508, -0.17123368382453918, -0.612015426158905, -0.9474777579307556, 0.033935546875, 0.209716796875, -0.7958984375
171, 3492361963, -5.344365119934082, -2.1227593421936035, 7.789346694946289, -0.20529858767986298, -0.6002463698387146, -0.9280760884284973, 0.033935546875, 0.207763671875, -0.79541015625
172, 3492378630, -5.340991973876953, -2.123697280883789, 7.783868789672852, -0.19212085008621216, -0.5739036798477173, -0.9448524117469788, 0.036376953125, 0.210205078125, -0.7939453125
173, 3492395297, -5.342196941375732, -2.141120433807373, 7.791862964630127, -0.14017829298973083, -0.48523253202438354, -0.9959754347801208, 0.034912109375, 0.207763671875, -0.79443359375
174, 3492411964, -5.346049785614014, -2.1342310905456543, 7.77750301361084, -0.19661587476730347, -0.5516335368156433, -0.9998428821563721, 0.034912109375, 0.209228515625, -0.794921875
175, 3492428631, -5.350958347320557, -2.13845157623291, 7.810832500457764, -0.28308436274528503, -0.49331340193748474, -0.9665465950965881, 0.034912109375, 0.209716796875, -0.79443359375
176, 3492445298, -5.349846839904785, -2.1290128231048584, 7.803585529327393, -0.32014593482017517, -0.47013387084007263, -0.9610140323638916, 0.033935546875, 0.208251953125, -0.79248046875
177, 3492461965, -5.336462497711182, -2.120231866836548, 7.798290729522705, -0.35756605863571167, -0.3476027250289917, -1.0350091457366943, 0.035888671875, 0.208740234375, -0.79443359375
178, 3492478632, -5.3593058586120605, -2.1354174613952637, 7.81325626373291, -0.3502792716026306, -0.39583146572113037, -1.0560626983642578, 0.036376953125, 0.209716796875, -0.79443359375
179, 3492495299, -5.360815525054932, -2.1199791431427, 7.809545040130615, -0.41203150153160095, -0.4385918974876404, -1.1160733699798584, 0.035400390625, 0.208740234375, -0.7939453125
180, 3492511966, -5.353587627410889, -2.1228644847869873, 7.760946750640869, -0.22147302329540253, -0.6838078498840332, -1.175494909286499, 0.033935546875, 0.208740234375, -0.7939453125
181, 3492528633, -5.357313632965088, -2.063072919845581, 7.804244518280029, -0.23613625764846802, -1.031410574913025, -1.5127116441726685, 0.032958984375, 0.210205078125, -0.79248046875
182, 3492545300, -5.333378314971924, -2.1816184520721436, 7.803470134735107, -0.2720580995082855, -0.902694046497345, -1.4050359725952148, 0.034423828125, 0.211181640625, -0.79345703125
183, 3492561967, -5.336612701416016, -2.1437268257141113, 7.811432361602783, -0.17852053046226501, -0.7557026743888855, -1.3346649408340454, 0.034912109375, 0.210693359375, -0.790283203125
184, 3492578634, -5.34917688369751, -2.1863012313842773, 7.783742427825928, -0.12725669145584106, -0.6640732884407043, -1.054180383682251, 0.035888671875, 0.208740234375, -0.79345703125
185, 3492595301, -5.343618869781494, -2.159412145614624, 7.7999701499938965, -0.09713615477085114, -0.5446028113365173, -0.9018999338150024, 0.034912109375, 0.209228515625, -0.79296875
186, 3492611968, -5.353492736816406, -2.1341309547424316, 7.792320728302002, 0.029550651088356972, -0.671398401260376, -0.8169553875923157, 0.033935546875, 0.211669921875, -0.7939453125
187, 3492628635, -5.344080448150635, -2.1317977905273438, 7.802913665771484, 0.05730200558900833, -0.6621138453483582, -0.8022665977478027, 0.033935546875, 0.209716796875, -0.79296875
188, 3492645302, -5.338993549346924, -2.1137280464172363, 7.8164544105529785, -0.06839869916439056, -0.5340375304222107, -0.8509050607681274, 0.034423828125, 0.210205078125, -0.7939453125
189, 3492661969, -5.348914623260498, -2.126173496246338, 7.792791843414307, -0.15046179294586182, -0.4567256271839142, -0.848446249961853, 0.034423828125, 0.210693359375, -0.7919921875
190, 3492678636, -5.351336479187012, -2.1363539695739746, 7.804018497467041, -0.08897851407527924, -0.44320210814476013, -0.7994363307952881, 0.035400390625, 0.210205078125, -0.790771484375
191, 3492695303, -5.3426384925842285, -2.1387858390808105, 7.812999248504639, -0.06834748387336731, -0.48770421743392944, -0.7609533071517944, 0.036376953125, 0.210693359375, -0.7919921875
192, 3492711970, -5.339807033538818, -2.1427876949310303, 7.809272289276123, -0.18056754767894745, -0.5589410066604614, -0.7193245887756348, 0.034423828125, 0.208251953125, -0.791015625
193, 3492728637, -5.360970973968506, -2.1233277320861816, 7.818696975708008, -0.41734617948532104, -0.4577758312225342, -0.8692694902420044, 0.033935546875, 0.208251953125, -0.794921875
194, 3492745304, -5.353616714477539, -2.1318869590759277, 7.8057661056518555, -0.43028056621551514, -0.46507543325424194, -0.9033727645874023, 0.033935546875, 0.211181640625, -0.79443359375
195, 3492761971, -5.348660945892334, -2.135117769241333, 7.780050754547119, -0.3519825041294098, -0.4552913308143616, -0.873226523399353, 0.037353515625, 0.211181640625, -0.794921875
196, 3492778638, -5.3404364585876465, -2.134060859680176, 7.791383743286133, -0.33242717385292053, -0.4127102196216583, -0.8645566701889038, 0.033935546875, 0.20556640625, -0.79443359375
197, 3492795305, -5.3287506103515625, -2.14206600189209, 7.767236709594727, -0.25156792998313904, -0.5269941091537476, -0.8254204988479614, 0.034912109375, 0.208740234375, -0.79296875
198, 3492811972, -5.355615139007568, -2.129481315612793, 7.80809211730957, -0.12169875204563141, -0.5857625007629395, -0.7799451351165771, 0.034912109375, 0.209228515625, -0.79150390625
199, 3492828639, -5.349920272827148, -2.126497745513916, 7.803154945373535, -0.09932605177164078, -0.7243656516075134, -0.8719587922096252, 0.034423828125, 0.208740234375, -0.794921875
200, 3492845306, -5.356675148010254, -2.1116416454315186, 7.789412975311279, -0.17412793636322021, -0.8680528402328491, -1.0559988021850586, 0.031982421875, 0.209228515625, -0.794921875
201, 3492861973, -5.339992046356201, -2.13616681098938, 7.784068584442139, -0.23790358006954193, -0.9980757236480713, -1.0978628396987915, 0.035400390625, 0.209228515625, -0.7939453125
202, 3492878640, -5.321267604827881, -2.1571948528289795, 7.778326034545898, 0.009367845952510834, -1.0771292448043823, -1.1121163368225098, 0.034912109375, 0.208740234375, -0.79345703125
203, 3492895307, -5.345719814300537, -2.155067205429077, 7.775538921356201, 0.023903053253889084, -1.004197120666504, -0.9363107085227966, 0.033935546875, 0.210205078125, -0.79443359375
204, 3492911974, -5.333582878112793, -2.127030849456787, 7.807636260986328, 0.038194943219423294, -0.9810176491737366, -0.8001535534858704, 0.033935546875, 0.207763671875, -0.79541015625
205, 3492928641, -5.337398529052734, -2.1138358116149902, 7.815545082092285, -0.050149668008089066, -0.8114871978759766, -0.9054858684539795, 0.033447265625, 0.209228515625, -0.7919921875
206, 3492945308, -5.364453315734863, -2.11702823638916, 7.80618953704834, -0.27697575092315674, -0.7748354077339172, -1.0187195539474487, 0.032958984375, 0.209228515625, -0.7939453125
207, 3492961975, -5.3537678718566895, -2.1254491806030273, 7.786238193511963, -0.17858454585075378, -0.8302356004714966, -1.1395217180252075, 0.034912109375, 0.208740234375, -0.79443359375
208, 3492978642, -5.337550640106201, -2.1486594676971436, 7.807948589324951, -0.010578044690191746, -1.1118474006652832, -1.1401621103286743, 0.031982421875, 0.2080078125, -0.7939453125
209, 3492995309, -5.337390422821045, -2.1328766345977783, 7.796437740325928, 0.03209911659359932, -1.1228736639022827, -0.9733338952064514, 0.034423828125, 0.210693359375, -0.79248046875
210, 3493011976, -5.3337602615356445, -2.116440773010254, 7.811806678771973, 0.032675400376319885, -1.2284107208251953, -1.0517855882644653, 0.031982421875, 0.20703125, -0.7958984375
211, 3493028643, -5.299535274505615, -2.164959669113159, 7.806827068328857, -0.07104963064193726, -0.9209815263748169, -1.0091787576675415, 0.032470703125, 0.210205078125, -0.79296875
212, 3493045310, -5.305678844451904, -2.171959161758423, 7.817843914031982, -0.1580943763256073, -0.7349820137023926, -0.9052936434745789, 0.034423828125, 0.210693359375, -0.7939453125
213, 3493061977, -5.311651706695557, -2.125762939453125, 7.801377773284912, -0.2424498200416565, -0.4298194944858551, -0.8240501880645752, 0.034912109375, 0.210205078125, -0.79345703125
214, 3493078644, -5.337396621704102, -2.1446692943573, 7.803309440612793, -0.09463892132043839, -0.3727031648159027, -0.6581438779830933, 0.033447265625, 0.208251953125, -0.79541015625
215, 3493095311, -5.346651077270508, -2.1152524948120117, 7.802271366119385, -0.23137231171131134, -0.38681578636169434, -0.7472376227378845, 0.034912109375, 0.20751953125, -0.7958984375
216, 3493111978, -5.354421615600586, -2.116555690765381, 7.789210319519043, -0.17284727096557617, -0.5047237873077393, -0.8419021964073181, 0.036376953125, 0.209228515625, -0.794921875
217, 3493128645, -5.3483781814575195, -2.1226871013641357, 7.816205978393555, -0.014804139733314514, -0.8264064788818359, -0.9361057281494141, 0.033935546875, 0.208740234375, -0.79296875
218, 3493145312, -5.34239387512207, -2.120490074157715, 7.796711444854736, 0.02499159425497055, -1.188275694847107, -1.084966778755188, 0.033935546875, 0.209228515625, -0.79443359375
219, 3493161979, -5.329823970794678, -2.1281378269195557, 7.794351577758789, 0.24713054299354553, -1.30271315574646, -1.0239828824996948, 0.033447265625, 0.208740234375, -0.79248046875
220, 3493178646, -5.305884838104248, -2.13618540763855, 7.811219215393066, 0.30548906326293945, -1.3185162544250488, -0.9317260980606079, 0.032958984375, 0.20751953125, -0.79345703125
221, 3493195313, -5.343942165374756, -2.115924596786499, 7.812164306640625, 0.36994343996047974, -1.3089114427566528, -0.9631400108337402, 0.033447265625, 0.208740234375, -0.7939453125
222, 3493211980, -5.345431804656982, -2.1093461513519287, 7.8151445388793945, 0.30886995792388916, -1.4595141410827637, -1.0046069622039795, 0.031982421875, 0.20751953125, -0.794921875
223, 3493228647, -5.32432746887207, -2.1148769855499268, 7.818167209625244, 0.40176719427108765, -1.5494273900985718, -1.0740429162979126, 0.032470703125, 0.2080078125, -0.79345703125
224, 3493245314, -5.318694591522217, -2.138904333114624, 7.800849914550781, 0.44022461771965027, -1.487021803855896, -1.0626194477081299, 0.033447265625, 0.211181640625, -0.794921875
225, 3493261981, -5.325172424316406, -2.122774362564087, 7.819361209869385, 0.655320942401886, -1.614849328994751, -0.9193588495254517, 0.031005859375, 0.20849609375, -0.79296875
226, 3493278648, -5.320912837982178, -2.122403144836426, 7.825613021850586, 0.6744399666786194, -1.6675915718078613, -0.9675837159156799, 0.032470703125, 0.20703125, -0.79296875
227, 3493295315, -5.324037551879883, -2.1083176136016846, 7.81533145904541, 0.7008594870567322, -1.7827590703964233, -0.9883556962013245, 0.032470703125, 0.20654296875, -0.7939453125
228, 3493311982, -5.317436218261719, -2.1328258514404297, 7.81052303314209, 0.7965870499610901, -1.8178484439849854, -0.9336725473403931, 0.032470703125, 0.2060546875, -0.79345703125
229, 3493328649, -5.337924480438232, -2.1055212020874023, 7.839637756347656, 0.8281802535057068, -1.7568647861480713, -1.1374216079711914, 0.029541015625, 0.20849609375, -0.794921875
230, 3493345316, -5.426833152770996, -2.038360834121704, 7.8812971115112305, 0.5029501914978027, -1.9506632089614868, -1.5851954221725464, 0.029052734375, 0.2060546875, -0.7939453125
231, 3493361983, -5.575554370880127, -1.9758241176605225, 7.882740020751953, -0.18560242652893066, -2.3813536167144775, -2.728290557861328, 0.032470703125, 0.20654296875, -0.79638671875
232, 3493378650, -5.43475866317749, -2.0221569538116455, 7.884591579437256, -1.2984743118286133, -2.828256845474243, -4.366415500640869, 0.029541015625, 0.2080078125, -0.794921875
233, 3493395317, -5.16931676864624, -2.2103846073150635, 7.857545375823975, -2.008432626724243, -2.504371404647827, -4.517324924468994, 0.029541015625, 0.20556640625, -0.796875
234, 3493411984, -5.073963642120361, -2.287062883377075, 7.8709869384765625, -2.3355069160461426, -0.6393314003944397, -3.634608268737793, 0.0283203125, 0.209228515625, -0.797607421875
235, 3493428651, -5.078765392303467, -2.2462661266326904, 7.871296405792236, -2.9486618041992188, 1.5603703260421753, -2.8589534759521484, 0.02880859375, 0.209716796875, -0.794921875
236, 3493445318, -5.006231784820557, -2.2919974327087402, 7.8800950050354, -3.5768141746520996, 4.140466213226318, -2.2179322242736816, 0.0283203125, 0.210693359375, -0.795166015625
237, 3493461985, -4.937518119812012, -2.4365334510803223, 7.858068466186523, -3.5588080883026123, 7.039811134338379, -0.6774432063102722, 0.03076171875, 0.212646484375, -0.79248046875
238, 3493478652, -4.973162651062012, -2.3745486736297607, 7.938368320465088, -3.409525156021118, 10.821952819824219, 1.243221640586853, 0.02978515625, 0.211181640625, -0.79296875
239, 3493495319, -4.942137241363525, -2.3780570030212402, 8.066566467285156, -4.78243350982666, 15.936858177185059, 3.0112173557281494, 0.039306640625, 0.212158203125, -0.79345703125
240, 3493511986, -4.740984916687012, -2.6749956607818604, 8.159113883972168, -6.0965046882629395, 25.851844787597656, 6.545528888702393, 0.042236328125, 0.211181640625, -0.792236328125
241, 3493528653, -4.761444568634033, -2.0568597316741943, 8.91673469543457, -13.196803092956543, 38.66975021362305, 16.28487777709961, 0.05078125, 0.216796875, -0.7900390625
242, 3493545320, -4.248315811157227, -2.486715316772461, 9.057254791259766, -15.271553993225098, 56.831520080566406, 27.218870162963867, 0.065673828125, 0.216064453125, -0.791748046875
243, 3493561987, -5.1233744621276855, -2.5186030864715576, 9.469826698303223, -23.088632583618164, 73.52611541748047, 38.5615119934082, 0.084716796875, 0.21923828125, -0.782470703125
244, 3493578654, -5.265578269958496, -2.769458293914795, 9.191635131835938, -24.011322021484375, 83.7855453491211, 49.3932991027832, 0.10498046875, 0.223388671875, -0.778564453125
245, 3493595321, -6.119799613952637, -4.447766304016113, 9.177674293518066, -18.043407440185547, 91.619873046875, 54.61722183227539, 0.130859375, 0.2236328125, -0.76953125
246, 3493611988, -4.200842380523682, -4.2227463722229, 10.209229469299316, -6.302822113037109, 89.52134704589844, 53.147987365722656, 0.158935546875, 0.22314453125, -0.763916015625
247, 3493628655, 0.24791626632213593, -6.082545757293701, 12.428496360778809, -0.2966030240058899, 77.88081359863281, 39.422996520996094, 0.178955078125, 0.219970703125, -0.755859375
248, 3493645322, 0.8230593204498291, -6.5323028564453125, 14.127684593200684, 5.339807987213135, 45.4099235534668, 4.132941246032715, 0.1953125, 0.216064453125, -0.74609375
249, 3493661989, 2.558295488357544, -5.56445837020874, 13.858819961547852, 5.528709888458252, 3.014415740966797, -34.06600570678711, 0.204345703125, 0.214599609375, -0.74072265625
250, 3493678656, 3.9755516052246094, -3.2016713619232178, 12.75879192352295, 6.061094284057617, -25.689847946166992, -52.42066955566406, 0.200439453125, 0.2119140625, -0.73486328125
251, 3493695323, 3.323267698287964, -1.3129068613052368, 12.52682113647461, 0.5775315165519714, -44.51131057739258, -53.99638366699219, 0.1962890625, 0.2119140625, -0.73046875
252, 3493711990, 1.931976079940796, -0.6608849167823792, 12.42817497253418, -10.368865013122559, -58.82961654663086, -48.360015869140625, 0.193359375, 0.2119140625, -0.7265625
253, 3493728657, 0.036668770015239716, -0.9186202883720398, 12.301101684570312, -16.558921813964844, -70.2203140258789, -38.733089447021484, 0.183837890625, 0.216796875, -0.724609375
254, 3493745324, -1.765830636024475, -1.4717639684677124, 11.903121948242188, -15.417437553405762, -81.13033294677734, -27.734642028808594, 0.179931640625, 0.21728515625, -0.71875
255, 3493761991, -3.448826789855957, -1.9762870073318481, 11.704838752746582, -12.745115280151367, -88.81887817382812, -19.082128524780273, 0.17333984375, 0.22021484375, -0.721435546875
256, 3493778658, -5.290853977203369, -2.5431928634643555, 11.684258460998535, -15.047018051147461, -96.3238296508789, -15.6925048828125, 0.165771484375, 0.22412109375, -0.7236328125
257, 3493795325, -7.069645404815674, -3.3524365425109863, 11.265016555786133, -17.482097625732422, -106.91529083251953, -16.116806030273438, 0.1611328125, 0.231689453125, -0.731201171875
258, 3493811992, -7.784167289733887, -3.970475912094116, 10.388373374938965, -15.05419635772705, -117.96348571777344, -17.701147079467773, 0.14501953125, 0.2451171875, -0.73828125
259, 3493828659, -8.015497207641602, -3.915898323059082, 9.289087295532227, -13.56164836883545, -123.24185943603516, -21.21247100830078, 0.125732421875, 0.2607421875, -0.7548828125
260, 3493845326, -7.768991947174072, -3.7723164558410645, 8.01544189453125, -14.080387115478516, -121.83563232421875, -26.41896629333496, 0.102294921875, 0.275146484375, -0.767333984375
261, 3493861993, -7.5368852615356445, -3.5153417587280273, 7.031932830810547, -15.311431884765625, -112.69071197509766, -30.86158561706543, 0.074951171875, 0.28955078125, -0.778564453125
262, 3493878660, -7.863187789916992, -3.143610954284668, 6.770023345947266, -19.00196075439453, -100.5072021484375, -34.947303771972656, 0.049072265625, 0.29833984375, -0.789794921875
263, 3493895327, -8.646745681762695, -2.856384754180908, 6.712542533874512, -24.470184326171875, -93.97267150878906, -40.182369232177734, 0.015380859375, 0.31201171875, -0.795166015625
264, 3493911994, -8.662269592285156, -2.409379482269287, 6.110065460205078, -24.304946899414062, -92.14253997802734, -43.5868034362793, -0.0146484375, 0.32080078125, -0.79833984375
265, 3493928661, -8.549445152282715, -1.707183599472046, 5.097414016723633, -17.02396011352539, -86.44642639160156, -41.67201232910156, -0.042724609375, 0.3271484375, -0.79931640625
266, 3493945328, -9.085190773010254, -0.9591946601867676, 4.270867347717285, -9.56119155883789, -75.95787048339844, -35.40402603149414, -0.07177734375, 0.33154296875, -0.801513671875
267, 3493961995, -9.683438301086426, -0.5523247718811035, 3.0947811603546143, -4.0973968505859375, -64.13190460205078, -25.59600830078125, -0.092041015625, 0.332275390625, -0.80078125
268, 3493978662, -10.509284973144531, -0.22859390079975128, 1.6144921779632568, -0.4090641140937805, -49.02108383178711, -11.706184387207031, -0.108642578125, 0.33154296875, -0.795654296875
269, 3493995329, -11.579424858093262, 0.18692567944526672, 0.1440354287624359, -1.9474416971206665, -29.148454666137695, 3.3188846111297607, -0.11865234375, 0.33349609375, -0.796875
270, 3494011996, -11.614604949951172, 0.3169053792953491, -0.6063244938850403, -7.897262096405029, -3.159470796585083, 16.11716079711914, -0.1240234375, 0.33349609375, -0.794921875
271, 3494028663, -10.75826644897461, 0.08087478578090668, -1.6542479991912842, -10.860788345336914, 40.48802947998047, 27.263172149658203, -0.1181640625, 0.337158203125, -0.79833984375
272, 3494045330, -2.4318268299102783, -2.134594678878784, 3.899841547012329, -2.515759229660034, 104.021240234375, 50.205814361572266, -0.091796875, 0.34130859375, -0.79931640625
273, 3494061997, -3.279778480529785, -6.14129114151001, 12.365955352783203, -12.506460189819336, 97.95745849609375, 35.375980377197266, -0.0634765625, 0.342529296875, -0.80029296875
274, 3494078664, -1.554780125617981, -4.359562397003174, 5.375602722167969, -20.087078094482422, 110.0711669921875, 24.629413604736328, -0.0380859375, 0.347412109375, -0.79736328125
275, 3494095331, -7.030916213989258, -3.592909336090088, 9.794331550598145, -23.940080642700195, 123.73616027832031, 16.557329177856445, -0.006591796875, 0.3505859375, -0.795166015625
276, 3494111998, -8.479874610900879, -2.867608070373535, 9.890893936157227, -22.38031578063965, 100.82283782958984, 15.530916213989258, 0.01806640625, 0.35693359375, -0.793701171875
277, 3494128665, -7.792055130004883, -3.5242819786071777, 9.686551094055176, -17.035442352294922, 88.31440734863281, 21.444551467895508, 0.037109375, 0.362060546875, -0.7919921875
278, 3494145332, -7.700435638427734, -4.822685241699219, 8.857643127441406, -12.721611022949219, 77.46448516845703, 14.297947883605957, 0.05712890625, 0.36181640625, -0.7890625
279, 3494161999, -6.83939266204834, -4.02580451965332, 8.31692886352539, -4.605515956878662, 64.64196014404297, 13.481138229370117, 0.075927734375, 0.365966796875, -0.78369140625
280, 3494178666, -5.3381266593933105, -3.4494214057922363, 7.6298747062683105, -0.5845015048980713, 55.07526779174805, 18.415010452270508, 0.08984375, 0.364990234375, -0.785400390625
281, 3494195333, -8.492233276367188, -6.655237197875977, 8.54837417602539, 17.84981346130371, 46.63867950439453, 26.853544235229492, 0.102294921875, 0.362548828125, -0.781494140625
282, 3494212000, -7.180397033691406, -3.186784029006958, 7.245624542236328, 33.62894058227539, 17.26653480529785, 20.29264259338379, 0.112548828125, 0.351318359375, -0.786376953125
283, 3494228667, -5.335521697998047, -2.571516752243042, 8.494246482849121, 31.686235427856445, 13.425836563110352, 20.715599060058594, 0.1181640625, 0.3427734375, -0.792236328125
284, 3494245334, -6.129054546356201, -2.545315742492676, 8.11855411529541, 28.70915985107422, 9.999195098876953, 17.012163162231445, 0.120361328125, 0.335205078125, -0.7919921875
285, 3494262001, -5.953566074371338, -2.43436861038208, 8.208609580993652, 22.684343338012695, 2.8264384269714355, 11.969500541687012, 0.124755859375, 0.32861328125, -0.79345703125
286, 3494278668, -5.569543838500977, -2.7009782791137695, 7.999587535858154, 19.726491928100586, 2.301541805267334, 9.003538131713867, 0.1259765625, 0.32470703125, -0.79638671875
287, 3494295335, -5.661932468414307, -2.466726541519165, 8.048958778381348, 14.744391441345215, 1.256463885307312, 6.155306339263916, 0.1279296875, 0.319580078125, -0.79833984375
288, 3494312002, -5.37508487701416, -2.7337629795074463, 7.841708183288574, 12.222636222839355, 0.8253762125968933, 4.685557842254639, 0.12744140625, 0.317626953125, -0.79736328125
289, 3494328669, -5.419492244720459, -2.7347028255462646, 7.8274102210998535, 10.64267635345459, 0.4271880090236664, 4.262768268585205, 0.127685546875, 0.313232421875, -0.7978515625
290, 3494345336, -5.24468994140625, -2.7380611896514893, 7.711233139038086, 10.069591522216797, -0.025856029242277145, 4.805770397186279, 0.129638671875, 0.3115234375, -0.796875
291, 3494362003, -5.129745006561279, -2.756154775619507, 7.4846720695495605, 14.375811576843262, -2.257159471511841, 7.999985694885254, 0.129150390625, 0.30810546875, -0.7978515625
292, 3494378670, -4.798318386077881, -3.1860458850860596, 6.984853744506836, 25.742603302001953, -6.758699893951416, 14.116334915161133, 0.128173828125, 0.303955078125, -0.7998046875
293, 3494395337, -5.028027534484863, -3.4184560775756836, 7.138208389282227, 40.70462417602539, -9.80848217010498, 20.232637405395508, 0.1279296875, 0.2919921875, -0.8056640625
294, 3494412004, -5.703438758850098, -2.1327402591705322, 7.959815979003906, 46.18285369873047, -17.197114944458008, 20.99228286743164, 0.129638671875, 0.280517578125, -0.8095703125
295, 3494428671, -5.370325565338135, -1.922221064567566, 8.176129341125488, 35.37627029418945, -14.459284782409668, 14.8326997756958, 0.124267578125, 0.270263671875, -0.815673828125
296, 3494445338, -5.236202239990234, -1.0076725482940674, 8.657458305358887, 20.825361251831055, -7.938440322875977, 7.980888366699219, 0.124755859375, 0.266845703125, -0.818115234375
297, 3494462005, -5.215699672698975, -1.7614191770553589, 8.372429847717285, 11.223816871643066, -3.6952099800109863, 3.3556690216064453, 0.123291015625, 0.26171875, -0.817138671875
298, 3494478672, -4.821055889129639, -2.4481167793273926, 7.874199390411377, 5.7293243408203125, -0.43755456805229187, 1.6892153024673462, 0.1240234375, 0.2587890625, -0.818603515625
299, 3494495339, -5.114984512329102, -2.2902181148529053, 7.781127452850342, 5.390800952911377, -0.6151657700538635, 2.869870901107788, 0.125, 0.25830078125, -0.818603515625
300, 3494512006, -5.307961463928223, -1.948004961013794, 7.916693687438965, 4.721925258636475, -1.3343063592910767, 2.9362850189208984, 0.12548828125, 0.25439453125, -0.819091796875
301, 3494528673, -5.278365612030029, -1.967450499534607, 7.88998556137085, 2.922185182571411, -1.220342993736267, 2.4355568885803223, 0.12255859375, 0.253173828125, -0.820556640625
302, 3494545340, -5.410857200622559, -1.7917686700820923, 7.997293949127197, 2.1502182483673096, -0.21261103451251984, 2.073533773422241, 0.1240234375, 0.253173828125, -0.820556640625
303, 3494562007, -5.359229564666748, -2.088001251220703, 7.817983627319336, 1.717914342880249, -0.11968815326690674, 1.1954535245895386, 0.12353515625, 0.251708984375, -0.819580078125
304, 3494578674, -4.98295259475708, -2.37682843208313, 7.739705562591553, 5.183632850646973, -1.6167248487472534, 2.819862127304077, 0.125, 0.251220703125, -0.820556640625
305, 3494595341, -5.038339138031006, -2.1038410663604736, 7.931004524230957, 7.014442443847656, -1.6764665842056274, 4.985762596130371, 0.125, 0.250244140625, -0.820068359375
306, 3494612008, -4.997408390045166, -1.9641085863113403, 8.077301025390625, 5.091965675354004, 0.8725031614303589, 6.055912494659424, 0.126708984375, 0.248291015625, -0.820556640625
307, 3494628675, -5.00136137008667, -2.036729097366333, 8.061148643493652, 2.3856890201568604, 5.2354350090026855, 6.238326072692871, 0.125, 0.246826171875, -0.820556640625
308, 3494645342, -5.102086067199707, -2.0353918075561523, 8.107183456420898, 0.05506094545125961, 11.64791488647461, 6.87949275970459, 0.129638671875, 0.248779296875, -0.8203125
309, 3494662009, -5.280331611633301, -1.8309606313705444, 8.080133438110352, -3.5079843997955322, 18.112974166870117, 6.90728759765625, 0.133544921875, 0.245361328125, -0.8173828125
310, 3494678676, -5.064120769500732, -2.0160536766052246, 8.110411643981934, -5.993321418762207, 24.581314086914062, 7.809144020080566, 0.140625, 0.246826171875, -0.820556640625
311, 3494695343, -4.936888694763184, -2.440521478652954, 8.202223777770996, -4.363170623779297, 35.929561614990234, 8.083209037780762, 0.149658203125, 0.24755859375, -0.8154296875
312, 3494712010, -4.646518707275391, -1.9445176124572754, 8.889748573303223, -3.058159351348877, 50.81381607055664, 7.776811599731445, 0.159423828125, 0.24658203125, -0.814697265625
313, 3494728677, -4.527396202087402, -2.2815370559692383, 8.9447021484375, -10.273478507995605, 71.97379302978516, 14.432287216186523, 0.176025390625, 0.248779296875, -0.808837890625
314, 3494745344, -4.840478897094727, -1.9517889022827148, 9.002837181091309, -17.124732971191406, 102.0146255493164, 20.62421226501465, 0.199951171875, 0.2509765625, -0.801025390625
315, 3494762011, -5.144423007965088, -2.1338083744049072, 9.328726768493652, -20.235727310180664, 136.8609161376953, 26.464380264282227, 0.230224609375, 0.255126953125, -0.791259765625
316, 3494778678, -4.540126323699951, -2.4979732036590576, 9.659272193908691, -17.586471557617188, 179.16590881347656, 34.83953857421875, 0.2666015625, 0.255859375, -0.775634765625
317, 3494795345, -5.131702423095703, -2.4642486572265625, 9.526485443115234, -12.808442115783691, 234.16473388671875, 48.98469161987305, 0.320068359375, 0.251953125, -0.75390625
318, 3494812012, -5.454925537109375, -3.2866742610931396, 10.22195816040039, -9.257855415344238, 297.8310852050781, 74.09375, 0.38427734375, 0.248291015625, -0.720947265625
319, 3494828679, -7.261818885803223, -5.013674736022949, 11.427350997924805, -11.025456428527832, 347.7012939453125, 107.92378997802734, 0.458251953125, 0.23779296875, -0.677734375
320, 3494845346, -10.29491901397705, -5.163816452026367, 12.369429588317871, -13.629687309265137, 381.50360107421875, 150.27084350585938, 0.538818359375, 0.216796875, -0.61376953125
321, 3494862013, -14.384613037109375, -5.208619117736816, 13.786466598510742, -34.631412506103516, 375.1576232910156, 161.2382049560547, 0.61181640625, 0.194091796875, -0.545654296875
322, 3494878680, -17.50734519958496, -5.066896438598633, 15.586530685424805, -40.94629669189453, 341.119384765625, 150.43618774414062, 0.668212890625, 0.167236328125, -0.47607421875
323, 3494895347, -12.039183616638184, -4.821554660797119, 13.886125564575195, -57.32677459716797, 282.2088623046875, 139.96649169921875, 0.71240234375, 0.142822265625, -0.406982421875
324, 3494912014, -0.8301564455032349, -8.75538158416748, 11.171416282653809, -34.59575271606445, 255.46014404296875, 139.72195434570312, 0.748291015625, 0.11279296875, -0.349609375
325, 3494928681, -17.365711212158203, -15.865490913391113, 22.02326011657715, -32.252220153808594, 157.7203826904297, 37.2155647277832, 0.766357421875, 0.097900390625, -0.298095703125
326, 3494945348, -6.04489803314209, -14.450296401977539, 17.58448028564453, 26.672588348388672, -30.181961059570312, -48.77037048339844, 0.76513671875, 0.105712890625, -0.294677734375
327, 3494962015, 3.2178211212158203, -6.62161922454834, 11.078386306762695, 66.9896240234375, -105.84168243408203, -79.54031372070312, 0.754638671875, 0.1103515625, -0.310302734375
328, 3494978682, 5.561404228210449, -1.686014175415039, 7.975399017333984, 50.4379997253418, -114.63227844238281, -87.02056884765625, 0.74365234375, 0.120361328125, -0.32421875
329, 3494995349, 3.7023611068725586, -0.007107214070856571, 7.474611759185791, 7.225954532623291, -112.27107238769531, -92.70086669921875, 0.73779296875, 0.134765625, -0.340576171875
330, 3495012016, 0.6241515278816223, -0.20950406789779663, 7.903314590454102, -28.77705955505371, -120.1584243774414, -96.85668182373047, 0.740966796875, 0.154541015625, -0.352294921875
331, 3495028683, -2.5090315341949463, -1.2375277280807495, 8.614357948303223, -40.90354537963867, -140.85916137695312, -97.7972412109375, 0.7451171875, 0.17822265625, -0.371826171875
332, 3495045350, -5.566723823547363, -2.269526481628418, 8.939501762390137, -30.14929962158203, -172.42254638671875, -95.72230529785156, 0.751708984375, 0.20556640625, -0.420166015625
333, 3495062017, -7.606125354766846, -2.4235949516296387, 8.398529052734375, -7.501823902130127, -207.6028289794922, -94.11686706542969, 0.743896484375, 0.234375, -0.4892578125
334, 3495078684, -7.6814117431640625, -1.7326592206954956, 8.11269760131836, 7.521778583526611, -229.51129150390625, -92.83526611328125, 0.704833984375, 0.259765625, -0.575927734375
335, 3495095351, -7.938420295715332, -1.0254915952682495, 7.807613372802734, 6.840731620788574, -237.20765686035156, -93.96412658691406, 0.63330078125, 0.275146484375, -0.6552734375
336, 3495112018, -8.251922607421875, -0.6338453888893127, 7.523800373077393, -4.077075481414795, -233.04611206054688, -92.60582733154297, 0.55029296875, 0.286865234375, -0.704345703125
337, 3495128685, -9.45206069946289, -0.46720054745674133, 8.444236755371094, -19.73124885559082, -220.02386474609375, -87.49964141845703, 0.479736328125, 0.303955078125, -0.723388671875
338, 3495145352, -11.051874160766602, -0.910466194152832, 10.08006763458252, -39.80849838256836, -212.55520629882812, -82.4651870727539, 0.43603515625, 0.327880859375, -0.73486328125
339, 3495162019, -14.832525253295898, -2.03680419921875, 11.32736587524414, -60.480628967285156, -213.72500610351562, -78.35269927978516, 0.3955078125, 0.361572265625, -0.760009765625
340, 3495178686, -15.101975440979004, -2.6697230339050293, 12.634639739990234, -65.82713317871094, -241.43539428710938, -71.81775665283203, 0.335205078125, 0.3984375, -0.79736328125
341, 3495195353, -18.507530212402344, -4.712141990661621, 10.893959045410156, -64.38819885253906, -252.53619384765625, -80.1357650756836, 0.236572265625, 0.430908203125, -0.823486328125
342, 3495212020, -20.997751235961914, -5.580871105194092, 8.793944358825684, -41.3831672668457, -270.8830871582031, -94.78765869140625, 0.12890625, 0.448974609375, -0.824951171875
343, 3495228687, -21.449922561645508, -5.460028648376465, 5.088242053985596, -2.85248064994812, -282.6125183105469, -99.76887512207031, 0.0341796875, 0.446533203125, -0.811767578125
344, 3495245354, -20.83780288696289, -3.7978837490081787, 1.4540326595306396, 26.50777244567871, -272.159423828125, -87.44684600830078, -0.0517578125, 0.434326171875, -0.79638671875
345, 3495262021, -20.581687927246094, -0.6510262489318848, -1.682741403579712, 18.666027069091797, -237.7838592529297, -70.2031021118164, -0.114501953125, 0.418212890625, -0.786376953125
346, 3495278688, -21.43128776550293, 3.6037142276763916, -5.730239391326904, -27.17180061340332, -184.0228729248047, -65.09810638427734, -0.165283203125, 0.41162109375, -0.770751953125
347, 3495295355, -22.276580810546875, 6.07303524017334, -10.693443298339844, -69.54100036621094, -112.17423248291016, -67.21239471435547, -0.19970703125, 0.418212890625, -0.748046875
348, 3495312022, -19.726015090942383, 7.326014041900635, -17.518251419067383, -24.765716552734375, 21.91644859313965, -20.715726852416992, -0.207275390625, 0.42431640625, -0.7412109375
349, 3495328689, -18.74531364440918, 6.808263778686523, -13.176788330078125, 38.33360290527344, 140.06993103027344, 63.94652557373047, -0.1806640625, 0.4150390625, -0.74462890625
350, 3495345356, -13.410799980163574, -0.25784096121788025, -1.1642296314239502, 47.71676254272461, 200.5346221923828, 104.78717041015625, -0.129638671875, 0.408935546875, -0.75341796875
351, 3495362023, -12.950165748596191, -14.298791885375977, 15.006071090698242, 63.759910583496094, 157.57008361816406, 68.46231842041016, -0.082275390625, 0.395751953125, -0.759033203125
352, 3495378690, -6.3426384925842285, -4.055900573730469, 7.089345455169678, 55.80634689331055, 149.45301818847656, 33.74845886230469, -0.048095703125, 0.38037109375, -0.76318359375
353, 3495395357, -11.039069175720215, 6.010196685791016, 14.566384315490723, 38.51783752441406, 178.72372436523438, 21.51492691040039, -0.005859375, 0.36962890625, -0.766845703125
354, 3495412024, -18.80386734008789, 0.15896010398864746, 16.89650535583496, 22.35857582092285, 109.13816833496094, 50.46726608276367, 0.023193359375, 0.3623046875, -0.7646484375
355, 3495428691, -11.93038558959961, -6.800394535064697, 5.0017523765563965, 40.228755950927734, 22.454164505004883, 25.346694946289062, 0.03369140625, 0.353515625, -0.767822265625
356, 3495445358, -5.800052165985107, -2.1542227268218994, 10.057226181030273, 43.34799575805664, 21.339611053466797, 27.5408878326416, 0.042236328125, 0.344482421875, -0.7685546875
357, 3495462025, -7.445889472961426, -2.726788282394409, 7.682441234588623, 27.29985809326172, 5.9839863777160645, 13.74193286895752, 0.04541015625, 0.33447265625, -0.77392578125
358, 3495478692, -5.405762195587158, -2.34952449798584, 8.396946907043457, 18.4626522064209, 2.15031099319458, 7.571861743927002, 0.046142578125, 0.329833984375, -0.77587890625
359, 3495495359, -5.643970489501953, -2.4522194862365723, 8.136980056762695, 13.022178649902344, 3.693206787109375, 4.681934356689453, 0.048095703125, 0.327392578125, -0.77490234375
360, 3495512026, -5.684593677520752, -2.462442636489868, 8.12171459197998, 5.154244899749756, 3.947903633117676, 1.8772356510162354, 0.049072265625, 0.322998046875, -0.77685546875
361, 3495528693, -5.774438381195068, -2.3016655445098877, 8.08339786529541, -2.769437313079834, 4.358429431915283, -2.0026700496673584, 0.052490234375, 0.326416015625, -0.77734375
362, 3495545360, -5.442526340484619, -2.3654890060424805, 7.984610080718994, -7.929412364959717, 6.0382537841796875, -4.174973964691162, 0.051025390625, 0.327392578125, -0.77734375
363, 3495562027, -5.386175155639648, -2.824455499649048, 7.634288311004639, -10.457210540771484, 8.29242992401123, -4.994070053100586, 0.052978515625, 0.32958984375, -0.7734375
364, 3495578694, -5.464066505432129, -3.124920606613159, 7.35477352142334, -9.860089302062988, 8.832269668579102, -4.180456161499023, 0.054443359375, 0.33251953125, -0.7734375
365, 3495595361, -5.5813307762146, -3.092137098312378, 7.322563648223877, -8.023361206054688, 7.349431991577148, -2.4783880710601807, 0.057861328125, 0.333984375, -0.770263671875
366, 3495612028, -5.42128324508667, -2.9416635036468506, 7.287229537963867, -5.544049263000488, 5.1065521240234375, -0.8722021579742432, 0.056884765625, 0.335693359375, -0.769287109375
367, 3495628695, -5.257885932922363, -3.049821615219116, 7.24045467376709, -3.036449909210205, 4.1305155754089355, 0.6873745322227478, 0.059326171875, 0.335693359375, -0.770263671875
368, 3495645362, -5.2325897216796875, -3.2701714038848877, 7.066437244415283, 2.079719305038452, 3.907621383666992, 3.6785030364990234, 0.060791015625, 0.334716796875, -0.769775390625
369, 3495662029, -5.350485801696777, -3.1503243446350098, 7.014575958251953, 7.980311870574951, 2.128307342529297, 7.27806282043457, 0.06103515625, 0.33251953125, -0.772705078125
370, 3495678696, -5.46311092376709, -2.9994990825653076, 7.200839042663574, 12.293292045593262, 0.7251152992248535, 9.909042358398438, 0.06298828125, 0.33203125, -0.772216796875
371, 3495695363, -5.4853973388671875, -3.0127220153808594, 7.145022392272949, 15.684501647949219, -1.2932381629943848, 11.348573684692383, 0.0634765625, 0.32763671875, -0.771728515625
372, 3495712030, -5.569654941558838, -2.7325170040130615, 7.281746864318848, 17.51727294921875, -2.816312313079834, 11.100296974182129, 0.0634765625, 0.3251953125, -0.775146484375
373, 3495728697, -5.428555488586426, -2.5835697650909424, 7.418210983276367, 20.6901798248291, -6.15833044052124, 12.205366134643555, 0.061767578125, 0.317626953125, -0.774658203125
374, 3495745364, -5.553518295288086, -2.56303334236145, 7.829555988311768, 19.299776077270508, -6.511618614196777, 11.13922119140625, 0.062744140625, 0.3125, -0.780517578125
375, 3495762031, -5.4255242347717285, -2.3869152069091797, 8.007997512817383, 12.575392723083496, -3.909986972808838, 8.847960472106934, 0.062255859375, 0.307861328125, -0.779541015625
376, 3495778698, -5.3806562423706055, -2.4319005012512207, 7.848513126373291, 8.629159927368164, -2.066497564315796, 8.313726425170898, 0.063232421875, 0.307373046875, -0.779541015625
377, 3495795365, -5.376893043518066, -2.558319091796875, 7.776654243469238, 6.64516019821167, -0.5375723838806152, 8.944746017456055, 0.0654296875, 0.302490234375, -0.781005859375
378, 3495812032, -5.313325881958008, -2.3472156524658203, 7.9334635734558105, 2.3291232585906982, 3.660676956176758, 7.984140396118164, 0.0654296875, 0.302490234375, -0.781982421875
379, 3495828699, -5.128162384033203, -2.3822104930877686, 8.040940284729004, -2.8362765312194824, 14.501470565795898, 8.699228286743164, 0.0703125, 0.302001953125, -0.77880859375
380, 3495845366, -5.18790864944458, -2.5669808387756348, 7.968412399291992, -9.591654777526855, 26.48341941833496, 11.53869342803955, 0.07373046875, 0.304443359375, -0.776123046875
381, 3495862033, -5.030316352844238, -2.6237051486968994, 8.36194133758545, -19.601715087890625, 36.45512771606445, 17.60943603515625, 0.084716796875, 0.3076171875, -0.774658203125
382, 3495878700, -5.006468772888184, -1.8955707550048828, 8.693896293640137, -9.435175895690918, 61.826019287109375, 13.792770385742188, 0.09619140625, 0.308349609375, -0.772705078125
383, 3495895367, -4.941877365112305, -2.7670085430145264, 8.684453010559082, -16.400503158569336, 88.11319732666016, 15.10417652130127, 0.1171875, 0.310546875, -0.768310546875
384, 3495912034, -5.066187858581543, -2.4578213691711426, 8.6579008102417, -21.375993728637695, 119.96617126464844, 19.993762969970703, 0.1435546875, 0.314697265625, -0.759765625
385, 3495928701, -5.2029500007629395, -2.399282455444336, 8.90103816986084, -29.758934020996094, 161.1609344482422, 24.93917465209961, 0.17724609375, 0.320068359375, -0.749267578125
386, 3495945368, -4.723423004150391, -4.5472941398620605, 9.898693084716797, -28.20118522644043, 213.4164276123047, 40.0613899230957, 0.22314453125, 0.3232421875, -0.728759765625
387, 3495962035, -4.879361629486084, -5.144514083862305, 9.82789134979248, -16.978229522705078, 281.14666748046875, 71.51132202148438, 0.281982421875, 0.3212890625, -0.70703125
388, 3495978702, -7.078420639038086, -6.863100528717041, 11.036200523376465, -7.015028476715088, 347.6994323730469, 134.37106323242188, 0.359375, 0.307861328125, -0.667236328125
389, 3495995369, -8.775232315063477, -4.943536281585693, 11.703754425048828, -13.572359085083008, 393.4467468261719, 187.80426025390625, 0.446044921875, 0.286376953125, -0.617431640625
390, 3496012036, -18.07306671142578, -7.502656936645508, 14.630668640136719, -46.691287994384766, 393.57183837890625, 192.9288787841797, 0.53369140625, 0.26220703125, -0.54931640625
391, 3496028703, -22.165130615234375, -8.327315330505371, 17.409305572509766, -38.196983337402344, 313.0369567871094, 185.21604919433594, 0.602783203125, 0.232666015625, -0.484130859375
392, 3496045370, -12.93879508972168, -7.914983749389648, 15.042326927185059, -28.175264358520508, 226.8185272216797, 181.34710693359375, 0.648681640625, 0.19775390625, -0.4345703125
393, 3496062037, -5.277015209197998, -12.411863327026367, 14.452778816223145, 11.020438194274902, 198.3353271484375, 164.47825622558594, 0.683349609375, 0.155029296875, -0.389404296875
394, 3496078704, -13.080885887145996, -15.521873474121094, 24.423583984375, 7.956360340118408, 61.499229431152344, 54.47529220581055, 0.70361328125, 0.129638671875, -0.3623046875
395, 3496095371, -0.009358569979667664, -12.58512020111084, 15.950467109680176, 41.83425521850586, -67.57893371582031, -32.32893371582031, 0.69921875, 0.12109375, -0.36572265625
396, 3496112038, 5.847052097320557, -6.310705661773682, 9.707736015319824, 70.22820281982422, -94.75608825683594, -66.55060577392578, 0.690673828125, 0.118408203125, -0.383056640625
397, 3496128705, 5.0720038414001465, -2.2939486503601074, 8.036375999450684, 56.76218795776367, -96.98686218261719, -83.49613952636719, 0.6806640625, 0.121337890625, -0.3994140625
398, 3496145372, 3.0307624340057373, -1.3719710111618042, 7.500743389129639, 29.06962013244629, -105.74179077148438, -94.38662719726562, 0.671630859375, 0.12890625, -0.417236328125
399, 3496162039, 0.5826922655105591, -1.6204631328582764, 7.578495979309082, 15.14814567565918, -120.6866683959961, -95.3781509399414, 0.66455078125, 0.142578125, -0.4384765625
400, 3496178706, -2.049733877182007, -1.979873776435852, 7.865835189819336, 15.129858016967773, -144.2082977294922, -93.1554946899414, 0.6513671875, 0.1591796875, -0.468017578125
401, 3496195373, -4.350524425506592, -2.1769521236419678, 8.014518737792969, 18.406503677368164, -173.01023864746094, -95.68168640136719, 0.628173828125, 0.177978515625, -0.5146484375
402, 3496212040, -5.86018180847168, -2.123277425765991, 7.843888759613037, 20.66107940673828, -200.8602752685547, -102.88755798339844, 0.5859375, 0.199462890625, -0.559814453125
403, 3496228707, -6.8988356590271, -2.095865249633789, 7.7901787757873535, 19.61953353881836, -224.07540893554688, -109.23725891113281, 0.5224609375, 0.218017578125, -0.60595703125
404, 3496245374, -8.00997257232666, -2.3573570251464844, 8.123679161071777, 14.394150733947754, -242.1576690673828, -114.48857879638672, 0.4404296875, 0.22900390625, -0.63037109375
405, 3496262041, -9.23305606842041, -2.6160519123077393, 8.429203033447266, 5.378962993621826, -256.30084228515625, -120.11494445800781, 0.36376953125, 0.226806640625, -0.640380859375
406, 3496278708, -9.964187622070312, -2.6396915912628174, 8.588996887207031, -7.65411901473999, -263.3780212402344, -125.71580505371094, 0.297607421875, 0.214111328125, -0.634521484375
407, 3496295375, -11.197633743286133, -2.3816585540771484, 9.238896369934082, -23.289825439453125, -259.39093017578125, -127.20966339111328, 0.2568359375, 0.194091796875, -0.615234375
408, 3496312042, -13.253610610961914, -2.825937509536743, 10.293516159057617, -41.417179107666016, -245.90713500976562, -120.64199829101562, 0.26416015625, 0.174560546875, -0.59375
409, 3496328709, -18.613235473632812, -4.464304447174072, 11.925251960754395, -58.09899139404297, -242.69876098632812, -117.64350891113281, 0.31591796875, 0.179443359375, -0.602783203125
410, 3496345376, -24.11380958557129, -6.600737571716309, 10.392215728759766, -52.0705680847168, -262.00775146484375, -128.85704040527344, 0.36669921875, 0.22802734375, -0.678955078125
411, 3496362043, -26.199562072753906, -7.9590163230896, 5.9602370262146, -4.398334980010986, -285.46478271484375, -128.04873657226562, 0.3447265625, 0.302490234375, -0.788818359375
412, 3496378710, -25.576797485351562, -4.1424760818481445, 1.6641383171081543, 34.25746154785156, -285.6383361816406, -109.72187805175781, 0.244140625, 0.359130859375, -0.87646484375
413, 3496395377, -23.833139419555664, 1.2125662565231323, -2.964076280593872, 10.162557601928711, -250.22076416015625, -91.28147888183594, 0.1240234375, 0.392822265625, -0.916015625
414, 3496412044, -25.313718795776367, 6.298925876617432, -8.751543998718262, -42.24180221557617, -187.45541381835938, -68.99242401123047, 0.02734375, 0.422119140625, -0.91943359375
415, 3496428711, -26.783994674682617, 10.244697570800781, -15.890032768249512, -79.2619857788086, -104.2056884765625, -45.631431579589844, -0.03515625, 0.455810546875, -0.908935546875
416, 3496445378, -20.48029327392578, 10.005321502685547, -22.034658432006836, -5.003095626831055, 66.91571807861328, 52.94683837890625, -0.040771484375, 0.475830078125, -0.90771484375
417, 3496462045, -10.874404907226562, 2.824061632156372, -3.7519168853759766, 50.41997528076172, 181.35256958007812, 152.33042907714844, 0.016357421875, 0.474365234375, -0.919677734375
418, 3496478712, -12.617471694946289, -15.173605918884277, 16.491193771362305, 70.8251953125, 145.205078125, 121.48533630371094, 0.074951171875, 0.466796875, -0.9345703125
419, 3496495379, -3.7620766162872314, -9.691915512084961, 3.180635690689087, 62.579715728759766, 136.1195068359375, 71.41187286376953, 0.116455078125, 0.453125, -0.941650390625
420, 3496512046, -8.993379592895508, -2.4091250896453857, 10.020977020263672, 45.757572174072266, 192.12770080566406, 16.123371124267578, 0.1669921875, 0.45166015625, -0.945068359375
421, 3496528713, -13.709999084472656, 4.554324150085449, 15.546772956848145, 37.050514221191406, 153.73995971679688, 16.548694610595703, 0.21044921875, 0.446533203125, -0.943115234375
422, 3496545380, -10.122318267822266, 4.782422065734863, 11.755452156066895, 2.122575521469116, 101.06917572021484, 50.84025573730469, 0.245361328125, 0.44775390625, -0.9384765625
423, 3496562047, -16.57782745361328, -14.668436050415039, 8.930346488952637, 48.37272262573242, 55.019439697265625, 47.93903732299805, 0.268310546875, 0.4384765625, -0.9384765625
424, 3496578714, -6.558521270751953, 1.6993234157562256, 9.861822128295898, 43.12372589111328, 31.700578689575195, 26.292423248291016, 0.280517578125, 0.42333984375, -0.942138671875
425, 3496595381, -6.354530334472656, -2.428633689880371, 8.000394821166992, 19.624521255493164, 7.462306976318359, 10.890303611755371, 0.28564453125, 0.41796875, -0.947509765625
426, 3496612048, -6.284254550933838, -1.892593502998352, 8.676047325134277, 13.964433670043945, 7.3903398513793945, 6.118245601654053, 0.289794921875, 0.41357421875, -0.9482421875
427, 3496628715, -5.554391384124756, -2.910633087158203, 7.674720287322998, 7.4158430099487305, 3.5786750316619873, 2.7777814865112305, 0.292236328125, 0.410400390625, -0.9462890625
428, 3496645382, -5.664323329925537, -2.269634962081909, 8.139025688171387, 3.142364978790283, 4.206611633300781, 0.9260721802711487, 0.293212890625, 0.4130859375, -0.94921875
429, 3496662049, -5.666622161865234, -2.4991648197174072, 7.910093784332275, -0.41347864270210266, 4.451532363891602, -0.586185097694397, 0.294189453125, 0.41162109375, -0.94580078125
430, 3496678716, -5.48911190032959, -2.5773134231567383, 7.7920074462890625, -2.815322160720825, 5.21882438659668, -1.664505124092102, 0.296142578125, 0.4111328125, -0.94677734375
431, 3496695383, -5.550118446350098, -2.6936800479888916, 7.757143497467041, -4.7310638427734375, 6.85801362991333, -2.1534266471862793, 0.295654296875, 0.41259765625, -0.9462890625
432, 3496712050, -5.640330791473389, -2.6603188514709473, 7.748847961425781, -6.837594985961914, 7.610388278961182, -2.786919116973877, 0.300048828125, 0.4150390625, -0.944091796875
433, 3496728717, -5.453973770141602, -2.6325294971466064, 7.621433258056641, -8.942473411560059, 7.317814350128174, -4.048959732055664, 0.30126953125, 0.41552734375, -0.944091796875
434, 3496745384, -5.340370178222656, -2.6785027980804443, 7.554737567901611, -8.68050765991211, 7.23935079574585, -3.5012710094451904, 0.302978515625, 0.418212890625, -0.941650390625
435, 3496762051, -5.3139472007751465, -2.7834489345550537, 7.448899269104004, -7.986581325531006, 7.339162349700928, -2.847838878631592, 0.304931640625, 0.422119140625, -0.941162109375
436, 3496778718, -5.412781715393066, -2.9680373668670654, 7.350461006164551, -7.148660182952881, 7.3349103927612305, -1.6650822162628174, 0.305908203125, 0.4248046875, -0.9375
437, 3496795385, -5.463717460632324, -3.0304174423217773, 7.134406089782715, -3.850999116897583, 5.7780537605285645, 0.6225361227989197, 0.31005859375, 0.423828125, -0.93603515625
438, 3496812052, -5.370716094970703, -2.985671043395996, 7.1743950843811035, 0.615479588508606, 3.800201177597046, 3.317824363708496, 0.31201171875, 0.4267578125, -0.933349609375
439, 3496828719, -5.267287254333496, -3.019285202026367, 7.052703380584717, 5.993340969085693, 2.1762285232543945, 6.818634510040283, 0.3134765625, 0.423828125, -0.935791015625
440, 3496845386, -5.357522964477539, -2.97391414642334, 6.91232442855835, 12.938885688781738, -0.07946345955133438, 10.492986679077148, 0.31396484375, 0.42236328125, -0.935791015625
441, 3496862053, -5.502128601074219, -2.8021080493927, 7.1308183670043945, 17.780689239501953, -1.932353138923645, 12.245304107666016, 0.313720703125, 0.416748046875, -0.94189453125
442, 3496878720, -5.337534427642822, -3.0023105144500732, 7.1504693031311035, 21.42995834350586, -3.861494541168213, 13.9214506149292, 0.315185546875, 0.40771484375, -0.9462890625
443, 3496895387, -5.377469539642334, -2.8296520709991455, 7.602158069610596, 23.10087013244629, -5.4592084884643555, 15.907727241516113, 0.318359375, 0.400146484375, -0.945068359375
444, 3496912054, -5.456696033477783, -2.3259568214416504, 8.127497673034668, 16.051280975341797, -3.7127840518951416, 13.538824081420898, 0.3154296875, 0.3935546875, -0.95068359375
445, 3496928721, -5.364806652069092, -2.291977882385254, 8.113214492797852, 10.806832313537598, -0.6371932625770569, 11.092631340026855, 0.31591796875, 0.3916015625, -0.953125
446, 3496945388, -5.4983062744140625, -2.0541770458221436, 8.150094985961914, 5.2436323165893555, 6.406642436981201, 8.847443580627441, 0.317626953125, 0.388671875, -0.95263671875
447, 3496962055, -5.3349995613098145, -2.2221240997314453, 8.017760276794434, -2.1599979400634766, 16.622909545898438, 7.612287521362305, 0.323486328125, 0.3896484375, -0.949951171875
448, 3496978722, -5.265529632568359, -2.3402090072631836, 7.969296932220459, -10.098658561706543, 26.90178871154785, 10.191844940185547, 0.32958984375, 0.390625, -0.94775390625
449, 3496995389, -5.046338081359863, -2.7282721996307373, 8.342506408691406, -20.273836135864258, 36.15930938720703, 16.50818634033203, 0.3408203125, 0.394775390625, -0.941650390625
450, 3497012056, -5.058460235595703, -1.856571912765503, 8.597721099853516, -10.83855152130127, 61.177268981933594, 12.965556144714355, 0.35986328125, 0.39501953125, -0.93310546875
451, 3497028723, -4.881537914276123, -2.4775092601776123, 8.81222152709961, -18.99900245666504, 87.96004486083984, 12.478644371032715, 0.378662109375, 0.402099609375, -0.92236328125
452, 3497045390, -5.015037536621094, -2.2129428386688232, 8.84823226928711, -25.657569885253906, 123.0789566040039, 16.94883918762207, 0.409912109375, 0.405029296875, -0.903564453125
453, 3497062057, -5.2167067527771, -2.0615508556365967, 8.766145706176758, -38.52290344238281, 165.03286743164062, 21.195337295532227, 0.44970703125, 0.4111328125, -0.876708984375
454, 3497078724, -4.840011119842529, -3.1769375801086426, 9.439569473266602, -49.08354568481445, 217.43951416015625, 31.74494743347168, 0.49951171875, 0.422119140625, -0.84033203125
455, 3497095391, -4.771215915679932, -4.543914794921875, 9.278361320495605, -36.84804153442383, 279.9336853027344, 55.087318420410156, 0.568115234375, 0.423583984375, -0.789306640625
456, 3497112058, -5.716091156005859, -4.83557653427124, 9.065938949584961, -29.97934341430664, 354.0268249511719, 92.94364166259766, 0.650146484375, 0.417236328125, -0.720703125
457, 3497128725, -8.432141304016113, -5.198647499084473, 11.066134452819824, -12.437383651733398, 407.0574035644531, 140.05618286132812, 0.739501953125, 0.39453125, -0.634521484375
458, 3497145392, -18.9123592376709, -7.25350284576416, 15.358564376831055, -32.280311584472656, 432.0575866699219, 155.34234619140625, 0.82666015625, 0.364501953125, -0.527099609375
459, 3497162059, -20.754003524780273, -6.746748924255371, 16.096359252929688, -46.48712921142578, 379.7146301269531, 150.07757568359375, 0.888916015625, 0.3310546875, -0.418212890625
460, 3497178726, -17.22369956970215, -7.407785892486572, 16.398231506347656, -50.2663688659668, 289.32574462890625, 144.150390625, 0.928466796875, 0.297119140625, -0.328857421875
461, 3497195393, -4.817578315734863, -7.79656457901001, 13.863749504089355, -32.25680160522461, 234.09136962890625, 153.54559326171875, 0.947265625, 0.25634765625, -0.259521484375
462, 3497212060, -10.923897743225098, -16.987430572509766, 18.00300407409668, 3.982414484024048, 187.69520568847656, 89.13347625732422, 0.959716796875, 0.2255859375, -0.203857421875
463, 3497228727, -9.527077674865723, -16.83489990234375, 22.04094886779785, 61.545631408691406, -6.900694847106934, -9.199145317077637, 0.948974609375, 0.222900390625, -0.200927734375
464, 3497245394, 1.8011174201965332, -9.530179023742676, 13.143564224243164, 126.7627944946289, -103.9180679321289, -51.58271408081055, 0.9296875, 0.235595703125, -0.2431640625
465, 3497262061, 4.380882263183594, -3.403604030609131, 9.059530258178711, 140.06524658203125, -130.9477081298828, -61.244537353515625, 0.903564453125, 0.247314453125, -0.292236328125
466, 3497278728, 3.2674100399017334, -0.37473541498184204, 8.040305137634277, 103.1696548461914, -142.14950561523438, -68.96331787109375, 0.87744140625, 0.262939453125, -0.34228515625
467, 3497295395, 1.1342480182647705, 0.009895812720060349, 7.774064064025879, 50.16469955444336, -157.37400817871094, -74.6142349243164, 0.849365234375, 0.283935546875, -0.39208984375
468, 3497312062, -1.2107518911361694, -0.9660202264785767, 7.670772075653076, 15.405444145202637, -178.79063415527344, -71.0846176147461, 0.8134765625, 0.308837890625, -0.441650390625
469, 3497328729, -4.29340124130249, -1.881929636001587, 7.938235759735107, -0.09754961729049683, -208.85289001464844, -64.9871597290039, 0.771484375, 0.329833984375, -0.5009765625
470, 3497345396, -6.743354320526123, -2.584383726119995, 7.607898712158203, -5.233027458190918, -247.91668701171875, -64.67562866210938, 0.71240234375, 0.3505859375, -0.56591796875
471, 3497362063, -6.999996185302734, -3.1815271377563477, 6.706151485443115, -2.8494839668273926, -278.72503662109375, -68.04520416259766, 0.635986328125, 0.359375, -0.625244140625
472, 3497378730, -6.998838424682617, -3.434638738632202, 6.2732672691345215, 1.067714810371399, -290.48919677734375, -72.73619842529297, 0.547607421875, 0.36328125, -0.680908203125
473, 3497395397, -7.943022727966309, -3.0978000164031982, 6.572358131408691, -5.485440731048584, -289.8803405761719, -79.6988525390625, 0.46044921875, 0.360595703125, -0.71923828125
474, 3497412064, -9.278730392456055, -2.6986680030822754, 7.373586177825928, -28.259220123291016, -279.2298889160156, -90.93904876708984, 0.371337890625, 0.35693359375, -0.740478515625
475, 3497428731, -10.962908744812012, -3.5768966674804688, 8.681884765625, -50.31257629394531, -261.2316589355469, -101.83512115478516, 0.286376953125, 0.356689453125, -0.74462890625
476, 3497445398, -14.992557525634766, -5.776077747344971, 11.371628761291504, -58.64358139038086, -247.19776916503906, -109.31046295166016, 0.2197265625, 0.3515625, -0.734619140625
477, 3497462065, -20.473134994506836, -7.69856071472168, 12.409958839416504, -51.62649917602539, -258.5775451660156, -126.16764831542969, 0.164794921875, 0.345947265625, -0.721923828125
478, 3497478732, -22.87916374206543, -7.189918041229248, 10.734593391418457, -26.813453674316406, -275.22027587890625, -140.73138427734375, 0.112060546875, 0.343017578125, -0.720947265625
479, 3497495399, -24.91673469543457, -4.743027210235596, 8.003314018249512, -14.056838035583496, -285.1446533203125, -141.70498657226562, 0.059326171875, 0.340576171875, -0.72119140625
480, 3497512066, -25.738618850708008, -3.2398228645324707, 3.7737226486206055, -6.127018928527832, -285.0757751464844, -126.31845092773438, 0.005615234375, 0.3349609375, -0.728759765625
481, 3497528733, -24.005962371826172, 0.468863308429718, -0.9871460199356079, -11.551363945007324, -259.64056396484375, -102.01808166503906, -0.0439453125, 0.334716796875, -0.735595703125
482, 3497545400, -27.203075408935547, 7.027037143707275, -7.475357532501221, -48.42015838623047, -212.2440948486328, -70.6256103515625, -0.08984375, 0.341796875, -0.7392578125
483, 3497562067, -29.017513275146484, 14.772647857666016, -17.292579650878906, -100.7509994506836, -142.80020141601562, -37.94115447998047, -0.1279296875, 0.361572265625, -0.733642578125
484, 3497578734, -16.689041137695312, 9.291247367858887, -17.361310958862305, -84.12606811523438, -13.399760246276855, 53.30327606201172, -0.1337890625, 0.380615234375, -0.726318359375
485, 3497595401, -17.849714279174805, 2.938680648803711, -5.508602142333984, -13.824725151062012, 79.32222747802734, 148.9515380859375, -0.103515625, 0.390380859375, -0.729736328125
486, 3497612068, -12.658303260803223, -9.779865264892578, 7.789222240447998, 60.06208801269531, 97.56188201904297, 168.65562438964844, -0.0615234375, 0.3828125, -0.736328125
487, 3497628735, -5.37807035446167, -11.192811965942383, 10.265149116516113, 76.82438659667969, 79.28905487060547, 120.56968688964844, -0.0263671875, 0.364990234375, -0.7451171875
488, 3497645402, 4.736764907836914, -8.2365083694458, 0.45523178577423096, 50.69679260253906, 133.3764190673828, 53.06966781616211, 0.0087890625, 0.350830078125, -0.752197265625
489, 3497662069, -5.037617206573486, -1.9586377143859863, 8.550288200378418, 24.776262283325195, 213.9522705078125, 2.4028446674346924, 0.057373046875, 0.342529296875, -0.75537109375
490, 3497678736, -16.40555763244629, 3.046854019165039, 14.8923978805542, 35.05108642578125, 185.80784606933594, 30.540401458740234, 0.109375, 0.3330078125, -0.751708984375
491, 3497695403, -14.888371467590332, 0.6791530847549438, 13.401466369628906, 22.750547409057617, 110.88259887695312, 72.2608413696289, 0.14697265625, 0.32080078125, -0.750732421875
492, 3497712070, -16.265987396240234, -12.505630493164062, 9.486797332763672, 53.17707061767578, 58.946929931640625, 60.171051025390625, 0.174072265625, 0.308349609375, -0.754150390625
493, 3497728737, -5.897486686706543, 1.440340280532837, 8.820366859436035, 64.13536834716797, 33.998172760009766, 40.23072814941406, 0.184814453125, 0.29345703125, -0.7568359375
494, 3497745404, -6.42871618270874, -3.3731048107147217, 7.854827404022217, 47.44124984741211, 13.793152809143066, 30.85570526123047, 0.19287109375, 0.279296875, -0.76123046875
495, 3497762071, -7.141616344451904, -1.7612768411636353, 9.076244354248047, 44.227272033691406, 6.443028926849365, 23.553861618041992, 0.19970703125, 0.264404296875, -0.764892578125
496, 3497778738, -6.216304302215576, -2.588308334350586, 8.188250541687012, 31.823692321777344, -5.711927890777588, 16.49238395690918, 0.19873046875, 0.259765625, -0.767333984375
497, 3497795405, -5.633131980895996, -1.9613763093948364, 8.281000137329102, 22.474136352539062, -3.643068313598633, 11.723066329956055, 0.201904296875, 0.251220703125, -0.766845703125
498, 3497812072, -5.578883647918701, -2.1632204055786133, 8.177809715270996, 16.206600189208984, -3.142873525619507, 8.37109088897705, 0.200927734375, 0.245849609375, -0.770751953125
499, 3497828739, -5.591251850128174, -2.2086353302001953, 7.982395648956299, 12.045551300048828, -1.7601828575134277, 6.670351505279541, 0.202880859375, 0.243896484375, -0.771240234375
500, 3497845406, -5.404239177703857, -2.7360422611236572, 7.646063327789307, 14.478778839111328, -4.129053592681885, 8.149950981140137, 0.202392578125, 0.2392578125, -0.773681640625
501, 3497862073, -5.357037544250488, -2.9794702529907227, 7.618869304656982, 19.782939910888672, -9.364688873291016, 11.767812728881836, 0.203125, 0.23583984375, -0.776123046875
502, 3497878740, -5.62290620803833, -2.469967842102051, 7.7078471183776855, 21.807844161987305, -11.975595474243164, 12.42251968383789, 0.20068359375, 0.227783203125, -0.779052734375
503, 3497895407, -5.427414894104004, -1.6864875555038452, 7.937031269073486, 17.5339412689209, -9.889900207519531, 9.222054481506348, 0.19873046875, 0.22412109375, -0.77978515625
504, 3497912074, -5.379981517791748, -1.45478355884552, 8.095779418945312, 13.775501251220703, -6.342823505401611, 5.870044708251953, 0.19873046875, 0.21875, -0.7822265625
505, 3497928741, -5.3361663818359375, -1.833317756652832, 7.994668960571289, 10.333929061889648, -4.228184700012207, 3.374993324279785, 0.198486328125, 0.215087890625, -0.7822265625
506, 3497945408, -5.419057846069336, -2.0048601627349854, 7.857011318206787, 8.312775611877441, -3.859168291091919, 2.410943031311035, 0.19775390625, 0.215576171875, -0.78271484375
507, 3497962075, -5.346128463745117, -2.3265087604522705, 7.784426689147949, 8.546184539794922, -4.897623538970947, 2.445558547973633, 0.197021484375, 0.213134765625, -0.783203125
508, 3497978742, -5.386943817138672, -2.4246864318847656, 7.672346591949463, 10.542071342468262, -6.7776360511779785, 3.99377179145813, 0.193603515625, 0.208984375, -0.78271484375
509, 3497995409, -5.331432342529297, -1.9125664234161377, 7.855379104614258, 9.798303604125977, -6.6681036949157715, 3.5788707733154297, 0.195556640625, 0.205078125, -0.783203125
510, 3498012076, -5.207441329956055, -1.534595251083374, 8.090889930725098, 6.7125067710876465, -3.12214994430542, 1.4487504959106445, 0.193115234375, 0.20361328125, -0.7841796875
511, 3498028743, -5.102783679962158, -1.7399994134902954, 8.04711627960205, 3.4956915378570557, 1.4265823364257812, -0.2229713350534439, 0.194580078125, 0.2041015625, -0.787109375
512, 3498045410, -5.071784019470215, -2.0143425464630127, 7.9293212890625, 1.9684067964553833, 4.859620094299316, -0.3298531770706177, 0.196044921875, 0.203125, -0.787109375
513, 3498062077, -5.284194469451904, -2.2541558742523193, 7.763774871826172, 2.8802061080932617, 6.254936218261719, 1.026461124420166, 0.197021484375, 0.2021484375, -0.78759765625
514, 3498078744, -5.362096786499023, -1.7764374017715454, 7.874659538269043, 3.2222506999969482, 6.375725269317627, 1.456075668334961, 0.197021484375, 0.201904296875, -0.7861328125
515, 3498095411, -5.335630416870117, -2.1195602416992188, 7.865257740020752, 3.5140950679779053, 6.988483905792236, 1.455909252166748, 0.19921875, 0.200927734375, -0.784912109375
516, 3498112078, -5.362784385681152, -2.19866681098938, 7.749773025512695, 3.9511380195617676, 7.091870307922363, 3.8704450130462646, 0.20263671875, 0.197998046875, -0.785400390625
517, 3498128745, -5.204333782196045, -2.360361099243164, 7.855976104736328, 4.517934322357178, 7.942200183868408, 6.5091047286987305, 0.20654296875, 0.197998046875, -0.785400390625
518, 3498145412, -5.23345422744751, -2.1104488372802734, 7.9666643142700195, 6.676937103271484, 14.577338218688965, 7.1710710525512695, 0.209228515625, 0.195556640625, -0.786865234375
519, 3498162079, -5.007457256317139, -2.133145570755005, 8.327601432800293, 6.115078449249268, 23.936336517333984, 7.499525547027588, 0.214599609375, 0.195068359375, -0.78515625
520, 3498178746, -4.71032190322876, -1.8717246055603027, 8.735346794128418, 1.9836969375610352, 40.419559478759766, 11.972623825073242, 0.22021484375, 0.193603515625, -0.784912109375
521, 3498195413, -4.754142761230469, -1.9199460744857788, 8.919577598571777, -4.722259998321533, 62.92957305908203, 18.362607955932617, 0.23876953125, 0.1904296875, -0.78173828125
522, 3498212080, -4.7543044090271, -2.445932626724243, 9.116491317749023, -12.43884563446045, 87.74103546142578, 30.213871002197266, 0.255615234375, 0.19287109375, -0.77490234375
523, 3498228747, -4.9501423835754395, -3.0455806255340576, 9.434857368469238, -27.64119529724121, 116.31999206542969, 53.762489318847656, 0.283935546875, 0.192138671875, -0.7646484375
524, 3498245414, -4.941137313842773, -3.709953784942627, 10.073175430297852, -46.06394958496094, 160.809326171875, 88.2499008178711, 0.31982421875, 0.195068359375, -0.7490234375
525, 3498262081, -5.480142116546631, -4.784837245941162, 10.074736595153809, -80.0158920288086, 214.64358520507812, 135.5606231689453, 0.3671875, 0.19580078125, -0.724365234375
526, 3498278748, -7.858068466186523, -5.236770153045654, 9.512299537658691, -110.5582275390625, 237.59507751464844, 184.46543884277344, 0.425048828125, 0.19580078125, -0.693115234375
527, 3498295415, -9.970666885375977, -5.488820552825928, 11.173377990722656, -155.7538604736328, 243.2436981201172, 216.06874084472656, 0.48291015625, 0.19580078125, -0.65283203125
528, 3498312082, -12.245940208435059, -7.462420463562012, 10.414950370788574, -195.3574676513672, 192.8557586669922, 232.47328186035156, 0.5322265625, 0.197509765625, -0.613525390625
529, 3498328749, -10.357141494750977, -3.2324471473693848, 10.789932250976562, -212.67547607421875, 136.2882537841797, 235.1881103515625, 0.573974609375, 0.1953125, -0.583251953125
530, 3498345416, -4.216585159301758, -4.261266708374023, 12.82580280303955, -237.39268493652344, 84.8104019165039, 245.67013549804688, 0.599609375, 0.19140625, -0.554931640625
531, 3498362083, -8.435216903686523, -7.466141700744629, 14.7100248336792, -254.40318298339844, 3.0893423557281494, 236.75917053222656, 0.611572265625, 0.1904296875, -0.537109375
532, 3498378750, -0.9439049959182739, -10.094663619995117, 9.23208236694336, -216.68894958496094, -56.651756286621094, 193.93777465820312, 0.614013671875, 0.192626953125, -0.540283203125
533, 3498395417, 1.4054266214370728, -5.542092323303223, 7.21325159072876, -202.46400451660156, -49.45675277709961, 132.96304321289062, 0.60693359375, 0.199462890625, -0.54345703125
534, 3498412084, 1.3090736865997314, -3.5423076152801514, 7.071249961853027, -219.23171997070312, -38.56721496582031, 73.59123992919922, 0.6025390625, 0.2197265625, -0.542236328125
535, 3498428751, 1.373064637184143, -2.2980432510375977, 7.474940776824951, -211.69740295410156, -34.806785583496094, 32.20151138305664, 0.590576171875, 0.249755859375, -0.5341796875
536, 3498445418, 1.0849913358688354, -0.3653005361557007, 8.04666519165039, -192.9651336669922, -34.76335906982422, 1.1583694219589233, 0.5791015625, 0.28125, -0.5263671875
537, 3498462085, 1.2391927242279053, 0.8635855317115784, 9.084266662597656, -168.89271545410156, -34.10081100463867, -18.578868865966797, 0.563232421875, 0.308349609375, -0.51708984375
538, 3498478752, 0.24802589416503906, 2.863988161087036, 11.934661865234375, -164.89564514160156, -36.056888580322266, -36.4942512512207, 0.54248046875, 0.335205078125, -0.49951171875
539, 3498495419, -1.8901221752166748, 4.341411590576172, 14.65249252319336, -173.65167236328125, -57.058135986328125, -54.42689514160156, 0.5205078125, 0.361083984375, -0.487060546875
540, 3498512086, -3.368431568145752, 5.217708110809326, 15.91415786743164, -173.38377380371094, -90.06514739990234, -64.30175018310547, 0.48974609375, 0.387939453125, -0.471923828125
541, 3498528753, -4.350348949432373, 6.1464715003967285, 15.989018440246582, -150.9241180419922, -120.56105041503906, -60.51125717163086, 0.464599609375, 0.408447265625, -0.4599609375
542, 3498545420, -5.085273265838623, 7.750203609466553, 16.177873611450195, -125.09878540039062, -142.7832489013672, -51.61884307861328, 0.43896484375, 0.420166015625, -0.45654296875
543, 3498562087, -5.731136798858643, 7.88908052444458, 15.724729537963867, -101.17858123779297, -159.7824249267578, -39.76600646972656, 0.416259765625, 0.42822265625, -0.4541015625
544, 3498578754, -6.180213451385498, 7.239572048187256, 15.145829200744629, -76.80477142333984, -171.45620727539062, -22.622121810913086, 0.398193359375, 0.4326171875, -0.46044921875
545, 3498595421, -6.534696102142334, 6.184299468994141, 14.354528427124023, -60.05546188354492, -176.4085693359375, -2.586571455001831, 0.3818359375, 0.433837890625, -0.46875
546, 3498612088, -7.349176406860352, 4.795955181121826, 14.005319595336914, -57.241939544677734, -175.58656311035156, 18.300989151000977, 0.370361328125, 0.434326171875, -0.4775390625
547, 3498628755, -8.5889253616333, 3.6231679916381836, 13.370652198791504, -68.67558288574219, -177.24923706054688, 35.95735549926758, 0.3623046875, 0.438720703125, -0.490478515625
548, 3498645422, -9.011146545410156, 2.477409839630127, 12.287745475769043, -86.70562744140625, -181.01620483398438, 51.58694839477539, 0.356689453125, 0.44775390625, -0.503662109375
549, 3498662089, -9.17911148071289, 1.3411903381347656, 11.033198356628418, -104.34742736816406, -180.28294372558594, 62.56302261352539, 0.348876953125, 0.4619140625, -0.516357421875
550, 3498678756, -9.54909610748291, 0.18071185052394867, 10.04561996459961, -116.41401672363281, -173.42431640625, 65.74209594726562, 0.33935546875, 0.476806640625, -0.525634765625
551, 3498695423, -10.262059211730957, -1.147546410560608, 9.216583251953125, -116.6349868774414, -165.0390625, 62.040931701660156, 0.32666015625, 0.496826171875, -0.533203125
552, 3498712090, -10.810026168823242, -2.399054765701294, 8.399251937866211, -102.2470703125, -161.27145385742188, 53.067527770996094, 0.3173828125, 0.513916015625, -0.5380859375
553, 3498728757, -10.838306427001953, -2.816197395324707, 7.606935977935791, -79.5113525390625, -157.88668823242188, 38.704689025878906, 0.298583984375, 0.531982421875, -0.547119140625
554, 3498745424, -11.666152954101562, -3.26566743850708, 5.744964122772217, -55.915382385253906, -156.00498962402344, 17.578927993774414, 0.283935546875, 0.54541015625, -0.553955078125
555, 3498762091, -12.197783470153809, -3.184691905975342, 3.127608299255371, -20.868762969970703, -155.06777954101562, -1.33794367313385, 0.26220703125, 0.555908203125, -0.5673828125
556, 3498778758, -12.790693283081055, -0.40762707591056824, 0.33332347869873047, 2.7989275455474854, -133.8693084716797, -25.19122314453125, 0.23974609375, 0.563720703125, -0.5830078125
557, 3498795425, -14.432923316955566, 1.070926308631897, -3.392857313156128, 27.445528030395508, -97.43177032470703, -33.50279235839844, 0.21630859375, 0.56591796875, -0.593994140625
558, 3498812092, -11.615518569946289, 2.9281904697418213, -4.517639636993408, 54.074554443359375, -43.35515594482422, -16.720500946044922, 0.203369140625, 0.559814453125, -0.611328125
559, 3498828759, -8.64305591583252, 3.699237823486328, -2.32664155960083, 53.598453521728516, 17.839393615722656, 17.040050506591797, 0.2041015625, 0.55078125, -0.618408203125
560, 3498845426, -10.076499938964844, 2.4199440479278564, 1.3353673219680786, 19.830751419067383, 53.64856719970703, 50.78121566772461, 0.22412109375, 0.54150390625, -0.619873046875
561, 3498862093, -12.207883834838867, -0.24147659540176392, 3.7008917331695557, -18.27169418334961, 54.54249954223633, 70.63762664794922, 0.24658203125, 0.5361328125, -0.61181640625
562, 3498878760, -7.882966995239258, -7.951633930206299, 4.053109169006348, -3.2149298191070557, 61.69649887084961, 78.28690338134766, 0.266845703125, 0.5283203125, -0.600341796875
563, 3498895427, -2.051734685897827, -7.937788963317871, 9.621031761169434, 67.4197769165039, 87.75945281982422, 85.5003433227539, 0.2939453125, 0.505859375, -0.6025390625
564, 3498912094, -0.5468342304229736, -7.3456926345825195, 6.082479476928711, 45.772884368896484, 105.3422622680664, 37.65546798706055, 0.318359375, 0.487548828125, -0.598388671875
565, 3498928761, -7.582071781158447, -1.4993821382522583, 10.05357551574707, 32.000701904296875, 126.95735931396484, 14.323426246643066, 0.346435546875, 0.4755859375, -0.585693359375
566, 3498945428, -12.797136306762695, 2.303612232208252, 13.336968421936035, 23.859338760375977, 103.67244720458984, 19.011089324951172, 0.369384765625, 0.464111328125, -0.5751953125
567, 3498962095, -11.397525787353516, 1.929171085357666, 13.57455062866211, -12.241207122802734, 69.11441802978516, 21.735637664794922, 0.385498046875, 0.459228515625, -0.564208984375
568, 3498978762, -6.776207447052002, -3.572681427001953, 8.643644332885742, -28.80660629272461, 55.08534622192383, 7.296627998352051, 0.393310546875, 0.4609375, -0.552734375
569, 3498995429, -4.070858478546143, -5.330129623413086, 7.158175945281982, -24.073671340942383, 63.25417709350586, 1.5364216566085815, 0.407958984375, 0.46337890625, -0.540283203125
570, 3499012096, -11.487602233886719, -4.618475914001465, 8.750958442687988, 18.423580169677734, 32.16476821899414, 15.456192016601562, 0.41650390625, 0.45751953125, -0.5380859375
571, 3499028763, -5.9981913566589355, -2.85715913772583, 8.451569557189941, 7.8883538246154785, 14.393896102905273, 5.8740668296813965, 0.419921875, 0.45458984375, -0.532958984375
572, 3499045430, -4.965141296386719, -3.238509178161621, 7.4718146324157715, 10.661481857299805, 10.56142807006836, 7.967165470123291, 0.421875, 0.453369140625, -0.533935546875
573, 3499062097, -5.669122219085693, -2.452038526535034, 7.985200881958008, 11.011863708496094, 6.914059162139893, 7.72421407699585, 0.424560546875, 0.448974609375, -0.533935546875
574, 3499078764, -5.3209686279296875, -2.6461987495422363, 7.87181282043457, 11.162991523742676, 6.855673789978027, 7.569756984710693, 0.429931640625, 0.446044921875, -0.53466796875
575, 3499095431, -5.300374507904053, -2.2629332542419434, 7.8604512214660645, 11.67441177368164, 6.578004837036133, 7.117511749267578, 0.428955078125, 0.444091796875, -0.53466796875
576, 3499112098, -5.261150360107422, -3.05766224861145, 7.723028659820557, 12.347146987915039, 10.092011451721191, 7.302950859069824, 0.42822265625, 0.4404296875, -0.5361328125
577, 3499128765, -5.313657760620117, -2.6786065101623535, 7.778291702270508, 9.769413948059082, 9.059736251831055, 5.869390487670898, 0.431640625, 0.4345703125, -0.533203125
578, 3499145432, -5.2328948974609375, -2.7349512577056885, 7.594595432281494, 11.375936508178711, 8.89513874053955, 7.202304840087891, 0.434814453125, 0.4345703125, -0.53515625
579, 3499162099, -5.5019378662109375, -2.3021080493927, 7.850300312042236, 11.826627731323242, 6.947457313537598, 6.971429824829102, 0.440185546875, 0.43212890625, -0.533935546875
580, 3499178766, -5.343005657196045, -2.4224801063537598, 7.6252007484436035, 11.80456256866455, 4.854461193084717, 6.4966721534729, 0.439208984375, 0.427978515625, -0.532958984375
581, 3499195433, -5.223294258117676, -2.521355152130127, 7.586212635040283, 13.697933197021484, 3.6433393955230713, 7.8173298835754395, 0.44091796875, 0.423095703125, -0.534912109375
582, 3499212100, -5.291347503662109, -2.5876026153564453, 7.2866363525390625, 19.822031021118164, -0.4161559045314789, 10.9014310836792, 0.443359375, 0.41943359375, -0.538330078125
583, 3499228767, -5.232745170593262, -3.2674503326416016, 7.172081470489502, 31.265525817871094, -9.05866527557373, 16.470985412597656, 0.442138671875, 0.409912109375, -0.542724609375
584, 3499245434, -5.482494354248047, -2.894435405731201, 7.870685577392578, 35.840824127197266, -15.606048583984375, 18.48285484313965, 0.4462890625, 0.4013671875, -0.548095703125
585, 3499262101, -5.346739292144775, -2.554809808731079, 8.038294792175293, 31.745220184326172, -18.487159729003906, 16.991413116455078, 0.44384765625, 0.39599609375, -0.5546875
586, 3499278768, -5.227589130401611, -1.5935826301574707, 8.25708293914795, 22.451831817626953, -13.302364349365234, 12.942588806152344, 0.443359375, 0.388916015625, -0.55712890625
587, 3499295435, -5.375217914581299, -1.0950396060943604, 8.526646614074707, 8.682727813720703, -5.0148024559021, 6.709396839141846, 0.4423828125, 0.384765625, -0.562744140625
588, 3499312102, -5.327528476715088, -1.4804184436798096, 8.24526596069336, 0.058198463171720505, 2.8112051486968994, 1.5482556819915771, 0.4404296875, 0.38232421875, -0.560546875
589, 3499328769, -5.395065784454346, -1.913048267364502, 8.009605407714844, -5.474255084991455, 6.862764835357666, -1.3393011093139648, 0.44287109375, 0.3828125, -0.5595703125
590, 3499345436, -5.4179534912109375, -2.1272366046905518, 7.873140335083008, -6.366231441497803, 8.106980323791504, -1.5574321746826172, 0.445556640625, 0.38427734375, -0.556640625
591, 3499362103, -5.298162937164307, -2.300436019897461, 7.749885559082031, -6.870980739593506, 8.679488182067871, -0.6163954734802246, 0.447021484375, 0.38330078125, -0.553955078125
592, 3499378770, -5.209360599517822, -2.3374600410461426, 7.751870632171631, -6.06220817565918, 8.939546585083008, 1.3454420566558838, 0.447021484375, 0.38525390625, -0.553466796875
593, 3499395437, -4.951789379119873, -2.5620741844177246, 7.794712543487549, -3.5446975231170654, 11.49373722076416, 5.609114170074463, 0.451416015625, 0.385986328125, -0.54833984375
594, 3499412104, -4.9365668296813965, -2.6119396686553955, 7.882778167724609, -3.8180394172668457, 15.918142318725586, 12.17722225189209, 0.454833984375, 0.384765625, -0.54833984375
595, 3499428771, -5.124670028686523, -2.072330951690674, 8.116533279418945, -8.184208869934082, 23.588499069213867, 15.579760551452637, 0.4599609375, 0.380859375, -0.544189453125
596, 3499445438, -4.870778560638428, -2.3279497623443604, 8.46629524230957, -11.500475883483887, 33.643402099609375, 18.95065689086914, 0.467529296875, 0.380859375, -0.53857421875
597, 3499462105, -4.867888927459717, -1.5280245542526245, 8.679224014282227, -7.657003402709961, 54.415767669677734, 14.676608085632324, 0.47900390625, 0.379638671875, -0.52978515625
598, 3499478772, -4.941204071044922, -1.738090991973877, 8.717381477355957, -12.579265594482422, 79.3672103881836, 11.542041778564453, 0.489501953125, 0.379638671875, -0.517578125
599, 3499495439, -5.114047050476074, -1.8455077409744263, 8.782541275024414, -21.110401153564453, 109.01358032226562, 11.958857536315918, 0.50732421875, 0.38134765625, -0.50048828125
600, 3499512106, -5.263613224029541, -2.245445728302002, 8.77953052520752, -29.874387741088867, 140.71934509277344, 17.000268936157227, 0.5283203125, 0.38134765625, -0.4755859375
601, 3499528773, -5.062204837799072, -2.1700599193573, 9.345222473144531, -32.390716552734375, 176.9466094970703, 25.74970817565918, 0.55419921875, 0.383544921875, -0.44482421875
602, 3499545440, -5.173903942108154, -2.288235664367676, 8.955894470214844, -40.4702262878418, 230.87692260742188, 35.10469436645508, 0.5869140625, 0.3818359375, -0.402099609375
603, 3499562107, -5.315684795379639, -4.206457138061523, 9.317119598388672, -42.55881118774414, 292.67547607421875, 59.00687789916992, 0.62451171875, 0.3798828125, -0.345703125
604, 3499578774, -7.47328519821167, -5.369661331176758, 11.17243480682373, -34.55788040161133, 351.2841491699219, 102.44348907470703, 0.67041015625, 0.366455078125, -0.27734375
605, 3499595441, -8.494446754455566, -4.607077121734619, 10.660979270935059, -33.878265380859375, 401.54498291015625, 144.89404296875, 0.715087890625, 0.341552734375, -0.1904296875
606, 3499612108, -16.597084045410156, -6.972099781036377, 13.772953033447266, -53.4129753112793, 408.34857177734375, 153.83253479003906, 0.75390625, 0.31103515625, -0.093994140625
607, 3499628775, -19.47432518005371, -4.784609317779541, 16.51433753967285, -72.79702758789062, 366.8424377441406, 142.4789581298828, 0.78076171875, 0.281494140625, -0.005615234375
608, 3499645442, -15.364806175231934, -5.090616226196289, 15.592208862304688, -95.10411834716797, 290.12322998046875, 129.51512145996094, 0.802978515625, 0.25732421875, 0.0712890625
609, 3499662109, -1.5938069820404053, -6.719631671905518, 13.903109550476074, -87.02656555175781, 237.42347717285156, 148.5050811767578, 0.82177734375, 0.228271484375, 0.13427734375
610, 3499678776, -10.433859825134277, -15.339432716369629, 20.290403366088867, -76.01216125488281, 186.59971618652344, 98.66117095947266, 0.829833984375, 0.200439453125, 0.188232421875
611, 3499695443, -10.560432434082031, -16.261924743652344, 23.63323402404785, -21.4570255279541, -37.08780288696289, -4.889944553375244, 0.84375, 0.200439453125, 0.18798828125
612, 3499712110, 1.7957364320755005, -9.573966979980469, 13.831160545349121, 41.09218215942383, -153.8050079345703, -54.081966400146484, 0.85693359375, 0.221923828125, 0.1416015625
613, 3499728777, 4.973177433013916, -3.61538028717041, 9.064276695251465, 56.594600677490234, -171.25489807128906, -65.1582260131836, 0.864501953125, 0.249267578125, 0.083740234375
614, 3499745444, 3.1424412727355957, -1.0717847347259521, 7.842642784118652, 30.68747329711914, -166.19053649902344, -73.3269271850586, 0.859130859375, 0.276123046875, 0.02734375
615, 3499762111, 0.19319650530815125, -0.5768423676490784, 7.941965103149414, -6.647935390472412, -169.1309356689453, -84.37397766113281, 0.850830078125, 0.296630859375, -0.021728515625
616, 3499778778, -3.0699727535247803, -1.2959402799606323, 8.39179801940918, -30.78141212463379, -183.36448669433594, -92.43636322021484, 0.83349609375, 0.3232421875, -0.06591796875
617, 3499795445, -6.7727251052856445, -2.431446075439453, 8.845782279968262, -31.949453353881836, -214.3616180419922, -95.34800720214844, 0.815185546875, 0.348388671875, -0.1171875
618, 3499812112, -9.26310920715332, -2.435802698135376, 8.743289947509766, -20.169872283935547, -256.9795837402344, -97.65540313720703, 0.79345703125, 0.3759765625, -0.174072265625
619, 3499828779, -8.455243110656738, -1.9406019449234009, 7.507775783538818, -8.910574913024902, -286.980712890625, -97.63192749023438, 0.76220703125, 0.405517578125, -0.2470703125
620, 3499845446, -7.7363362312316895, -1.0815696716308594, 6.362779140472412, -7.717289924621582, -287.6199035644531, -90.86536407470703, 0.71826171875, 0.43310546875, -0.317138671875
621, 3499862113, -9.142770767211914, -0.30964910984039307, 7.259634017944336, -27.987430572509766, -266.11016845703125, -84.76683807373047, 0.66064453125, 0.459228515625, -0.37109375
622, 3499878780, -12.219286918640137, -0.8104338049888611, 9.103784561157227, -65.70123291015625, -251.9218292236328, -92.89551544189453, 0.59912109375, 0.477783203125, -0.390625
623, 3499895447, -14.15184497833252, -4.075942516326904, 10.331390380859375, -84.34812927246094, -253.41709899902344, -100.0464859008789, 0.5498046875, 0.49365234375, -0.38818359375
624, 3499912114, -17.95793914794922, -7.634346008300781, 10.959022521972656, -64.67549896240234, -260.51739501953125, -106.62385559082031, 0.53466796875, 0.511474609375, -0.39404296875
625, 3499928781, -21.542434692382812, -7.929203987121582, 10.164148330688477, -28.7752628326416, -277.33544921875, -132.4877471923828, 0.517822265625, 0.546142578125, -0.439208984375
626, 3499945448, -21.03630828857422, -5.128427982330322, 7.79389762878418, -6.181948661804199, -286.1140441894531, -156.98728942871094, 0.4716796875, 0.585693359375, -0.496337890625
627, 3499962115, -20.079832077026367, -2.868380546569824, 4.735935688018799, 3.12609601020813, -269.1351623535156, -161.04873657226562, 0.407958984375, 0.620849609375, -0.548095703125
628, 3499978782, -20.56975746154785, -2.5349600315093994, 1.843691110610962, 17.71154022216797, -235.9302215576172, -148.7150115966797, 0.334716796875, 0.64697265625, -0.5888671875
629, 3499995449, -22.998857498168945, -0.4117702543735504, -1.884332537651062, 27.372352600097656, -205.3153839111328, -121.35432434082031, 0.267822265625, 0.66162109375, -0.617431640625
630, 3500012116, -26.874988555908203, 5.842177391052246, -7.879209518432617, 0.09652767330408096, -173.31326293945312, -83.95927429199219, 0.21240234375, 0.668701171875, -0.640625
631, 3500028783, -22.974241256713867, 12.115848541259766, -14.367903709411621, -63.27539825439453, -95.5748519897461, -61.21013259887695, 0.174072265625, 0.6865234375, -0.638916015625
632, 3500045450, -13.083395957946777, 6.2000579833984375, -13.337230682373047, -43.91863250732422, 36.02907943725586, -2.0099666118621826, 0.161376953125, 0.698486328125, -0.62841796875
633, 3500062117, -16.104019165039062, 3.02459454536438, -7.563416957855225, 45.44233322143555, 153.29820251464844, 92.5988998413086, 0.199462890625, 0.689697265625, -0.62890625
634, 3500078784, -13.426074981689453, -2.7259180545806885, 4.995743751525879, 67.55135345458984, 173.7205352783203, 133.73880004882812, 0.257080078125, 0.671630859375, -0.628173828125
635, 3500095451, -9.388851165771484, -11.689814567565918, 11.549980163574219, 89.55764770507812, 115.76225280761719, 110.57530975341797, 0.30029296875, 0.644775390625, -0.634521484375
636, 3500112118, -1.6701909303665161, -5.724096775054932, 5.451047420501709, 74.2684555053711, 136.44248962402344, 66.98603820800781, 0.338134765625, 0.62109375, -0.63671875
637, 3500128785, -10.115735054016113, 2.125495672225952, 12.714190483093262, 42.10434341430664, 199.5876007080078, 15.146173477172852, 0.376708984375, 0.608642578125, -0.625732421875
638, 3500145452, -14.888239860534668, 7.721514701843262, 16.039491653442383, 13.049466133117676, 153.4649200439453, 38.45003128051758, 0.41015625, 0.60205078125, -0.607421875
639, 3500162119, -11.682886123657227, -4.972220420837402, 11.596322059631348, -15.213983535766602, 109.36473846435547, 54.22394561767578, 0.440673828125, 0.59716796875, -0.58935546875
640, 3500178786, -14.138884544372559, -8.936555862426758, 6.1827712059021, 53.959251403808594, 49.66865921020508, 34.435699462890625, 0.458251953125, 0.585693359375, -0.5888671875
641, 3500195453, -7.683077335357666, -0.6120511293411255, 10.416656494140625, 34.36026382446289, 27.00891876220703, 23.171733856201172, 0.469482421875, 0.57470703125, -0.592041015625
642, 3500212120, -6.5759077072143555, -3.899135112762451, 7.5069427490234375, 28.707353591918945, 13.095438003540039, 15.064884185791016, 0.4755859375, 0.568359375, -0.593994140625
643, 3500228787, -6.100131511688232, -2.4404680728912354, 8.149240493774414, 18.4595947265625, 3.93070387840271, 9.847029685974121, 0.476806640625, 0.562255859375, -0.597412109375
644, 3500245454, -6.006337642669678, -1.9642850160598755, 8.338517189025879, 15.098871231079102, 1.6635653972625732, 7.632469177246094, 0.477294921875, 0.557373046875, -0.601806640625
645, 3500262121, -5.803250312805176, -2.173499822616577, 8.021438598632812, 8.578481674194336, 1.4756824970245361, 3.891946792602539, 0.480224609375, 0.5556640625, -0.599853515625
646, 3500278788, -5.619059085845947, -2.2699413299560547, 7.898474216461182, 3.9353978633880615, 2.8853538036346436, 1.4218443632125854, 0.48291015625, 0.55419921875, -0.6005859375
647, 3500295455, -5.498311996459961, -2.2734107971191406, 7.937628269195557, 0.6452288031578064, 4.9976983070373535, -0.6697209477424622, 0.482421875, 0.55322265625, -0.60107421875
648, 3500312122, -5.428859233856201, -2.3913137912750244, 7.845289707183838, -1.8981573581695557, 6.901758670806885, -1.3680511713027954, 0.484375, 0.554443359375, -0.6005859375
649, 3500328789, -5.48051118850708, -2.6364104747772217, 7.657522201538086, -4.017827033996582, 8.374784469604492, -0.8468970060348511, 0.48583984375, 0.554931640625, -0.60009765625
650, 3500345456, -5.408757209777832, -2.864410638809204, 7.373354434967041, -3.526921033859253, 8.128327369689941, 1.5791194438934326, 0.486328125, 0.555419921875, -0.595703125
651, 3500362123, -5.39000940322876, -2.873105049133301, 7.274984836578369, 0.1830347776412964, 6.7869367599487305, 5.062101364135742, 0.49072265625, 0.554443359375, -0.595458984375
652, 3500378790, -5.526928901672363, -2.631824493408203, 7.543591022491455, 1.5630089044570923, 6.453665256500244, 6.3666839599609375, 0.493408203125, 0.55224609375, -0.593994140625
653, 3500395457, -5.765566825866699, -2.4147863388061523, 7.532932281494141, 0.7714610695838928, 5.438121318817139, 5.2089643478393555, 0.4921875, 0.55126953125, -0.594482421875
654, 3500412124, -5.690127849578857, -2.816053867340088, 7.423263072967529, 0.17310987412929535, 4.897847652435303, 4.987555503845215, 0.493896484375, 0.55078125, -0.593505859375
