sep=,
DeviceTag:,B,,,,,,,,,,,,,,,,,
FirmwareVersion:,2.2.1,,,,,,,,,,,,,,,,,
AppVersion:,2022.0.1,,,,,,,,,,,,,,,,,
SyncStatus:,Synced,,,,,,,,,,,,,,,,,
OutputRate:,60Hz,,,,,,,,,,,,,,,,,
FilterProfile:,General,,,,,,,,,,,,,,,,,
Measurement Mode:,Inertial Mode - Rate quantities (with mag),,,,,,,,,,,,,,,,,
StartTime:,2022-08-05 16:53:52.654 +0300,,,,,,,,,,,,,,,,,
© Xsens Technologies B. V. 2005-2022,,,,,,,,,,,,,,,,,,,

PacketCounter,SampleTimeFine,Acc_X,Acc_Y,Acc_Z,Gyr_X,Gyr_Y,Gyr_Z,Mag_X,Mag_Y,Mag_Z
1, 3879703043, -5.364462852478027, -2.2426044940948486, 7.749807357788086, -0.16055002808570862, -0.8591271638870239, -1.014951229095459, 0.04443359375, 0.211669921875, -0.811279296875
2, 3879719710, -5.372406959533691, -2.2147672176361084, 7.745658874511719, -0.14336706697940826, -0.6575547456741333, -0.9116455316543579, 0.04296875, 0.212158203125, -0.812744140625
3, 3879736377, -5.3715996742248535, -2.2112977504730225, 7.762495994567871, -0.09009266644716263, -0.5610845685005188, -0.9175620675086975, 0.04248046875, 0.211669921875, -0.812744140625
4, 3879753044, -5.389797210693359, -2.2114009857177734, 7.753459453582764, -0.16232047975063324, -0.475614994764328, -0.8914499282836914, 0.04345703125, 0.212158203125, -0.811767578125
5, 3879769711, -5.388149738311768, -2.223743438720703, 7.749825477600098, -0.22701814770698547, -0.4644094407558441, -0.9458129405975342, 0.04736328125, 0.2119140625, -0.812744140625
6, 3879786378, -5.3776750564575195, -2.233319044113159, 7.741322994232178, -0.24964699149131775, -0.5144566893577576, -0.9246312379837036, 0.043212890625, 0.212890625, -0.808349609375
7, 3879803045, -5.37779426574707, -2.222445011138916, 7.724186420440674, -0.12501560151576996, -0.5786164999008179, -0.8812817931175232, 0.04736328125, 0.210693359375, -0.812744140625
8, 3879819712, -5.38379430770874, -2.2165205478668213, 7.738603591918945, -0.16771195828914642, -0.7314474582672119, -0.9169089198112488, 0.04541015625, 0.211181640625, -0.814697265625
9, 3879836379, -5.359714031219482, -2.222588300704956, 7.728697776794434, -0.09279481321573257, -0.7046438455581665, -0.8717923164367676, 0.0439453125, 0.211181640625, -0.813720703125
10, 3879853046, -5.378271102905273, -2.21891188621521, 7.7387261390686035, -0.05867869034409523, -0.6749457716941833, -0.909839928150177, 0.0439453125, 0.212890625, -0.811767578125
11, 3879869713, -5.3730149269104, -2.2016570568084717, 7.755954742431641, -0.20149511098861694, -0.41895973682403564, -0.9572234749794006, 0.0439453125, 0.21435546875, -0.813720703125
12, 3879886380, -5.393402099609375, -2.2296040058135986, 7.737515449523926, -0.28809165954589844, -0.380566269159317, -0.9440712332725525, 0.0439453125, 0.21240234375, -0.813720703125
13, 3879903047, -5.405537128448486, -2.2147278785705566, 7.763365745544434, -0.3133457899093628, -0.24670152366161346, -0.930637538433075, 0.04296875, 0.212890625, -0.81396484375
14, 3879919714, -5.374701976776123, -2.2242789268493652, 7.724489688873291, -0.3292256295681, -0.34287720918655396, -1.0121371746063232, 0.0439453125, 0.21337890625, -0.814208984375
15, 3879936381, -5.3931884765625, -2.211718797683716, 7.730739593505859, -0.2545006275177002, -0.40378424525260925, -0.937271237373352, 0.044921875, 0.2138671875, -0.812744140625
16, 3879953048, -5.379101276397705, -2.2244513034820557, 7.7522664070129395, -0.27952420711517334, -0.4663432240486145, -0.9874336123466492, 0.0458984375, 0.2138671875, -0.811279296875
17, 3879969715, -5.381143093109131, -2.226409673690796, 7.738366603851318, -0.1948101967573166, -0.48538628220558167, -0.9380522966384888, 0.04638671875, 0.211181640625, -0.810302734375
18, 3879986382, -5.3923845291137695, -2.2334280014038086, 7.74299955368042, -0.20832088589668274, -0.41478484869003296, -0.8624435663223267, 0.044921875, 0.210693359375, -0.812255859375
19, 3880003049, -5.381862640380859, -2.216972827911377, 7.754278659820557, -0.13149559497833252, -0.4994604289531708, -0.8223341107368469, 0.04541015625, 0.21240234375, -0.812744140625
20, 3880019716, -5.365731716156006, -2.222201108932495, 7.765855312347412, -0.14481419324874878, -0.5308231711387634, -0.8101809024810791, 0.042236328125, 0.212158203125, -0.812255859375
21, 3880036383, -5.38458776473999, -2.216618537902832, 7.757532119750977, -0.17019636929035187, -0.4926602840423584, -0.8317595720291138, 0.04541015625, 0.2138671875, -0.813232421875
22, 3880053050, -5.364040851593018, -2.2131235599517822, 7.737276077270508, -0.12600167095661163, -0.4313563108444214, -0.815867006778717, 0.044921875, 0.211181640625, -0.809814453125
23, 3880069717, -5.3856987953186035, -2.2072629928588867, 7.761185646057129, -0.2130848467350006, -0.2760792672634125, -0.8714336156845093, 0.04638671875, 0.21142578125, -0.809814453125
24, 3880086384, -5.3995361328125, -2.223754405975342, 7.743117809295654, -0.12486188858747482, -0.40345120429992676, -0.9119144678115845, 0.0439453125, 0.211669921875, -0.811767578125
25, 3880103051, -5.382826328277588, -2.2134461402893066, 7.7367262840271, -0.15813279151916504, -0.4544205069541931, -0.8934093713760376, 0.04296875, 0.21240234375, -0.812255859375
26, 3880119718, -5.3660078048706055, -2.2004826068878174, 7.750044822692871, -0.1765611469745636, -0.49116188287734985, -0.8485999703407288, 0.0439453125, 0.210693359375, -0.809814453125
27, 3880136385, -5.380244255065918, -2.19366192817688, 7.738938331604004, -0.1959243267774582, -0.44854235649108887, -0.9118248224258423, 0.0458984375, 0.21240234375, -0.811767578125
28, 3880153052, -5.369083404541016, -2.209106922149658, 7.744694232940674, -0.2047095000743866, -0.43120256066322327, -0.9417661428451538, 0.04296875, 0.211669921875, -0.813232421875
29, 3880169719, -5.3818769454956055, -2.2108330726623535, 7.762651443481445, -0.1517808437347412, -0.3974706828594208, -0.9526259303092957, 0.04541015625, 0.2119140625, -0.811279296875
30, 3880186386, -5.392042636871338, -2.231022834777832, 7.725898265838623, -0.27797457575798035, -0.4303061366081238, -0.8746864795684814, 0.044921875, 0.208740234375, -0.809814453125
31, 3880203053, -5.387479782104492, -2.2220351696014404, 7.740920543670654, -0.1719636470079422, -0.37488025426864624, -0.8238580822944641, 0.04248046875, 0.209716796875, -0.814208984375
32, 3880219720, -5.392252445220947, -2.214137077331543, 7.729644775390625, -0.1928892284631729, -0.3870334327220917, -0.8817299604415894, 0.04345703125, 0.210205078125, -0.813232421875
33, 3880236387, -5.388998508453369, -2.2155447006225586, 7.750375270843506, -0.10236116498708725, -0.4448029696941376, -0.7938784956932068, 0.042724609375, 0.2138671875, -0.81591796875
34, 3880253054, -5.382629871368408, -2.2221550941467285, 7.7459211349487305, -0.14711934328079224, -0.4713248908519745, -0.9323022365570068, 0.044921875, 0.211669921875, -0.811767578125
35, 3880269721, -5.383316516876221, -2.229315996170044, 7.747244358062744, -0.14938221871852875, -0.4585716426372528, -0.8091024160385132, 0.044921875, 0.21337890625, -0.811279296875
36, 3880286388, -5.385651111602783, -2.212024450302124, 7.737034797668457, 0.012569432146847248, -0.4048343002796173, -0.7861689925193787, 0.04443359375, 0.211669921875, -0.811279296875
37, 3880303055, -5.38466215133667, -2.22818922996521, 7.72848653793335, -0.13377514481544495, -0.5231649875640869, -0.7711215019226074, 0.04638671875, 0.210693359375, -0.809814453125
38, 3880319722, -5.379435062408447, -2.220949411392212, 7.750531196594238, -0.10168242454528809, -0.5373160243034363, -0.8090412616729736, 0.04345703125, 0.21337890625, -0.813720703125
39, 3880336389, -5.399066925048828, -2.2153494358062744, 7.731504917144775, -0.11949604004621506, -0.4290895462036133, -0.8501878976821899, 0.044921875, 0.211181640625, -0.813720703125
40, 3880353056, -5.390594959259033, -2.221593141555786, 7.734635829925537, -0.09764841198921204, -0.4655108153820038, -0.8438487648963928, 0.04345703125, 0.21240234375, -0.811767578125
41, 3880369723, -5.368531703948975, -2.2214555740356445, 7.744147777557373, -0.09662390500307083, -0.3739197850227356, -0.880180299282074, 0.044921875, 0.209716796875, -0.811767578125
42, 3880386390, -5.384258270263672, -2.217573404312134, 7.718710899353027, -0.06879571080207825, -0.4732458293437958, -0.8271108865737915, 0.0478515625, 0.21142578125, -0.811279296875
43, 3880403057, -5.384776592254639, -2.222487449645996, 7.736807823181152, -0.028647804632782936, -0.5793464779853821, -0.806710422039032, 0.046875, 0.21337890625, -0.809814453125
44, 3880419724, -5.397404193878174, -2.201540946960449, 7.762945175170898, -0.013408247381448746, -0.5743391513824463, -0.8391104340553284, 0.04443359375, 0.2119140625, -0.809326171875
45, 3880436391, -5.390099048614502, -2.2047808170318604, 7.7453107833862305, -0.06587585806846619, -0.6408681273460388, -0.9165504574775696, 0.04541015625, 0.2119140625, -0.813232421875
46, 3880453058, -5.384655952453613, -2.2098255157470703, 7.724133491516113, -0.15683935582637787, -0.5065935254096985, -0.8745200037956238, 0.04736328125, 0.2119140625, -0.812255859375
47, 3880469725, -5.402297496795654, -2.195559024810791, 7.736719608306885, -0.1054602861404419, -0.547497034072876, -0.8129470348358154, 0.04638671875, 0.211181640625, -0.809814453125
48, 3880486392, -5.377274513244629, -2.2215919494628906, 7.7346720695495605, -0.1747298389673233, -0.48456671833992004, -0.8429396152496338, 0.0458984375, 0.210205078125, -0.808349609375
49, 3880503059, -5.398360729217529, -2.2133641242980957, 7.761080741882324, -0.17786738276481628, -0.4345962703227997, -0.7932379841804504, 0.044921875, 0.211669921875, -0.812255859375
50, 3880519726, -5.4004364013671875, -2.2171623706817627, 7.718117713928223, -0.1507563441991806, -0.5543612837791443, -0.7999870181083679, 0.04443359375, 0.210693359375, -0.814208984375
51, 3880536393, -5.388411045074463, -2.221529483795166, 7.748159885406494, -0.05190413072705269, -0.48748651146888733, -0.8569496273994446, 0.04541015625, 0.21142578125, -0.813232421875
52, 3880553060, -5.392245769500732, -2.209120750427246, 7.748907089233398, -0.1531127244234085, -0.4485296308994293, -0.8592804670333862, 0.04541015625, 0.211181640625, -0.814208984375
53, 3880569727, -5.389455318450928, -2.185235023498535, 7.757183074951172, -0.17776493728160858, -0.4495156705379486, -0.8692693710327148, 0.04638671875, 0.209716796875, -0.811767578125
54, 3880586394, -5.392161846160889, -2.2077090740203857, 7.7242817878723145, -0.24023430049419403, -0.5577804446220398, -0.8974305391311646, 0.04736328125, 0.2119140625, -0.810302734375
55, 3880603061, -5.381051540374756, -2.1981897354125977, 7.7307209968566895, -0.16171857714653015, -0.622619092464447, -0.9395121932029724, 0.0439453125, 0.21240234375, -0.810791015625
56, 3880619728, -5.374094486236572, -2.209301710128784, 7.744857311248779, -0.18884241580963135, -0.4969246983528137, -0.920648455619812, 0.044921875, 0.21337890625, -0.810791015625
57, 3880636395, -5.392351150512695, -2.2228968143463135, 7.739382743835449, -0.09014389663934708, -0.5530550479888916, -0.9381932020187378, 0.04345703125, 0.211181640625, -0.814697265625
58, 3880653062, -5.388827800750732, -2.208432674407959, 7.750363826751709, -0.07763209939002991, -0.5504937767982483, -0.8098223209381104, 0.04638671875, 0.21142578125, -0.814208984375
59, 3880669729, -5.400444030761719, -2.210555076599121, 7.731576919555664, -0.009476698935031891, -0.5998110771179199, -0.771467387676239, 0.044921875, 0.211181640625, -0.811279296875
60, 3880686396, -5.389692306518555, -2.2045023441314697, 7.730464458465576, -0.004763961769640446, -0.6881875395774841, -0.838982343673706, 0.04541015625, 0.211181640625, -0.807373046875
61, 3880703063, -5.379644393920898, -2.212254285812378, 7.744754791259766, -0.032502513378858566, -0.5326288938522339, -0.8179926872253418, 0.04443359375, 0.211181640625, -0.812255859375
62, 3880719730, -5.377854824066162, -2.1972196102142334, 7.742353916168213, -0.19396497309207916, -0.5782963037490845, -0.8240116834640503, 0.04296875, 0.211669921875, -0.812744140625
63, 3880736397, -5.404169082641602, -2.1891331672668457, 7.758449077606201, -0.25471827387809753, -0.5028924942016602, -0.9221340417861938, 0.0439453125, 0.211181640625, -0.813720703125
64, 3880753064, -5.3947672843933105, -2.200819969177246, 7.744833946228027, -0.13556799292564392, -0.6363347172737122, -0.9487454891204834, 0.044921875, 0.210693359375, -0.814208984375
65, 3880769731, -5.371964931488037, -2.2078239917755127, 7.746580123901367, -0.2010468691587448, -0.5489954352378845, -0.9183946251869202, 0.04541015625, 0.211669921875, -0.809814453125
66, 3880786398, -5.3887457847595215, -2.199169158935547, 7.733301639556885, -0.34642454981803894, -0.4683666229248047, -0.905677855014801, 0.04541015625, 0.209716796875, -0.807861328125
67, 3880803065, -5.376567363739014, -2.2103428840637207, 7.752991676330566, -0.2970944941043854, -0.2749907374382019, -0.883394718170166, 0.04443359375, 0.209716796875, -0.811279296875
68, 3880819732, -5.3789963722229, -2.2129759788513184, 7.743098735809326, -0.3580358326435089, -0.27819621562957764, -0.8833709955215454, 0.0458984375, 0.210693359375, -0.811279296875
69, 3880836399, -5.389582633972168, -2.2101986408233643, 7.739931583404541, -0.42719417810440063, -0.13850067555904388, -0.8130239248275757, 0.04443359375, 0.210205078125, -0.809814453125
70, 3880853066, -5.40425968170166, -2.198469877243042, 7.733279228210449, -0.37836363911628723, -0.20752690732479095, -0.760953426361084, 0.0439453125, 0.212890625, -0.811279296875
71, 3880869733, -5.393710136413574, -2.2095797061920166, 7.728808879852295, -0.3594229817390442, -0.36222758889198303, -0.7929818630218506, 0.04736328125, 0.2119140625, -0.810302734375
72, 3880886400, -5.388606548309326, -2.200679063796997, 7.744954586029053, -0.33785709738731384, -0.37663471698760986, -0.8811664581298828, 0.04638671875, 0.208740234375, -0.812744140625
73, 3880903067, -5.39925479888916, -2.204857110977173, 7.749904632568359, -0.35330161452293396, -0.31636807322502136, -0.8460643291473389, 0.0458984375, 0.209228515625, -0.808837890625
74, 3880919734, -5.39369535446167, -2.2156686782836914, 7.744294166564941, -0.230629563331604, -0.29411065578460693, -0.8333604335784912, 0.04443359375, 0.208740234375, -0.811767578125
75, 3880936401, -5.388675689697266, -2.205944061279297, 7.7361159324646, -0.22430320084095, -0.27952417731285095, -0.6880083084106445, 0.044921875, 0.210205078125, -0.813232421875
76, 3880953068, -5.3986639976501465, -2.193695545196533, 7.741551876068115, -0.0666058212518692, -0.3657877743244171, -0.714530348777771, 0.046875, 0.21142578125, -0.813232421875
77, 3880969735, -5.400927543640137, -2.200465440750122, 7.7589287757873535, -0.09825031459331512, -0.2393762767314911, -0.7962602972984314, 0.0458984375, 0.210205078125, -0.812255859375
78, 3880986402, -5.403592109680176, -2.2040674686431885, 7.718960285186768, -0.19231295585632324, -0.23712240159511566, -0.8154956102371216, 0.04638671875, 0.209716796875, -0.811767578125
79, 3881003069, -5.3953776359558105, -2.2037177085876465, 7.717173099517822, -0.18628115952014923, -0.336896687746048, -0.806505560874939, 0.0439453125, 0.212890625, -0.813232421875
80, 3881019736, -5.415924072265625, -2.20013689994812, 7.731574058532715, -0.14542889595031738, -0.4998701810836792, -0.8828696012496948, 0.0458984375, 0.209716796875, -0.812744140625
81, 3881036403, -5.415546417236328, -2.2104718685150146, 7.722349643707275, -0.0686420351266861, -0.6370774507522583, -0.8009858727455139, 0.0458984375, 0.210693359375, -0.814697265625
82, 3881053070, -5.403312683105469, -2.189617395401001, 7.729797840118408, 0.0270277988165617, -0.61826491355896, -0.7772045135498047, 0.046875, 0.210693359375, -0.812255859375
83, 3881069737, -5.403943061828613, -2.1848626136779785, 7.734555244445801, 0.028410885483026505, -0.4994860291481018, -0.8066335320472717, 0.04638671875, 0.210693359375, -0.811767578125
84, 3881086404, -5.403039932250977, -2.1950454711914062, 7.745314121246338, -0.09019512683153152, -0.5102177262306213, -0.8194783329963684, 0.0478515625, 0.210693359375, -0.810302734375
85, 3881103071, -5.404773712158203, -2.20383358001709, 7.725628852844238, -0.1307528018951416, -0.4491186738014221, -0.8829209804534912, 0.0439453125, 0.209716796875, -0.812255859375
86, 3881119738, -5.378830909729004, -2.2056994438171387, 7.725406169891357, -0.1514606922864914, -0.4747953712940216, -0.7807646989822388, 0.04638671875, 0.210693359375, -0.812744140625
87, 3881136405, -5.399233341217041, -2.207185983657837, 7.745339870452881, -0.07922007143497467, -0.4886389970779419, -0.7874239087104797, 0.044921875, 0.210205078125, -0.811767578125
88, 3881153072, -5.400661945343018, -2.2095279693603516, 7.730051517486572, -0.12653955817222595, -0.49901217222213745, -0.8376889824867249, 0.044921875, 0.209716796875, -0.812744140625
89, 3881169739, -5.402628421783447, -2.1906373500823975, 7.75329065322876, -0.17517805099487305, -0.42189234495162964, -0.8508026599884033, 0.04736328125, 0.209716796875, -0.810302734375
90, 3881186406, -5.389341354370117, -2.191110849380493, 7.72988224029541, -0.14772124588489532, -0.3477180302143097, -0.8394818305969238, 0.0498046875, 0.209716796875, -0.810546875
91, 3881203073, -5.4096527099609375, -2.186229944229126, 7.725607872009277, -0.1385262906551361, -0.37997719645500183, -0.8092843890190125, 0.044921875, 0.211669921875, -0.812255859375
92, 3881219740, -5.400211334228516, -2.200855016708374, 7.725067615509033, -0.03564007207751274, -0.6180216670036316, -0.772812008857727, 0.04638671875, 0.21337890625, -0.813232421875
93, 3881236407, -5.396571159362793, -2.1867659091949463, 7.7318572998046875, 0.04628854617476463, -0.5603162050247192, -0.800537645816803, 0.04736328125, 0.210205078125, -0.811767578125
94, 3881253074, -5.400188446044922, -2.193002939224243, 7.740497589111328, -0.08938831090927124, -0.43668368458747864, -0.8509050607681274, 0.04541015625, 0.209228515625, -0.811767578125
95, 3881269741, -5.3877854347229, -2.195965528488159, 7.756801605224609, -0.2153131514787674, -0.46606147289276123, -0.8610989451408386, 0.0458984375, 0.210693359375, -0.811279296875
96, 3881286408, -5.403544902801514, -2.2093045711517334, 7.775712490081787, -0.24002942442893982, -0.397086501121521, -0.8526084423065186, 0.0478515625, 0.21142578125, -0.811279296875
97, 3881303075, -5.395913124084473, -2.19246244430542, 7.737269401550293, -0.2576381266117096, -0.3732026219367981, -0.8623923659324646, 0.04638671875, 0.209716796875, -0.815673828125
98, 3881319742, -5.396158695220947, -2.191288948059082, 7.740765571594238, -0.2287726253271103, -0.39676633477211, -0.8761207461357117, 0.0458984375, 0.210205078125, -0.812255859375
99, 3881336409, -5.405285358428955, -2.1759893894195557, 7.717967510223389, -0.16570134460926056, -0.5069009065628052, -0.9705547094345093, 0.04736328125, 0.21240234375, -0.813720703125
100, 3881353076, -5.410118579864502, -2.1754369735717773, 7.712048053741455, -0.13506856560707092, -0.6416237354278564, -1.0078853368759155, 0.0478515625, 0.210205078125, -0.813720703125
101, 3881369743, -5.385250091552734, -2.2039437294006348, 7.727694511413574, -0.004482222255319357, -0.6598727703094482, -0.8995180130004883, 0.0458984375, 0.208251953125, -0.810302734375
102, 3881386410, -5.408915996551514, -2.1949825286865234, 7.746824264526367, -0.09583565592765808, -0.7159690856933594, -0.8594343662261963, 0.0458984375, 0.210693359375, -0.811767578125
103, 3881403077, -5.413331508636475, -2.1897597312927246, 7.749444961547852, -0.01900462433695793, -0.7062958478927612, -0.8887606859207153, 0.046875, 0.207763671875, -0.811767578125
104, 3881419744, -5.403346538543701, -2.1898577213287354, 7.752145290374756, -0.10060667991638184, -0.6416621208190918, -0.987267017364502, 0.04638671875, 0.209716796875, -0.811767578125
105, 3881436411, -5.403007984161377, -2.187459945678711, 7.731633186340332, -0.20963995158672333, -0.5429379940032959, -1.0291694402694702, 0.04443359375, 0.2119140625, -0.812255859375
106, 3881453078, -5.401181697845459, -2.1837618350982666, 7.733870506286621, -0.12336356937885284, -0.48518136143684387, -0.9594132900238037, 0.04833984375, 0.210205078125, -0.812255859375
107, 3881469745, -5.4041314125061035, -2.183403491973877, 7.74031925201416, -0.12368372082710266, -0.6101585030555725, -0.9403830170631409, 0.04638671875, 0.208251953125, -0.809814453125
108, 3881486412, -5.4005126953125, -2.1805317401885986, 7.735669136047363, -0.1695304661989212, -0.7154523134231567, -0.9059084057807922, 0.04736328125, 0.210205078125, -0.812744140625
109, 3881503079, -5.39703369140625, -2.1826205253601074, 7.743907928466797, -0.16694357991218567, -0.6800171732902527, -0.8992234468460083, 0.04736328125, 0.2109375, -0.812255859375
110, 3881519746, -5.400968551635742, -2.1908798217773438, 7.736633777618408, -0.16010497510433197, -0.5718162655830383, -0.9201874136924744, 0.044921875, 0.211669921875, -0.811279296875
111, 3881536413, -5.403414249420166, -2.186509132385254, 7.736878871917725, -0.039712484925985336, -0.5851604342460632, -0.9019383192062378, 0.04736328125, 0.21142578125, -0.812744140625
112, 3881553080, -5.391246795654297, -2.187394380569458, 7.748448848724365, -0.09987671673297882, -0.5248298048973083, -0.8915267586708069, 0.0478515625, 0.2109375, -0.813232421875
113, 3881569747, -5.4081854820251465, -2.169773817062378, 7.756784439086914, -0.059664785861968994, -0.59440678358078, -0.8478188514709473, 0.04736328125, 0.209716796875, -0.812744140625
114, 3881586414, -5.38372278213501, -2.186063528060913, 7.7363691329956055, -0.07256077975034714, -0.5798971652984619, -0.9075603485107422, 0.046875, 0.209716796875, -0.810791015625
115, 3881603081, -5.392354488372803, -2.1907191276550293, 7.741993427276611, 0.0037458573933690786, -0.6497557163238525, -0.8246263861656189, 0.0458984375, 0.210205078125, -0.812744140625
116, 3881619748, -5.394883632659912, -2.1810033321380615, 7.7402729988098145, -0.017006831243634224, -0.5582543611526489, -0.8295696973800659, 0.04736328125, 0.210693359375, -0.811767578125
117, 3881636415, -5.404799461364746, -2.178474187850952, 7.744597434997559, -0.08708317577838898, -0.5569609999656677, -0.8694487810134888, 0.0439453125, 0.211181640625, -0.812255859375
118, 3881653082, -5.396470546722412, -2.19810152053833, 7.734386444091797, 0.14263072609901428, -0.635310173034668, -0.7170019149780273, 0.0458984375, 0.21142578125, -0.811767578125
119, 3881669749, -5.388455390930176, -2.192448854446411, 7.71840763092041, 0.1017400473356247, -0.7778832912445068, -0.8126397132873535, 0.0458984375, 0.209716796875, -0.811279296875
120, 3881686416, -5.402637481689453, -2.1839303970336914, 7.709502220153809, 0.20664964616298676, -0.7662550210952759, -0.7516942620277405, 0.046875, 0.209716796875, -0.810302734375
121, 3881703083, -5.414212703704834, -2.17297101020813, 7.7620625495910645, 0.17642666399478912, -0.6902366280555725, -0.8563733696937561, 0.04443359375, 0.209716796875, -0.812255859375
122, 3881719750, -5.397026538848877, -2.172287940979004, 7.766411304473877, -0.016404936090111732, -0.6712961196899414, -0.9075988531112671, 0.04345703125, 0.210205078125, -0.810791015625
123, 3881736417, -5.389235973358154, -2.1974048614501953, 7.720505714416504, 0.02829563058912754, -0.6160494089126587, -0.8567191362380981, 0.048828125, 0.210205078125, -0.812255859375
124, 3881753084, -5.400819778442383, -2.1986184120178223, 7.735439777374268, -0.03558884933590889, -0.5726615786552429, -0.8541451692581177, 0.04638671875, 0.209716796875, -0.809814453125
125, 3881769751, -5.393884658813477, -2.1863343715667725, 7.761417865753174, -0.046026017516851425, -0.5035712718963623, -0.7910738587379456, 0.048828125, 0.209716796875, -0.811279296875
126, 3881786418, -5.3940606117248535, -2.163184881210327, 7.740808963775635, 0.023698149248957634, -0.5275575518608093, -0.8108724355697632, 0.04931640625, 0.209716796875, -0.812255859375
127, 3881803085, -5.410449981689453, -2.1571860313415527, 7.746021270751953, -0.1394355446100235, -0.4618866443634033, -0.9300740361213684, 0.0458984375, 0.207763671875, -0.814208984375
128, 3881819752, -5.379393100738525, -2.1785802841186523, 7.7124552726745605, -0.2815219759941101, -0.5565639734268188, -0.9360930323600769, 0.04736328125, 0.207275390625, -0.812744140625
129, 3881836419, -5.39663028717041, -2.1818394660949707, 7.75501823425293, -0.16265344619750977, -0.5677310824394226, -0.8263168931007385, 0.04248046875, 0.210693359375, -0.814208984375
130, 3881853086, -5.400811672210693, -2.1695663928985596, 7.737493991851807, -0.1952199786901474, -0.5125613212585449, -0.819311797618866, 0.0478515625, 0.210693359375, -0.811279296875
131, 3881869753, -5.388284206390381, -2.1763484477996826, 7.723305702209473, -0.14191995561122894, -0.6003231406211853, -0.7900236248970032, 0.04638671875, 0.209716796875, -0.812744140625
132, 3881886420, -5.399738311767578, -2.1786580085754395, 7.747723579406738, -0.15163999795913696, -0.4900990426540375, -0.8163408041000366, 0.04736328125, 0.207763671875, -0.812744140625
133, 3881903087, -5.393367767333984, -2.1839101314544678, 7.760551452636719, -0.12336356937885284, -0.52564936876297, -0.8068383932113647, 0.046875, 0.207763671875, -0.811767578125
134, 3881919754, -5.398857116699219, -2.1766903400421143, 7.770181179046631, -0.06761753559112549, -0.5855703353881836, -0.8427090048789978, 0.044921875, 0.208740234375, -0.813720703125
135, 3881936421, -5.404980182647705, -2.179166078567505, 7.72921085357666, -0.10453169047832489, -0.4893343448638916, -0.895025372505188, 0.04541015625, 0.207763671875, -0.812744140625
136, 3881953088, -5.3995208740234375, -2.1757402420043945, 7.734496116638184, -0.23005326092243195, -0.48309388756752014, -0.9061515927314758, 0.044921875, 0.210205078125, -0.812744140625
137, 3881969755, -5.406294822692871, -2.1677846908569336, 7.727631568908691, -0.08490610122680664, -0.4310361444950104, -0.8137410879135132, 0.04541015625, 0.210205078125, -0.810791015625
138, 3881986422, -5.416600704193115, -2.159763813018799, 7.756715774536133, -0.2465350478887558, -0.33890724182128906, -0.9507817625999451, 0.04638671875, 0.209228515625, -0.810302734375
139, 3882003089, -5.411886692047119, -2.181638479232788, 7.731600284576416, -0.3037410378456116, -0.358654648065567, -0.9070994257926941, 0.04638671875, 0.209228515625, -0.810302734375
140, 3882019756, -5.395137786865234, -2.187188148498535, 7.750398635864258, -0.2748883068561554, -0.317008376121521, -0.9329680800437927, 0.04638671875, 0.207763671875, -0.812744140625
141, 3882036423, -5.399618625640869, -2.176002025604248, 7.744537830352783, -0.3262289762496948, -0.35733556747436523, -0.8589474558830261, 0.044921875, 0.210205078125, -0.812255859375
142, 3882053090, -5.391736030578613, -2.1736879348754883, 7.743249416351318, -0.19583472609519958, -0.4211624562740326, -0.802689254283905, 0.04638671875, 0.208251953125, -0.813720703125
143, 3882069757, -5.3902153968811035, -2.153237819671631, 7.7370429039001465, -0.1965646892786026, -0.4021066129207611, -0.7696232199668884, 0.04736328125, 0.21142578125, -0.811279296875
144, 3882086424, -5.4106245040893555, -2.160928726196289, 7.742706298828125, -0.16362671554088593, -0.34980538487434387, -0.813561737537384, 0.0478515625, 0.209716796875, -0.812255859375
145, 3882103091, -5.386164665222168, -2.170212984085083, 7.74233865737915, -0.25759971141815186, -0.3168931007385254, -0.7673948407173157, 0.04931640625, 0.208740234375, -0.811767578125
146, 3882119758, -5.405518054962158, -2.1840641498565674, 7.755314826965332, -0.17569030821323395, -0.4175894558429718, -0.8158029317855835, 0.04638671875, 0.209716796875, -0.813232421875
147, 3882136425, -5.403952121734619, -2.178704261779785, 7.717344284057617, -0.12641146779060364, -0.4966302216053009, -0.8412618637084961, 0.04443359375, 0.2119140625, -0.814208984375
148, 3882153092, -5.391240119934082, -2.1558308601379395, 7.759778022766113, -0.1307528167963028, -0.4212776720523834, -0.7638731002807617, 0.04541015625, 0.209228515625, -0.810302734375
149, 3882169759, -5.390936374664307, -2.1782708168029785, 7.749555587768555, -0.275208443403244, -0.18546153604984283, -0.8418381810188293, 0.04931640625, 0.208740234375, -0.813720703125
150, 3882186426, -5.425427436828613, -2.1757304668426514, 7.736423015594482, -0.2989514470100403, -0.13204626739025116, -0.8338342308998108, 0.04736328125, 0.209228515625, -0.810791015625
151, 3882203093, -5.4107747077941895, -2.148521661758423, 7.715198040008545, -0.2850821614265442, -0.22340676188468933, -0.8520960211753845, 0.04736328125, 0.207763671875, -0.811767578125
152, 3882219760, -5.409996032714844, -2.1816186904907227, 7.740055561065674, -0.17793141305446625, -0.3789398670196533, -0.8836764693260193, 0.0458984375, 0.210693359375, -0.813720703125
153, 3882236427, -5.4178972244262695, -2.1733193397521973, 7.763179779052734, -0.2422449141740799, -0.2539883255958557, -1.021203875541687, 0.04638671875, 0.209716796875, -0.813232421875
154, 3882253094, -5.409607410430908, -2.1663663387298584, 7.739470958709717, -0.3193775713443756, -0.3451823592185974, -1.034548044204712, 0.04736328125, 0.210205078125, -0.811767578125
155, 3882269761, -5.4208831787109375, -2.1743359565734863, 7.743570804595947, -0.3703724443912506, -0.36010175943374634, -1.1137555837631226, 0.0478515625, 0.209716796875, -0.815185546875
156, 3882286428, -5.424134254455566, -2.1802124977111816, 7.750117778778076, -0.2427699714899063, -0.5857239961624146, -1.0539369583129883, 0.04736328125, 0.209228515625, -0.813232421875
157, 3882303095, -5.393712997436523, -2.168621301651001, 7.708101272583008, -0.10476874560117722, -0.6094670295715332, -0.9759718179702759, 0.0478515625, 0.208740234375, -0.814208984375
158, 3882319762, -5.406402111053467, -2.1593098640441895, 7.7402801513671875, -0.10543467104434967, -0.7226623296737671, -0.9681342840194702, 0.04638671875, 0.209716796875, -0.814697265625
159, 3882336429, -5.389678478240967, -2.186723470687866, 7.752621650695801, -0.04683282598853111, -0.7103042006492615, -0.9805566668510437, 0.0458984375, 0.209716796875, -0.816650390625
160, 3882353096, -5.396895885467529, -2.1735050678253174, 7.748476982116699, -0.08432982116937637, -0.5424513816833496, -0.8667593598365784, 0.04638671875, 0.207275390625, -0.813720703125
161, 3882369763, -5.400307655334473, -2.1629514694213867, 7.724581241607666, -0.06796329468488693, -0.5919991135597229, -0.898006796836853, 0.04443359375, 0.208251953125, -0.810302734375
162, 3882386430, -5.414196014404297, -2.1701252460479736, 7.745603561401367, -0.16403652727603912, -0.5136755108833313, -0.8820629119873047, 0.048828125, 0.209716796875, -0.810791015625
163, 3882403097, -5.40543270111084, -2.1696934700012207, 7.741292476654053, -0.1457490772008896, -0.5943554639816284, -0.8581662774085999, 0.04638671875, 0.207763671875, -0.814208984375
164, 3882419764, -5.399009704589844, -2.1555023193359375, 7.74793815612793, -0.15996412932872772, -0.6506266593933105, -0.9689669609069824, 0.046875, 0.207763671875, -0.813232421875
165, 3882436431, -5.4034295082092285, -2.162006378173828, 7.752527713775635, -0.28789958357810974, -0.6467975974082947, -1.0759639739990234, 0.04541015625, 0.209228515625, -0.814697265625
166, 3882453098, -5.404494285583496, -2.163398027420044, 7.72948694229126, -0.2981574237346649, -0.6720516681671143, -1.1434788703918457, 0.0478515625, 0.2109375, -0.811767578125
167, 3882469765, -5.407911777496338, -2.1740498542785645, 7.751865386962891, -0.3283676207065582, -0.723264217376709, -1.0322558879852295, 0.04638671875, 0.208251953125, -0.812255859375
168, 3882486432, -5.399294853210449, -2.1766130924224854, 7.740790843963623, -0.2585729956626892, -0.7214329242706299, -1.013315200805664, 0.04541015625, 0.209228515625, -0.812744140625
169, 3882503099, -5.40001916885376, -2.160520076751709, 7.728148460388184, -0.3105725944042206, -0.577037513256073, -0.9677057862281799, 0.04541015625, 0.207275390625, -0.812744140625
170, 3882519766, -5.404012680053711, -2.1515088081359863, 7.755490779876709, -0.29409781098365784, -0.5660790801048279, -1.061607837677002, 0.0439453125, 0.207275390625, -0.810302734375
171, 3882536433, -5.393454551696777, -2.157458782196045, 7.753823280334473, -0.3130512237548828, -0.6648415923118591, -1.151418924331665, 0.04736328125, 0.210205078125, -0.812744140625
172, 3882553100, -5.38716459274292, -2.176119804382324, 7.74799108505249, -0.38999179005622864, -0.7075380086898804, -1.1958953142166138, 0.04541015625, 0.210693359375, -0.812744140625
173, 3882569767, -5.39231014251709, -2.170598030090332, 7.736975193023682, -0.373420387506485, -0.5483678579330444, -1.2144006490707397, 0.0458984375, 0.208251953125, -0.812255859375
174, 3882586434, -5.402042865753174, -2.163100242614746, 7.70933723449707, -0.417499840259552, -0.516403317451477, -1.1307494640350342, 0.04736328125, 0.209228515625, -0.809326171875
175, 3882603101, -5.398598670959473, -2.173499584197998, 7.749307155609131, -0.42342913150787354, -0.50631183385849, -1.1309030055999756, 0.04443359375, 0.210205078125, -0.813720703125
176, 3882619768, -5.3914642333984375, -2.1790785789489746, 7.729311943054199, -0.4181145131587982, -0.579858660697937, -1.185342788696289, 0.04638671875, 0.209716796875, -0.812744140625
177, 3882636435, -5.406298637390137, -2.2034411430358887, 7.728658199310303, -0.45138537883758545, -0.6319677233695984, -1.2414475679397583, 0.044921875, 0.208740234375, -0.814697265625
178, 3882653102, -5.388223171234131, -2.187718629837036, 7.735395431518555, -0.41128870844841003, -0.6259872317314148, -1.1806045770645142, 0.04833984375, 0.210205078125, -0.811279296875
179, 3882669769, -5.403961658477783, -2.192819118499756, 7.740907669067383, -0.20700185000896454, -0.5227808356285095, -1.1418269872665405, 0.04541015625, 0.209228515625, -0.814208984375
180, 3882686436, -5.386841297149658, -2.1690211296081543, 7.744354248046875, -0.2509916424751282, -0.5373287796974182, -1.0967230796813965, 0.046875, 0.209716796875, -0.810791015625
181, 3882703103, -5.403496742248535, -2.1697516441345215, 7.7555389404296875, -0.2950838804244995, -0.5518896579742432, -1.157693862915039, 0.04443359375, 0.207275390625, -0.815185546875
182, 3882719770, -5.405357360839844, -2.177757978439331, 7.7366557121276855, -0.32158029079437256, -0.6270885467529297, -1.1037408113479614, 0.04638671875, 0.210205078125, -0.814208984375
183, 3882736437, -5.408580780029297, -2.170684337615967, 7.714944362640381, -0.3552609384059906, -0.6374232769012451, -1.1177254915237427, 0.04638671875, 0.210205078125, -0.814208984375
184, 3882753104, -5.40848970413208, -2.1840922832489014, 7.744629859924316, -0.2656165063381195, -0.6719876527786255, -1.1593588590621948, 0.04833984375, 0.210205078125, -0.814697265625
185, 3882769771, -5.393579959869385, -2.1902670860290527, 7.736021041870117, -0.28473639488220215, -0.6925545334815979, -0.9726166129112244, 0.04541015625, 0.210205078125, -0.810791015625
186, 3882786438, -5.390163898468018, -2.171600341796875, 7.767508029937744, -0.3816932439804077, -0.601655125617981, -1.085696816444397, 0.04736328125, 0.21142578125, -0.811279296875
187, 3882803105, -5.396137237548828, -2.1577601432800293, 7.758407115936279, -0.45577794313430786, -0.6380251049995422, -1.2878960371017456, 0.04638671875, 0.207763671875, -0.809814453125
188, 3882819772, -5.391679763793945, -2.190218448638916, 7.771414279937744, -0.6783907413482666, -0.45015600323677063, -1.2913025617599487, 0.0458984375, 0.210205078125, -0.812744140625
189, 3882836439, -5.400665283203125, -2.1883513927459717, 7.750865459442139, -0.5807808041572571, -0.3945380449295044, -1.2721956968307495, 0.04736328125, 0.210693359375, -0.812744140625
190, 3882853106, -5.4046406745910645, -2.1912662982940674, 7.722975730895996, -0.5274039506912231, -0.5049159526824951, -1.386658787727356, 0.04541015625, 0.21142578125, -0.811767578125
191, 3882869773, -5.403679370880127, -2.176663398742676, 7.732388496398926, -0.5966479182243347, -0.5811650156974792, -1.4591044187545776, 0.0458984375, 0.209228515625, -0.813232421875
192, 3882886440, -5.402123928070068, -2.145901918411255, 7.705961227416992, -0.7627206444740295, -0.6004641056060791, -1.6722018718719482, 0.04541015625, 0.210205078125, -0.810302734375
193, 3882903107, -5.397695064544678, -2.1851718425750732, 7.728901386260986, -0.9037312865257263, -0.6185594797134399, -1.7598741054534912, 0.0478515625, 0.210205078125, -0.813232421875
194, 3882919774, -5.396500587463379, -2.2067301273345947, 7.720461845397949, -0.7947620153427124, -0.5328850150108337, -1.7967177629470825, 0.04638671875, 0.2119140625, -0.813232421875
195, 3882936441, -5.395401477813721, -2.1861565113067627, 7.727665424346924, -0.7911123037338257, -0.7560868859291077, -1.8286316394805908, 0.04541015625, 0.2119140625, -0.812744140625
196, 3882953108, -5.378422737121582, -2.190490484237671, 7.755237579345703, -1.0439993143081665, -0.9090458750724792, -1.9711151123046875, 0.0458984375, 0.21142578125, -0.813232421875
197, 3882969775, -5.377012729644775, -2.206199884414673, 7.750843048095703, -1.3781554698944092, -0.7749506831169128, -1.9608443975448608, 0.0439453125, 0.211669921875, -0.811279296875
198, 3882986442, -5.384192943572998, -2.2210593223571777, 7.741739749908447, -1.0343945026397705, -0.6382301449775696, -1.7416380643844604, 0.04443359375, 0.2119140625, -0.812744140625
199, 3883003109, -5.395878314971924, -2.1854541301727295, 7.7370686531066895, -1.1927577257156372, -0.7912915945053101, -1.9049829244613647, 0.04638671875, 0.212890625, -0.812255859375
200, 3883019776, -5.392607688903809, -2.1958229541778564, 7.729832172393799, -1.4087623357772827, -0.681694746017456, -2.073821544647217, 0.044921875, 0.211181640625, -0.809814453125
201, 3883036443, -5.389957904815674, -2.2498016357421875, 7.779497146606445, -1.4325824975967407, -0.5295681953430176, -1.9603450298309326, 0.0458984375, 0.212890625, -0.810302734375
202, 3883053110, -5.39639139175415, -2.236466884613037, 7.72808837890625, -0.9909634590148926, -0.5913942456245422, -1.6996452808380127, 0.04443359375, 0.21240234375, -0.812744140625
203, 3883069777, -5.358462810516357, -2.2278647422790527, 7.754306316375732, -1.1593462228775024, -0.5386607646942139, -1.7294976711273193, 0.04443359375, 0.211181640625, -0.814697265625
204, 3883086444, -5.377196311950684, -2.238307476043701, 7.75259256362915, -1.1914900541305542, -0.4472617506980896, -1.6842912435531616, 0.0458984375, 0.2119140625, -0.813232421875
205, 3883103111, -5.39117956161499, -2.251385450363159, 7.734068870544434, -1.0437172651290894, -0.4680463969707489, -1.5176546573638916, 0.044921875, 0.211181640625, -0.811279296875
206, 3883119778, -5.392589092254639, -2.225412368774414, 7.731294631958008, -0.7525714635848999, -0.7186090350151062, -1.5262542963027954, 0.04541015625, 0.21435546875, -0.812255859375
207, 3883136445, -5.400993347167969, -2.2240395545959473, 7.734804630279541, -0.6527652740478516, -0.7494276165962219, -1.4615503549575806, 0.044189453125, 0.21435546875, -0.811279296875
208, 3883153112, -5.358398914337158, -2.2697994709014893, 7.755774021148682, -0.9069584012031555, -0.5757222771644592, -1.3422462940216064, 0.04541015625, 0.21533203125, -0.813232421875
209, 3883169779, -5.3905534744262695, -2.2502501010894775, 7.711727142333984, -0.8318877220153809, -0.3006162643432617, -1.1644814014434814, 0.04541015625, 0.2138671875, -0.812255859375
210, 3883186446, -5.369572639465332, -2.2610604763031006, 7.734137535095215, -0.6761753559112549, -0.40754929184913635, -1.0961723327636719, 0.042724609375, 0.21337890625, -0.810302734375
211, 3883203113, -5.401542663574219, -2.2530524730682373, 7.727806568145752, -0.3451695740222931, -0.509244441986084, -1.0857094526290894, 0.044189453125, 0.21484375, -0.812744140625
212, 3883219780, -5.364382266998291, -2.251723051071167, 7.714130401611328, -0.24957013130187988, -0.5534007549285889, -0.9966924786567688, 0.044189453125, 0.2158203125, -0.812255859375
213, 3883236447, -5.388852119445801, -2.2440288066864014, 7.722659111022949, -0.29340624809265137, -0.5462420582771301, -1.019193172454834, 0.04443359375, 0.21484375, -0.812255859375
214, 3883253114, -5.363178253173828, -2.2520580291748047, 7.735806465148926, -0.35695138573646545, -0.42529886960983276, -1.0336644649505615, 0.044921875, 0.2138671875, -0.811767578125
215, 3883269781, -5.382071018218994, -2.262448787689209, 7.737856388092041, 0.07234947383403778, -0.4690966010093689, -0.7687780261039734, 0.044921875, 0.21240234375, -0.810791015625
216, 3883286448, -5.387233257293701, -2.2671620845794678, 7.734805107116699, 0.2763417959213257, -0.6137314438819885, -0.7104577422142029, 0.04638671875, 0.212890625, -0.808837890625
217, 3883303115, -5.386954307556152, -2.2245521545410156, 7.756466865539551, 0.1083737313747406, -0.6211079359054565, -0.7018903493881226, 0.04345703125, 0.21337890625, -0.812744140625
218, 3883319782, -5.392024993896484, -2.227663993835449, 7.7803168296813965, -0.45271727442741394, -0.26566770672798157, -1.048558235168457, 0.04296875, 0.212890625, -0.81396484375
219, 3883336449, -5.459644317626953, -2.1981265544891357, 7.760356903076172, -0.7095614075660706, -0.2642974257469177, -1.3407478332519531, 0.04296875, 0.21240234375, -0.814453125
220, 3883353116, -5.584388732910156, -2.160841941833496, 7.729913234710693, -1.0825847387313843, -0.6033967733383179, -2.077138900756836, 0.044921875, 0.21484375, -0.809326171875
221, 3883369783, -5.628777503967285, -2.1488499641418457, 7.756125450134277, -2.0926215648651123, -1.6201057434082031, -3.3537142276763916, 0.043701171875, 0.2138671875, -0.811767578125
222, 3883386450, -5.415937423706055, -2.263744831085205, 7.740091323852539, -2.9915764331817627, -1.7929530143737793, -4.73517370223999, 0.0458984375, 0.21533203125, -0.808349609375
223, 3883403117, -5.169074535369873, -2.393648147583008, 7.77971887588501, -3.2133307456970215, -0.8624052405357361, -4.328226566314697, 0.041259765625, 0.2158203125, -0.811767578125
224, 3883419784, -5.0442986488342285, -2.4292142391204834, 7.808961868286133, -4.136092185974121, 2.0893242359161377, -3.500436305999756, 0.043701171875, 0.21728515625, -0.8134765625
225, 3883436451, -4.975001335144043, -2.383704900741577, 7.958474636077881, -5.588960647583008, 6.366222381591797, -2.2831032276153564, 0.042724609375, 0.21728515625, -0.811767578125
226, 3883453118, -4.990903854370117, -2.3241097927093506, 7.915835857391357, -8.013809204101562, 12.3106050491333, -1.4589515924453735, 0.046630859375, 0.220947265625, -0.810302734375
227, 3883469785, -5.01364803314209, -2.4761147499084473, 7.931595802307129, -10.377655029296875, 19.18362808227539, 0.6171966791152954, 0.05224609375, 0.222412109375, -0.809814453125
228, 3883486452, -4.966261863708496, -2.366642713546753, 8.06376838684082, -15.728167533874512, 29.010753631591797, 4.472026824951172, 0.0556640625, 0.224365234375, -0.8056640625
229, 3883503119, -4.197875022888184, -2.9248597621917725, 8.794393539428711, -20.14649200439453, 44.392086029052734, 14.87417984008789, 0.067626953125, 0.22705078125, -0.803466796875
230, 3883519786, -4.594503879547119, -2.5154097080230713, 8.791313171386719, -14.906298637390137, 65.35626983642578, 19.93025779724121, 0.0830078125, 0.231201171875, -0.801513671875
231, 3883536453, -5.0785417556762695, -2.381133556365967, 9.040846824645996, -24.676082611083984, 83.37399291992188, 25.921030044555664, 0.102294921875, 0.2373046875, -0.796142578125
232, 3883553120, -5.604982376098633, -3.32999587059021, 9.590947151184082, -28.592945098876953, 91.08027648925781, 39.35215759277344, 0.126708984375, 0.2392578125, -0.787841796875
233, 3883569787, -5.809640407562256, -3.0673370361328125, 8.92680835723877, -35.11460494995117, 95.8756332397461, 49.37366485595703, 0.150146484375, 0.242431640625, -0.7802734375
234, 3883586454, -5.346681118011475, -4.943825721740723, 9.124411582946777, -29.231990814208984, 93.93375396728516, 55.55900573730469, 0.177978515625, 0.2431640625, -0.769287109375
235, 3883603121, -1.3423161506652832, -5.247631549835205, 12.311201095581055, -3.0197479724884033, 72.88937377929688, 53.94935989379883, 0.202392578125, 0.24169921875, -0.7626953125
236, 3883619788, -0.8656654357910156, -5.943538188934326, 14.770371437072754, 11.948430061340332, 35.3952751159668, 31.776857376098633, 0.214111328125, 0.236328125, -0.75341796875
237, 3883636455, 1.9469364881515503, -5.571669101715088, 14.030195236206055, 20.702301025390625, -7.747995853424072, 0.6736215353012085, 0.220947265625, 0.230224609375, -0.74560546875
238, 3883653122, 4.015527725219727, -3.780620813369751, 12.484195709228516, 21.7114200592041, -31.682952880859375, -19.79427719116211, 0.21826171875, 0.2236328125, -0.74169921875
239, 3883669789, 3.7992420196533203, -2.739907741546631, 12.120741844177246, 8.050421714782715, -46.059574127197266, -30.2641658782959, 0.21484375, 0.216064453125, -0.738037109375
240, 3883686456, 2.8330421447753906, -2.8565075397491455, 12.151388168334961, -3.495358467102051, -60.43827438354492, -31.99612808227539, 0.205322265625, 0.2119140625, -0.731689453125
241, 3883703123, 1.5605192184448242, -2.7795112133026123, 12.216626167297363, -7.463542461395264, -74.40209197998047, -28.779592514038086, 0.19580078125, 0.212890625, -0.7333984375
242, 3883719790, 0.42966675758361816, -2.898752212524414, 11.837488174438477, -12.466259002685547, -83.20498657226562, -25.908092498779297, 0.189453125, 0.212890625, -0.7265625
243, 3883736457, -1.307485580444336, -3.314690113067627, 11.578908920288086, -17.05515480041504, -84.26306915283203, -23.86537742614746, 0.182861328125, 0.2158203125, -0.726806640625
244, 3883753124, -3.2568259239196777, -3.6610143184661865, 11.443918228149414, -22.376811981201172, -84.42440032958984, -25.01020622253418, 0.17724609375, 0.222412109375, -0.725830078125
245, 3883769791, -5.016183853149414, -4.09663724899292, 11.058948516845703, -28.23508071899414, -86.23017120361328, -29.895233154296875, 0.174072265625, 0.2314453125, -0.73095703125
246, 3883786458, -5.987982749938965, -4.612070083618164, 10.493499755859375, -28.607837677001953, -88.2696304321289, -34.34762191772461, 0.16748046875, 0.243896484375, -0.73876953125
247, 3883803125, -7.353445529937744, -4.690426826477051, 10.385672569274902, -26.572233200073242, -90.88105010986328, -38.83335494995117, 0.154296875, 0.260986328125, -0.744140625
248, 3883819792, -8.247509956359863, -4.489471435546875, 10.182332992553711, -25.615007400512695, -97.85725402832031, -44.921119689941406, 0.138916015625, 0.281494140625, -0.75927734375
249, 3883836459, -8.195023536682129, -4.039189338684082, 9.263908386230469, -22.547409057617188, -105.0024185180664, -49.67338943481445, 0.11376953125, 0.298828125, -0.77197265625
250, 3883853126, -7.759871482849121, -3.425891399383545, 8.429991722106934, -18.353416442871094, -106.14618682861328, -51.36141586303711, 0.081787109375, 0.313232421875, -0.7822265625
251, 3883869793, -7.75358772277832, -2.6516799926757812, 7.784115314483643, -16.069515228271484, -102.70860290527344, -51.33726119995117, 0.048095703125, 0.322998046875, -0.79150390625
252, 3883886460, -8.309696197509766, -2.0834121704101562, 7.226723670959473, -16.41915512084961, -100.0113296508789, -49.84945297241211, 0.015625, 0.32861328125, -0.796630859375
253, 3883903127, -8.604001998901367, -1.644735336303711, 6.235903263092041, -16.9871768951416, -98.65869903564453, -44.91744613647461, -0.018310546875, 0.33544921875, -0.798828125
254, 3883919794, -8.66795825958252, -1.112000584602356, 5.243516445159912, -17.33869171142578, -92.96685791015625, -35.24714279174805, -0.04833984375, 0.34130859375, -0.798095703125
255, 3883936461, -9.131057739257812, -0.4414023160934448, 4.492403984069824, -21.416736602783203, -85.15727233886719, -24.17859649658203, -0.074951171875, 0.344970703125, -0.794677734375
256, 3883953128, -9.466856002807617, -0.05468849092721939, 3.6250922679901123, -27.823711395263672, -77.251220703125, -12.550399780273438, -0.097900390625, 0.351806640625, -0.793212890625
257, 3883969795, -9.624356269836426, 0.06318768113851547, 2.507402181625366, -29.924951553344727, -65.51187133789062, 1.8528372049331665, -0.114501953125, 0.357666015625, -0.7880859375
258, 3883986462, -9.954691886901855, 0.10507505387067795, 1.720394253730774, -26.401010513305664, -48.59736251831055, 17.20085334777832, -0.1279296875, 0.3642578125, -0.78271484375
259, 3884003129, -10.464278221130371, 0.09034109115600586, 1.2382055521011353, -22.476306915283203, -26.620357513427734, 29.706344604492188, -0.131591796875, 0.3701171875, -0.7783203125
260, 3884019796, -11.223895072937012, -0.20087280869483948, 0.9451767802238464, -17.24589729309082, -3.989254951477051, 39.04676818847656, -0.13232421875, 0.375732421875, -0.77685546875
261, 3884036463, -10.874412536621094, 0.015946313738822937, -0.5431187152862549, -5.810480117797852, 37.46044158935547, 57.9215087890625, -0.123291015625, 0.378662109375, -0.775146484375
262, 3884053130, -6.261293411254883, 0.8953604102134705, -1.6484243869781494, 1.87544846534729, 100.48909759521484, 98.96202850341797, -0.09375, 0.37890625, -0.777587890625
263, 3884069797, -5.880655765533447, -8.724954605102539, 11.956868171691895, 9.26763916015625, 103.14795684814453, 93.86196899414062, -0.059326171875, 0.37841796875, -0.779541015625
264, 3884086464, -2.3905107975006104, -7.593904495239258, 6.3554606437683105, 16.13646125793457, 94.55333709716797, 72.37635803222656, -0.031494140625, 0.37353515625, -0.781005859375
265, 3884103131, -3.6763393878936768, -4.410943508148193, 6.25065803527832, 5.61525297164917, 133.1388702392578, 45.51337814331055, 0.00341796875, 0.371826171875, -0.78369140625
266, 3884119798, -8.653846740722656, -4.10466194152832, 9.592392921447754, -2.52445387840271, 136.14761352539062, 21.4769229888916, 0.035888671875, 0.37109375, -0.781982421875
267, 3884136465, -8.499348640441895, -1.625130295753479, 10.028633117675781, 4.228217124938965, 116.90837097167969, 32.39019012451172, 0.0673828125, 0.368408203125, -0.7783203125
268, 3884153132, -8.24937915802002, -2.234257698059082, 9.352805137634277, -1.4447317123413086, 103.91239929199219, 32.658355712890625, 0.09228515625, 0.3662109375, -0.77685546875
269, 3884169799, -13.41041088104248, -9.1951322555542, 10.359829902648926, 31.895645141601562, 81.5461654663086, 45.531532287597656, 0.119384765625, 0.36328125, -0.775146484375
270, 3884186466, -9.556620597839355, -1.3584424257278442, 7.750036239624023, 40.579593658447266, 21.189836502075195, 23.841754913330078, 0.12939453125, 0.347900390625, -0.778564453125
271, 3884203133, -5.379297256469727, -3.453953266143799, 8.459153175354004, 36.905731201171875, 12.347193717956543, 21.7159481048584, 0.134033203125, 0.3388671875, -0.783203125
272, 3884219800, -7.152282238006592, -1.8455792665481567, 8.547571182250977, 29.293537139892578, 8.295302391052246, 16.209543228149414, 0.13916015625, 0.331298828125, -0.78466796875
273, 3884236467, -5.863103866577148, -2.5837273597717285, 7.904170989990234, 18.832988739013672, 1.1721606254577637, 8.360503196716309, 0.140380859375, 0.326904296875, -0.78515625
274, 3884253134, -5.950105667114258, -2.2597217559814453, 8.012426376342773, 13.938318252563477, 0.9063891768455505, 5.050859451293945, 0.141357421875, 0.3212890625, -0.78857421875
275, 3884269801, -5.891422271728516, -2.224135398864746, 8.085970878601074, 7.29953670501709, 0.019343992695212364, 0.625289261341095, 0.141845703125, 0.31982421875, -0.78955078125
276, 3884286468, -5.230221748352051, -2.5648913383483887, 7.721980094909668, 3.079357624053955, 0.5946436524391174, -1.2119674682617188, 0.142333984375, 0.31884765625, -0.78857421875
277, 3884303135, -5.411423206329346, -2.8275439739227295, 7.503488540649414, 2.3472695350646973, 2.083510160446167, -0.29831114411354065, 0.1435546875, 0.3173828125, -0.7880859375
278, 3884319802, -5.401946067810059, -2.966468095779419, 7.430892467498779, 3.1125519275665283, 2.0867371559143066, 0.7754822373390198, 0.14404296875, 0.315185546875, -0.78955078125
279, 3884336469, -5.356311321258545, -2.9533462524414062, 7.433233737945557, 4.3889479637146, 2.2629525661468506, 2.2540009021759033, 0.1435546875, 0.3173828125, -0.78955078125
280, 3884353136, -5.349727630615234, -2.744352102279663, 7.478711128234863, 5.697859764099121, 2.474283456802368, 3.501032590866089, 0.14404296875, 0.315673828125, -0.7890625
281, 3884369803, -5.528701305389404, -2.534301996231079, 7.539709568023682, 5.816703796386719, 1.805945634841919, 3.5329208374023438, 0.1474609375, 0.314697265625, -0.790771484375
282, 3884386470, -5.446843147277832, -2.605189561843872, 7.461225986480713, 6.715989589691162, 0.8008003830909729, 3.689682722091675, 0.150146484375, 0.311767578125, -0.790283203125
283, 3884403137, -5.538249969482422, -2.7544662952423096, 7.476727485656738, 7.558839797973633, -0.01385647151619196, 3.70817494392395, 0.148681640625, 0.307373046875, -0.790771484375
284, 3884419804, -5.507819175720215, -2.4628798961639404, 7.659685134887695, 6.460054874420166, -0.6784291863441467, 3.169334888458252, 0.150634765625, 0.308837890625, -0.790771484375
285, 3884436471, -5.557036876678467, -2.392381429672241, 7.696062088012695, 5.498144626617432, -0.9021562337875366, 2.2692794799804688, 0.147216796875, 0.30712890625, -0.789794921875
286, 3884453138, -5.54033088684082, -2.4731085300445557, 7.67928409576416, 4.2662882804870605, -1.2013254165649414, 1.4571641683578491, 0.148681640625, 0.3046875, -0.792724609375
287, 3884469805, -5.52388858795166, -2.433337688446045, 7.6934356689453125, 2.4628210067749023, -0.7387983202934265, 0.6511067748069763, 0.147705078125, 0.302734375, -0.793212890625
288, 3884486472, -5.3837761878967285, -2.533280611038208, 7.6202826499938965, 1.5751234292984009, -0.180953711271286, 0.4133825898170471, 0.149658203125, 0.3046875, -0.791748046875
289, 3884503139, -5.42508602142334, -2.6363844871520996, 7.581055641174316, 1.7213846445083618, -0.13583694398403168, 1.121099829673767, 0.149658203125, 0.302734375, -0.794189453125
290, 3884519806, -5.458711624145508, -2.606606960296631, 7.574169158935547, 1.1763978004455566, 0.1140853688120842, 1.3026683330535889, 0.148193359375, 0.3017578125, -0.793212890625
291, 3884536473, -5.248440265655518, -2.694446563720703, 7.515132427215576, 1.3119016885757446, 0.4843297302722931, 2.2676780223846436, 0.150634765625, 0.30419921875, -0.79638671875
292, 3884553140, -5.340574264526367, -2.6519432067871094, 7.590877532958984, 0.8452895879745483, 0.4814227521419525, 3.7345685958862305, 0.149658203125, 0.302734375, -0.792236328125
293, 3884569807, -5.391907215118408, -2.5322108268737793, 7.562007427215576, -0.21455757319927216, 1.55563223361969, 4.076305866241455, 0.15283203125, 0.2998046875, -0.791259765625
294, 3884586474, -5.210596561431885, -2.726914644241333, 7.632444858551025, -0.39725300669670105, 2.458134174346924, 5.441859722137451, 0.1533203125, 0.298828125, -0.794677734375
295, 3884603141, -5.399410247802734, -2.4358181953430176, 7.791757106781006, -2.1336278915405273, 5.382209300994873, 6.209410190582275, 0.15625, 0.298828125, -0.793212890625
296, 3884619808, -5.433168888092041, -2.4010870456695557, 7.815899848937988, -4.929256439208984, 10.263021469116211, 5.8538947105407715, 0.158203125, 0.30029296875, -0.79296875
297, 3884636475, -5.235787868499756, -2.447211742401123, 7.750790596008301, -8.236428260803223, 17.62398910522461, 6.265854835510254, 0.16015625, 0.302734375, -0.79150390625
298, 3884653142, -5.052774906158447, -2.6774518489837646, 7.870270729064941, -12.160258293151855, 27.231056213378906, 9.541958808898926, 0.167236328125, 0.302978515625, -0.79052734375
299, 3884669809, -4.747574806213379, -3.0082714557647705, 8.48965835571289, -19.578767776489258, 38.817115783691406, 17.813697814941406, 0.178466796875, 0.306884765625, -0.78369140625
300, 3884686476, -4.746652126312256, -2.3150858879089355, 8.833256721496582, -11.399888038635254, 69.43955993652344, 18.237703323364258, 0.19189453125, 0.30810546875, -0.779296875
301, 3884703143, -4.998835563659668, -2.464794158935547, 8.766040802001953, -22.347509384155273, 96.45932006835938, 22.353599548339844, 0.2138671875, 0.310791015625, -0.76904296875
302, 3884719810, -5.138059139251709, -1.7883522510528564, 8.84061336517334, -29.469728469848633, 130.67076110839844, 21.418668746948242, 0.24267578125, 0.31494140625, -0.7607421875
303, 3884736477, -5.195827007293701, -1.8913075923919678, 8.937288284301758, -46.012393951416016, 176.51812744140625, 20.706491470336914, 0.279541015625, 0.32177734375, -0.74072265625
304, 3884753144, -4.373709201812744, -3.805742025375366, 9.501242637634277, -62.2275390625, 235.21469116210938, 31.518714904785156, 0.32568359375, 0.331298828125, -0.715576171875
305, 3884769811, -4.263325214385986, -5.113938331604004, 9.320450782775879, -53.37633514404297, 296.1775817871094, 63.34450149536133, 0.389892578125, 0.334228515625, -0.67529296875
306, 3884786478, -6.23103141784668, -4.924753189086914, 8.92917537689209, -55.6555290222168, 372.2389221191406, 106.9555892944336, 0.461181640625, 0.332763671875, -0.623046875
307, 3884803145, -9.441852569580078, -6.040103912353516, 11.400697708129883, -42.51259231567383, 417.8718566894531, 155.39865112304688, 0.543701171875, 0.315673828125, -0.5546875
308, 3884819812, -19.503517150878906, -7.312551498413086, 13.21152114868164, -57.963417053222656, 422.055908203125, 164.8343505859375, 0.623291015625, 0.294189453125, -0.469970703125
309, 3884836479, -21.476364135742188, -9.470687866210938, 14.621528625488281, -39.5008544921875, 339.8782043457031, 175.10293579101562, 0.68212890625, 0.264404296875, -0.390380859375
310, 3884853146, -12.863394737243652, -7.985978603363037, 13.280267715454102, -34.27153778076172, 267.794677734375, 179.09547424316406, 0.721435546875, 0.227294921875, -0.323486328125
311, 3884869813, -2.0408992767333984, -7.830810070037842, 12.678712844848633, -12.27621078491211, 232.87989807128906, 185.0010986328125, 0.755859375, 0.185302734375, -0.26318359375
312, 3884886480, -13.798322677612305, -14.011503219604492, 18.98853874206543, -5.217313289642334, 183.2365264892578, 115.82910919189453, 0.77587890625, 0.1494140625, -0.2080078125
313, 3884903147, -9.540217399597168, -15.714767456054688, 20.833965301513672, 34.42300796508789, -30.26579475402832, 7.218129634857178, 0.780029296875, 0.134521484375, -0.197265625
314, 3884919814, 2.5263195037841797, -10.228425025939941, 12.921224594116211, 102.55254364013672, -143.74609375, -37.782047271728516, 0.7802734375, 0.134033203125, -0.2158203125
315, 3884936481, 6.063460826873779, -4.445808410644531, 9.269745826721191, 120.78701782226562, -154.08651733398438, -43.18453598022461, 0.78076171875, 0.12890625, -0.246826171875
316, 3884953148, 3.033623456954956, -1.9036903381347656, 9.30169677734375, 83.68058776855469, -148.59727478027344, -53.68914794921875, 0.790771484375, 0.130615234375, -0.27880859375
317, 3884969815, -1.0469223260879517, -1.9620356559753418, 9.369043350219727, 28.07688331604004, -160.89207458496094, -79.87388610839844, 0.799560546875, 0.14453125, -0.3193359375
318, 3884986482, -4.050820350646973, -3.0546045303344727, 8.374921798706055, -2.7346696853637695, -185.98348999023438, -103.60576629638672, 0.8046875, 0.1708984375, -0.381591796875
319, 3885003149, -5.352468013763428, -3.3874940872192383, 7.286726951599121, -0.9872580766677856, -209.55494689941406, -111.1495361328125, 0.78369140625, 0.202392578125, -0.464599609375
320, 3885019816, -6.829627990722656, -2.7632322311401367, 6.921316146850586, 13.150320053100586, -226.80516052246094, -108.98971557617188, 0.730712890625, 0.227783203125, -0.546142578125
321, 3885036483, -8.653852462768555, -1.6940422058105469, 7.183901309967041, 17.794187545776367, -242.8252716064453, -106.73836517333984, 0.65966796875, 0.245361328125, -0.609375
322, 3885053150, -9.749744415283203, -1.208879828453064, 7.347763538360596, 7.963224411010742, -259.97393798828125, -108.08716583251953, 0.588623046875, 0.260986328125, -0.651611328125
323, 3885069817, -9.775686264038086, -1.432188868522644, 7.355680465698242, -6.964181423187256, -271.25262451171875, -108.85408782958984, 0.529296875, 0.28271484375, -0.68505859375
324, 3885086484, -9.635247230529785, -1.4949544668197632, 7.2386322021484375, -24.705175399780273, -270.5760192871094, -105.3465805053711, 0.4765625, 0.3125, -0.7265625
325, 3885103151, -11.25606632232666, -0.9364625811576843, 8.658931732177734, -56.010948181152344, -255.0087432861328, -97.12884521484375, 0.413818359375, 0.349365234375, -0.775634765625
326, 3885119818, -15.6931734085083, -1.5956575870513916, 10.208813667297363, -106.46395874023438, -249.4506072998047, -98.74432373046875, 0.318359375, 0.395751953125, -0.80859375
327, 3885136485, -18.815874099731445, -6.776246547698975, 9.499430656433105, -117.6798324584961, -259.84014892578125, -101.54194641113281, 0.21142578125, 0.43212890625, -0.8095703125
328, 3885153152, -20.026342391967773, -7.24479866027832, 5.255451202392578, -65.58776092529297, -258.5523986816406, -96.34749603271484, 0.116943359375, 0.450439453125, -0.79638671875
329, 3885169819, -22.61257553100586, -3.4521541595458984, 2.6659340858459473, -40.75182342529297, -228.72413635253906, -87.73918151855469, 0.043701171875, 0.44970703125, -0.780517578125
330, 3885186486, -27.201656341552734, -3.5480055809020996, 0.5212058424949646, -51.52629089355469, -212.69064331054688, -90.14114379882812, -0.01513671875, 0.4541015625, -0.76416015625
331, 3885203153, -26.066102981567383, -0.9490949511528015, -2.5749783515930176, -48.101383209228516, -209.57176208496094, -105.04376220703125, -0.07421875, 0.45751953125, -0.74609375
332, 3885219820, -21.856515884399414, 5.32761812210083, -5.55275297164917, -49.83869171142578, -176.20860290527344, -105.35222625732422, -0.1259765625, 0.459716796875, -0.731201171875
333, 3885236487, -21.201122283935547, 5.966583728790283, -8.43614387512207, -44.61119079589844, -117.50184631347656, -89.5450210571289, -0.16064453125, 0.46240234375, -0.71484375
334, 3885253154, -20.58098602294922, 4.7772908210754395, -11.740899085998535, 13.016277313232422, -35.67680740356445, -27.726219177246094, -0.179443359375, 0.459228515625, -0.707763671875
335, 3885269821, -20.878625869750977, 9.524002075195312, -15.436297416687012, 41.88397216796875, 73.95816040039062, 59.24354553222656, -0.162841796875, 0.4462890625, -0.712890625
336, 3885286488, -8.751154899597168, -2.825805902481079, -1.7906614542007446, 40.62820816040039, 156.4569549560547, 102.70215606689453, -0.124755859375, 0.43994140625, -0.718017578125
337, 3885303155, -6.595601558685303, -20.057493209838867, 13.257109642028809, 95.26212310791016, 117.50652313232422, 84.94397735595703, -0.087646484375, 0.4248046875, -0.727783203125
338, 3885319822, -2.8179988861083984, 0.5531358122825623, 3.858654499053955, 105.19630432128906, 155.3212127685547, 77.29418182373047, -0.048828125, 0.39794921875, -0.74072265625
339, 3885336489, -15.175246238708496, 4.275301456451416, 15.993429183959961, 69.32576751708984, 168.84820556640625, 52.704917907714844, -0.004150390625, 0.379638671875, -0.744140625
340, 3885353156, -13.331050872802734, -0.26064538955688477, 14.411911010742188, 52.44184875488281, 103.29969024658203, 87.37678527832031, 0.0263671875, 0.365966796875, -0.74560546875
341, 3885369823, -14.168280601501465, -6.062074184417725, 6.428493022918701, 91.9960708618164, 36.103370666503906, 61.61362075805664, 0.042724609375, 0.343994140625, -0.754150390625
342, 3885386490, -8.598966598510742, 0.46406275033950806, 11.842121124267578, 57.220848083496094, 16.75830078125, 36.35665512084961, 0.052001953125, 0.328369140625, -0.76025390625
343, 3885403157, -6.074577331542969, -3.408076524734497, 7.753885269165039, 42.9033203125, 6.131403923034668, 20.882776260375977, 0.05517578125, 0.3193359375, -0.76513671875
344, 3885419824, -6.428781986236572, -2.1883463859558105, 8.447953224182129, 27.061010360717773, 1.3046445846557617, 12.816539764404297, 0.058837890625, 0.310302734375, -0.76513671875
345, 3885436491, -5.852674961090088, -2.2761685848236084, 8.246922492980957, 15.55689525604248, 0.9200538992881775, 6.0017595291137695, 0.058837890625, 0.305419921875, -0.76611328125
346, 3885453158, -5.67582368850708, -2.4259214401245117, 8.015325546264648, 7.730484962463379, 3.4873428344726562, 2.9787003993988037, 0.060302734375, 0.303955078125, -0.7666015625
347, 3885469825, -5.701711177825928, -2.2118873596191406, 8.041152954101562, 0.34641820192337036, 6.835716247558594, -0.17118249833583832, 0.061767578125, 0.302978515625, -0.764892578125
348, 3885486492, -5.5128493309021, -2.405505657196045, 7.930913925170898, -4.323233127593994, 10.105013847351074, -2.301929235458374, 0.06494140625, 0.304443359375, -0.765380859375
349, 3885503159, -5.468825817108154, -2.697554349899292, 7.659629821777344, -6.602125644683838, 11.957149505615234, -3.2176101207733154, 0.064453125, 0.304931640625, -0.764404296875
350, 3885519826, -5.519010543823242, -2.8963441848754883, 7.413859844207764, -5.943789005279541, 12.441780090332031, -1.4686331748962402, 0.0673828125, 0.307373046875, -0.762451171875
351, 3885536493, -5.598491191864014, -2.8374743461608887, 7.320960998535156, -4.076609134674072, 10.899778366088867, -0.6896350979804993, 0.0712890625, 0.30859375, -0.763671875
352, 3885553160, -5.5162034034729, -2.799286365509033, 7.401079177856445, -2.352411985397339, 9.365856170654297, 0.6407210826873779, 0.0732421875, 0.30712890625, -0.76220703125
353, 3885569827, -5.606155872344971, -2.679898738861084, 7.452071666717529, -1.7867934703826904, 8.624265670776367, 1.599647879600525, 0.076171875, 0.306640625, -0.76025390625
354, 3885586494, -5.629668712615967, -2.772843599319458, 7.375453472137451, -1.3600600957870483, 8.653105735778809, 1.6893819570541382, 0.078125, 0.30859375, -0.760009765625
355, 3885603161, -5.550342082977295, -2.831038236618042, 7.325470924377441, -0.17172035574913025, 7.922514915466309, 2.9475162029266357, 0.079345703125, 0.3076171875, -0.761474609375
356, 3885619828, -5.720052719116211, -2.846860885620117, 7.278039455413818, 1.519672155380249, 7.070905685424805, 3.3343448638916016, 0.082763671875, 0.30908203125, -0.760498046875
357, 3885636495, -5.65574312210083, -2.7624430656433105, 7.361475944519043, 2.6544687747955322, 5.889801025390625, 3.883289098739624, 0.083251953125, 0.3095703125, -0.762451171875
358, 3885653162, -5.642341613769531, -2.7553584575653076, 7.404106140136719, 2.4734251499176025, 6.284121036529541, 5.050857067108154, 0.085205078125, 0.3056640625, -0.761962890625
359, 3885669829, -5.613139629364014, -2.533658981323242, 7.493686199188232, 0.2759705185890198, 6.780791759490967, 6.947120189666748, 0.08837890625, 0.30419921875, -0.759765625
360, 3885686496, -5.443920135498047, -2.5859615802764893, 7.664515018463135, -7.1779656410217285, 7.792625427246094, 11.323223114013672, 0.0927734375, 0.30517578125, -0.76123046875
361, 3885703163, -5.652695178985596, -2.5820868015289307, 7.537207126617432, -11.290989875793457, 9.799925804138184, 13.924460411071777, 0.09423828125, 0.3076171875, -0.7578125
362, 3885719830, -5.386749267578125, -2.753793954849243, 7.714982509613037, -10.397199630737305, 16.105419158935547, 13.402274131774902, 0.099609375, 0.309326171875, -0.756103515625
363, 3885736497, -5.3884992599487305, -2.238661289215088, 7.968574523925781, -6.2007951736450195, 31.59964942932129, 10.296928405761719, 0.106689453125, 0.310302734375, -0.75341796875
364, 3885753164, -5.438073635101318, -2.284942626953125, 8.016124725341797, -10.616729736328125, 46.54338836669922, 8.474204063415527, 0.115478515625, 0.31201171875, -0.7509765625
365, 3885769831, -5.42048454284668, -2.286309242248535, 8.048322677612305, -14.326051712036133, 65.3232421875, 6.708220481872559, 0.129150390625, 0.3115234375, -0.74658203125
366, 3885786498, -5.394461154937744, -2.3593497276306152, 8.191411972045898, -17.416091918945312, 87.6717529296875, 6.321988582611084, 0.1494140625, 0.316650390625, -0.7412109375
367, 3885803165, -5.381389141082764, -2.6168148517608643, 8.067975044250488, -23.68288230895996, 115.23004913330078, 7.939858436584473, 0.1728515625, 0.3203125, -0.735107421875
368, 3885819832, -5.444711685180664, -2.6026065349578857, 8.084858894348145, -34.571285247802734, 147.1520538330078, 11.57496452331543, 0.2021484375, 0.32666015625, -0.72119140625
369, 3885836499, -5.356235980987549, -2.840568780899048, 8.204621315002441, -47.77299880981445, 187.20140075683594, 17.991127014160156, 0.239013671875, 0.33349609375, -0.700927734375
370, 3885853166, -5.025347709655762, -4.505434989929199, 8.796250343322754, -52.1400146484375, 239.89332580566406, 31.357330322265625, 0.2880859375, 0.34033203125, -0.677734375
371, 3885869833, -4.792855262756348, -4.529524326324463, 8.472634315490723, -39.40882873535156, 305.702880859375, 57.29884719848633, 0.346923828125, 0.343017578125, -0.6435546875
372, 3885886500, -7.728455543518066, -5.441324710845947, 10.247062683105469, -41.15591049194336, 379.7550964355469, 98.04956817626953, 0.422119140625, 0.33935546875, -0.59228515625
373, 3885903167, -11.797913551330566, -5.379604816436768, 10.015024185180664, -36.45822525024414, 411.90447998046875, 136.49099731445312, 0.501708984375, 0.325927734375, -0.5283203125
374, 3885919834, -23.16444969177246, -8.53891372680664, 14.020441055297852, -48.45537567138672, 384.2965393066406, 132.496826171875, 0.5732421875, 0.307861328125, -0.45263671875
375, 3885936501, -21.613250732421875, -8.938085556030273, 14.594023704528809, -21.25709342956543, 285.1587219238281, 146.56463623046875, 0.62939453125, 0.285888671875, -0.39306640625
376, 3885953168, -11.3689603805542, -9.515115737915039, 14.180612564086914, 11.300589561462402, 211.66261291503906, 165.8046112060547, 0.66943359375, 0.2470703125, -0.34521484375
377, 3885969835, -3.7445383071899414, -18.98973846435547, 18.23393440246582, 65.89092254638672, 169.73275756835938, 128.7229461669922, 0.703857421875, 0.2060546875, -0.30810546875
378, 3885986502, -8.44937801361084, -17.563770294189453, 26.325870513916016, 128.60081481933594, 28.236698150634766, -0.26284074783325195, 0.715087890625, 0.183349609375, -0.292236328125
379, 3886003169, 3.692934989929199, -9.31849479675293, 19.070438385009766, 171.93760681152344, -88.65557861328125, -57.65790939331055, 0.71142578125, 0.1728515625, -0.311767578125
380, 3886019836, 7.111786842346191, -2.763902187347412, 14.791285514831543, 172.7087860107422, -122.40174865722656, -51.1302375793457, 0.7021484375, 0.162109375, -0.3369140625
381, 3886036503, 4.329930305480957, 0.8596838712692261, 14.119590759277344, 119.18067169189453, -149.44039916992188, -39.49033737182617, 0.69482421875, 0.149169921875, -0.3671875
382, 3886053170, 1.3650329113006592, 1.2244971990585327, 12.848230361938477, 41.06861114501953, -188.30633544921875, -32.74919509887695, 0.688720703125, 0.149169921875, -0.407470703125
383, 3886069837, -1.3003036975860596, -0.45017626881599426, 11.281916618347168, -16.923606872558594, -222.78091430664062, -19.394351959228516, 0.669921875, 0.154541015625, -0.45654296875
384, 3886086504, -4.588742256164551, -2.2048354148864746, 10.261809349060059, -46.4694938659668, -254.39596557617188, -6.740662574768066, 0.63623046875, 0.171142578125, -0.52099609375
385, 3886103171, -7.747632026672363, -3.1065785884857178, 9.415438652038574, -62.728580474853516, -289.2789306640625, -8.00859546661377, 0.569580078125, 0.188232421875, -0.581787109375
386, 3886119838, -9.216606140136719, -3.9488914012908936, 8.14212703704834, -73.82372283935547, -314.44012451171875, -21.556440353393555, 0.479736328125, 0.206787109375, -0.623779296875
387, 3886136505, -9.759591102600098, -5.378686428070068, 7.483911991119385, -75.72154998779297, -319.56768798828125, -40.58525085449219, 0.38525390625, 0.2158203125, -0.640869140625
388, 3886153172, -10.305997848510742, -5.897360801696777, 7.765838146209717, -64.91535186767578, -309.0614318847656, -67.33984375, 0.30615234375, 0.20166015625, -0.63330078125
389, 3886169839, -11.42017650604248, -5.656825542449951, 9.07480239868164, -64.79734802246094, -288.8834533691406, -103.08865356445312, 0.255615234375, 0.176025390625, -0.608154296875
390, 3886186506, -15.425012588500977, -6.446910858154297, 10.727948188781738, -66.97053527832031, -265.00311279296875, -141.43605041503906, 0.26611328125, 0.1376953125, -0.576416015625
391, 3886203173, -22.012422561645508, -6.0272088050842285, 11.579351425170898, -67.20917510986328, -257.06488037109375, -185.44422912597656, 0.342529296875, 0.136962890625, -0.597900390625
392, 3886219840, -26.821388244628906, -5.4503045082092285, 7.7820963859558105, -53.615562438964844, -267.72015380859375, -221.95860290527344, 0.39892578125, 0.210693359375, -0.702880859375
393, 3886236507, -27.939380645751953, -5.939859390258789, 2.2573976516723633, 7.363697052001953, -265.8081359863281, -216.24778747558594, 0.35107421875, 0.30908203125, -0.828369140625
394, 3886253174, -28.168888092041016, -2.087151288986206, -1.6561675071716309, 68.7251968383789, -245.22509765625, -177.24468994140625, 0.2314453125, 0.365966796875, -0.903076171875
395, 3886269841, -27.801301956176758, 3.1936702728271484, -5.824093341827393, 58.34923553466797, -210.01585388183594, -135.60418701171875, 0.10888671875, 0.392333984375, -0.93017578125
396, 3886286508, -28.613279342651367, 9.148666381835938, -12.933354377746582, 1.2198472023010254, -142.52093505859375, -94.32332611083984, 0.02099609375, 0.408447265625, -0.93310546875
397, 3886303175, -27.853910446166992, 14.261123657226562, -22.038240432739258, -54.45782470703125, -14.3704195022583, -38.46834182739258, -0.020263671875, 0.437255859375, -0.92724609375
398, 3886319842, -25.61156463623047, 9.371957778930664, -21.292470932006836, -35.47201919555664, 130.1944122314453, 67.21553039550781, 0.001220703125, 0.458251953125, -0.92578125
399, 3886336509, -11.24351978302002, -7.978621006011963, 7.161887168884277, -2.583759069442749, 177.24497985839844, 116.97774505615234, 0.06298828125, 0.4697265625, -0.9296875
400, 3886353176, -6.854236602783203, -19.984683990478516, 11.238977432250977, 47.88338851928711, 104.67808532714844, 86.98727416992188, 0.107421875, 0.46630859375, -0.935791015625
401, 3886369843, -2.0850136280059814, -4.03267765045166, 2.3492767810821533, 37.55514144897461, 161.4226837158203, 38.83096694946289, 0.14599609375, 0.46044921875, -0.93798828125
402, 3886386510, -14.021469116210938, 2.52996826171875, 14.950017929077148, 37.55807113647461, 186.43307495117188, 22.601573944091797, 0.19677734375, 0.4609375, -0.9365234375
403, 3886403177, -12.456596374511719, 5.081449508666992, 13.312858581542969, 9.177201271057129, 117.04855346679688, 56.57811737060547, 0.236572265625, 0.458740234375, -0.9326171875
404, 3886419844, -16.42902946472168, -15.194748878479004, 8.783985137939453, 54.20240783691406, 61.199520111083984, 67.39553833007812, 0.268798828125, 0.448486328125, -0.93505859375
405, 3886436511, -6.136934757232666, 0.8162076473236084, 8.826650619506836, 63.21986389160156, 39.83363723754883, 43.09082794189453, 0.285400390625, 0.428955078125, -0.94140625
406, 3886453178, -7.970750331878662, -2.168823719024658, 8.812836647033691, 35.08594512939453, 13.977792739868164, 23.425758361816406, 0.293212890625, 0.416015625, -0.9443359375
407, 3886469845, -5.993164539337158, -2.275604248046875, 8.608476638793945, 27.733877182006836, 11.756268501281738, 15.489167213439941, 0.296875, 0.407470703125, -0.946044921875
408, 3886486512, -6.133437156677246, -2.5704424381256104, 7.802252769470215, 19.71484375, 5.717258453369141, 10.943706512451172, 0.3017578125, 0.400634765625, -0.950439453125
409, 3886503179, -5.747294902801514, -2.934938669204712, 7.768002033233643, 17.142854690551758, 2.4916391372680664, 9.582691192626953, 0.302001953125, 0.39453125, -0.951904296875
410, 3886519846, -5.723491191864014, -2.5646657943725586, 7.935072422027588, 16.491840362548828, 2.3673017024993896, 9.733779907226562, 0.305419921875, 0.3916015625, -0.952880859375
411, 3886536513, -5.7415995597839355, -2.161229133605957, 8.074311256408691, 9.503643035888672, 3.394472122192383, 5.47017765045166, 0.3076171875, 0.389404296875, -0.953857421875
412, 3886553180, -5.705489158630371, -2.371525526046753, 7.7982988357543945, 4.556019306182861, 4.845340251922607, 2.763424873352051, 0.31005859375, 0.386474609375, -0.955810546875
413, 3886569847, -5.4493818283081055, -2.6038005352020264, 7.496196746826172, 2.646080255508423, 5.630626201629639, 1.4484431743621826, 0.3115234375, 0.384033203125, -0.955078125
414, 3886586514, -5.3166728019714355, -2.7514376640319824, 7.308626651763916, 4.056188106536865, 5.64836311340332, 3.0362770557403564, 0.3125, 0.384521484375, -0.955078125
415, 3886603181, -5.468696594238281, -2.8214621543884277, 7.410955905914307, 5.475183010101318, 4.93068265914917, 4.390471935272217, 0.314697265625, 0.382080078125, -0.95751953125
416, 3886619848, -5.556077480316162, -2.725537061691284, 7.505555152893066, 6.713916301727295, 3.070175886154175, 5.078468322753906, 0.316650390625, 0.380126953125, -0.95458984375
417, 3886636515, -5.706740856170654, -2.478062391281128, 7.618339538574219, 7.236222743988037, 1.1592885255813599, 4.873719692230225, 0.319580078125, 0.377685546875, -0.9580078125
418, 3886653182, -5.6893086433410645, -2.361508846282959, 7.639956951141357, 5.9542436599731445, 0.08146761357784271, 3.774435520172119, 0.318115234375, 0.37548828125, -0.955078125
419, 3886669849, -5.611660480499268, -2.4735915660858154, 7.545172214508057, 4.932326793670654, -0.3879811763763428, 2.577418804168701, 0.31982421875, 0.37646484375, -0.95654296875
420, 3886686516, -5.546531677246094, -2.540459394454956, 7.49422025680542, 5.2066969871521, -1.4431475400924683, 2.8456926345825195, 0.316650390625, 0.3759765625, -0.9599609375
421, 3886703183, -5.474095344543457, -2.6088924407958984, 7.519678592681885, 5.1299872398376465, -1.6381371021270752, 3.4535717964172363, 0.31689453125, 0.3701171875, -0.9609375
422, 3886719850, -5.4645867347717285, -2.5369174480438232, 7.643144130706787, 4.197505474090576, -0.9180744290351868, 4.025926113128662, 0.3193359375, 0.3701171875, -0.96240234375
423, 3886736517, -5.446191787719727, -2.4575719833374023, 7.618122577667236, 2.9855384826660156, 0.6437176465988159, 4.534428119659424, 0.3203125, 0.367919921875, -0.96044921875
424, 3886753184, -5.324370861053467, -2.3783352375030518, 7.810511112213135, 0.16945363581180573, 4.179211139678955, 5.130313396453857, 0.318359375, 0.367919921875, -0.9619140625
425, 3886769851, -5.298831939697266, -2.5447208881378174, 7.781289100646973, -2.95342755317688, 9.541152000427246, 6.36707067489624, 0.3212890625, 0.368408203125, -0.95751953125
426, 3886786518, -5.19129753112793, -2.384899139404297, 7.786388397216797, -7.9329047203063965, 16.498538970947266, 9.090119361877441, 0.328857421875, 0.3701171875, -0.956787109375
427, 3886803185, -4.907834529876709, -2.3037757873535156, 8.257505416870117, -16.584203720092773, 26.948471069335938, 14.025566101074219, 0.337646484375, 0.37255859375, -0.9541015625
428, 3886819852, -4.813136577606201, -2.9495644569396973, 8.256060600280762, -17.861019134521484, 41.148681640625, 17.29197120666504, 0.3466796875, 0.376708984375, -0.948486328125
429, 3886836519, -5.417860984802246, -1.6565732955932617, 8.561463356018066, -14.64510726928711, 69.09544372558594, 11.962281227111816, 0.362060546875, 0.3798828125, -0.9375
430, 3886853186, -4.917126655578613, -2.4284417629241943, 8.75250244140625, -20.92282485961914, 96.58980560302734, 12.894582748413086, 0.385986328125, 0.382568359375, -0.922119140625
431, 3886869853, -4.780486583709717, -2.467324733734131, 8.844576835632324, -26.42457389831543, 133.5077667236328, 16.603191375732422, 0.420654296875, 0.387939453125, -0.90478515625
432, 3886886520, -4.942040920257568, -2.6799464225769043, 9.165021896362305, -40.172332763671875, 181.7160186767578, 25.818103790283203, 0.46484375, 0.396240234375, -0.8779296875
433, 3886903187, -4.293613433837891, -4.6668901443481445, 10.436147689819336, -47.85078430175781, 243.5808563232422, 46.2698860168457, 0.525146484375, 0.4052734375, -0.837158203125
434, 3886919854, -4.570704460144043, -4.296425819396973, 9.6913480758667, -41.46421432495117, 314.6827392578125, 81.14891815185547, 0.599853515625, 0.404296875, -0.780517578125
435, 3886936521, -8.422404289245605, -5.809315204620361, 11.701618194580078, -37.591331481933594, 386.8401184082031, 131.54925537109375, 0.688232421875, 0.392822265625, -0.69970703125
436, 3886953188, -11.128311157226562, -4.32312536239624, 11.521265983581543, -36.16596603393555, 424.3473205566406, 160.73995971679688, 0.781982421875, 0.3642578125, -0.601318359375
437, 3886969855, -18.6109619140625, -6.990809917449951, 13.580430030822754, -60.10369110107422, 401.22418212890625, 150.0576934814453, 0.857177734375, 0.3359375, -0.49169921875
438, 3886986522, -20.43743896484375, -6.56386661529541, 15.167915344238281, -50.65912628173828, 317.7856750488281, 149.10098266601562, 0.90625, 0.304931640625, -0.397216796875
439, 3887003189, -11.661928176879883, -6.427265644073486, 13.51810073852539, -39.73641586303711, 251.30067443847656, 152.2766876220703, 0.937744140625, 0.265380859375, -0.322998046875
440, 3887019856, -5.007843971252441, -10.75874137878418, 15.4390869140625, -30.98191261291504, 211.82713317871094, 140.2588653564453, 0.954833984375, 0.228759765625, -0.261962890625
441, 3887036523, -13.771370887756348, -13.834080696105957, 24.41014862060547, -20.912399291992188, 39.23790740966797, 52.416629791259766, 0.95556640625, 0.2099609375, -0.23681640625
442, 3887053190, -0.628579318523407, -10.828400611877441, 15.773478507995605, 21.551511764526367, -111.01210021972656, -10.614142417907715, 0.93701171875, 0.21435546875, -0.270751953125
443, 3887069857, 5.318964958190918, -6.2578349113464355, 9.1662015914917, 60.700923919677734, -138.00643920898438, -28.649805068969727, 0.912109375, 0.223388671875, -0.315185546875
444, 3887086524, 4.071031093597412, -3.165302276611328, 7.786534309387207, 63.84896469116211, -130.2654266357422, -39.5816764831543, 0.887939453125, 0.23388671875, -0.359375
445, 3887103191, 2.172389030456543, -2.1023502349853516, 7.407009601593018, 41.747962951660156, -130.298583984375, -54.3448371887207, 0.8642578125, 0.25244140625, -0.401123046875
446, 3887119858, 0.4158748388290405, -2.228726387023926, 7.417935371398926, 21.405006408691406, -135.68263244628906, -64.2539291381836, 0.836181640625, 0.272705078125, -0.446044921875
447, 3887136525, -1.8584297895431519, -2.466029405593872, 7.6947808265686035, 12.299203872680664, -150.84642028808594, -68.44998931884766, 0.80322265625, 0.295166015625, -0.491455078125
448, 3887153192, -4.54461669921875, -2.4925384521484375, 8.107789993286133, 7.108755588531494, -176.60733032226562, -73.21259307861328, 0.759033203125, 0.320068359375, -0.543212890625
449, 3887169859, -6.755133152008057, -2.357764959335327, 8.352019309997559, -0.7876889705657959, -206.88906860351562, -80.61214447021484, 0.697509765625, 0.34130859375, -0.59521484375
450, 3887186526, -8.205549240112305, -2.561659812927246, 8.345390319824219, -10.43466567993164, -233.60244750976562, -87.60733032226562, 0.62255859375, 0.352294921875, -0.646484375
451, 3887203193, -9.452588081359863, -3.205651044845581, 8.415038108825684, -18.465715408325195, -253.7274627685547, -92.73407745361328, 0.540771484375, 0.35888671875, -0.6875
452, 3887219860, -10.790266036987305, -4.064098834991455, 8.731419563293457, -23.591976165771484, -268.29620361328125, -98.85769653320312, 0.451904296875, 0.364013671875, -0.716796875
453, 3887236527, -12.239338874816895, -5.012955188751221, 9.155380249023438, -28.298053741455078, -279.4920959472656, -108.32908630371094, 0.363037109375, 0.36474609375, -0.732177734375
454, 3887253194, -13.141667366027832, -5.642431259155273, 8.9471435546875, -29.984390258789062, -282.75115966796875, -119.4057388305664, 0.277587890625, 0.35302734375, -0.7353515625
455, 3887269861, -14.442693710327148, -5.293374538421631, 8.939743041992188, -33.25053787231445, -268.9324951171875, -126.38339233398438, 0.206787109375, 0.34423828125, -0.728271484375
456, 3887286528, -17.693069458007812, -5.1194891929626465, 9.668156623840332, -45.182456970214844, -249.69390869140625, -132.74130249023438, 0.156982421875, 0.33935546875, -0.718505859375
457, 3887303195, -22.271100997924805, -5.317286968231201, 8.676154136657715, -56.952205657958984, -246.55979919433594, -150.13499450683594, 0.110107421875, 0.343017578125, -0.715576171875
458, 3887319862, -24.41028594970703, -5.878539562225342, 5.2755584716796875, -44.492156982421875, -255.3147430419922, -153.73147583007812, 0.064697265625, 0.34765625, -0.714599609375
459, 3887336529, -24.696029663085938, -3.6474123001098633, 1.4941060543060303, -20.598413467407227, -257.60589599609375, -125.51712799072266, 0.016357421875, 0.35009765625, -0.720947265625
460, 3887353196, -23.33329200744629, 3.0730555057525635, -1.8487036228179932, -41.86008834838867, -234.72840881347656, -95.47465515136719, -0.02880859375, 0.35546875, -0.7275390625
461, 3887369863, -23.350547790527344, 11.438677787780762, -7.771618366241455, -109.1484603881836, -177.9273223876953, -87.40538787841797, -0.0703125, 0.373046875, -0.728515625
462, 3887386530, -27.07794189453125, 13.5493745803833, -15.908784866333008, -175.3885040283203, -106.99005126953125, -56.382991790771484, -0.099365234375, 0.406494140625, -0.713623046875
463, 3887403197, -17.97994041442871, 2.25858211517334, -17.922443389892578, -103.65452575683594, 3.5318682193756104, 67.99238586425781, -0.105224609375, 0.43603515625, -0.7021484375
464, 3887419864, -13.345733642578125, -0.2840979993343353, -11.627373695373535, 99.31177520751953, 134.44482421875, 198.91015625, -0.057861328125, 0.427978515625, -0.715087890625
465, 3887436531, -13.3528470993042, -9.851609230041504, 12.387857437133789, 129.9182586669922, 148.39358520507812, 147.12615966796875, 9.765625E-4, 0.3974609375, -0.734130859375
466, 3887453198, -5.4271650314331055, -12.54182243347168, 6.797386169433594, 120.78739929199219, 118.32843780517578, 55.58338165283203, 0.0390625, 0.365478515625, -0.746337890625
467, 3887469865, 0.7969908118247986, 1.795053243637085, 5.450220584869385, 104.8288803100586, 179.18772888183594, 40.734195709228516, 0.083251953125, 0.33984375, -0.76123046875
468, 3887486532, -14.052330017089844, 6.490619659423828, 16.064298629760742, 70.44328308105469, 211.17063903808594, 41.403526306152344, 0.140869140625, 0.322265625, -0.760498046875
469, 3887503199, -25.819175720214844, -0.8639801144599915, 17.132610321044922, 89.1490707397461, 116.38688659667969, 99.53880310058594, 0.1865234375, 0.303466796875, -0.7587890625
470, 3887519866, -10.604254722595215, -3.848649501800537, 7.165573596954346, 83.03434753417969, 17.0347900390625, 50.56079864501953, 0.197021484375, 0.27734375, -0.7666015625
471, 3887536533, -6.662075042724609, -0.062190525233745575, 11.145807266235352, 68.2179183959961, 4.956468105316162, 38.23371887207031, 0.206298828125, 0.2568359375, -0.771728515625
472, 3887553200, -7.9164137840271, -0.7261258959770203, 9.28775691986084, 34.97532653808594, -6.529299736022949, 15.043498992919922, 0.20947265625, 0.245361328125, -0.776123046875
473, 3887569867, -5.610628128051758, -2.56826114654541, 8.359660148620605, 17.520343780517578, -1.1945139169692993, 5.095454692840576, 0.20654296875, 0.2392578125, -0.777099609375
474, 3887586534, -5.969733238220215, -2.329167127609253, 7.959426403045654, 7.907595157623291, 0.9125486016273499, 1.70307195186615, 0.2080078125, 0.2373046875, -0.776611328125
475, 3887603201, -5.48463249206543, -2.491533041000366, 7.857914924621582, 3.415011167526245, 1.5352956056594849, 0.2965245842933655, 0.2119140625, 0.23486328125, -0.7744140625
476, 3887619868, -5.367651462554932, -2.3975343704223633, 7.817543983459473, 1.4346251487731934, 2.6792995929718018, 0.49288442730903625, 0.21044921875, 0.234375, -0.777099609375
477, 3887636535, -5.584612846374512, -2.2637381553649902, 7.904569149017334, -1.1111557483673096, 4.815091609954834, -0.7206389307975769, 0.211669921875, 0.234375, -0.77685546875
478, 3887653202, -5.466424465179443, -2.5105373859405518, 7.708174228668213, -2.7015128135681152, 6.363790035247803, -1.518871784210205, 0.214599609375, 0.23583984375, -0.77880859375
479, 3887669869, -5.4613142013549805, -2.449653148651123, 7.630517482757568, -2.6102678775787354, 7.310756206512451, -1.6316189765930176, 0.214599609375, 0.2373046875, -0.7763671875
480, 3887686536, -5.401898384094238, -2.253774404525757, 7.6135478019714355, -2.7483584880828857, 6.969671726226807, -1.4761241674423218, 0.215087890625, 0.23779296875, -0.775390625
481, 3887703203, -5.361804485321045, -2.460146188735962, 7.6322922706604, -3.7094621658325195, 7.426615238189697, -1.2305623292922974, 0.218505859375, 0.23681640625, -0.775390625
482, 3887719870, -5.602281093597412, -2.6376731395721436, 7.532913684844971, -3.6856043338775635, 7.948166370391846, -0.600412905216217, 0.219482421875, 0.238525390625, -0.7734375
483, 3887736537, -5.545417785644531, -2.6750996112823486, 7.480401992797852, -2.468782663345337, 6.32485818862915, 0.13921143114566803, 0.221923828125, 0.240966796875, -0.773193359375
484, 3887753204, -5.507445812225342, -2.6867949962615967, 7.381508827209473, -0.5496998429298401, 4.400678634643555, 1.5551201105117798, 0.223388671875, 0.238525390625, -0.771728515625
485, 3887769871, -5.523425102233887, -2.52999210357666, 7.547019004821777, 0.7160606980323792, 2.548675060272217, 3.027876138687134, 0.2265625, 0.238525390625, -0.772216796875
486, 3887786538, -5.606966018676758, -2.4579739570617676, 7.596497535705566, 0.8397573828697205, 2.624680757522583, 2.8441946506500244, 0.2275390625, 0.238525390625, -0.773681640625
487, 3887803205, -5.529510021209717, -2.574549674987793, 7.492003440856934, 1.5906193256378174, 2.987689733505249, 3.2542026042938232, 0.22802734375, 0.237060546875, -0.773193359375
488, 3887819872, -5.404686450958252, -2.7187626361846924, 7.554265975952148, 3.2627832889556885, 3.6336684226989746, 4.1583571434021, 0.2265625, 0.238037109375, -0.772216796875
489, 3887836539, -5.619125843048096, -2.5033509731292725, 7.616064071655273, 3.8577024936676025, 4.777877330780029, 4.910628318786621, 0.22998046875, 0.234375, -0.77099609375
490, 3887853206, -5.6670427322387695, -2.17435359954834, 7.667055606842041, 2.6530349254608154, 6.578706741333008, 4.371967315673828, 0.2314453125, 0.235595703125, -0.7724609375
491, 3887869873, -5.7488603591918945, -2.1034927368164062, 7.547702312469482, 0.9053643345832825, 9.167447090148926, 3.0821242332458496, 0.234375, 0.2333984375, -0.77197265625
492, 3887886540, -5.6316046714782715, -2.3470077514648438, 7.55139684677124, -0.18172219395637512, 11.311592102050781, 2.6207499504089355, 0.238037109375, 0.232421875, -0.77392578125
493, 3887903207, -5.423929691314697, -2.5746240615844727, 7.704387664794922, -3.2065589427948, 13.824701309204102, 5.143667697906494, 0.239013671875, 0.233642578125, -0.771484375
494, 3887919874, -5.019338607788086, -3.2743144035339355, 7.760952949523926, -4.3920087814331055, 18.907730102539062, 11.176728248596191, 0.246337890625, 0.234130859375, -0.768310546875
495, 3887936541, -5.346871852874756, -2.5134191513061523, 7.941983699798584, -1.5632903575897217, 31.5041446685791, 13.793130874633789, 0.25244140625, 0.231689453125, -0.765625
496, 3887953208, -5.2828545570373535, -2.355722665786743, 8.139796257019043, -3.2726638317108154, 45.489620208740234, 16.29924201965332, 0.262939453125, 0.234130859375, -0.766845703125
497, 3887969875, -5.317218780517578, -2.444634199142456, 8.265155792236328, -2.3586437702178955, 62.09314727783203, 17.36400604248047, 0.27685546875, 0.23046875, -0.760986328125
498, 3887986542, -5.432916164398193, -3.1546757221221924, 8.110124588012695, -0.49049535393714905, 81.45214080810547, 20.77944564819336, 0.294921875, 0.22998046875, -0.754150390625
499, 3888003209, -5.6638641357421875, -3.340749979019165, 8.338714599609375, -0.01498404610902071, 103.68717956542969, 30.577678680419922, 0.31884765625, 0.2275390625, -0.74609375
500, 3888019876, -5.351990699768066, -3.425473690032959, 9.13528060913086, -2.5958056449890137, 134.6636962890625, 50.14779281616211, 0.349365234375, 0.223388671875, -0.73291015625
501, 3888036543, -5.143991947174072, -3.5826361179351807, 10.066280364990234, -23.821931838989258, 186.32647705078125, 81.1506118774414, 0.3857421875, 0.21923828125, -0.712158203125
502, 3888053210, -6.157860279083252, -3.609534740447998, 10.156059265136719, -45.79755783081055, 241.99757385253906, 126.7614974975586, 0.440185546875, 0.214599609375, -0.679931640625
503, 3888069877, -8.24481201171875, -5.146210670471191, 9.922476768493652, -83.42062377929688, 270.9913330078125, 162.10784912109375, 0.4970703125, 0.204833984375, -0.64208984375
504, 3888086544, -13.0167236328125, -5.026844501495361, 10.952913284301758, -129.84771728515625, 254.72276306152344, 172.09376525878906, 0.556640625, 0.19921875, -0.59521484375
505, 3888103211, -13.265918731689453, -5.942751407623291, 12.205318450927734, -148.96726989746094, 209.84295654296875, 178.2041015625, 0.60400390625, 0.192626953125, -0.553955078125
506, 3888119878, -8.367583274841309, -2.753040313720703, 9.1630277633667, -179.48057556152344, 159.15928649902344, 185.1371612548828, 0.637451171875, 0.186767578125, -0.51708984375
507, 3888136545, -2.479820489883423, -0.4332461953163147, 15.970797538757324, -238.14810180664062, 77.63377380371094, 200.21495056152344, 0.658935546875, 0.183349609375, -0.492431640625
508, 3888153212, -3.7188358306884766, -1.7330660820007324, 15.183623313903809, -289.008544921875, -15.01502513885498, 242.53985595703125, 0.66748046875, 0.17578125, -0.480224609375
509, 3888169879, -0.3954438865184784, -6.547743320465088, 10.17393684387207, -283.1490783691406, -86.30569458007812, 241.04827880859375, 0.666015625, 0.17236328125, -0.48486328125
510, 3888186546, 0.8906553387641907, -5.785274505615234, 7.704155921936035, -260.4519958496094, -97.6864242553711, 190.80320739746094, 0.652587890625, 0.172119140625, -0.498046875
511, 3888203213, 0.7284387350082397, -3.8055436611175537, 6.889358997344971, -263.2413635253906, -90.20671844482422, 116.83951568603516, 0.638916015625, 0.186279296875, -0.506103515625
512, 3888219880, 0.479148268699646, -2.388324737548828, 6.7812700271606445, -262.470458984375, -81.2431411743164, 54.46101760864258, 0.6201171875, 0.21533203125, -0.507568359375
513, 3888236547, -1.1593127250671387, -1.8581633567810059, 7.859131336212158, -249.34149169921875, -79.21007537841797, 15.819307327270508, 0.5966796875, 0.2470703125, -0.502685546875
514, 3888253214, -2.8526952266693115, -0.9286708831787109, 9.633843421936035, -223.35714721679688, -87.59701538085938, -7.409414768218994, 0.5712890625, 0.280029296875, -0.49560546875
515, 3888269881, -3.274622917175293, 0.6897333860397339, 11.795721054077148, -203.39108276367188, -94.95042419433594, -34.98243713378906, 0.541259765625, 0.30810546875, -0.48486328125
516, 3888286548, -4.651651382446289, 2.556302309036255, 13.660983085632324, -189.0687255859375, -103.94082641601562, -61.86882400512695, 0.513427734375, 0.33349609375, -0.47607421875
517, 3888303215, -6.283315658569336, 4.275918960571289, 14.64673900604248, -172.56509399414062, -121.2145767211914, -78.96484375, 0.4853515625, 0.355712890625, -0.464111328125
518, 3888319882, -6.992295265197754, 5.857372760772705, 14.654452323913574, -149.81748962402344, -143.65420532226562, -80.59455871582031, 0.46044921875, 0.375244140625, -0.459716796875
519, 3888336549, -6.9602274894714355, 7.503532409667969, 14.400163650512695, -128.8267364501953, -160.40264892578125, -71.02649688720703, 0.435302734375, 0.384033203125, -0.4599609375
520, 3888353216, -7.029899597167969, 8.60731315612793, 13.815106391906738, -116.06855773925781, -171.53480529785156, -53.75167465209961, 0.416748046875, 0.39599609375, -0.46533203125
521, 3888369883, -7.008210182189941, 8.953407287597656, 13.129096031188965, -110.70516204833984, -178.3553009033203, -31.315187454223633, 0.402099609375, 0.405517578125, -0.474853515625
522, 3888386550, -7.033915042877197, 8.025568008422852, 12.656307220458984, -106.12806701660156, -180.5760955810547, -2.4025609493255615, 0.390625, 0.415283203125, -0.485595703125
523, 3888403217, -7.556940078735352, 6.476088523864746, 12.353144645690918, -102.30715942382812, -179.27134704589844, 24.912803649902344, 0.381591796875, 0.42431640625, -0.497802734375
524, 3888419884, -8.417572021484375, 4.818129539489746, 12.07978630065918, -104.0285873413086, -176.906494140625, 44.472476959228516, 0.375732421875, 0.435546875, -0.513671875
525, 3888436551, -8.987936973571777, 2.9803569316864014, 11.381020545959473, -108.12139129638672, -173.27525329589844, 57.70325469970703, 0.36474609375, 0.450439453125, -0.527587890625
526, 3888453218, -9.92518424987793, 1.433213710784912, 10.956197738647461, -113.48619079589844, -166.0970916748047, 64.97744750976562, 0.35400390625, 0.468017578125, -0.537841796875
527, 3888469885, -11.710227012634277, 0.32663488388061523, 10.3766508102417, -122.59151458740234, -162.94866943359375, 62.72439956665039, 0.34521484375, 0.486572265625, -0.544189453125
528, 3888486552, -12.437220573425293, -0.9898496270179749, 9.097197532653809, -125.28813171386719, -166.7952117919922, 53.767948150634766, 0.330322265625, 0.507568359375, -0.546142578125
529, 3888503219, -12.239095687866211, -2.501603126525879, 6.5363335609436035, -109.90031433105469, -169.8472900390625, 44.232460021972656, 0.316650390625, 0.529541015625, -0.549072265625
530, 3888519886, -12.306317329406738, -3.3701813220977783, 3.732485771179199, -71.81412506103516, -167.32276916503906, 39.98589324951172, 0.296875, 0.546630859375, -0.5537109375
531, 3888536553, -16.024545669555664, -0.46085429191589355, 0.8376390933990479, -43.17192459106445, -151.8633270263672, 27.33082389831543, 0.2802734375, 0.556396484375, -0.563232421875
532, 3888553220, -16.15902328491211, 2.894695997238159, -3.732985258102417, -28.984403610229492, -128.93331909179688, 20.791528701782227, 0.26318359375, 0.56494140625, -0.569580078125
533, 3888569887, -7.863171100616455, 3.0678935050964355, -4.8816962242126465, -8.102873802185059, -66.71690368652344, 42.45132827758789, 0.255615234375, 0.5673828125, -0.5771484375
534, 3888586554, -5.4957990646362305, 1.9582682847976685, -1.1292781829833984, 1.3248668909072876, 10.53265380859375, 80.68617248535156, 0.265625, 0.561279296875, -0.5791015625
535, 3888603221, -9.103299140930176, -0.0960213765501976, 3.5554537773132324, -31.753705978393555, 44.73137664794922, 84.97940063476562, 0.289794921875, 0.556640625, -0.573974609375
536, 3888619888, -10.449549674987793, -7.512307643890381, 2.80021333694458, -16.681442260742188, 54.6236457824707, 74.63866424560547, 0.311767578125, 0.55126953125, -0.56201171875
537, 3888636555, -11.907658576965332, -3.979114055633545, 1.0866899490356445, 70.15039825439453, 68.79418182373047, 68.57462310791016, 0.33544921875, 0.53125, -0.5693359375
538, 3888653222, -8.010905265808105, -3.909602165222168, 6.528514385223389, 89.2677230834961, 78.51639556884766, 41.179683685302734, 0.356201171875, 0.50732421875, -0.5712890625
539, 3888669889, -4.024538040161133, -9.730707168579102, 8.962804794311523, 114.80677795410156, 54.816226959228516, 35.366859436035156, 0.37255859375, 0.482421875, -0.584228515625
540, 3888686556, -1.3501678705215454, 0.2011662721633911, 8.322810173034668, 99.06310272216797, 71.81462860107422, 42.3333854675293, 0.3896484375, 0.454833984375, -0.5947265625
541, 3888703223, -7.114532947540283, 6.110326290130615, 11.675447463989258, 51.771366119384766, 101.92317199707031, 27.726543426513672, 0.41162109375, 0.43896484375, -0.59326171875
542, 3888719890, -10.546492576599121, 4.751197814941406, 12.478537559509277, 11.929627418518066, 83.6199951171875, 30.991870880126953, 0.430419921875, 0.427001953125, -0.582275390625
543, 3888736557, -13.42172908782959, -7.395960330963135, 10.921031951904297, 22.810882568359375, 55.28580093383789, 34.52861785888672, 0.446044921875, 0.41650390625, -0.57470703125
544, 3888753224, -5.747368812561035, -0.9662277102470398, 7.0628662109375, 30.76420021057129, 22.453800201416016, 17.353242874145508, 0.451171875, 0.407958984375, -0.5771484375
545, 3888769891, -7.189153671264648, -3.1950745582580566, 8.633367538452148, 23.299497604370117, 12.15751838684082, 11.311054229736328, 0.458251953125, 0.399658203125, -0.576416015625
546, 3888786558, -6.6066694259643555, -1.6770050525665283, 8.881917953491211, 14.792070388793945, 7.317126274108887, 3.761939287185669, 0.46240234375, 0.3935546875, -0.577392578125
547, 3888803225, -5.437405109405518, -2.9035661220550537, 7.7197794914245605, 6.9686079025268555, 3.1571435928344727, 0.6716995239257812, 0.460693359375, 0.392578125, -0.578857421875
548, 3888819892, -5.417247295379639, -2.4329099655151367, 7.770773887634277, 5.305998802185059, 3.220176935195923, 1.696041226387024, 0.462890625, 0.3916015625, -0.577880859375
549, 3888836559, -5.617914199829102, -1.9266620874404907, 8.067814826965332, 0.7755461931228638, 4.352347373962402, -0.9306632280349731, 0.46240234375, 0.39306640625, -0.577392578125
550, 3888853226, -5.604766368865967, -1.990378499031067, 8.055126190185547, -4.935721397399902, 5.87778902053833, -4.205516338348389, 0.4638671875, 0.39208984375, -0.57568359375
551, 3888869893, -5.625544548034668, -2.345609426498413, 7.877423286437988, -8.146674156188965, 6.961400985717773, -5.499984264373779, 0.46435546875, 0.39208984375, -0.576416015625
552, 3888886560, -5.543493270874023, -2.610452175140381, 7.684637546539307, -8.52991771697998, 7.291792869567871, -4.768882751464844, 0.466796875, 0.397216796875, -0.572265625
553, 3888903227, -5.271697998046875, -2.846008539199829, 7.384856700897217, -7.4536051750183105, 7.076503753662109, -3.2109246253967285, 0.46630859375, 0.397705078125, -0.56884765625
554, 3888919894, -5.349658012390137, -2.6727938652038574, 7.3544535636901855, -4.875110149383545, 7.084993362426758, -1.0141863822937012, 0.46923828125, 0.397705078125, -0.567138671875
555, 3888936561, -5.601078033447266, -2.4121224880218506, 7.504225254058838, -3.320878505706787, 6.522985458374023, -0.6946420669555664, 0.4677734375, 0.397216796875, -0.5693359375
556, 3888953228, -5.604696750640869, -2.6112782955169678, 7.36939811706543, -2.0348522663116455, 5.471212387084961, -0.9205077290534973, 0.47021484375, 0.39501953125, -0.566650390625
557, 3888969895, -5.500868320465088, -2.773909568786621, 7.337062835693359, 0.2961660623550415, 3.607670545578003, 0.8214569687843323, 0.470703125, 0.397705078125, -0.565673828125
558, 3888986562, -5.5302934646606445, -2.711846351623535, 7.286793231964111, 2.952024221420288, 1.2519810199737549, 2.3939363956451416, 0.47119140625, 0.398193359375, -0.564697265625
559, 3889003229, -5.472925662994385, -2.81233811378479, 7.340153694152832, 5.7888360023498535, -0.6634075045585632, 4.0971550941467285, 0.4716796875, 0.395263671875, -0.568603515625
560, 3889019896, -5.439713478088379, -2.602731227874756, 7.496175765991211, 7.231792449951172, -1.8369945287704468, 5.662092208862305, 0.473876953125, 0.39404296875, -0.570068359375
561, 3889036563, -5.387162208557129, -2.5605859756469727, 7.530714511871338, 9.175504684448242, -2.6363933086395264, 8.231382369995117, 0.472412109375, 0.39111328125, -0.568603515625
562, 3889053230, -5.465940475463867, -2.470745325088501, 7.726038455963135, 8.933079719543457, -1.9008986949920654, 9.352334022521973, 0.471435546875, 0.39013671875, -0.569091796875
563, 3889069897, -5.629488945007324, -2.126453399658203, 7.84498929977417, 5.223448753356934, -0.5477149486541748, 7.67911958694458, 0.472412109375, 0.38623046875, -0.569091796875
564, 3889086564, -5.516353130340576, -2.1586852073669434, 7.7733564376831055, 1.9472761154174805, 1.9295265674591064, 6.067924499511719, 0.475341796875, 0.380615234375, -0.573974609375
565, 3889103231, -5.378297328948975, -2.568516969680786, 7.713649749755859, -0.27455535531044006, 4.739969730377197, 6.656402111053467, 0.4765625, 0.380615234375, -0.571533203125
566, 3889119898, -5.454375267028809, -2.487037181854248, 7.744514465332031, -2.971830368041992, 8.302520751953125, 7.921377658843994, 0.47998046875, 0.379638671875, -0.56982421875
567, 3889136565, -5.438225746154785, -2.717982053756714, 7.657989978790283, -5.392157554626465, 11.662055969238281, 10.6373291015625, 0.482421875, 0.379150390625, -0.56591796875
568, 3889153232, -5.413790225982666, -2.4394454956054688, 7.650038242340088, -10.70392894744873, 16.13629913330078, 15.121545791625977, 0.487548828125, 0.376708984375, -0.563232421875
569, 3889169899, -5.426875114440918, -2.5149319171905518, 7.899353504180908, -21.991605758666992, 19.243560791015625, 22.958816528320312, 0.492431640625, 0.376708984375, -0.55859375
570, 3889186566, -4.99091911315918, -1.9032772779464722, 8.3574800491333, -10.61513614654541, 37.15599822998047, 17.61776351928711, 0.4990234375, 0.376220703125, -0.552490234375
571, 3889203233, -5.121613502502441, -2.2322633266448975, 8.237346649169922, -14.132283210754395, 57.2237434387207, 14.386140823364258, 0.50927734375, 0.3779296875, -0.541748046875
572, 3889219900, -5.445051193237305, -1.5838083028793335, 8.437567710876465, -19.149747848510742, 82.49755859375, 11.964225769042969, 0.52392578125, 0.37451171875, -0.5283203125
573, 3889236567, -5.356512069702148, -1.8134199380874634, 8.390765190124512, -26.104015350341797, 112.29993438720703, 8.23253345489502, 0.539794921875, 0.37841796875, -0.509033203125
574, 3889253234, -5.465494155883789, -2.467782735824585, 8.239174842834473, -32.346534729003906, 146.1763458251953, 10.01255989074707, 0.560791015625, 0.379150390625, -0.4814453125
575, 3889269901, -5.257786273956299, -3.5802860260009766, 8.865718841552734, -31.31057357788086, 184.0789337158203, 19.668046951293945, 0.590087890625, 0.38232421875, -0.443603515625
576, 3889286568, -5.030889511108398, -3.88668155670166, 9.362425804138184, -21.555116653442383, 229.4962921142578, 39.3387565612793, 0.616943359375, 0.37841796875, -0.402587890625
577, 3889303235, -5.321872234344482, -5.06049108505249, 9.47246265411377, -27.91339111328125, 291.90966796875, 73.8086929321289, 0.654541015625, 0.369140625, -0.345458984375
578, 3889319902, -8.004072189331055, -6.817443370819092, 10.97670841217041, -27.213899612426758, 347.3366394042969, 134.87826538085938, 0.6982421875, 0.34912109375, -0.271728515625
579, 3889336569, -11.174768447875977, -5.511561870574951, 11.200629234313965, -47.111202239990234, 384.4903869628906, 177.5765838623047, 0.743896484375, 0.313720703125, -0.18359375
580, 3889353236, -17.95394515991211, -5.743731498718262, 12.808159828186035, -85.4061279296875, 362.544189453125, 164.1144256591797, 0.77734375, 0.28369140625, -0.092041015625
581, 3889369903, -18.824813842773438, -4.944669723510742, 12.954656600952148, -109.46978759765625, 282.6938781738281, 147.35696411132812, 0.799560546875, 0.25244140625, -0.009033203125
582, 3889386570, -10.538850784301758, -5.69521951675415, 11.223072052001953, -112.1286392211914, 222.90203857421875, 155.72691345214844, 0.818115234375, 0.22119140625, 0.059814453125
583, 3889403237, -3.6999340057373047, -9.342813491821289, 13.937088966369629, -110.8538589477539, 189.26611328125, 158.3957977294922, 0.82958984375, 0.185546875, 0.1162109375
584, 3889419904, -13.09861946105957, -14.089818954467773, 21.760677337646484, -105.36341857910156, 58.74575424194336, 89.64331817626953, 0.837890625, 0.158935546875, 0.151123046875
585, 3889436571, -3.4426686763763428, -13.782758712768555, 15.69929313659668, -46.14649963378906, -89.46186828613281, 15.096004486083984, 0.854248046875, 0.156982421875, 0.137939453125
586, 3889453238, 3.7113823890686035, -9.058183670043945, 9.744297981262207, 20.353290557861328, -136.3868865966797, -20.9412784576416, 0.87109375, 0.167236328125, 0.10693359375
587, 3889469905, 4.270308494567871, -4.4033660888671875, 7.856225967407227, 41.017173767089844, -129.35726928710938, -44.94770812988281, 0.8818359375, 0.18310546875, 0.06494140625
588, 3889486572, 2.220118761062622, -2.281376361846924, 7.822805404663086, 22.820091247558594, -118.59465026855469, -69.94263458251953, 0.88818359375, 0.207763671875, 0.022705078125
589, 3889503239, -0.48059678077697754, -2.374735116958618, 8.085073471069336, 2.122692584991455, -122.05720520019531, -91.9383544921875, 0.88671875, 0.237060546875, -0.017578125
590, 3889519906, -3.1453230381011963, -3.1011407375335693, 8.408113479614258, 1.212489128112793, -139.02777099609375, -106.80492401123047, 0.874755859375, 0.270751953125, -0.058837890625
591, 3889536573, -5.4074883460998535, -3.544722318649292, 8.56428337097168, 18.650728225708008, -166.63937377929688, -115.72789764404297, 0.855712890625, 0.301025390625, -0.10791015625
592, 3889553240, -7.120779037475586, -3.1691670417785645, 8.573755264282227, 39.222049713134766, -197.3919219970703, -122.08148956298828, 0.825439453125, 0.3310546875, -0.16259765625
593, 3889569907, -8.431514739990234, -2.5003042221069336, 8.742103576660156, 48.68593215942383, -224.48182678222656, -128.349609375, 0.797119140625, 0.362060546875, -0.219970703125
594, 3889586574, -9.28811264038086, -2.1448755264282227, 8.666722297668457, 45.208309173583984, -247.05166625976562, -133.95762634277344, 0.765380859375, 0.39404296875, -0.28564453125
595, 3889603241, -9.319998741149902, -2.2013254165649414, 8.227859497070312, 36.42449951171875, -259.20306396484375, -135.40478515625, 0.724365234375, 0.42919921875, -0.349609375
596, 3889619908, -9.228540420532227, -2.0840156078338623, 7.888293743133545, 26.166669845581055, -254.258056640625, -129.95401000976562, 0.66650390625, 0.466552734375, -0.414794921875
597, 3889636575, -10.192635536193848, -2.0297675132751465, 8.840291023254395, 12.313786506652832, -233.9401092529297, -119.20845031738281, 0.5947265625, 0.4931640625, -0.45654296875
598, 3889653242, -13.264192581176758, -2.442095994949341, 11.83876895904541, -16.7281551361084, -214.74070739746094, -111.66332244873047, 0.5263671875, 0.506103515625, -0.468017578125
599, 3889669909, -18.399940490722656, -3.8009536266326904, 13.722577095031738, -56.44498825073242, -219.53465270996094, -118.61457061767578, 0.478759765625, 0.521240234375, -0.4599609375
600, 3889686576, -22.51736068725586, -6.898892402648926, 12.050097465515137, -64.94020080566406, -247.11988830566406, -131.4800567626953, 0.452392578125, 0.543212890625, -0.460693359375
601, 3889703243, -24.31289291381836, -8.483453750610352, 7.369347095489502, -20.776573181152344, -272.2076721191406, -134.6702423095703, 0.428955078125, 0.5771484375, -0.492431640625
602, 3889719910, -24.46967315673828, -4.817710876464844, 2.323709011077881, 28.712080001831055, -282.1779479980469, -116.58483123779297, 0.38134765625, 0.60205078125, -0.54296875
603, 3889736577, -22.624176025390625, 0.45024529099464417, -2.0927860736846924, 22.00843620300293, -261.48321533203125, -92.74645233154297, 0.32421875, 0.621826171875, -0.587890625
604, 3889753244, -21.942272186279297, 5.897899627685547, -6.73222541809082, -28.386844635009766, -209.25534057617188, -66.98355102539062, 0.2705078125, 0.639404296875, -0.61474609375
605, 3889769911, -23.97044563293457, 11.258954048156738, -12.510891914367676, -104.92999267578125, -139.32730102539062, -50.94814682006836, 0.228759765625, 0.661865234375, -0.61669921875
606, 3889786578, -20.326719284057617, 7.003911018371582, -14.026372909545898, -122.86612701416016, -50.21989822387695, -4.086350440979004, 0.2080078125, 0.690673828125, -0.59912109375
607, 3889803245, -17.522401809692383, 0.4251323938369751, -9.481268882751465, -40.680477142333984, 52.37291717529297, 67.1828384399414, 0.22314453125, 0.703369140625, -0.5859375
608, 3889819912, -14.369547843933105, 1.3582931756973267, -1.665172815322876, 53.5886344909668, 120.97734832763672, 125.21038818359375, 0.265380859375, 0.687255859375, -0.5859375
609, 3889836579, -7.804801940917969, -11.53845500946045, 11.72362232208252, 52.51667785644531, 96.83768463134766, 81.61438751220703, 0.303955078125, 0.669921875, -0.589111328125
610, 3889853246, 3.3416619300842285, -9.419301986694336, 3.943493127822876, 75.53384399414062, 95.4171371459961, 90.01766204833984, 0.336669921875, 0.64794921875, -0.59326171875
611, 3889869913, -3.0640926361083984, -1.0140808820724487, 6.161245346069336, 51.70500564575195, 173.1130828857422, 56.204532623291016, 0.37548828125, 0.62939453125, -0.587890625
612, 3889886580, -15.331754684448242, 1.6054803133010864, 14.84843635559082, 38.90363311767578, 176.6982421875, 41.716209411621094, 0.41455078125, 0.619140625, -0.575439453125
613, 3889903247, -12.71829891204834, 1.7795605659484863, 13.074378967285156, 17.122318267822266, 120.81958770751953, 56.46489715576172, 0.448486328125, 0.609130859375, -0.56005859375
614, 3889919914, -9.401815414428711, -7.5141921043396, 10.573664665222168, 9.024129867553711, 102.86614227294922, 51.725154876708984, 0.47705078125, 0.599365234375, -0.5478515625
615, 3889936581, -13.855178833007812, -3.6614627838134766, 7.727802753448486, 59.794189453125, 46.98898696899414, 44.48286056518555, 0.494140625, 0.5859375, -0.544921875
616, 3889953248, -6.391050338745117, -2.9976401329040527, 8.760950088500977, 44.21767044067383, 30.81662940979004, 33.1870002746582, 0.509033203125, 0.572021484375, -0.550537109375
617, 3889969915, -6.467334270477295, -3.238736152648926, 7.679749488830566, 39.771812438964844, 17.986915588378906, 25.04266357421875, 0.51416015625, 0.560546875, -0.554443359375
618, 3889986582, -6.09664249420166, -2.6351397037506104, 8.039674758911133, 35.5565299987793, 7.149604797363281, 20.84409523010254, 0.519287109375, 0.552978515625, -0.558837890625
619, 3890003249, -6.215400218963623, -2.288585662841797, 8.331866264343262, 30.169269561767578, 2.9249510765075684, 17.29651641845703, 0.52392578125, 0.544921875, -0.562255859375
620, 3890019916, -5.883299827575684, -2.148136615753174, 8.193775177001953, 20.333148956298828, 0.017115721479058266, 11.846762657165527, 0.52685546875, 0.537109375, -0.566650390625
621, 3890036583, -5.794692039489746, -2.011676549911499, 8.13720417022705, 10.55238151550293, 3.3044567108154297, 6.74345064163208, 0.528564453125, 0.535400390625, -0.568115234375
622, 3890053250, -5.7573065757751465, -2.2800700664520264, 8.03666877746582, 3.034151792526245, 8.234517097473145, 1.9707889556884766, 0.527587890625, 0.533935546875, -0.56689453125
623, 3890069917, -5.518861293792725, -2.9000282287597656, 7.64738130569458, -0.4735790193080902, 10.263851165771484, 1.2743154764175415, 0.530029296875, 0.530517578125, -0.5673828125
624, 3890086584, -5.743227005004883, -2.8673079013824463, 7.4270172119140625, -0.2713538110256195, 9.680136680603027, 3.1317360401153564, 0.532958984375, 0.534423828125, -0.5625
625, 3890103251, -5.752474308013916, -2.563316822052002, 7.520638465881348, 0.5367205739021301, 7.509548664093018, 3.963905096054077, 0.537353515625, 0.531982421875, -0.563232421875
626, 3890119918, -5.698721408843994, -2.454216241836548, 7.520420551300049, -0.0012550223618745804, 6.281188488006592, 3.4423534870147705, 0.5380859375, 0.530029296875, -0.562255859375
627, 3890136585, -5.722795009613037, -2.4009673595428467, 7.452380180358887, -0.1935936063528061, 4.938429832458496, 2.742845058441162, 0.5390625, 0.530517578125, -0.559326171875
628, 3890153252, -5.79564905166626, -2.4149351119995117, 7.3931169509887695, -0.03579374775290489, 2.9234139919281006, 1.8433011770248413, 0.53955078125, 0.529541015625, -0.559326171875
629, 3890169919, -5.724400997161865, -2.7281875610351562, 7.222814083099365, 1.5521488189697266, -0.291113942861557, 1.923340916633606, 0.5400390625, 0.528564453125, -0.55908203125
630, 3890186586, -5.668968677520752, -2.8528120517730713, 7.155884265899658, 4.363553524017334, -3.545156717300415, 2.9322257041931152, 0.54248046875, 0.529541015625, -0.56103515625
631, 3890203253, -5.612161159515381, -2.710939407348633, 7.2750563621521, 6.850279331207275, -6.455132484436035, 4.020599842071533, 0.5419921875, 0.527587890625, -0.564697265625
632, 3890219920, -5.614881992340088, -2.5564775466918945, 7.436718463897705, 7.644401550292969, -7.879942417144775, 4.5623860359191895, 0.541015625, 0.526123046875, -0.565185546875
633, 3890236587, -5.532630920410156, -2.2963995933532715, 7.692946910858154, 6.385509967803955, -7.086331367492676, 4.422873020172119, 0.53857421875, 0.521484375, -0.56982421875
634, 3890253254, -5.545403003692627, -2.0642871856689453, 7.77598237991333, 2.9792373180389404, -3.4286441802978516, 3.0967743396759033, 0.53662109375, 0.51904296875, -0.567626953125
635, 3890269921, -5.41662073135376, -2.355989456176758, 7.762964248657227, 0.2714882493019104, 0.7479485273361206, 1.5006545782089233, 0.53759765625, 0.5185546875, -0.569091796875
636, 3890286588, -5.444190502166748, -2.5031535625457764, 7.69086217880249, -1.4625494480133057, 4.094350337982178, 1.6119674444198608, 0.539306640625, 0.5166015625, -0.567138671875
637, 3890303255, -5.468855381011963, -2.5413310527801514, 7.594826698303223, -2.496547222137451, 6.527929306030273, 2.4910213947296143, 0.543701171875, 0.51953125, -0.567138671875
638, 3890319922, -5.443910121917725, -2.550143241882324, 7.614001274108887, -3.2157652378082275, 8.87000846862793, 3.5427052974700928, 0.545654296875, 0.5166015625, -0.56494140625
639, 3890336589, -5.313220977783203, -2.3744356632232666, 7.801705837249756, -6.897907733917236, 13.393778800964355, 5.94270658493042, 0.549072265625, 0.51708984375, -0.5625
640, 3890353256, -5.213399887084961, -2.5448966026306152, 7.9521894454956055, -15.513586044311523, 18.874141693115234, 11.448246002197266, 0.55224609375, 0.51708984375, -0.558837890625
641, 3890369923, -5.0106329917907715, -2.5689537525177, 8.226548194885254, -11.031274795532227, 33.15180969238281, 10.330220222473145, 0.55712890625, 0.5185546875, -0.54833984375
642, 3890386590, -5.1291184425354, -2.2832834720611572, 8.351810455322266, -11.840717315673828, 54.36772918701172, 8.082836151123047, 0.569091796875, 0.519287109375, -0.5400390625
643, 3890403257, -5.024556636810303, -2.193787097930908, 8.670609474182129, -19.450111389160156, 79.60131072998047, 10.562463760375977, 0.5830078125, 0.520263671875, -0.526123046875
644, 3890419924, -5.024857521057129, -1.9314595460891724, 8.68372917175293, -28.028860092163086, 112.09996795654297, 11.78558349609375, 0.598388671875, 0.521484375, -0.502197265625
645, 3890436591, -4.9794602394104, -2.389392852783203, 8.733170509338379, -37.06694412231445, 150.82684326171875, 14.38548469543457, 0.619873046875, 0.52392578125, -0.47314453125
646, 3890453258, -5.155722618103027, -2.1969640254974365, 9.025284767150879, -44.16454315185547, 197.001953125, 17.437400817871094, 0.645751953125, 0.527099609375, -0.4306640625
647, 3890469925, -5.231419086456299, -2.631404161453247, 8.933356285095215, -44.394901275634766, 249.1327667236328, 20.51363754272461, 0.677490234375, 0.529296875, -0.375732421875
648, 3890486592, -5.527657985687256, -1.8786336183547974, 8.30070686340332, -45.4788703918457, 312.8301696777344, 22.23215675354004, 0.709228515625, 0.530029296875, -0.306884765625
649, 3890503259, -7.300539016723633, -2.8378520011901855, 8.827171325683594, -43.167198181152344, 376.37982177734375, 28.570478439331055, 0.744140625, 0.529052734375, -0.21923828125
650, 3890519926, -11.208255767822266, -4.7988691329956055, 9.556925773620605, -27.73369026184082, 415.6748352050781, 36.9860725402832, 0.770263671875, 0.524169921875, -0.120849609375
651, 3890536593, -16.074966430664062, -5.768700122833252, 9.392478942871094, 21.416654586791992, 410.08795166015625, 57.16710662841797, 0.791748046875, 0.511962890625, -0.02392578125
652, 3890553260, -20.671337127685547, -5.4554243087768555, 9.14535140991211, 100.90821838378906, 341.4169616699219, 81.0711669921875, 0.7998046875, 0.498291015625, 0.04443359375
653, 3890569927, -16.777305603027344, -4.188131809234619, 11.151692390441895, 166.15696716308594, 271.66839599609375, 75.59830474853516, 0.80712890625, 0.482666015625, 0.08935546875
654, 3890586594, -5.854938983917236, -3.4646923542022705, 11.531085014343262, 198.5889892578125, 215.49461364746094, 42.516357421875, 0.80615234375, 0.478515625, 0.114501953125
655, 3890603261, 2.096538543701172, -0.14242702722549438, 6.712577819824219, 211.83230590820312, 228.20245361328125, 18.484947204589844, 0.803955078125, 0.485107421875, 0.133056640625
