sep=,
DeviceTag:,B,,,,,,,,,,,,,,,,,
FirmwareVersion:,2.2.1,,,,,,,,,,,,,,,,,
AppVersion:,2022.0.1,,,,,,,,,,,,,,,,,
SyncStatus:,Synced,,,,,,,,,,,,,,,,,
OutputRate:,60Hz,,,,,,,,,,,,,,,,,
FilterProfile:,General,,,,,,,,,,,,,,,,,
Measurement Mode:,Inertial Mode - Rate quantities (with mag),,,,,,,,,,,,,,,,,
StartTime:,2022-08-05 17:07:09.325 +0300,,,,,,,,,,,,,,,,,
© Xsens Technologies B. V. 2005-2022,,,,,,,,,,,,,,,,,,,

PacketCounter,SampleTimeFine,Acc_X,Acc_Y,Acc_Z,Gyr_X,Gyr_Y,Gyr_Z,Mag_X,Mag_Y,Mag_Z
1, 381385013, -5.400535583496094, -2.2958734035491943, 7.70426607131958, -0.14822068810462952, -0.323923796415329, -0.8504440188407898, 0.056396484375, 0.203369140625, -0.794921875
2, 381401680, -5.426258563995361, -2.285923719406128, 7.694802761077881, -0.17885346710681915, -0.29633891582489014, -0.8037392497062683, 0.053955078125, 0.203369140625, -0.796875
3, 381418347, -5.419282913208008, -2.26948881149292, 7.710291385650635, -0.25328394770622253, -0.34716731309890747, -0.853453516960144, 0.053955078125, 0.204345703125, -0.7958984375
4, 381435014, -5.4050774574279785, -2.3055856227874756, 7.689821720123291, -0.12164749950170517, -0.2622483968734741, -0.7902029156684875, 0.051025390625, 0.204345703125, -0.794921875
5, 381451681, -5.415291786193848, -2.2795441150665283, 7.693456649780273, -0.09887782484292984, -0.47856050729751587, -0.7591859698295593, 0.051513671875, 0.203857421875, -0.798583984375
6, 381468348, -5.416855335235596, -2.2813639640808105, 7.706453323364258, -0.0032143935095518827, -0.5140212774276733, -0.735507071018219, 0.052978515625, 0.203369140625, -0.79443359375
7, 381485015, -5.422912120819092, -2.29018497467041, 7.709528923034668, 0.08051992207765579, -0.6092109084129333, -0.7184873819351196, 0.052001953125, 0.204833984375, -0.79345703125
8, 381501682, -5.407135963439941, -2.2864317893981934, 7.719772815704346, 0.10569722205400467, -0.6409578323364258, -0.7189997434616089, 0.052001953125, 0.204345703125, -0.797607421875
9, 381518349, -5.415907859802246, -2.287344217300415, 7.7061028480529785, 0.09242981672286987, -0.6405351758003235, -0.7120714783668518, 0.053955078125, 0.203857421875, -0.797119140625
10, 381535016, -5.410231113433838, -2.302593231201172, 7.715201377868652, 0.017794422805309296, -0.5891560912132263, -0.6466438174247742, 0.053955078125, 0.204833984375, -0.796875
11, 381551683, -5.415607452392578, -2.2869017124176025, 7.7201948165893555, -0.08970846980810165, -0.3451439142227173, -0.7053480744361877, 0.052978515625, 0.204833984375, -0.796142578125
12, 381568350, -5.428933143615723, -2.276291608810425, 7.687447547912598, -0.07046054303646088, -0.3343994617462158, -0.7316780686378479, 0.052978515625, 0.204345703125, -0.7958984375
13, 381585017, -5.410980224609375, -2.278499126434326, 7.679224491119385, 0.1297987848520279, -0.4856039881706238, -0.6927851438522339, 0.053466796875, 0.202392578125, -0.79443359375
14, 381601684, -5.399315357208252, -2.289842367172241, 7.706361770629883, 0.0703260600566864, -0.35742518305778503, -0.6357327103614807, 0.053955078125, 0.203369140625, -0.796875
15, 381618351, -5.407228946685791, -2.2631311416625977, 7.693058490753174, 0.13604825735092163, -0.36796486377716064, -0.6674413681030273, 0.055908203125, 0.202880859375, -0.798828125
16, 381635018, -5.412646293640137, -2.264761447906494, 7.716454029083252, 0.052217885851860046, -0.32216930389404297, -0.7317803502082825, 0.053955078125, 0.203369140625, -0.79736328125
17, 381651685, -5.416287422180176, -2.2859041690826416, 7.6980881690979, 0.08472549915313721, -0.4509258270263672, -0.763124942779541, 0.053466796875, 0.204833984375, -0.798095703125
18, 381668352, -5.434672832489014, -2.2679340839385986, 7.716046333312988, -0.008990056812763214, -0.4370294213294983, -0.6996364593505859, 0.055419921875, 0.202880859375, -0.79638671875
19, 381685019, -5.413091659545898, -2.264892816543579, 7.712880611419678, 0.02462020516395569, -0.4940945506095886, -0.772824764251709, 0.052001953125, 0.203857421875, -0.79541015625
20, 381701686, -5.415464878082275, -2.2678370475769043, 7.68596887588501, 0.04938768595457077, -0.4545486271381378, -0.7227392196655273, 0.055419921875, 0.203369140625, -0.794921875
21, 381718353, -5.401812553405762, -2.267141819000244, 7.704654693603516, 0.10942386090755463, -0.4910338819026947, -0.7476219534873962, 0.052978515625, 0.204833984375, -0.79345703125
22, 381735020, -5.4141459465026855, -2.2771284580230713, 7.717259407043457, 0.17748960852622986, -0.4819798171520233, -0.6745104789733887, 0.052490234375, 0.203857421875, -0.796142578125
23, 381751687, -5.405377388000488, -2.2663121223449707, 7.722140789031982, 0.23871676623821259, -0.48160839080810547, -0.6613455414772034, 0.053955078125, 0.2021484375, -0.7939453125
24, 381768354, -5.429443359375, -2.2594616413116455, 7.701404094696045, 0.15455342829227448, -0.5550527572631836, -0.6871631145477295, 0.052978515625, 0.20166015625, -0.796875
25, 381785021, -5.418370723724365, -2.2608892917633057, 7.702795028686523, 0.16185304522514343, -0.6195327639579773, -0.6895578503608704, 0.054443359375, 0.201904296875, -0.7958984375
26, 381801688, -5.416310787200928, -2.2634613513946533, 7.708353042602539, 0.28334689140319824, -0.6260896325111389, -0.7265938520431519, 0.054443359375, 0.20068359375, -0.79345703125
27, 381818355, -5.412177085876465, -2.2626938819885254, 7.693183898925781, 0.27723824977874756, -0.6548526883125305, -0.6156908869743347, 0.053466796875, 0.202880859375, -0.797119140625
28, 381835022, -5.385438442230225, -2.237217426300049, 7.739101886749268, -0.2382877767086029, -0.36051154136657715, -0.7008403539657593, 0.051025390625, 0.20263671875, -0.797119140625
29, 381851689, -5.427494049072266, -2.283442258834839, 7.678037643432617, -0.16397251188755035, -0.5303750038146973, -0.7066288590431213, 0.053955078125, 0.201904296875, -0.798583984375
30, 381868356, -5.416243076324463, -2.261686325073242, 7.731820583343506, -0.16958166658878326, -0.6353357434272766, -0.6566327214241028, 0.053466796875, 0.201904296875, -0.798095703125
31, 381885023, -5.431117534637451, -2.2574336528778076, 7.692943096160889, -0.04144134745001793, -0.5609181523323059, -0.6359376907348633, 0.052978515625, 0.202880859375, -0.797607421875
32, 381901690, -5.418850898742676, -2.265666961669922, 7.711252689361572, 0.0162192415446043, -0.522076427936554, -0.6841536164283752, 0.055419921875, 0.19921875, -0.7958984375
33, 381918357, -5.423360824584961, -2.2585344314575195, 7.702600002288818, 0.10527461022138596, -0.6199682354927063, -0.6882644295692444, 0.053955078125, 0.202392578125, -0.79443359375
34, 381935024, -5.411501884460449, -2.257286548614502, 7.702197074890137, 0.24572184681892395, -0.603371262550354, -0.6283179521560669, 0.055419921875, 0.202880859375, -0.79736328125
35, 381951691, -5.391700267791748, -2.2538070678710938, 7.696937084197998, 0.48183250427246094, -0.6832443475723267, -0.547778844833374, 0.055419921875, 0.202880859375, -0.79638671875
36, 381968358, -5.416890621185303, -2.267066240310669, 7.699269771575928, 0.3800092041492462, -0.6166257262229919, -0.4580575227737427, 0.054931640625, 0.201904296875, -0.79736328125
37, 381985025, -5.413458347320557, -2.2332980632781982, 7.709039688110352, 0.2595527172088623, -0.66073077917099, -0.6263841986656189, 0.053955078125, 0.201171875, -0.7958984375
38, 382001692, -5.416420936584473, -2.240863084793091, 7.7171125411987305, 0.11073010414838791, -0.5239589810371399, -0.7586352825164795, 0.053955078125, 0.19970703125, -0.79541015625
39, 382018359, -5.425130844116211, -2.2406113147735596, 7.712691783905029, 0.02392866276204586, -0.45924848318099976, -0.6930028200149536, 0.053466796875, 0.201171875, -0.79345703125
40, 382035026, -5.413978099822998, -2.2486789226531982, 7.686318874359131, 0.08484847098588943, -0.5722005367279053, -0.6441850066184998, 0.052490234375, 0.201171875, -0.79638671875
41, 382051693, -5.428979396820068, -2.2624166011810303, 7.730355262756348, 0.04705692455172539, -0.5154683589935303, -0.6963067650794983, 0.053955078125, 0.201171875, -0.7958984375
42, 382068360, -5.420380115509033, -2.249415397644043, 7.720455646514893, 0.21125996112823486, -0.6115032434463501, -0.621274471282959, 0.054443359375, 0.20068359375, -0.79833984375
43, 382085027, -5.421964168548584, -2.242048978805542, 7.717298984527588, 0.27958184480667114, -0.69610196352005, -0.6285868883132935, 0.054931640625, 0.2001953125, -0.794921875
44, 382101694, -5.416877269744873, -2.2368056774139404, 7.728603839874268, 0.23470835387706757, -0.6854470372200012, -0.7203955054283142, 0.054443359375, 0.201904296875, -0.7939453125
45, 382118361, -5.429182529449463, -2.2452127933502197, 7.710821628570557, 0.09455567598342896, -0.6046646237373352, -0.6386014223098755, 0.053466796875, 0.20068359375, -0.799072265625
46, 382135028, -5.432184219360352, -2.2280306816101074, 7.708590507507324, 0.015207539312541485, -0.6185339093208313, -0.7998461723327637, 0.052978515625, 0.19970703125, -0.7958984375
47, 382151695, -5.414499282836914, -2.234060287475586, 7.706403732299805, 0.04463652893900871, -0.5606619715690613, -0.8123323321342468, 0.054443359375, 0.2001953125, -0.7978515625
48, 382168362, -5.419857978820801, -2.2374043464660645, 7.721822261810303, 0.126328244805336, -0.566565752029419, -0.861508846282959, 0.053466796875, 0.20068359375, -0.798583984375
49, 382185029, -5.43334436416626, -2.237724781036377, 7.707920074462891, 0.17573513090610504, -0.6005537509918213, -0.8409672975540161, 0.052490234375, 0.19921875, -0.79638671875
50, 382201696, -5.445687770843506, -2.2392098903656006, 7.710917949676514, 0.3250187337398529, -0.6635353565216064, -0.8505977392196655, 0.054931640625, 0.19873046875, -0.7958984375
51, 382218363, -5.430413722991943, -2.2373132705688477, 7.682846546173096, 0.42809709906578064, -0.9767347574234009, -0.8284795880317688, 0.053466796875, 0.20068359375, -0.79541015625
52, 382235030, -5.439685821533203, -2.2215445041656494, 7.712368488311768, 0.4368181526660919, -1.2167439460754395, -0.9725013375282288, 0.052490234375, 0.19921875, -0.798583984375
53, 382251697, -5.41393518447876, -2.2243540287017822, 7.720621109008789, 0.4214377999305725, -1.2703131437301636, -0.9471064805984497, 0.053955078125, 0.20068359375, -0.794921875
54, 382268364, -5.3909125328063965, -2.246946096420288, 7.7153639793396, 0.5715409517288208, -1.4379481077194214, -0.9944770336151123, 0.053955078125, 0.19921875, -0.79833984375
55, 382285031, -5.384490489959717, -2.2656941413879395, 7.729467391967773, 0.44819024205207825, -1.1710511445999146, -0.7839791774749756, 0.053466796875, 0.19970703125, -0.7978515625
56, 382301698, -5.372638702392578, -2.2552223205566406, 7.748213291168213, 0.5324304103851318, -0.8001151084899902, -0.5990425944328308, 0.053466796875, 0.1982421875, -0.7958984375
57, 382318365, -5.404146194458008, -2.234668254852295, 7.704477310180664, 0.45434999465942383, -0.380246102809906, -0.517760694026947, 0.052978515625, 0.19970703125, -0.798095703125
58, 382335032, -5.4024977684021, -2.228581428527832, 7.7577128410339355, 0.31193068623542786, -0.2771166265010834, -0.45305025577545166, 0.050537109375, 0.19970703125, -0.7958984375
59, 382351699, -5.405873775482178, -2.2171947956085205, 7.7722392082214355, -0.0835358127951622, 0.16515707969665527, -0.45098838210105896, 0.053466796875, 0.2001953125, -0.798583984375
60, 382368366, -5.444278240203857, -2.1817944049835205, 7.738877296447754, -0.0765051394701004, 0.21848274767398834, -0.41466963291168213, 0.052978515625, 0.19970703125, -0.798095703125
61, 382385033, -5.475043773651123, -2.1591131687164307, 7.686031341552734, -0.027674520388245583, -0.31900614500045776, -0.7328945398330688, 0.052001953125, 0.19873046875, -0.796875
62, 382401700, -5.469448089599609, -2.173487901687622, 7.708156108856201, -0.15859383344650269, -0.8965596556663513, -1.1624451875686646, 0.054443359375, 0.19873046875, -0.7978515625
63, 382418367, -5.462756633758545, -2.1420557498931885, 7.7114973068237305, -0.3899149000644684, -1.4209412336349487, -1.4816689491271973, 0.053466796875, 0.19677734375, -0.794921875
64, 382435034, -5.446902751922607, -2.1710267066955566, 7.7047576904296875, -0.5184522867202759, -1.8111510276794434, -1.8739405870437622, 0.052001953125, 0.19921875, -0.79638671875
65, 382451701, -5.402487277984619, -2.252434492111206, 7.712261199951172, -0.4282059073448181, -2.097949266433716, -1.8840831518173218, 0.050537109375, 0.2001953125, -0.797119140625
66, 382468368, -5.385948181152344, -2.2797365188598633, 7.74260950088501, -0.35481271147727966, -1.9922198057174683, -1.6078243255615234, 0.052001953125, 0.20068359375, -0.79443359375
67, 382485035, -5.373871326446533, -2.2348837852478027, 7.7459611892700195, -0.4025035798549652, -1.6415435075759888, -1.4519199132919312, 0.054931640625, 0.19921875, -0.79541015625
68, 382501702, -5.367255210876465, -2.2301363945007324, 7.747858047485352, -0.45856973528862, -1.3229855298995972, -1.3580236434936523, 0.049560546875, 0.19921875, -0.79443359375
69, 382518369, -5.3696184158325195, -2.2263081073760986, 7.715391159057617, -0.592396080493927, -1.0493395328521729, -1.2672138214111328, 0.051513671875, 0.2001953125, -0.79638671875
70, 382535036, -5.4062042236328125, -2.208303689956665, 7.665524959564209, -0.5373287796974182, -1.2597990036010742, -1.3406966924667358, 0.052001953125, 0.19873046875, -0.796875
71, 382551703, -5.377714157104492, -2.237889051437378, 7.704903602600098, -0.18293870985507965, -1.6246649026870728, -1.419763207435608, 0.049560546875, 0.19921875, -0.796630859375
72, 382568370, -5.333950042724609, -2.2500252723693848, 7.74484395980835, -0.13664375245571136, -1.4382811784744263, -1.26991605758667, 0.050048828125, 0.20068359375, -0.801513671875
73, 382585037, -5.329867362976074, -2.2465009689331055, 7.788581371307373, -0.20669446885585785, -0.8550031185150146, -1.0665127038955688, 0.052490234375, 0.19970703125, -0.797119140625
74, 382601704, -5.361691474914551, -2.245817184448242, 7.760179042816162, -0.42937129735946655, -0.09630374610424042, -1.032102108001709, 0.051025390625, 0.19873046875, -0.797607421875
75, 382618371, -5.371377468109131, -2.240222454071045, 7.755656719207764, -0.6386014819145203, 0.13586898148059845, -1.0155819654464722, 0.051025390625, 0.19873046875, -0.79638671875
76, 382635038, -5.4076385498046875, -2.227937936782837, 7.733429908752441, -0.6530214548110962, 0.19339510798454285, -0.9980244636535645, 0.051025390625, 0.19921875, -0.796630859375
77, 382651705, -5.4151291847229, -2.2396554946899414, 7.7167534828186035, -0.520347535610199, -0.03543516993522644, -0.9661493897438049, 0.050537109375, 0.19921875, -0.797119140625
78, 382668372, -5.404983997344971, -2.232665538787842, 7.737972259521484, -0.5380587577819824, -0.14436598122119904, -1.015940546989441, 0.052001953125, 0.201171875, -0.797607421875
79, 382685039, -5.398925304412842, -2.2184879779815674, 7.756643295288086, -0.4715554714202881, -0.08838943392038345, -1.14557945728302, 0.052001953125, 0.2001953125, -0.798095703125
80, 382701706, -5.40658712387085, -2.2335808277130127, 7.7535529136657715, -0.7170659303665161, -0.11911185830831528, -1.3196046352386475, 0.052490234375, 0.19921875, -0.79638671875
81, 382718373, -5.412734508514404, -2.2443389892578125, 7.7321577072143555, -0.7448428869247437, -0.12400388717651367, -1.411592721939087, 0.050048828125, 0.19970703125, -0.797119140625
82, 382735040, -5.384330749511719, -2.267026662826538, 7.719127178192139, -0.7258766889572144, -0.12550221383571625, -1.2437782287597656, 0.052490234375, 0.201171875, -0.794921875
83, 382751707, -5.399966239929199, -2.2391724586486816, 7.727590084075928, -0.6352717876434326, -0.13196943700313568, -1.2700697183609009, 0.052490234375, 0.20166015625, -0.798095703125
84, 382768374, -5.3870110511779785, -2.2245709896087646, 7.741869926452637, -0.6125644445419312, -0.23548446595668793, -1.2562246322631836, 0.052001953125, 0.202880859375, -0.796630859375
85, 382785041, -5.391152858734131, -2.2418153285980225, 7.692777156829834, -0.5635177493095398, -0.4375417232513428, -1.3428610563278198, 0.053955078125, 0.19970703125, -0.79736328125
86, 382801708, -5.382724285125732, -2.247459650039673, 7.7108588218688965, -0.5410682559013367, -0.4851173460483551, -1.2027722597122192, 0.050048828125, 0.19921875, -0.79443359375
87, 382818375, -5.387409210205078, -2.2531239986419678, 7.727660179138184, -0.47397586703300476, -0.28157320618629456, -1.16175377368927, 0.049560546875, 0.20068359375, -0.795654296875
88, 382835042, -5.399560928344727, -2.256500720977783, 7.726223945617676, -0.20639993250370026, -0.4191902279853821, -0.9971023201942444, 0.052001953125, 0.19970703125, -0.797119140625
89, 382851709, -5.395857810974121, -2.256378650665283, 7.72916841506958, -0.09604762494564056, -0.5236644148826599, -0.9535863995552063, 0.054931640625, 0.201904296875, -0.79833984375
90, 382868376, -5.428184986114502, -2.267749786376953, 7.699442386627197, 0.045712266117334366, -0.6974978446960449, -0.9373351335525513, 0.052001953125, 0.201171875, -0.798095703125
91, 382885043, -5.405275821685791, -2.263859987258911, 7.71537971496582, 0.28020933270454407, -0.9808127284049988, -0.847460150718689, 0.051025390625, 0.2001953125, -0.79443359375
92, 382901710, -5.388118267059326, -2.27447247505188, 7.763401031494141, 0.3645903468132019, -0.7861177325248718, -0.8086696863174438, 0.051513671875, 0.19921875, -0.796630859375
93, 382918377, -5.383266925811768, -2.273279905319214, 7.721378326416016, 0.21638250350952148, -0.40274694561958313, -0.8729064464569092, 0.051513671875, 0.19873046875, -0.798583984375
94, 382935044, -5.367021560668945, -2.195401430130005, 7.742363452911377, 0.10281576961278915, -0.13673338294029236, -0.6524322032928467, 0.052490234375, 0.1982421875, -0.7958984375
95, 382951711, -5.4196457862854, -2.1671853065490723, 7.755538463592529, -0.15342006087303162, -0.034858882427215576, -0.8027275800704956, 0.051025390625, 0.20068359375, -0.79443359375
96, 382968378, -5.413036823272705, -2.2295658588409424, 7.727353096008301, -0.37123048305511475, -0.23815970122814178, -1.0097678899765015, 0.053955078125, 0.20068359375, -0.796875
97, 382985045, -5.420236587524414, -2.2769720554351807, 7.692769527435303, -0.26819056272506714, -0.4777792692184448, -0.8994411826133728, 0.052978515625, 0.20068359375, -0.79638671875
98, 383001712, -5.406809329986572, -2.2902867794036865, 7.697238445281982, 0.2289455085992813, -0.6770588755607605, -0.7585456371307373, 0.052001953125, 0.19970703125, -0.799560546875
99, 383018379, -5.402948379516602, -2.2375097274780273, 7.718978404998779, 0.34858238697052, -0.8823701739311218, -0.5592404007911682, 0.052001953125, 0.201171875, -0.799072265625
100, 383035046, -5.389526844024658, -2.1771185398101807, 7.751803398132324, 0.16554127633571625, -0.7826471924781799, -0.6780065298080444, 0.051025390625, 0.20068359375, -0.796630859375
101, 383051713, -5.407732009887695, -2.165452480316162, 7.760120391845703, -0.17188683152198792, -0.6334788799285889, -0.9658421277999878, 0.051025390625, 0.19921875, -0.796630859375
102, 383068380, -5.383004188537598, -2.2316625118255615, 7.727768421173096, -0.4037970304489136, -0.5917430520057678, -1.1455280780792236, 0.053955078125, 0.20068359375, -0.7978515625
103, 383085047, -5.389338970184326, -2.2718379497528076, 7.707292556762695, -0.33418169617652893, -0.7182056903839111, -1.1583343744277954, 0.051513671875, 0.19970703125, -0.79541015625
104, 383101714, -5.379955768585205, -2.26643967628479, 7.715991973876953, -0.19904911518096924, -0.7042468190193176, -0.9180360436439514, 0.052001953125, 0.19970703125, -0.79638671875
105, 383118381, -5.398165702819824, -2.267322301864624, 7.713913440704346, -0.04801100492477417, -0.5594325661659241, -0.7331507205963135, 0.051513671875, 0.19921875, -0.797607421875
106, 383135048, -5.394627094268799, -2.2340457439422607, 7.722414970397949, 0.062245260924100876, -0.659642219543457, -0.739963710308075, 0.048583984375, 0.20068359375, -0.798095703125
107, 383151715, -5.390077114105225, -2.2209367752075195, 7.727837085723877, -0.015969518572092056, -0.7258638739585876, -0.9471449255943298, 0.049560546875, 0.19921875, -0.799560546875
108, 383168382, -5.389301300048828, -2.2194128036499023, 7.731330394744873, -0.1983959674835205, -0.54620361328125, -0.9599511027336121, 0.050048828125, 0.20068359375, -0.797119140625
109, 383185049, -5.374251365661621, -2.2599172592163086, 7.745351791381836, -0.3147416412830353, -0.4323423206806183, -0.9607194662094116, 0.052978515625, 0.19921875, -0.798095703125
110, 383201716, -5.396078586578369, -2.236215591430664, 7.727466583251953, -0.35952550172805786, -0.19163422286510468, -0.8685010671615601, 0.051025390625, 0.19873046875, -0.79638671875
111, 383218383, -5.394423484802246, -2.2339797019958496, 7.729162216186523, -0.44162696599960327, -0.10337284952402115, -0.7753092050552368, 0.052978515625, 0.20068359375, -0.799560546875
112, 383235050, -5.4007158279418945, -2.2379677295684814, 7.704147815704346, -0.41304314136505127, -0.27125129103660583, -0.8200673460960388, 0.052978515625, 0.20166015625, -0.798583984375
113, 383251717, -5.405226230621338, -2.238100051879883, 7.724867820739746, -0.3270101249217987, -0.40049293637275696, -0.8668618202209473, 0.050537109375, 0.20263671875, -0.796142578125
114, 383268384, -5.397551536560059, -2.2386248111724854, 7.725949764251709, -0.13938431441783905, -0.3362947702407837, -0.8233330249786377, 0.053955078125, 0.20166015625, -0.796875
115, 383285051, -5.390892505645752, -2.2400546073913574, 7.724289894104004, -0.14329023659229279, -0.5269941091537476, -0.6650592684745789, 0.052978515625, 0.19970703125, -0.79736328125
116, 383301718, -5.408346652984619, -2.228023052215576, 7.726722717285156, -0.20190490782260895, -0.4533831477165222, -0.7961963415145874, 0.052490234375, 0.19921875, -0.799560546875
117, 383318385, -5.39630651473999, -2.2389867305755615, 7.718256950378418, -0.169120654463768, -0.4484527111053467, -0.8181976675987244, 0.051025390625, 0.19873046875, -0.7958984375
118, 383335052, -5.400949954986572, -2.2334201335906982, 7.717665195465088, -0.14350374042987823, -0.47995954751968384, -0.7876633405685425, 0.051513671875, 0.2001953125, -0.797607421875
119, 383351719, -5.396270751953125, -2.229551315307617, 7.705443382263184, -0.12247993052005768, -0.5224478244781494, -0.7415644526481628, 0.054443359375, 0.20068359375, -0.7978515625
120, 383368386, -5.403267860412598, -2.2356576919555664, 7.721972465515137, 0.04106355831027031, -0.5503272414207458, -0.6558899879455566, 0.051513671875, 0.20068359375, -0.796630859375
121, 383385053, -5.403984546661377, -2.2147459983825684, 7.702838897705078, -0.10773982107639313, -0.5396723747253418, -0.7109444737434387, 0.052001953125, 0.2001953125, -0.798583984375
122, 383401720, -5.407339096069336, -2.2162258625030518, 7.722573757171631, -0.06478731334209442, -0.607955813407898, -0.6609741449356079, 0.053466796875, 0.20068359375, -0.79638671875
123, 383418387, -5.400388240814209, -2.224602222442627, 7.693605899810791, -0.1632937788963318, -0.6869583129882812, -0.7437928318977356, 0.050048828125, 0.19873046875, -0.798095703125
124, 383435054, -5.408450126647949, -2.2296814918518066, 7.733798503875732, -0.06739981472492218, -0.8285707831382751, -0.805826723575592, 0.051513671875, 0.20263671875, -0.7958984375
125, 383451721, -5.3878607749938965, -2.2213258743286133, 7.731314659118652, -0.05852501839399338, -0.7792023420333862, -0.8299667239189148, 0.050048828125, 0.201171875, -0.797119140625
126, 383468388, -5.3816447257995605, -2.2269251346588135, 7.747715473175049, -0.1289343237876892, -0.677929699420929, -0.7684577703475952, 0.051513671875, 0.20166015625, -0.799072265625
127, 383485055, -5.391536712646484, -2.2309203147888184, 7.740299224853516, -0.15516172349452972, -0.5240358114242554, -0.6126172542572021, 0.052978515625, 0.19873046875, -0.799560546875
128, 383501722, -5.37957763671875, -2.219719648361206, 7.733308792114258, -0.22157546877861023, -0.3739326000213623, -0.6651362180709839, 0.053955078125, 0.19873046875, -0.79736328125
129, 383518389, -5.4012250900268555, -2.2229456901550293, 7.73344087600708, -0.1977812498807907, -0.3310568928718567, -0.7044132351875305, 0.052001953125, 0.2001953125, -0.797119140625
130, 383535056, -5.399765491485596, -2.222834587097168, 7.704362869262695, -0.16859561204910278, -0.33368223905563354, -0.7020825743675232, 0.053955078125, 0.2001953125, -0.796875
131, 383551723, -5.408260345458984, -2.2209362983703613, 7.737389087677002, -0.12447771430015564, -0.4508603513240814, -0.7687395215034485, 0.051025390625, 0.2001953125, -0.799072265625
132, 383568390, -5.388149261474609, -2.2191860675811768, 7.73176383972168, -0.05949829891324043, -0.5085657238960266, -0.6546989679336548, 0.053955078125, 0.19921875, -0.796875
133, 383585057, -5.3928422927856445, -2.2194018363952637, 7.750553131103516, -0.1810561716556549, -0.34817904233932495, -0.6797866225242615, 0.054443359375, 0.19970703125, -0.7958984375
134, 383601724, -5.381849765777588, -2.2091240882873535, 7.717462062835693, -0.3267027735710144, -0.2749779224395752, -0.7375432848930359, 0.053955078125, 0.19873046875, -0.79638671875
135, 383618391, -5.403036594390869, -2.232876777648926, 7.708750247955322, -0.41527146100997925, -0.27757757902145386, -0.7584944367408752, 0.053466796875, 0.19775390625, -0.79638671875
136, 383635058, -5.400883674621582, -2.235456943511963, 7.71675968170166, -0.35683611035346985, -0.39172065258026123, -0.6858952641487122, 0.052001953125, 0.2001953125, -0.797119140625
137, 383651725, -5.398313045501709, -2.234792947769165, 7.757408618927002, -0.3133585453033447, -0.23677659034729004, -0.6598215103149414, 0.053466796875, 0.2001953125, -0.798095703125
138, 383668392, -5.404278755187988, -2.2251949310302734, 7.7317352294921875, -0.42803943157196045, -0.024869928136467934, -0.6741902232170105, 0.052001953125, 0.19970703125, -0.79638671875
139, 383685059, -5.405322074890137, -2.2111053466796875, 7.738987445831299, -0.7499653697013855, 0.13749536871910095, -0.8386750221252441, 0.053955078125, 0.20068359375, -0.798583984375
140, 383701726, -5.422273635864258, -2.2155070304870605, 7.704395294189453, -0.6712063550949097, 0.014336707070469856, -0.8101040124893188, 0.052978515625, 0.19921875, -0.79736328125
141, 383718393, -5.400973320007324, -2.243942975997925, 7.729525089263916, -0.532078206539154, -0.127704918384552, -0.7961962819099426, 0.053466796875, 0.19873046875, -0.7958984375
142, 383735060, -5.412965297698975, -2.235762596130371, 7.7176127433776855, -0.3964333236217499, -0.13705354928970337, -0.7136849761009216, 0.052001953125, 0.19921875, -0.79345703125
143, 383751727, -5.416390419006348, -2.214759111404419, 7.732421875, -0.2741711139678955, -0.1514606922864914, -0.6795945167541504, 0.053466796875, 0.2001953125, -0.796875
144, 383768394, -5.420191764831543, -2.200103998184204, 7.727872848510742, -0.36002492904663086, -0.12017479538917542, -0.6662759780883789, 0.053955078125, 0.2001953125, -0.7978515625
145, 383785061, -5.401914596557617, -2.2204926013946533, 7.70919132232666, -0.5777712464332581, 0.006435190327465534, -0.9119914174079895, 0.053955078125, 0.19970703125, -0.79736328125
146, 383801728, -5.400493621826172, -2.2364068031311035, 7.733208179473877, -0.6170098185539246, 0.26582780480384827, -0.8932044506072998, 0.053955078125, 0.2001953125, -0.796875
147, 383818395, -5.41426420211792, -2.235201358795166, 7.735077857971191, -0.5924472808837891, 0.2944243848323822, -0.7571882009506226, 0.054443359375, 0.19677734375, -0.7958984375
148, 383835062, -5.420066833496094, -2.235734701156616, 7.733440399169922, -0.45773741602897644, 0.2501528561115265, -0.797195315361023, 0.052978515625, 0.201171875, -0.797119140625
149, 383851729, -5.420748710632324, -2.249539613723755, 7.719803810119629, -0.40164557099342346, 0.14726662635803223, -0.7223934531211853, 0.053955078125, 0.19970703125, -0.799072265625
150, 383868396, -5.400447845458984, -2.256075143814087, 7.7234063148498535, -0.21140721440315247, 0.05548351630568504, -0.741602897644043, 0.055419921875, 0.202392578125, -0.798583984375
151, 383885063, -5.346014499664307, -2.2466022968292236, 7.666179656982422, 0.10243158042430878, 0.4179287850856781, -0.44549447298049927, 0.055908203125, 0.19970703125, -0.7978515625
152, 383901730, -5.423127174377441, -2.2129201889038086, 7.747108459472656, 0.3946705460548401, 0.9145115613937378, 0.022137105464935303, 0.056396484375, 0.2001953125, -0.796875
153, 383918397, -5.472462177276611, -2.172170400619507, 7.730868339538574, -0.056642480194568634, 0.8569432497024536, -0.3151514232158661, 0.05712890625, 0.19921875, -0.79638671875
154, 383935064, -5.453018665313721, -2.208660364151001, 7.708292484283447, -0.25852179527282715, 0.7451182007789612, -0.7088186144828796, 0.054931640625, 0.1982421875, -0.79638671875
155, 383951731, -5.487404823303223, -2.2033913135528564, 7.717234134674072, -0.49833348393440247, 0.3716723322868347, -0.8310936689376831, 0.055419921875, 0.2001953125, -0.800048828125
156, 383968398, -5.475449085235596, -2.203629970550537, 7.708619594573975, -0.2723654508590698, -0.005570762325078249, -0.9607580304145813, 0.056396484375, 0.19970703125, -0.7978515625
157, 383985065, -5.438149929046631, -2.234985113143921, 7.65749454498291, -0.08331811428070068, -0.30034729838371277, -0.9724757075309753, 0.056884765625, 0.2001953125, -0.79736328125
158, 384001732, -5.424026966094971, -2.2317774295806885, 7.679052352905273, 0.06935278326272964, -0.4897019863128662, -0.8774782419204712, 0.05712890625, 0.19921875, -0.794921875
159, 384018399, -5.439791679382324, -2.2002131938934326, 7.7161078453063965, 0.012531012296676636, -0.4698137044906616, -0.8350252509117126, 0.0576171875, 0.197265625, -0.7958984375
160, 384035066, -5.454925060272217, -2.1917715072631836, 7.7126994132995605, -0.20223785936832428, -0.38275617361068726, -0.9020023941993713, 0.05712890625, 0.19873046875, -0.7958984375
161, 384051733, -5.458237171173096, -2.2072126865386963, 7.725306510925293, -0.3110150396823883, -0.448375940322876, -0.9947077035903931, 0.056884765625, 0.2001953125, -0.79736328125
162, 384068400, -5.4324049949646, -2.232353687286377, 7.716390609741211, -0.4171796143054962, -0.3258959650993347, -1.041284203529358, 0.056396484375, 0.19873046875, -0.798828125
163, 384085067, -5.418997287750244, -2.2276229858398438, 7.711439609527588, -0.42721980810165405, -0.3199538290500641, -0.8876080513000488, 0.056884765625, 0.19921875, -0.79736328125
164, 384101734, -5.421940326690674, -2.211886405944824, 7.699557781219482, -0.4069601595401764, -0.3681953251361847, -0.9603096842765808, 0.05712890625, 0.197265625, -0.7958984375
165, 384118401, -5.439250946044922, -2.220705032348633, 7.689873218536377, -0.5245864987373352, -0.31194984912872314, -0.8392384648323059, 0.056396484375, 0.1982421875, -0.79833984375
166, 384135068, -5.456409931182861, -2.209716320037842, 7.702733039855957, -0.5880547165870667, -0.08675020188093185, -0.9300227165222168, 0.056884765625, 0.19921875, -0.794921875
167, 384151735, -5.450109004974365, -2.234299898147583, 7.705389499664307, -0.6078406572341919, -0.049739863723516464, -0.9777647256851196, 0.055419921875, 0.201416015625, -0.7978515625
168, 384168402, -5.457216739654541, -2.224705219268799, 7.67898416519165, -0.6444154977798462, -0.11767754703760147, -0.9838221669197083, 0.056396484375, 0.1982421875, -0.7978515625
169, 384185069, -5.452630519866943, -2.2152812480926514, 7.701799392700195, -0.5417341589927673, -0.3355776071548462, -1.0687410831451416, 0.056884765625, 0.20068359375, -0.79638671875
170, 384201736, -5.469555377960205, -2.208662986755371, 7.699516773223877, -0.4575709104537964, -0.5421184301376343, -1.143837571144104, 0.055419921875, 0.2001953125, -0.7958984375
171, 384218403, -5.456170558929443, -2.2184183597564697, 7.700876235961914, -0.5229601263999939, -0.7292832136154175, -1.2534343004226685, 0.055908203125, 0.19921875, -0.7978515625
172, 384235070, -5.438784599304199, -2.234020948410034, 7.679885387420654, -0.44774842262268066, -0.7057964205741882, -1.2326751947402954, 0.056884765625, 0.20068359375, -0.79736328125
173, 384251737, -5.44230318069458, -2.236531972885132, 7.678750514984131, -0.4007619023323059, -0.6465798020362854, -1.139970064163208, 0.057373046875, 0.2001953125, -0.79736328125
174, 384268404, -5.461687088012695, -2.222799777984619, 7.6872429847717285, -0.37977227568626404, -0.7376457452774048, -1.1991097927093506, 0.056396484375, 0.1982421875, -0.79736328125
175, 384285071, -5.458576679229736, -2.2164206504821777, 7.713602542877197, -0.31073325872421265, -0.754767894744873, -1.063183069229126, 0.054931640625, 0.19873046875, -0.796875
176, 384301738, -5.452383995056152, -2.24292254447937, 7.695007801055908, -0.41405490040779114, -0.8046613931655884, -1.181501030921936, 0.057373046875, 0.2001953125, -0.79833984375
177, 384318405, -5.423091411590576, -2.226731777191162, 7.686935901641846, -0.37728792428970337, -0.729360044002533, -1.1257805824279785, 0.054931640625, 0.19873046875, -0.7978515625
178, 384335072, -5.435325622558594, -2.2269957065582275, 7.720431804656982, -0.3509836196899414, -0.6362066864967346, -1.207177758216858, 0.055419921875, 0.19970703125, -0.79736328125
179, 384351739, -5.441917896270752, -2.2327980995178223, 7.691649436950684, -0.45876187086105347, -0.6204035878181458, -1.1412378549575806, 0.055419921875, 0.201416015625, -0.79638671875
180, 384368406, -5.450151443481445, -2.2061562538146973, 7.6688714027404785, -0.42743757367134094, -0.5680896639823914, -1.2087913751602173, 0.054931640625, 0.201904296875, -0.7978515625
181, 384385073, -5.43776798248291, -2.247201681137085, 7.689706325531006, -0.43837419152259827, -0.5048903822898865, -1.1541210412979126, 0.056884765625, 0.201416015625, -0.796875
182, 384401740, -5.446083068847656, -2.234327793121338, 7.697494983673096, -0.44354796409606934, -0.5654259324073792, -1.2081767320632935, 0.053955078125, 0.19873046875, -0.79638671875
183, 384418407, -5.445788860321045, -2.2390854358673096, 7.716734409332275, -0.41164731979370117, -0.5979668498039246, -1.2204196453094482, 0.055908203125, 0.201171875, -0.7958984375
184, 384435074, -5.423137664794922, -2.268155336380005, 7.709357738494873, -0.407075434923172, -0.7292832136154175, -1.184497594833374, 0.053955078125, 0.2001953125, -0.79736328125
185, 384451741, -5.4270710945129395, -2.2317802906036377, 7.6961846351623535, -0.3860449492931366, -0.8283643126487732, -1.0099436044692993, 0.055908203125, 0.202880859375, -0.7978515625
186, 384468408, -5.438754558563232, -2.2325799465179443, 7.701147079467773, -0.35348087549209595, -0.7316268086433411, -1.0571001768112183, 0.053955078125, 0.20068359375, -0.796875
187, 384485075, -5.445558547973633, -2.219805955886841, 7.701178550720215, -0.40185046195983887, -0.8170067667961121, -1.1553889513015747, 0.056884765625, 0.2001953125, -0.79443359375
188, 384501742, -5.4259161949157715, -2.2307379245758057, 7.679769992828369, -0.3905552625656128, -0.7347515225410461, -1.0604681968688965, 0.055419921875, 0.202392578125, -0.796875
189, 384518409, -5.450791835784912, -2.240415334701538, 7.7189040184021, -0.3343610167503357, -0.8040722608566284, -1.1211447715759277, 0.055419921875, 0.19921875, -0.79541015625
190, 384535076, -5.437852382659912, -2.2462005615234375, 7.707370758056641, -0.4355183243751526, -0.6503960490226746, -1.082495093345642, 0.054931640625, 0.202392578125, -0.79736328125
191, 384551743, -5.446617126464844, -2.2467873096466064, 7.685573101043701, -0.3704492747783661, -0.49779561161994934, -1.140853762626648, 0.056396484375, 0.201904296875, -0.79638671875
192, 384568410, -5.4327216148376465, -2.2409374713897705, 7.673153400421143, -0.3206197917461395, -0.6818868517875671, -1.1366019248962402, 0.058349609375, 0.201416015625, -0.79736328125
193, 384585077, -5.407638072967529, -2.259565591812134, 7.68427038192749, -0.27675801515579224, -0.532385528087616, -1.0626965761184692, 0.054931640625, 0.201171875, -0.7978515625
194, 384601744, -5.406716346740723, -2.2422332763671875, 7.698553085327148, -0.28636276721954346, -0.3364740014076233, -1.045548677444458, 0.056396484375, 0.201171875, -0.7958984375
195, 384618411, -5.457526683807373, -2.2403454780578613, 7.699021339416504, -0.17160509526729584, -0.31974896788597107, -0.9956809878349304, 0.053466796875, 0.201171875, -0.79638671875
196, 384635078, -5.43859338760376, -2.2469747066497803, 7.680992603302002, -0.1336342692375183, -0.4131200909614563, -0.9984214901924133, 0.057861328125, 0.201416015625, -0.796875
197, 384651745, -5.445563793182373, -2.2370362281799316, 7.682471752166748, -0.15929819643497467, -0.6046518087387085, -1.063029408454895, 0.056396484375, 0.201171875, -0.796875
198, 384668412, -5.432310104370117, -2.2392759323120117, 7.712926387786865, -0.15936221182346344, -0.7364675998687744, -1.0093836784362793, 0.053955078125, 0.202392578125, -0.796875
199, 384685079, -5.433826923370361, -2.233523368835449, 7.731723308563232, -0.08982373774051666, -0.6881108283996582, -1.0286061763763428, 0.055908203125, 0.201904296875, -0.796875
200, 384701746, -5.445912837982178, -2.245990514755249, 7.693254470825195, -0.0683346763253212, -0.6519455909729004, -1.0629781484603882, 0.056396484375, 0.201171875, -0.79541015625
201, 384718413, -5.424154281616211, -2.2250277996063232, 7.69537353515625, -0.09691845625638962, -0.720920741558075, -1.108594536781311, 0.053955078125, 0.201171875, -0.7958984375
202, 384735080, -5.418816089630127, -2.2545828819274902, 7.718226909637451, -0.22696691751480103, -0.838636577129364, -1.0920230150222778, 0.0576171875, 0.19921875, -0.79638671875
203, 384751747, -5.431411266326904, -2.2402899265289307, 7.7124409675598145, -0.15165279805660248, -0.7912275195121765, -1.0475850105285645, 0.055908203125, 0.20068359375, -0.7978515625
204, 384768414, -5.432041645050049, -2.22977876663208, 7.70752477645874, -0.202980637550354, -0.8802188038825989, -1.0927786827087402, 0.055419921875, 0.201171875, -0.796875
205, 384785081, -5.414068698883057, -2.223435163497925, 7.688287258148193, -0.20414599776268005, -0.7975410223007202, -1.271913766860962, 0.055908203125, 0.201416015625, -0.7978515625
206, 384801748, -5.404819011688232, -2.2400124073028564, 7.700860977172852, -0.21367396414279938, -0.8469735383987427, -1.2993322610855103, 0.054931640625, 0.2001953125, -0.796875
207, 384818415, -5.431751728057861, -2.251462936401367, 7.709922790527344, -0.30430445075035095, -0.7335093021392822, -1.207421064376831, 0.054931640625, 0.19970703125, -0.79736328125
208, 384835082, -5.421628475189209, -2.237806797027588, 7.673469066619873, -0.4118649959564209, -0.5852373838424683, -1.1850227117538452, 0.054443359375, 0.201904296875, -0.79541015625
209, 384851749, -5.434359550476074, -2.2323739528656006, 7.686427116394043, -0.35428768396377563, -0.7139284014701843, -1.2315099239349365, 0.053955078125, 0.201904296875, -0.799560546875
210, 384868416, -5.422390460968018, -2.2428348064422607, 7.718976974487305, -0.3370246887207031, -0.8475882411003113, -1.3000621795654297, 0.05859375, 0.201416015625, -0.79736328125
211, 384885083, -5.413783073425293, -2.228773593902588, 7.730323791503906, -0.549725353717804, -0.7979636788368225, -1.3914484977722168, 0.056396484375, 0.203369140625, -0.799072265625
212, 384901750, -5.434100151062012, -2.2156643867492676, 7.706885814666748, -0.6692342162132263, -0.8124476671218872, -1.5844271183013916, 0.052490234375, 0.2001953125, -0.7958984375
213, 384918417, -5.416823387145996, -2.2424755096435547, 7.709671974182129, -0.6773149967193604, -0.6526499390602112, -1.607529640197754, 0.055419921875, 0.19921875, -0.796875
214, 384935084, -5.413209438323975, -2.233389139175415, 7.729763031005859, -0.9717201590538025, -0.5779505372047424, -1.6165966987609863, 0.054443359375, 0.2001953125, -0.7958984375
215, 384951751, -5.431996822357178, -2.2351174354553223, 7.692506790161133, -1.2100847959518433, -0.6926698684692383, -1.699466586112976, 0.055908203125, 0.201416015625, -0.79638671875
216, 384968418, -5.449106216430664, -2.2096123695373535, 7.691927909851074, -0.8433365821838379, -1.12520432472229, -1.945489525794983, 0.054443359375, 0.201904296875, -0.79541015625
217, 384985085, -5.425525188446045, -2.2494988441467285, 7.708384037017822, -0.5738652944564819, -1.4755091667175293, -2.1478168964385986, 0.054931640625, 0.20166015625, -0.79541015625
218, 385001752, -5.388896465301514, -2.3317224979400635, 7.711113929748535, -0.37806907296180725, -1.4065343141555786, -1.8568183183670044, 0.054443359375, 0.2001953125, -0.794921875
219, 385018419, -5.40095329284668, -2.3296682834625244, 7.710410118103027, -0.12781502306461334, -1.368645429611206, -1.3022533655166626, 0.052978515625, 0.20166015625, -0.797119140625
220, 385035086, -5.401090145111084, -2.3113644123077393, 7.695628643035889, 0.06429427862167358, -1.407725214958191, -0.9748961925506592, 0.052490234375, 0.202392578125, -0.79541015625
221, 385051753, -5.423984050750732, -2.2735369205474854, 7.715064525604248, 0.18235601484775543, -1.466980218887329, -0.7598007917404175, 0.052490234375, 0.204345703125, -0.794921875
222, 385068420, -5.427180767059326, -2.2052853107452393, 7.722103595733643, 0.0960284098982811, -1.364977478981018, -0.8810255527496338, 0.051513671875, 0.202880859375, -0.796142578125
223, 385085087, -5.407325267791748, -2.2371721267700195, 7.736322402954102, -0.21568456292152405, -1.159730315208435, -1.1986104249954224, 0.052001953125, 0.201171875, -0.796630859375
224, 385101754, -5.391016006469727, -2.267122983932495, 7.7403974533081055, -0.39407703280448914, -0.8138691782951355, -1.2168978452682495, 0.053466796875, 0.202392578125, -0.797119140625
225, 385118421, -5.392427444458008, -2.2886769771575928, 7.75094747543335, -0.6737163662910461, -0.5829193592071533, -1.1641994714736938, 0.054443359375, 0.19921875, -0.796875
226, 385135088, -5.398496150970459, -2.279217481613159, 7.691551208496094, -0.5528756380081177, -0.5749026536941528, -1.053885579109192, 0.052001953125, 0.2021484375, -0.79541015625
227, 385151755, -5.401820182800293, -2.260467529296875, 7.687030792236328, -0.3357696831226349, -0.8048022389411926, -0.9723477959632874, 0.052490234375, 0.2021484375, -0.79541015625
228, 385168422, -5.4101033210754395, -2.263658285140991, 7.711535453796387, -0.12806349992752075, -0.9261553287506104, -1.0052087306976318, 0.051513671875, 0.203369140625, -0.796630859375
229, 385185089, -5.392199516296387, -2.2808098793029785, 7.722480773925781, 0.040448855608701706, -0.9985622763633728, -0.7705580592155457, 0.051025390625, 0.2021484375, -0.797119140625
230, 385201756, -5.377725124359131, -2.2754390239715576, 7.7252984046936035, 0.23668056726455688, -1.0768859386444092, -0.6389855742454529, 0.052001953125, 0.20068359375, -0.797607421875
231, 385218423, -5.375156402587891, -2.2580819129943848, 7.739940166473389, 0.070735864341259, -0.7701866626739502, -0.6968574523925781, 0.051513671875, 0.202880859375, -0.795654296875
232, 385235090, -5.386244297027588, -2.2390289306640625, 7.732333183288574, -0.27546456456184387, -0.4309336543083191, -0.845026969909668, 0.051513671875, 0.20166015625, -0.7958984375
233, 385251757, -5.399763107299805, -2.255653142929077, 7.695570945739746, -0.31826338171958923, -0.33999577164649963, -0.90717613697052, 0.052490234375, 0.203857421875, -0.7958984375
234, 385268424, -5.398069381713867, -2.2713112831115723, 7.697193145751953, -0.1651250720024109, -0.38287144899368286, -0.8959961533546448, 0.052978515625, 0.20068359375, -0.797607421875
235, 385285091, -5.379183292388916, -2.2808847427368164, 7.730074405670166, -0.3207990825176239, -0.3948325514793396, -0.8264449238777161, 0.051513671875, 0.20263671875, -0.7958984375
236, 385301758, -5.405459880828857, -2.2812321186065674, 7.696197986602783, -0.03771469369530678, -0.47095349431037903, -0.7753604054450989, 0.052001953125, 0.20068359375, -0.79638671875
237, 385318425, -5.417961120605469, -2.244213104248047, 7.712588310241699, 0.06602313369512558, -0.42586231231689453, -0.6716930270195007, 0.053466796875, 0.19970703125, -0.798095703125
238, 385335092, -5.4023871421813965, -2.2556209564208984, 7.7163519859313965, 0.07014677673578262, -0.4671243727207184, -0.8098734617233276, 0.051513671875, 0.20068359375, -0.797119140625
239, 385351759, -5.400274753570557, -2.2734627723693848, 7.7392754554748535, -0.08354862034320831, -0.45261481404304504, -0.8005889058113098, 0.051025390625, 0.20166015625, -0.798095703125
240, 385368426, -5.407740592956543, -2.255124092102051, 7.733705520629883, 0.05042500048875809, -0.3041380047798157, -0.7395923137664795, 0.052001953125, 0.19970703125, -0.797119140625
241, 385385093, -5.407375812530518, -2.26399302482605, 7.713814735412598, 0.001620003255084157, -0.19432353973388672, -0.66874760389328, 0.052978515625, 0.20068359375, -0.7958984375
242, 385401760, -5.379989147186279, -2.2582461833953857, 7.700854778289795, 0.13996699452400208, -0.2270565629005432, -0.5800763964653015, 0.052001953125, 0.2021484375, -0.79638671875
243, 385418427, -5.4121317863464355, -2.229489803314209, 7.704695701599121, 0.04221613332629204, -0.33144116401672363, -0.6183034181594849, 0.051025390625, 0.20068359375, -0.7958984375
244, 385435094, -5.420449733734131, -2.252070426940918, 7.720113754272461, 0.09956297278404236, -0.3996221423149109, -0.7876417636871338, 0.051025390625, 0.203369140625, -0.801025390625
245, 385451761, -5.407998085021973, -2.282217502593994, 7.735154151916504, 0.05083480849862099, -0.27075186371803284, -0.7635273933410645, 0.051025390625, 0.202880859375, -0.798583984375
246, 385468428, -5.435143947601318, -2.2408759593963623, 7.735325813293457, 0.058838773518800735, -0.19890820980072021, -0.7148632407188416, 0.052978515625, 0.20166015625, -0.79638671875
247, 385485095, -5.488346099853516, -2.191439628601074, 7.741159439086914, -0.15823525190353394, -0.30531617999076843, -1.0233169794082642, 0.052978515625, 0.2021484375, -0.79541015625
248, 385501762, -5.504701614379883, -2.193103790283203, 7.727311611175537, -0.5045445561408997, -0.5420287847518921, -1.5475449562072754, 0.054443359375, 0.20166015625, -0.79736328125
249, 385518429, -5.471281051635742, -2.2292699813842773, 7.759493827819824, -0.858627438545227, -0.32229742407798767, -2.0235955715179443, 0.053955078125, 0.20068359375, -0.79736328125
250, 385535096, -5.409509181976318, -2.2426998615264893, 7.744819164276123, -1.2049111127853394, -0.06208518147468567, -2.3301026821136475, 0.051025390625, 0.201171875, -0.7958984375
251, 385551763, -5.373486042022705, -2.314101457595825, 7.7185282707214355, -1.2603881359100342, 0.25828489661216736, -2.401651620864868, 0.051513671875, 0.201171875, -0.797119140625
252, 385568430, -5.308416843414307, -2.348292589187622, 7.707259178161621, -1.3466172218322754, 0.950589120388031, -2.0978314876556396, 0.052978515625, 0.2021484375, -0.79541015625
253, 385585097, -5.3163604736328125, -2.3565149307250977, 7.686615467071533, -1.2086633443832397, 2.004443407058716, -1.4478603601455688, 0.052978515625, 0.203857421875, -0.7939453125
254, 385601764, -5.272164821624756, -2.3465142250061035, 7.775763988494873, -1.3087193965911865, 3.2433300018310547, -0.8097454905509949, 0.054931640625, 0.201171875, -0.79541015625
255, 385618431, -5.182613849639893, -2.4175970554351807, 7.782907485961914, -1.8213067054748535, 5.722601413726807, 0.023903055116534233, 0.057373046875, 0.203857421875, -0.79638671875
256, 385635098, -5.1032304763793945, -2.437242031097412, 7.898396968841553, -3.4826622009277344, 10.679813385009766, 2.0139591693878174, 0.05859375, 0.2001953125, -0.79541015625
257, 385651765, -5.191403388977051, -2.194258689880371, 7.94205904006958, -7.410197734832764, 15.895431518554688, 4.351019859313965, 0.059814453125, 0.206298828125, -0.79296875
258, 385668432, -5.092288017272949, -2.5073626041412354, 7.943024635314941, -9.534207344055176, 21.728588104248047, 9.049172401428223, 0.068359375, 0.20654296875, -0.796142578125
259, 385685099, -4.995786666870117, -1.9745094776153564, 8.589381217956543, -20.1994686126709, 26.940031051635742, 18.26812744140625, 0.07373046875, 0.2109375, -0.793701171875
260, 385701766, -4.78266716003418, -2.410078763961792, 8.624588966369629, -22.957351684570312, 37.66996765136719, 27.135635375976562, 0.083740234375, 0.211181640625, -0.786865234375
261, 385718433, -5.151318550109863, -2.2034993171691895, 9.065999031066895, -37.13323211669922, 47.96929931640625, 34.286468505859375, 0.09814453125, 0.21728515625, -0.78369140625
262, 385735100, -5.436159133911133, -3.325338840484619, 8.497715950012207, -43.92233657836914, 57.65684509277344, 42.936973571777344, 0.111328125, 0.225341796875, -0.77685546875
263, 385751767, -5.09260368347168, -2.8097474575042725, 8.608137130737305, -46.94012451171875, 65.00233459472656, 52.777313232421875, 0.129638671875, 0.234619140625, -0.77099609375
264, 385768434, -4.26760196685791, -3.3891091346740723, 9.067497253417969, -46.64786148071289, 65.44416809082031, 60.74835205078125, 0.150634765625, 0.24072265625, -0.76318359375
265, 385785101, -2.28751540184021, -2.9447224140167236, 11.426566123962402, -33.56264877319336, 51.897098541259766, 67.9428939819336, 0.16845703125, 0.24609375, -0.75390625
266, 385801768, -1.2554322481155396, -3.0729196071624756, 12.475410461425781, -29.284597396850586, 30.380903244018555, 64.59041595458984, 0.181884765625, 0.24609375, -0.74755859375
267, 385818435, -0.41597071290016174, -4.61285924911499, 12.65058422088623, -26.876394271850586, 5.383827209472656, 47.44893264770508, 0.19091796875, 0.2451171875, -0.7373046875
268, 385835102, 0.5396954417228699, -4.870058536529541, 12.044550895690918, -14.180462837219238, -14.68600845336914, 26.582300186157227, 0.19580078125, 0.24560546875, -0.733642578125
269, 385851769, 1.1415512561798096, -4.303750514984131, 11.314163208007812, -6.561568737030029, -26.81667137145996, 4.103927135467529, 0.195068359375, 0.2412109375, -0.730712890625
270, 385868436, 1.30080246925354, -3.956385374069214, 10.861885070800781, -4.635369300842285, -32.09928894042969, -15.939469337463379, 0.193603515625, 0.239501953125, -0.7255859375
271, 385885103, 0.8425333499908447, -3.6545984745025635, 10.848922729492188, -1.328412413597107, -34.264434814453125, -31.002044677734375, 0.19189453125, 0.237548828125, -0.7236328125
272, 385901770, -0.015183314681053162, -3.412358045578003, 10.86752986907959, 3.9693000316619873, -35.86222839355469, -41.516990661621094, 0.192138671875, 0.23291015625, -0.715576171875
273, 385918437, -1.196737289428711, -3.305797815322876, 10.906248092651367, 10.238219261169434, -37.66524887084961, -47.98891067504883, 0.189208984375, 0.22900390625, -0.715087890625
274, 385935104, -2.5381948947906494, -3.23525333404541, 10.83545970916748, 15.197508811950684, -40.48485565185547, -52.444114685058594, 0.189208984375, 0.23095703125, -0.714599609375
275, 385951771, -4.090603828430176, -3.3275015354156494, 10.856024742126465, 18.1711483001709, -46.5072135925293, -55.062721252441406, 0.188232421875, 0.2294921875, -0.716064453125
276, 385968438, -5.378050804138184, -3.4106314182281494, 10.825092315673828, 19.746135711669922, -56.31648635864258, -56.19718551635742, 0.188720703125, 0.23046875, -0.72216796875
277, 385985105, -6.4566545486450195, -3.3877367973327637, 10.57645034790039, 19.715749740600586, -69.03954315185547, -55.50152587890625, 0.1845703125, 0.23486328125, -0.728271484375
278, 386001772, -6.892990589141846, -3.2280266284942627, 9.79491138458252, 18.423917770385742, -80.7494888305664, -52.084407806396484, 0.174072265625, 0.243408203125, -0.73974609375
279, 386018439, -6.8408708572387695, -2.88242769241333, 8.796496391296387, 15.536225318908691, -86.80574798583984, -46.188472747802734, 0.162353515625, 0.251953125, -0.755126953125
280, 386035106, -6.635157108306885, -2.5324137210845947, 7.924000263214111, 8.929428100585938, -85.9085464477539, -39.53749465942383, 0.143310546875, 0.260986328125, -0.77001953125
281, 386051773, -7.017053604125977, -2.291050910949707, 7.6428375244140625, -1.6625770330429077, -80.08927917480469, -33.096107482910156, 0.12109375, 0.272216796875, -0.782470703125
282, 386068440, -7.882113933563232, -2.205190420150757, 7.553067684173584, -13.710393905639648, -77.68852996826172, -28.432209014892578, 0.099609375, 0.28369140625, -0.795654296875
283, 386085107, -8.364362716674805, -2.311598777770996, 7.093116760253906, -21.256229400634766, -79.4388427734375, -22.602365493774414, 0.073974609375, 0.29296875, -0.80078125
284, 386101774, -8.756745338439941, -2.1665797233581543, 6.496986389160156, -24.602554321289062, -82.27486419677734, -14.903658866882324, 0.050537109375, 0.30029296875, -0.80517578125
285, 386118441, -9.419832229614258, -1.9086016416549683, 6.002636432647705, -28.698440551757812, -85.77892303466797, -6.745235443115234, 0.021484375, 0.3095703125, -0.8095703125
286, 386135108, -9.843332290649414, -1.7209140062332153, 5.198696136474609, -34.981910705566406, -91.21382141113281, 0.37525475025177, -0.002197265625, 0.318115234375, -0.806396484375
287, 386151775, -9.202951431274414, -1.5903902053833008, 3.696539878845215, -38.21531295776367, -90.8893814086914, 9.45266056060791, -0.02734375, 0.328857421875, -0.80615234375
288, 386168442, -8.747462272644043, -1.3499938249588013, 2.134770631790161, -39.457969665527344, -76.82498931884766, 19.694974899291992, -0.04638671875, 0.337646484375, -0.803955078125
289, 386185109, -9.062357902526855, -1.3204326629638672, 1.2615309953689575, -41.42224884033203, -52.96568298339844, 25.890600204467773, -0.06201171875, 0.34423828125, -0.7978515625
290, 386201776, -9.616909980773926, -1.8768104314804077, 1.094558835029602, -39.6226806640625, -28.3261775970459, 26.008007049560547, -0.067138671875, 0.354248046875, -0.79150390625
291, 386218443, -8.627233505249023, -2.9183833599090576, 0.6737372875213623, -26.556074142456055, -1.0200817584991455, 24.9193058013916, -0.069580078125, 0.362548828125, -0.7900390625
292, 386235110, -8.210530281066895, -2.3007543087005615, -1.629392385482788, 5.860915660858154, 57.21755599975586, 36.82383346557617, -0.059326171875, 0.3662109375, -0.7900390625
293, 386251777, -9.725400924682617, -1.0157172679901123, -0.43463996052742004, 15.699480056762695, 102.12826538085938, 37.56984329223633, -0.0380859375, 0.357421875, -0.79150390625
294, 386268444, -6.47568416595459, -5.877228736877441, 10.524408340454102, 12.7771577835083, 112.12788391113281, 18.16868782043457, -0.00732421875, 0.356201171875, -0.793212890625
295, 386285111, -3.640227794647217, -5.559376239776611, 9.195732116699219, 24.426054000854492, 86.75862884521484, 12.916879653930664, 0.016357421875, 0.351806640625, -0.79443359375
296, 386301778, -3.0914461612701416, -0.7499457001686096, 6.905557632446289, 18.419187545776367, 104.33150482177734, 25.714052200317383, 0.039306640625, 0.345458984375, -0.79736328125
297, 386318445, -8.36164665222168, -2.0069003105163574, 10.670973777770996, 3.645953416824341, 110.70223236083984, 9.956262588500977, 0.064697265625, 0.3408203125, -0.792236328125
298, 386335112, -8.879459381103516, -0.7005527019500732, 10.117830276489258, 0.033291056752204895, 87.28105163574219, 21.488122940063477, 0.087646484375, 0.34033203125, -0.790771484375
299, 386351779, -8.201751708984375, -1.7379794120788574, 9.158058166503906, -4.574646472930908, 70.19696044921875, 25.611610412597656, 0.108154296875, 0.341552734375, -0.788330078125
300, 386368446, -11.546287536621094, -7.080920219421387, 9.96929931640625, 16.84715461730957, 51.366615295410156, 27.184932708740234, 0.124267578125, 0.339111328125, -0.78662109375
301, 386385113, -6.199588298797607, -2.818157434463501, 6.437659740447998, 25.552875518798828, 15.8444185256958, 15.5256929397583, 0.12939453125, 0.330322265625, -0.788330078125
302, 386401780, -6.634859085083008, -3.8436405658721924, 8.342301368713379, 29.79651641845703, 8.871554374694824, 16.780471801757812, 0.134033203125, 0.322265625, -0.792236328125
303, 386418447, -5.73841667175293, -2.8115415573120117, 7.598758220672607, 31.292724609375, 3.32244873046875, 15.73458194732666, 0.135986328125, 0.314208984375, -0.794189453125
304, 386435114, -6.111782073974609, -1.9513161182403564, 8.256864547729492, 25.569055557250977, -0.24321888387203217, 11.629676818847656, 0.138671875, 0.30810546875, -0.797119140625
305, 386451781, -5.914604187011719, -2.0785045623779297, 8.201171875, 18.619606018066406, -2.0745673179626465, 7.173594951629639, 0.1396484375, 0.30419921875, -0.798583984375
306, 386468448, -5.729986667633057, -2.2009799480438232, 8.031015396118164, 10.603180885314941, -2.1490983963012695, 2.3205180168151855, 0.138671875, 0.298095703125, -0.801513671875
307, 386485115, -5.478566646575928, -2.2271225452423096, 7.988284111022949, 5.20311164855957, -1.0218188762664795, -0.3176487386226654, 0.140380859375, 0.298583984375, -0.798828125
308, 386501782, -5.288919448852539, -2.529456853866577, 7.724380016326904, 1.8297394514083862, 0.2724102735519409, -1.2824407815933228, 0.13818359375, 0.297607421875, -0.802490234375
309, 386518449, -5.388329982757568, -2.6073458194732666, 7.633431911468506, 0.833776593208313, 0.9445642828941345, -0.8644285798072815, 0.138427734375, 0.296142578125, -0.7958984375
310, 386535116, -5.4400177001953125, -2.6592774391174316, 7.611199855804443, 1.2473448514938354, 0.7421087026596069, -0.2741967439651489, 0.140380859375, 0.297119140625, -0.800048828125
311, 386551783, -5.346492290496826, -2.5237321853637695, 7.66249942779541, 1.6739627122879028, 0.6943537592887878, 0.24400576949119568, 0.141357421875, 0.297607421875, -0.79931640625
312, 386568450, -5.384500026702881, -2.4238197803497314, 7.727299213409424, 1.309788703918457, 1.042494535446167, 0.06428147107362747, 0.140380859375, 0.294677734375, -0.801513671875
313, 386585117, -5.330574035644531, -2.5546505451202393, 7.655293941497803, 0.9000495672225952, 1.4826360940933228, 0.1435784101486206, 0.139892578125, 0.293701171875, -0.7998046875
314, 386601784, -5.385547637939453, -2.549638032913208, 7.592320919036865, 1.3839244842529297, 1.1642955541610718, 0.49381914734840393, 0.142333984375, 0.294677734375, -0.803466796875
315, 386618451, -5.303272724151611, -2.5516796112060547, 7.580044746398926, 2.2201406955718994, -0.04560341313481331, 1.3225566148757935, 0.145263671875, 0.293212890625, -0.80126953125
316, 386635118, -5.370237350463867, -2.5563929080963135, 7.606489658355713, 2.559316873550415, -1.294645071029663, 1.840368628501892, 0.142822265625, 0.294677734375, -0.802490234375
317, 386651785, -5.407104969024658, -2.5641238689422607, 7.610034465789795, 3.529244899749756, -2.168307304382324, 2.4302806854248047, 0.140869140625, 0.293212890625, -0.80078125
318, 386668452, -5.3978352546691895, -2.459667682647705, 7.698443412780762, 4.149546146392822, -2.791349411010742, 3.3201937675476074, 0.143310546875, 0.29150390625, -0.80078125
319, 386685119, -5.392889022827148, -2.459439277648926, 7.763267517089844, 3.278923273086548, -2.2596237659454346, 3.819716691970825, 0.142333984375, 0.2890625, -0.803955078125
320, 386701786, -5.450660705566406, -2.384373903274536, 7.714083671569824, 2.2556657791137695, -0.9225438237190247, 3.7613723278045654, 0.142822265625, 0.28759765625, -0.80224609375
321, 386718453, -5.400030612945557, -2.388517141342163, 7.722494602203369, 0.8677903413772583, -0.683359682559967, 3.5240836143493652, 0.143798828125, 0.2890625, -0.802734375
322, 386735120, -5.281888961791992, -2.5180861949920654, 7.67878532409668, 0.5262706875801086, 0.8454177379608154, 3.6848936080932617, 0.142333984375, 0.28857421875, -0.803466796875
323, 386751787, -5.313520908355713, -2.419750928878784, 7.784616470336914, -0.9903407096862793, 2.9048707485198975, 4.053805351257324, 0.143310546875, 0.2890625, -0.802734375
324, 386768454, -5.278555393218994, -2.4019808769226074, 7.778318405151367, -1.4626004695892334, 5.4879889488220215, 4.602609157562256, 0.144287109375, 0.28857421875, -0.8037109375
325, 386785121, -5.370441913604736, -2.401601791381836, 7.697543621063232, -1.788522481918335, 7.95927095413208, 5.385885238647461, 0.14697265625, 0.2880859375, -0.8017578125
326, 386801788, -5.3662943840026855, -2.472458839416504, 7.695464611053467, -2.6827142238616943, 10.918655395507812, 6.282869338989258, 0.15185546875, 0.287109375, -0.8017578125
327, 386818455, -5.384787559509277, -2.558856725692749, 7.6960062980651855, -4.044928073883057, 14.735699653625488, 7.493560314178467, 0.157470703125, 0.287841796875, -0.800537109375
328, 386835122, -5.4010443687438965, -2.6577236652374268, 7.61277961730957, -5.414981842041016, 19.440282821655273, 10.0844087600708, 0.161376953125, 0.287841796875, -0.799560546875
329, 386851789, -5.259551525115967, -2.381559371948242, 8.021185874938965, -10.255687713623047, 22.918367385864258, 14.537817001342773, 0.166748046875, 0.287841796875, -0.79638671875
330, 386868456, -5.092670440673828, -2.2197225093841553, 8.223770141601562, -6.321935653686523, 33.6027946472168, 14.471659660339355, 0.17529296875, 0.2919921875, -0.793212890625
331, 386885123, -5.152130603790283, -2.194364309310913, 8.311615943908691, -9.398785591125488, 49.412715911865234, 12.657820701599121, 0.185791015625, 0.28955078125, -0.79296875
332, 386901790, -5.462664604187012, -1.9241523742675781, 8.219137191772461, -13.394112586975098, 67.89927673339844, 11.258790016174316, 0.19970703125, 0.291015625, -0.78857421875
333, 386918457, -5.515107154846191, -1.9661586284637451, 8.231250762939453, -18.236520767211914, 88.04872131347656, 8.30596923828125, 0.22119140625, 0.2958984375, -0.78076171875
334, 386935124, -5.618175029754639, -2.2713756561279297, 8.031514167785645, -24.49485969543457, 109.19987487792969, 8.698338508605957, 0.244873046875, 0.301513671875, -0.768310546875
335, 386951791, -5.764179229736328, -2.5780394077301025, 7.91658878326416, -30.466875076293945, 133.47010803222656, 12.245266914367676, 0.272705078125, 0.3056640625, -0.755126953125
336, 386968458, -5.863654613494873, -2.9268250465393066, 7.720982074737549, -32.51631164550781, 159.7482452392578, 18.680072784423828, 0.30908203125, 0.3115234375, -0.7373046875
337, 386985125, -5.859975337982178, -2.514723539352417, 7.674049377441406, -29.72633934020996, 189.31170654296875, 25.980165481567383, 0.346435546875, 0.312255859375, -0.716064453125
338, 387001792, -6.1170501708984375, -2.556201696395874, 7.654139518737793, -34.71413803100586, 230.18057250976562, 31.708139419555664, 0.393310546875, 0.314208984375, -0.68701171875
339, 387018459, -6.212766647338867, -3.9609856605529785, 7.7358574867248535, -33.062984466552734, 279.8455810546875, 51.119266510009766, 0.447021484375, 0.316650390625, -0.6494140625
340, 387035126, -8.210886001586914, -5.41483736038208, 9.231922149658203, -21.88127326965332, 317.1879577636719, 85.24693298339844, 0.510009765625, 0.30859375, -0.598876953125
341, 387051793, -10.460526466369629, -5.120846748352051, 8.43288803100586, -19.944562911987305, 356.9732971191406, 122.06000518798828, 0.577392578125, 0.29248046875, -0.5390625
342, 387068460, -16.256845474243164, -7.296621322631836, 11.440926551818848, -26.88545036315918, 346.2756652832031, 134.9684295654297, 0.63720703125, 0.27001953125, -0.470458984375
343, 387085127, -17.28574562072754, -4.324422836303711, 12.553006172180176, -35.38897705078125, 321.0250244140625, 135.43246459960938, 0.688720703125, 0.246337890625, -0.398681640625
344, 387101794, -15.777471542358398, -6.7187886238098145, 13.171390533447266, -35.225425720214844, 273.5277099609375, 131.8660430908203, 0.72998046875, 0.221435546875, -0.3359375
345, 387118461, -7.779502868652344, -6.480274200439453, 12.06731128692627, -13.196661949157715, 231.32839965820312, 144.6756591796875, 0.758544921875, 0.189697265625, -0.27734375
346, 387135128, -0.5981727242469788, -7.921570777893066, 12.426926612854004, 16.265174865722656, 229.67776489257812, 138.64434814453125, 0.781005859375, 0.153076171875, -0.222900390625
347, 387151795, -16.86604881286621, -12.482979774475098, 24.46564483642578, -0.18098777532577515, 105.22883605957031, 46.201053619384766, 0.791259765625, 0.131103515625, -0.182861328125
348, 387168462, -6.393730640411377, -11.82290267944336, 18.746904373168945, 24.517452239990234, -82.74117279052734, -41.33221435546875, 0.78515625, 0.136962890625, -0.185546875
349, 387185129, 2.3654353618621826, -7.3452959060668945, 11.514484405517578, 70.10713958740234, -153.31103515625, -62.22968292236328, 0.775146484375, 0.138427734375, -0.21142578125
350, 387201796, 2.9243767261505127, -3.9119319915771484, 8.745787620544434, 85.79059600830078, -158.08297729492188, -59.357547760009766, 0.77001953125, 0.139404296875, -0.234619140625
351, 387218463, 0.6183804273605347, -2.337498426437378, 8.264456748962402, 73.15481567382812, -154.21173095703125, -61.14408493041992, 0.775146484375, 0.14208984375, -0.257080078125
352, 387235130, -2.5206289291381836, -1.9070119857788086, 8.503695487976074, 46.3402214050293, -162.4332275390625, -68.16812896728516, 0.787841796875, 0.15087890625, -0.29150390625
353, 387251797, -5.824408531188965, -2.0822694301605225, 8.929681777954102, 19.29419708251953, -184.45230102539062, -76.72607421875, 0.80126953125, 0.169189453125, -0.345458984375
354, 387268464, -8.163686752319336, -2.5606465339660645, 9.0071382522583, 2.449664354324341, -221.08477783203125, -83.48362731933594, 0.80126953125, 0.196044921875, -0.428466796875
355, 387285131, -8.968472480773926, -2.8725321292877197, 8.471601486206055, -1.2282592058181763, -259.1888122558594, -85.16888427734375, 0.753662109375, 0.220458984375, -0.531005859375
356, 387301798, -8.812962532043457, -2.9291014671325684, 7.791085243225098, 2.211965560913086, -283.58624267578125, -82.56959533691406, 0.669677734375, 0.23046875, -0.612060546875
357, 387318465, -9.530208587646484, -2.8838772773742676, 7.95288610458374, 2.458324670791626, -291.8262939453125, -79.52423095703125, 0.582275390625, 0.23974609375, -0.6611328125
358, 387335132, -10.639077186584473, -3.179550886154175, 8.26232624053955, -5.105538845062256, -295.52362060546875, -83.08268737792969, 0.513916015625, 0.25146484375, -0.689208984375
359, 387351799, -11.200284004211426, -3.6849193572998047, 8.448862075805664, -14.891620635986328, -294.3832092285156, -88.2599105834961, 0.46533203125, 0.273681640625, -0.72998046875
360, 387368466, -11.930133819580078, -4.158586502075195, 8.856300354003906, -22.891328811645508, -280.5859375, -91.0188980102539, 0.406982421875, 0.304931640625, -0.78466796875
361, 387385133, -14.441072463989258, -5.091630458831787, 10.744307518005371, -31.911006927490234, -259.2851257324219, -94.01203918457031, 0.32373046875, 0.343505859375, -0.834228515625
362, 387401800, -19.752275466918945, -6.485080718994141, 12.505416870117188, -42.72990417480469, -257.31451416015625, -111.88764190673828, 0.2119140625, 0.369873046875, -0.855712890625
363, 387418467, -23.089637756347656, -7.091628551483154, 10.692874908447266, -34.107872009277344, -275.2972412109375, -142.5953369140625, 0.10107421875, 0.3818359375, -0.844970703125
364, 387435134, -23.41790199279785, -6.435827255249023, 6.067968368530273, 2.016731023788452, -286.39300537109375, -152.76502990722656, 0.00439453125, 0.37841796875, -0.826904296875
365, 387451801, -23.4140682220459, -3.151337146759033, 1.2965283393859863, 32.44144821166992, -274.60235595703125, -132.42630004882812, -0.0751953125, 0.362060546875, -0.81689453125
366, 387468468, -23.143648147583008, 0.8165448904037476, -3.046762466430664, 19.825109481811523, -240.0382843017578, -104.48796844482422, -0.141357421875, 0.346923828125, -0.800537109375
367, 387485135, -28.689624786376953, 7.095794677734375, -9.082714080810547, -33.81229019165039, -194.70933532714844, -80.11933898925781, -0.194091796875, 0.342529296875, -0.784423828125
368, 387501802, -27.98491859436035, 13.31604290008545, -17.44215965270996, -109.68521881103516, -126.8687744140625, -60.03765106201172, -0.231201171875, 0.354736328125, -0.75830078125
369, 387518469, -18.00485610961914, 6.519317150115967, -16.775358200073242, -94.53265380859375, -8.502321243286133, 24.642789840698242, -0.239013671875, 0.374755859375, -0.746826171875
370, 387535136, -18.674856185913086, 1.8105477094650269, -9.680364608764648, 3.578394889831543, 103.78112030029297, 128.89112854003906, -0.210693359375, 0.382568359375, -0.744384765625
371, 387551803, -11.213640213012695, -4.067699432373047, 4.910416603088379, 36.275142669677734, 141.4518280029297, 152.5006866455078, -0.164306640625, 0.38037109375, -0.75244140625
372, 387568470, -4.4666619300842285, -14.711520195007324, 9.957918167114258, 34.63536834716797, 109.90873718261719, 89.07221984863281, -0.13037109375, 0.376220703125, -0.75634765625
373, 387585137, -1.8791310787200928, -5.815793514251709, 5.309231758117676, 5.3723907470703125, 151.54930114746094, 31.28925132751465, -0.09521484375, 0.370849609375, -0.756103515625
374, 387601804, -15.225483894348145, 1.0907330513000488, 13.234661102294922, 7.091841220855713, 180.37689208984375, 12.980802536010742, -0.053955078125, 0.369873046875, -0.755615234375
375, 387618471, -14.550264358520508, 2.3392367362976074, 14.823312759399414, 5.366763591766357, 119.14568328857422, 51.76692199707031, -0.02197265625, 0.365966796875, -0.75341796875
376, 387635138, -7.966448783874512, -4.901221752166748, 8.22287368774414, -11.067845344543457, 95.04817199707031, 47.004730224609375, 0.00244140625, 0.36767578125, -0.75146484375
377, 387651805, -13.760986328125, -11.173069953918457, 8.624506950378418, 48.68232727050781, 71.43804931640625, 45.22062683105469, 0.026123046875, 0.35986328125, -0.75146484375
378, 387668472, -6.10084342956543, -1.368710994720459, 7.748955249786377, 45.42802810668945, 30.956968307495117, 35.709373474121094, 0.035888671875, 0.345458984375, -0.754638671875
379, 387685139, -5.8812947273254395, -3.9633169174194336, 7.355051517486572, 49.35312271118164, 25.3575496673584, 34.15439987182617, 0.04345703125, 0.337890625, -0.759033203125
380, 387701806, -7.027556896209717, -2.171025037765503, 8.543977737426758, 38.162010192871094, 11.909270286560059, 23.186677932739258, 0.052978515625, 0.328369140625, -0.76025390625
381, 387718473, -5.949057579040527, -2.673253059387207, 8.313532829284668, 34.0336799621582, 7.167631149291992, 19.18505859375, 0.05615234375, 0.318359375, -0.76708984375
382, 387735140, -6.342103481292725, -2.032724618911743, 8.384798049926758, 22.512107849121094, 3.2993905544281006, 11.723527908325195, 0.05517578125, 0.31298828125, -0.767578125
383, 387751807, -5.920374870300293, -2.0749197006225586, 8.487030982971191, 11.321287155151367, 4.368241786956787, 4.975955009460449, 0.058349609375, 0.308349609375, -0.76611328125
384, 387768474, -5.636853218078613, -2.4912078380584717, 7.862935543060303, 1.9823143482208252, 5.642075061798096, 0.014900189824402332, 0.059326171875, 0.305908203125, -0.765380859375
385, 387785141, -5.475904941558838, -2.761500597000122, 7.628669261932373, -1.467620849609375, 6.678647994995117, -1.3466649055480957, 0.061767578125, 0.307861328125, -0.76708984375
386, 387801808, -5.438095569610596, -2.970032215118408, 7.592060565948486, -3.352839708328247, 7.244801998138428, -1.2946845293045044, 0.061767578125, 0.309326171875, -0.766357421875
387, 387818475, -5.509579181671143, -2.790654420852661, 7.500875949859619, -4.515084743499756, 7.01646614074707, -0.6894043684005737, 0.065673828125, 0.307373046875, -0.764892578125
388, 387835142, -5.363509654998779, -2.7341911792755127, 7.467392921447754, -4.881218433380127, 7.183244228363037, -0.29142141342163086, 0.066650390625, 0.3115234375, -0.763916015625
389, 387851809, -5.422398567199707, -2.9549291133880615, 7.328312397003174, -4.5277886390686035, 8.27978801727295, -0.10001762211322784, 0.068603515625, 0.3125, -0.762939453125
390, 387868476, -5.5201416015625, -3.1994073390960693, 7.212937831878662, -1.8818422555923462, 8.06554889678955, 1.6146056652069092, 0.06982421875, 0.31201171875, -0.762451171875
391, 387885143, -5.641260623931885, -3.093369245529175, 7.263098239898682, 0.3893066942691803, 6.5376877784729, 3.700824499130249, 0.0712890625, 0.31103515625, -0.76171875
392, 387901810, -5.745333194732666, -3.1012020111083984, 7.127228736877441, 3.0822396278381348, 4.136177062988281, 4.760486602783203, 0.07373046875, 0.31005859375, -0.76171875
393, 387918477, -5.671809196472168, -2.986574172973633, 7.113295078277588, 6.817699432373047, 1.2020363807678223, 5.855775833129883, 0.07666015625, 0.30908203125, -0.7626953125
394, 387935144, -5.584547996520996, -2.9041342735290527, 7.284182548522949, 8.64962387084961, -0.6377308964729309, 6.247458457946777, 0.0751953125, 0.3076171875, -0.76123046875
395, 387951811, -5.575069427490234, -2.721665620803833, 7.477941989898682, 8.263063430786133, -0.3850998878479004, 5.738059997558594, 0.074951171875, 0.302978515625, -0.76416015625
396, 387968478, -5.51602840423584, -2.7103796005249023, 7.4647321701049805, 6.591091156005859, 0.9224993586540222, 5.429413795471191, 0.073974609375, 0.302490234375, -0.7666015625
397, 387985145, -5.4475226402282715, -2.693460702896118, 7.471120357513428, 5.04738712310791, 2.4526665210723877, 5.613914966583252, 0.075927734375, 0.301513671875, -0.7666015625
398, 388001812, -5.327587127685547, -2.816922187805176, 7.501715183258057, 4.587190628051758, 4.329808235168457, 6.134914875030518, 0.077880859375, 0.298583984375, -0.76806640625
399, 388018479, -5.407375812530518, -2.8113815784454346, 7.519987106323242, 4.4445672035217285, 7.385981559753418, 6.289859771728516, 0.080322265625, 0.299560546875, -0.767578125
400, 388035146, -5.481917858123779, -2.721224784851074, 7.579392433166504, 2.4789717197418213, 11.958096504211426, 5.572168350219727, 0.0830078125, 0.296142578125, -0.766845703125
401, 388051813, -5.5165486335754395, -2.4854791164398193, 7.6844892501831055, -3.8321638107299805, 17.64250373840332, 6.25285530090332, 0.08984375, 0.297607421875, -0.766357421875
402, 388068480, -5.060317516326904, -2.5014407634735107, 8.194758415222168, -15.916393280029297, 25.861539840698242, 11.125422477722168, 0.096923828125, 0.299560546875, -0.76220703125
403, 388085147, -5.157646179199219, -3.182380437850952, 7.8983564376831055, -18.718488693237305, 36.926902770996094, 14.381555557250977, 0.100341796875, 0.30224609375, -0.759033203125
404, 388101814, -5.542766094207764, -2.067495584487915, 8.258288383483887, -12.683049201965332, 61.616661071777344, 8.857207298278809, 0.1142578125, 0.304443359375, -0.7578125
405, 388118481, -5.240501403808594, -2.373561143875122, 8.575264930725098, -19.66805648803711, 84.5714340209961, 8.747130393981934, 0.134033203125, 0.30908203125, -0.74951171875
406, 388135148, -5.232088088989258, -2.654999017715454, 8.454876899719238, -26.7643985748291, 112.18370819091797, 12.042220115661621, 0.156005859375, 0.314208984375, -0.741943359375
407, 388151815, -5.535521507263184, -2.387721061706543, 8.187982559204102, -34.7452507019043, 144.69544982910156, 15.19463062286377, 0.187255859375, 0.319580078125, -0.73095703125
408, 388168482, -5.549362659454346, -2.7423741817474365, 8.309823989868164, -46.1033935546875, 185.3158721923828, 17.858625411987305, 0.22607421875, 0.327392578125, -0.714111328125
409, 388185149, -5.320224761962891, -4.05649995803833, 8.58913516998291, -50.23857116699219, 238.68841552734375, 28.766305923461914, 0.274169921875, 0.3359375, -0.689208984375
410, 388201816, -5.252747535705566, -4.519595146179199, 8.098548889160156, -37.46907424926758, 294.2309875488281, 51.074920654296875, 0.3330078125, 0.337646484375, -0.65673828125
411, 388218483, -7.856301307678223, -5.533002853393555, 9.239001274108887, -33.460845947265625, 356.62982177734375, 87.19322967529297, 0.406494140625, 0.332763671875, -0.609130859375
412, 388235150, -10.696026802062988, -5.600287437438965, 9.473562240600586, -25.46144676208496, 394.1286926269531, 129.78271484375, 0.48291015625, 0.31982421875, -0.5517578125
413, 388251817, -18.476642608642578, -6.411060810089111, 13.502540588378906, -42.419124603271484, 387.7158508300781, 136.53424072265625, 0.556884765625, 0.302734375, -0.4833984375
414, 388268484, -19.2580623626709, -8.111626625061035, 13.280757904052734, -38.62837600708008, 338.20098876953125, 142.7537078857422, 0.619140625, 0.27880859375, -0.417236328125
415, 388285151, -15.347779273986816, -7.315049171447754, 14.024693489074707, -34.55695343017578, 265.1299743652344, 144.05874633789062, 0.665771484375, 0.2509765625, -0.352294921875
416, 388301818, -4.162353038787842, -7.8481292724609375, 12.019103050231934, -21.790298461914062, 231.28785705566406, 150.05010986328125, 0.70263671875, 0.217529296875, -0.30078125
417, 388318485, -8.766222953796387, -17.586301803588867, 15.401288032531738, 44.905601501464844, 211.3329315185547, 90.0191650390625, 0.73095703125, 0.18505859375, -0.251220703125
418, 388335152, -14.532451629638672, -17.07375717163086, 23.468608856201172, 108.8270492553711, 14.938216209411621, -23.813800811767578, 0.7392578125, 0.17041015625, -0.23486328125
419, 388351819, 0.49739107489585876, -8.550368309020996, 15.617402076721191, 164.02655029296875, -123.50775909423828, -77.53616333007812, 0.7333984375, 0.169921875, -0.258056640625
420, 388368486, 5.40374755859375, -2.1290385723114014, 10.78239917755127, 173.69198608398438, -150.5231475830078, -72.417724609375, 0.721923828125, 0.165283203125, -0.288818359375
421, 388385153, 4.079674243927002, 1.8098618984222412, 10.093342781066895, 131.2355194091797, -152.77392578125, -57.69569396972656, 0.717529296875, 0.160888671875, -0.32666015625
422, 388401820, 0.8645315170288086, 2.608983039855957, 10.313405990600586, 55.84549331665039, -165.64137268066406, -47.284358978271484, 0.7109375, 0.163330078125, -0.36376953125
423, 388418487, -2.4651548862457275, 0.38847774267196655, 9.888703346252441, -1.648744821548462, -192.86233520507812, -31.268835067749023, 0.694580078125, 0.1708984375, -0.408935546875
424, 388435154, -5.8650312423706055, -1.599493145942688, 9.722204208374023, -25.792882919311523, -232.72918701171875, -15.52370548248291, 0.666015625, 0.180419921875, -0.46826171875
425, 388451821, -8.341814041137695, -2.7793428897857666, 8.897747039794922, -33.75779342651367, -279.54296875, -11.801127433776855, 0.60986328125, 0.198974609375, -0.53076171875
426, 388468488, -8.66676139831543, -3.6223323345184326, 7.545107841491699, -34.49761199951172, -313.0015869140625, -17.424039840698242, 0.526611328125, 0.20458984375, -0.58056640625
427, 388485155, -8.393879890441895, -4.1831488609313965, 6.690528869628906, -31.472360610961914, -321.101318359375, -28.742536544799805, 0.441162109375, 0.208251953125, -0.612060546875
428, 388501822, -9.528877258300781, -4.748946189880371, 7.502315998077393, -32.44800567626953, -312.22918701171875, -46.59569549560547, 0.357177734375, 0.194091796875, -0.619140625
429, 388518489, -11.41059398651123, -4.917967796325684, 8.52492904663086, -42.3907585144043, -305.9262390136719, -75.18533325195312, 0.295166015625, 0.168212890625, -0.604248046875
430, 388535156, -12.642497062683105, -6.396811485290527, 8.946758270263672, -51.98392105102539, -298.8663024902344, -102.83938598632812, 0.2802734375, 0.13037109375, -0.572509765625
431, 388551823, -14.558039665222168, -7.549951553344727, 9.02745246887207, -43.7018928527832, -274.2811279296875, -121.61485290527344, 0.33740234375, 0.11279296875, -0.56640625
432, 388568490, -20.219032287597656, -5.771934986114502, 10.438450813293457, -45.58759689331055, -250.0474395751953, -146.70306396484375, 0.421875, 0.145263671875, -0.64013671875
433, 388585157, -26.155120849609375, -5.373956203460693, 7.944181442260742, -56.427364349365234, -250.3058319091797, -179.82688903808594, 0.43701171875, 0.236328125, -0.766357421875
434, 388601824, -27.86687469482422, -6.97770357131958, 1.9882863759994507, -12.577812194824219, -254.8170623779297, -175.752197265625, 0.34619140625, 0.331787109375, -0.872314453125
435, 388618491, -26.7202205657959, -2.2427971363067627, -2.719266891479492, 42.93252182006836, -240.44873046875, -135.3880157470703, 0.21533203125, 0.379638671875, -0.91796875
436, 388635158, -25.792129516601562, 3.4904088973999023, -6.502155303955078, 27.688552856445312, -205.17491149902344, -94.65951538085938, 0.105712890625, 0.40576171875, -0.93603515625
437, 388651825, -27.711301803588867, 8.667104721069336, -11.689874649047852, -28.479185104370117, -153.78248596191406, -63.241233825683594, 0.024658203125, 0.42724609375, -0.9326171875
438, 388668492, -23.931978225708008, 9.760645866394043, -18.92864418029785, -45.95785903930664, -45.71604537963867, -17.4490966796875, -0.01904296875, 0.452392578125, -0.922119140625
439, 388685159, -21.511247634887695, 9.34216022491455, -20.014755249023438, 12.44649887084961, 102.14924621582031, 85.41618347167969, -0.005126953125, 0.460693359375, -0.924072265625
440, 388701826, -8.612028121948242, -3.6007792949676514, 4.8159308433532715, 32.261985778808594, 171.29217529296875, 131.46603393554688, 0.05517578125, 0.462158203125, -0.934814453125
441, 388718493, -6.2905964851379395, -16.641376495361328, 13.426185607910156, 52.2984504699707, 120.75028991699219, 88.59356689453125, 0.10302734375, 0.455078125, -0.94189453125
442, 388735160, -1.7403323650360107, -3.318629026412964, 2.1978495121002197, 27.10814094543457, 166.55824279785156, 45.8291130065918, 0.14306640625, 0.454833984375, -0.943115234375
443, 388751827, -16.204336166381836, 0.8079871535301208, 15.530807495117188, 28.56622314453125, 198.27854919433594, 29.216793060302734, 0.201171875, 0.45556640625, -0.93798828125
444, 388768494, -15.903297424316406, 5.24609899520874, 14.3811616897583, 9.146150588989258, 112.16064453125, 57.59789276123047, 0.24169921875, 0.453369140625, -0.93408203125
445, 388785161, -15.22700023651123, -12.55051040649414, 7.286691188812256, 52.57406997680664, 41.57426452636719, 48.15828323364258, 0.266357421875, 0.443359375, -0.935546875
446, 388801828, -6.916633129119873, -0.35736963152885437, 10.2155179977417, 50.831932067871094, 37.279239654541016, 36.31745529174805, 0.279052734375, 0.424560546875, -0.9365234375
447, 388818495, -6.664437294006348, -2.680295467376709, 7.539565086364746, 34.12221145629883, 9.803107261657715, 20.221221923828125, 0.28466796875, 0.41650390625, -0.94287109375
448, 388835162, -6.208982944488525, -1.7462884187698364, 8.996240615844727, 27.63562774658203, 5.925179481506348, 13.268019676208496, 0.287353515625, 0.405029296875, -0.950439453125
449, 388851829, -5.686265468597412, -2.8501293659210205, 7.834882736206055, 20.597774505615234, 2.9429874420166016, 9.241570472717285, 0.291015625, 0.40185546875, -0.94921875
450, 388868496, -5.9066548347473145, -2.269782066345215, 8.10280704498291, 14.033843994140625, 1.035874366760254, 6.433985233306885, 0.291015625, 0.3955078125, -0.953125
451, 388885163, -5.710982322692871, -2.4878175258636475, 7.958619117736816, 8.080944061279297, 1.5688871145248413, 3.5491080284118652, 0.2939453125, 0.391357421875, -0.953125
452, 388901830, -5.613529205322266, -2.452629804611206, 7.86674690246582, 4.0580058097839355, 2.895087242126465, 1.97749924659729, 0.2939453125, 0.391357421875, -0.9541015625
453, 388918497, -5.562982559204102, -2.5036771297454834, 7.705873012542725, 1.5285080671310425, 4.580799102783203, 0.6687795519828796, 0.298095703125, 0.389892578125, -0.951416015625
454, 388935164, -5.547782897949219, -2.6181893348693848, 7.5568671226501465, 0.2696346640586853, 5.613327980041504, -0.13547369837760925, 0.300048828125, 0.391845703125, -0.95458984375
455, 388951831, -5.5388875007629395, -2.597466468811035, 7.517458915710449, 0.2484239935874939, 5.522643089294434, -0.04306775704026222, 0.298095703125, 0.392822265625, -0.950927734375
456, 388968498, -5.509436130523682, -2.583820343017578, 7.477228164672852, 1.102108120918274, 4.661492824554443, 0.44227373600006104, 0.300048828125, 0.390380859375, -0.952392578125
457, 388985165, -5.500447750091553, -2.584101438522339, 7.474154472351074, 2.652470588684082, 3.060852289199829, 1.5706795454025269, 0.299560546875, 0.391357421875, -0.950927734375
458, 389001832, -5.519815444946289, -2.6250619888305664, 7.46122407913208, 4.7665557861328125, 0.7404952049255371, 2.7884738445281982, 0.301513671875, 0.388427734375, -0.951416015625
459, 389018499, -5.597494125366211, -2.8481547832489014, 7.313693046569824, 8.561488151550293, -3.631869077682495, 4.147754192352295, 0.302734375, 0.385498046875, -0.951416015625
460, 389035166, -5.602132797241211, -2.531795024871826, 7.602532863616943, 8.849876403808594, -6.036800861358643, 4.057559490203857, 0.302734375, 0.384033203125, -0.956298828125
461, 389051833, -5.457132339477539, -2.342317819595337, 7.715027809143066, 7.656425476074219, -6.086205959320068, 3.8070530891418457, 0.3017578125, 0.3828125, -0.956298828125
462, 389068500, -5.504823207855225, -2.4098150730133057, 7.516390323638916, 7.845231533050537, -6.310434341430664, 3.62261700630188, 0.298095703125, 0.38134765625, -0.95849609375
463, 389085167, -5.3248748779296875, -2.653648614883423, 7.493595600128174, 9.9669771194458, -8.018034934997559, 4.731686592102051, 0.29833984375, 0.3779296875, -0.9599609375
464, 389101834, -5.237947940826416, -2.7205679416656494, 7.556241035461426, 13.987186431884766, -11.996826171875, 8.05805492401123, 0.29638671875, 0.373291015625, -0.962890625
465, 389118501, -5.421319484710693, -2.5183043479919434, 7.576877593994141, 15.944035530090332, -15.137505531311035, 10.61934757232666, 0.2919921875, 0.3671875, -0.966552734375
466, 389135168, -5.250971794128418, -2.0578365325927734, 8.000480651855469, 11.207765579223633, -11.486681938171387, 9.106088638305664, 0.29052734375, 0.3623046875, -0.968994140625
467, 389151835, -5.04692268371582, -1.9954276084899902, 8.0996732711792, 5.765388488769531, -3.2507007122039795, 8.22833251953125, 0.28759765625, 0.358642578125, -0.968017578125
468, 389168502, -5.02625036239624, -2.1969313621520996, 8.09576416015625, 1.6319842338562012, 6.56823205947876, 7.379668712615967, 0.29150390625, 0.359130859375, -0.968994140625
469, 389185169, -5.161126613616943, -2.2699320316314697, 8.011465072631836, -2.911360502243042, 16.319284439086914, 7.630114555358887, 0.29296875, 0.359619140625, -0.968505859375
470, 389201836, -5.316822528839111, -2.381502628326416, 7.907786846160889, -7.37777042388916, 24.70295524597168, 9.775670051574707, 0.304931640625, 0.35791015625, -0.965576171875
471, 389218503, -5.05185604095459, -2.2150161266326904, 8.198528289794922, -12.86700439453125, 34.54804229736328, 13.159034729003906, 0.3125, 0.36083984375, -0.9619140625
472, 389235170, -4.8867106437683105, -1.9624030590057373, 8.61059856414795, -8.376306533813477, 50.657249450683594, 13.053096771240234, 0.326904296875, 0.364990234375, -0.955810546875
473, 389251837, -5.090494632720947, -1.8245640993118286, 8.693148612976074, -12.945674896240234, 73.9212646484375, 9.441140174865723, 0.34716796875, 0.36865234375, -0.947265625
474, 389268504, -4.9031147956848145, -2.177894353866577, 8.855240821838379, -20.256153106689453, 104.95426177978516, 10.01647663116455, 0.3720703125, 0.372314453125, -0.930908203125
475, 389285171, -4.873994827270508, -2.4954872131347656, 8.892119407653809, -28.742767333984375, 141.30149841308594, 15.301117897033691, 0.407470703125, 0.378662109375, -0.91357421875
476, 389301838, -4.9691691398620605, -2.64021897315979, 9.42087173461914, -37.77105712890625, 186.97415161132812, 25.60039520263672, 0.4541015625, 0.384033203125, -0.886474609375
477, 389318505, -4.431035995483398, -3.4335789680480957, 9.90948486328125, -34.55221176147461, 246.02142333984375, 40.15467071533203, 0.512451171875, 0.38916015625, -0.84423828125
478, 389335172, -5.152373790740967, -4.474748134613037, 9.860828399658203, -40.87384796142578, 320.9654541015625, 70.78155517578125, 0.586669921875, 0.388671875, -0.7890625
479, 389351839, -7.844610214233398, -5.183347702026367, 11.356374740600586, -32.93047332763672, 376.9516906738281, 123.29301452636719, 0.677001953125, 0.375732421875, -0.7138671875
480, 389368506, -10.455267906188965, -4.866628170013428, 10.851113319396973, -42.452911376953125, 418.7108459472656, 158.76971435546875, 0.770263671875, 0.35302734375, -0.616943359375
481, 389385173, -17.61833953857422, -6.12827730178833, 12.856850624084473, -55.280269622802734, 398.0715026855469, 156.42588806152344, 0.84423828125, 0.325439453125, -0.512451171875
482, 389401840, -19.530698776245117, -5.693460464477539, 14.100505828857422, -50.46934127807617, 332.65521240234375, 147.96029663085938, 0.902099609375, 0.2900390625, -0.41162109375
483, 389418507, -12.599854469299316, -6.239734649658203, 12.302301406860352, -37.451194763183594, 276.6063537597656, 148.66586303710938, 0.93505859375, 0.25341796875, -0.33251953125
484, 389435174, -2.8679258823394775, -7.570995807647705, 11.34701919555664, -10.590142250061035, 248.72850036621094, 154.9238739013672, 0.95703125, 0.212158203125, -0.264404296875
485, 389451841, -15.383822441101074, -11.829526901245117, 19.209409713745117, -13.342535972595215, 170.29977416992188, 88.28204345703125, 0.966552734375, 0.181884765625, -0.209228515625
486, 389468508, -9.309081077575684, -11.214377403259277, 18.519268035888672, -2.626173973083496, -10.995550155639648, 2.4424989223480225, 0.95654296875, 0.180419921875, -0.2060546875
487, 389485175, -0.022193744778633118, -7.952956199645996, 11.52022647857666, 25.65178871154785, -104.2660140991211, -40.165130615234375, 0.94140625, 0.19287109375, -0.237060546875
488, 389501842, 2.9813828468322754, -4.503492832183838, 7.429412364959717, 43.522178649902344, -124.64632415771484, -52.50970458984375, 0.922119140625, 0.208740234375, -0.27978515625
489, 389518509, 2.435455799102783, -2.4136226177215576, 6.1938018798828125, 38.75291442871094, -123.9173355102539, -58.10816192626953, 0.8994140625, 0.229248046875, -0.321044921875
490, 389535176, 0.4356628656387329, -1.601110816001892, 6.358348369598389, 18.609567642211914, -124.6337661743164, -68.25371551513672, 0.876220703125, 0.25048828125, -0.3623046875
491, 389551843, -2.106004476547241, -1.8264240026474, 7.029356956481934, 0.49942082166671753, -136.02525329589844, -79.1271743774414, 0.846923828125, 0.27978515625, -0.404541015625
492, 389568510, -4.9972944259643555, -2.5387701988220215, 7.789737224578857, -4.881641864776611, -162.91485595703125, -88.41050720214844, 0.8095703125, 0.309326171875, -0.452880859375
493, 389585177, -6.959417343139648, -2.8420019149780273, 7.840523719787598, 2.0120246410369873, -203.5358428955078, -95.28968811035156, 0.75830078125, 0.335693359375, -0.51171875
494, 389601844, -7.188683986663818, -2.5426743030548096, 7.299368858337402, 12.27463150024414, -238.89512634277344, -98.53546142578125, 0.689208984375, 0.353271484375, -0.5673828125
495, 389618511, -7.128735065460205, -2.0930826663970947, 6.9376749992370605, 16.694778442382812, -257.14404296875, -97.14086151123047, 0.612060546875, 0.35986328125, -0.619873046875
496, 389635178, -7.964001178741455, -1.7956253290176392, 7.401151180267334, 9.261672019958496, -263.77264404296875, -95.50981903076172, 0.53173828125, 0.358642578125, -0.6650390625
497, 389651845, -9.49867057800293, -1.9576570987701416, 8.116083145141602, -9.520012855529785, -269.37799072265625, -97.2896957397461, 0.449462890625, 0.360107421875, -0.6943359375
498, 389668512, -10.014720916748047, -2.4408276081085205, 8.096260070800781, -30.446470260620117, -273.9785461425781, -100.17335510253906, 0.36328125, 0.355712890625, -0.7109375
499, 389685179, -10.646138191223145, -3.0092499256134033, 8.282303810119629, -44.73109436035156, -264.45037841796875, -98.6496810913086, 0.28955078125, 0.34814453125, -0.70654296875
500, 389701846, -12.583308219909668, -4.201275825500488, 10.045665740966797, -55.02705001831055, -243.49884033203125, -94.13948822021484, 0.236328125, 0.340087890625, -0.699462890625
501, 389718513, -18.15882110595703, -5.960511207580566, 12.435760498046875, -68.63031005859375, -237.81393432617188, -105.0927734375, 0.19482421875, 0.340576171875, -0.69384765625
502, 389735180, -22.300981521606445, -7.417909145355225, 11.22751235961914, -61.48210525512695, -254.9435577392578, -134.29930114746094, 0.1484375, 0.347900390625, -0.69677734375
503, 389751847, -24.072072982788086, -7.7095537185668945, 6.940829753875732, -24.44101905822754, -271.7414245605469, -151.9232177734375, 0.1015625, 0.349853515625, -0.703125
504, 389768514, -24.38922119140625, -5.221811771392822, 2.1471385955810547, 22.128835678100586, -273.4205017089844, -135.6500244140625, 0.052734375, 0.35107421875, -0.71923828125
505, 389785181, -23.588817596435547, -0.02653498947620392, -2.0794613361358643, 20.963712692260742, -247.21705627441406, -113.5820083618164, -7.32421875E-4, 0.344970703125, -0.7373046875
506, 389801848, -26.440521240234375, 6.759507656097412, -8.198745727539062, -24.401166915893555, -197.3499755859375, -96.11161804199219, -0.046630859375, 0.3505859375, -0.748291015625
507, 389818515, -29.499162673950195, 14.425958633422852, -17.951980590820312, -90.6597671508789, -128.0670928955078, -91.52513122558594, -0.087646484375, 0.363037109375, -0.745361328125
508, 389835182, -15.096783638000488, 7.099071025848389, -20.59682846069336, -55.43778610229492, 27.808401107788086, 6.1509928703308105, -0.099365234375, 0.38232421875, -0.74560546875
509, 389851849, -12.91000747680664, 4.656408786773682, -11.114537239074707, 59.23733139038086, 177.60865783691406, 149.38217163085938, -0.051513671875, 0.37744140625, -0.753173828125
510, 389868516, -13.890799522399902, -9.54224681854248, 13.229188919067383, 81.12484741210938, 172.44442749023438, 136.8447723388672, 0.00830078125, 0.357666015625, -0.767333984375
511, 389885183, -5.819926738739014, -11.91523265838623, 8.223722457885742, 75.44268798828125, 118.58707427978516, 77.90219116210938, 0.0478515625, 0.33740234375, -0.7744140625
512, 389901850, -3.3839073181152344, -0.2581839859485626, 6.643477439880371, 48.76835250854492, 178.04959106445312, 43.270965576171875, 0.091552734375, 0.32421875, -0.778564453125
513, 389918517, -17.506607055664062, 4.824670791625977, 17.40180015563965, 33.25481414794922, 186.74351501464844, 39.99949645996094, 0.14501953125, 0.312255859375, -0.77685546875
514, 389935184, -23.233890533447266, -2.60870361328125, 15.078022956848145, 32.52253341674805, 91.3768310546875, 62.01007080078125, 0.180419921875, 0.305419921875, -0.775634765625
515, 389951851, -5.6924824714660645, -6.095465660095215, 4.9633073806762695, 48.739723205566406, 31.8823299407959, 31.390811920166016, 0.19189453125, 0.28759765625, -0.7802734375
516, 389968518, -7.397021770477295, -1.9318524599075317, 9.483841896057129, 52.27241516113281, 24.904348373413086, 34.58345413208008, 0.201904296875, 0.27490234375, -0.781982421875
517, 389985185, -7.081809043884277, -2.2166402339935303, 8.070998191833496, 42.10550308227539, 8.163606643676758, 20.716527938842773, 0.20654296875, 0.264892578125, -0.78369140625
518, 390001852, -5.746272563934326, -2.51255464553833, 8.334227561950684, 31.606260299682617, -0.6510647535324097, 14.592813491821289, 0.211669921875, 0.255859375, -0.78857421875
519, 390018519, -6.071212291717529, -2.338759422302246, 8.094168663024902, 21.440811157226562, -5.328233242034912, 10.333892822265625, 0.21142578125, 0.248046875, -0.791015625
520, 390035186, -5.584200859069824, -2.653992176055908, 7.898071765899658, 14.217501640319824, -4.636260986328125, 7.733678817749023, 0.2119140625, 0.244384765625, -0.793701171875
521, 390051853, -5.709835529327393, -1.996185064315796, 8.110230445861816, 6.73648738861084, -0.1207711398601532, 4.001796245574951, 0.212890625, 0.240478515625, -0.79345703125
522, 390068520, -5.65411376953125, -2.0883264541625977, 8.003363609313965, 1.2224748134613037, 3.8293864727020264, 0.8429843783378601, 0.21533203125, 0.241455078125, -0.7939453125
523, 390085187, -5.531186580657959, -2.508753776550293, 7.7803521156311035, -2.151197910308838, 6.993157386779785, -0.87647944688797, 0.216552734375, 0.239990234375, -0.79345703125
524, 390101854, -5.421680450439453, -2.660529613494873, 7.715770244598389, -2.997788429260254, 10.016599655151367, -0.2675631642341614, 0.21728515625, 0.243896484375, -0.7919921875
525, 390118521, -5.679929256439209, -2.591277599334717, 7.534729480743408, -2.7233612537384033, 10.504739761352539, 0.7043944001197815, 0.220947265625, 0.242919921875, -0.79150390625
526, 390135188, -5.7830610275268555, -2.4020745754241943, 7.567000389099121, -2.7855489253997803, 9.675118446350098, 0.07771536707878113, 0.224365234375, 0.243408203125, -0.791748046875
527, 390151855, -5.675573825836182, -2.5779025554656982, 7.538349628448486, -3.3881001472473145, 9.135906219482422, -0.4189598858356476, 0.224365234375, 0.2451171875, -0.791259765625
528, 390168522, -5.675142288208008, -2.586921453475952, 7.471458911895752, -3.2136898040771484, 8.525335311889648, -0.3565928637981415, 0.226318359375, 0.243408203125, -0.787841796875
529, 390185189, -5.625278949737549, -2.6200499534606934, 7.400632381439209, -2.550909996032715, 7.548556804656982, -0.35993531346321106, 0.228759765625, 0.24609375, -0.788818359375
530, 390201856, -5.553648471832275, -2.81908917427063, 7.293735504150391, -0.6060733795166016, 6.084995746612549, 1.4483280181884766, 0.23095703125, 0.2451171875, -0.7861328125
531, 390218523, -5.593648433685303, -2.8445920944213867, 7.268437385559082, 2.561980724334717, 3.1226043701171875, 4.476837635040283, 0.232421875, 0.2431640625, -0.78662109375
532, 390235190, -5.68576192855835, -2.6711466312408447, 7.326355457305908, 5.789795875549316, 0.2830139696598053, 6.266205310821533, 0.23291015625, 0.2431640625, -0.7890625
533, 390251857, -5.764431476593018, -2.5293447971343994, 7.433284759521484, 6.052238464355469, -0.40370750427246094, 5.5233612060546875, 0.23486328125, 0.2412109375, -0.7880859375
534, 390268524, -5.6210832595825195, -2.5879955291748047, 7.536301136016846, 5.804920196533203, 0.5683906674385071, 5.3522162437438965, 0.23193359375, 0.241455078125, -0.7900390625
535, 390285191, -5.695235729217529, -2.3733928203582764, 7.554754734039307, 5.112327575683594, 2.851468801498413, 5.020582675933838, 0.23388671875, 0.238525390625, -0.7890625
536, 390301858, -5.768075466156006, -2.262389659881592, 7.544265270233154, 3.2457377910614014, 6.1021809577941895, 4.129786014556885, 0.23486328125, 0.235595703125, -0.79052734375
537, 390318525, -5.665216445922852, -2.272862672805786, 7.5865983963012695, 0.25801602005958557, 9.391816139221191, 3.804633617401123, 0.238525390625, 0.235107421875, -0.78955078125
538, 390335192, -5.621915340423584, -2.5885393619537354, 7.53864049911499, -5.621952533721924, 11.306060791015625, 7.249775409698486, 0.243896484375, 0.234619140625, -0.788330078125
539, 390351859, -5.497518062591553, -2.4337613582611084, 7.678407192230225, -2.565652370452881, 16.398311614990234, 7.053315162658691, 0.244873046875, 0.234619140625, -0.789306640625
540, 390368526, -5.345192909240723, -2.57668399810791, 7.915513515472412, -3.7028377056121826, 26.74395179748535, 6.834953308105469, 0.25244140625, 0.235107421875, -0.787109375
541, 390385193, -5.35091495513916, -2.5840702056884766, 7.802225112915039, -8.059725761413574, 39.37593078613281, 10.074028968811035, 0.260009765625, 0.23486328125, -0.780029296875
542, 390401860, -5.522457599639893, -2.371453285217285, 7.719428539276123, -11.215402603149414, 51.18135070800781, 11.896727561950684, 0.270751953125, 0.23828125, -0.77880859375
543, 390418527, -5.649568557739258, -2.3013768196105957, 7.675974369049072, -13.47789192199707, 63.758975982666016, 11.613726615905762, 0.286376953125, 0.239990234375, -0.7734375
544, 390435194, -5.605140209197998, -2.4559855461120605, 7.916991233825684, -16.670764923095703, 81.82637786865234, 12.407917022705078, 0.302734375, 0.24169921875, -0.76806640625
545, 390451861, -5.661360263824463, -2.7974772453308105, 7.968555450439453, -22.723596572875977, 107.88056945800781, 17.032068252563477, 0.32666015625, 0.243896484375, -0.751708984375
546, 390468528, -5.543537616729736, -3.165177822113037, 8.347640991210938, -30.52545166015625, 138.91915893554688, 27.34872055053711, 0.353515625, 0.24951171875, -0.740478515625
547, 390485195, -5.201157093048096, -3.5685722827911377, 9.118436813354492, -31.2934513092041, 178.80076599121094, 41.95352554321289, 0.390869140625, 0.2509765625, -0.71826171875
548, 390501862, -5.877926349639893, -2.8964521884918213, 9.012428283691406, -41.23263931274414, 232.7999725341797, 59.1372184753418, 0.4375, 0.253662109375, -0.687744140625
549, 390518529, -7.002602577209473, -3.02565860748291, 9.009627342224121, -48.56752395629883, 281.7662048339844, 85.10907745361328, 0.49658203125, 0.249755859375, -0.6474609375
550, 390535196, -7.973608493804932, -3.7441585063934326, 8.053305625915527, -54.8394889831543, 303.03997802734375, 104.79784393310547, 0.557373046875, 0.241943359375, -0.597412109375
551, 390551863, -13.57358169555664, -3.857637405395508, 10.043889999389648, -72.14353942871094, 302.24200439453125, 104.84660339355469, 0.61328125, 0.23486328125, -0.54248046875
552, 390568530, -14.774641036987305, -4.840216159820557, 8.758593559265137, -91.8546142578125, 262.8583984375, 92.82820892333984, 0.6572265625, 0.2294921875, -0.48681640625
553, 390585197, -15.326897621154785, -2.388371229171753, 9.6962308883667, -130.6764373779297, 183.13377380371094, 75.66522979736328, 0.685546875, 0.231201171875, -0.439208984375
554, 390601864, -8.756232261657715, -1.1875782012939453, 6.816576957702637, -170.37356567382812, 118.94522857666016, 72.38677978515625, 0.703369140625, 0.234375, -0.404296875
555, 390618531, -4.666501045227051, 2.1555848121643066, 13.910552024841309, -221.1232452392578, 41.76237487792969, 103.5469970703125, 0.71142578125, 0.240966796875, -0.3798828125
556, 390635198, -8.913429260253906, 0.3217398524284363, 15.4055814743042, -247.61509704589844, -82.17428588867188, 157.17355346679688, 0.708984375, 0.2373046875, -0.37548828125
557, 390651865, -1.689693570137024, -0.00693860650062561, 8.55040168762207, -244.0492706298828, -164.0976104736328, 176.9154052734375, 0.693603515625, 0.228271484375, -0.39794921875
558, 390668532, 0.38523900508880615, 1.1029294729232788, 5.07505464553833, -241.61561584472656, -164.4445037841797, 167.11676025390625, 0.6767578125, 0.219970703125, -0.415771484375
559, 390685199, -0.16085535287857056, 1.2521681785583496, 4.178442001342773, -251.308349609375, -145.1543426513672, 131.0386505126953, 0.65869140625, 0.221435546875, -0.43017578125
560, 390701866, -0.8641412258148193, -0.04207932949066162, 4.545013904571533, -243.11175537109375, -132.06210327148438, 89.18460845947266, 0.6357421875, 0.23291015625, -0.439208984375
561, 390718533, -1.4985486268997192, -0.9617969989776611, 5.877536296844482, -207.8552703857422, -128.1116943359375, 57.21327590942383, 0.615966796875, 0.247314453125, -0.44482421875
562, 390735200, -3.0246660709381104, 0.3209766447544098, 8.025360107421875, -177.9388885498047, -131.6729278564453, 27.831600189208984, 0.591796875, 0.26123046875, -0.450439453125
563, 390751867, -4.725332736968994, 1.8102229833602905, 9.755677223205566, -169.80221557617188, -144.86953735351562, 1.582175612449646, 0.564697265625, 0.275390625, -0.451416015625
564, 390768534, -5.946312427520752, 3.2431740760803223, 10.64313793182373, -171.37583923339844, -162.75851440429688, -14.996955871582031, 0.53662109375, 0.29345703125, -0.45361328125
565, 390785201, -7.026179313659668, 4.327784061431885, 11.196954727172852, -171.96878051757812, -175.78114318847656, -26.139171600341797, 0.513916015625, 0.311279296875, -0.453369140625
566, 390801868, -7.958807945251465, 4.814488410949707, 11.209978103637695, -161.1290740966797, -186.45265197753906, -34.627098083496094, 0.486572265625, 0.32763671875, -0.4560546875
567, 390818535, -8.095536231994629, 5.519830703735352, 11.015626907348633, -137.78648376464844, -192.691162109375, -43.50792694091797, 0.463623046875, 0.340576171875, -0.46142578125
568, 390835202, -8.011670112609863, 6.318461894989014, 11.114140510559082, -106.0903091430664, -190.2121124267578, -53.82504653930664, 0.44580078125, 0.35693359375, -0.470947265625
569, 390851869, -8.578469276428223, 6.448070049285889, 11.860706329345703, -70.89354705810547, -182.9191436767578, -60.606746673583984, 0.42822265625, 0.368896484375, -0.487060546875
570, 390868536, -10.10671615600586, 5.8649163246154785, 12.863938331604004, -36.38261795043945, -178.8144989013672, -55.95374298095703, 0.4091796875, 0.38232421875, -0.507080078125
571, 390885203, -11.950787544250488, 4.388473987579346, 13.182161331176758, -4.785117149353027, -186.8208465576172, -38.71943283081055, 0.388427734375, 0.391357421875, -0.537109375
572, 390901870, -12.940460205078125, 3.25113582611084, 12.531681060791016, 15.825051307678223, -203.93045043945312, -11.351357460021973, 0.364990234375, 0.39208984375, -0.57177734375
573, 390918537, -12.64693832397461, 3.396284818649292, 11.269963264465332, 6.913055419921875, -214.60086059570312, 13.643085479736328, 0.335693359375, 0.39306640625, -0.60693359375
574, 390935204, -11.847930908203125, 3.356109142303467, 9.658332824707031, -25.484073638916016, -208.3294677734375, 32.11691665649414, 0.306640625, 0.40185546875, -0.63330078125
575, 390951871, -11.954852104187012, 1.9241626262664795, 7.607919692993164, -53.58399963378906, -195.43467712402344, 48.49098587036133, 0.275146484375, 0.413818359375, -0.652099609375
576, 390968538, -12.016607284545898, -1.8920258283615112, 4.0809645652771, -53.43589401245117, -195.74020385742188, 73.96803283691406, 0.251953125, 0.425537109375, -0.668212890625
577, 390985205, -15.303335189819336, 0.17366580665111542, 3.0405826568603516, -69.65158081054688, -180.0436248779297, 85.89520263671875, 0.227294921875, 0.4345703125, -0.67724609375
578, 391001872, -17.85662269592285, 4.305809020996094, -2.4623494148254395, -116.81473541259766, -165.86721801757812, 91.76151275634766, 0.2060546875, 0.455322265625, -0.681884765625
579, 391018539, -12.257601737976074, 5.458302974700928, -7.237504005432129, -156.8461456298828, -116.52317810058594, 107.89678955078125, 0.193115234375, 0.4814453125, -0.670166015625
580, 391035206, -8.157021522521973, 0.6615266799926758, -5.931332111358643, -118.79450225830078, -36.28740692138672, 165.80201721191406, 0.20703125, 0.4990234375, -0.653564453125
581, 391051873, -11.1171293258667, -0.42151567339897156, 0.15042971074581146, -94.05469512939453, 6.83361291885376, 203.7630157470703, 0.23583984375, 0.5009765625, -0.638916015625
582, 391068540, -12.663161277770996, -2.1205403804779053, 2.6578612327575684, -125.05973052978516, 4.27705192565918, 197.84722900390625, 0.26806640625, 0.505615234375, -0.619140625
583, 391085207, -12.630155563354492, -5.268920421600342, 2.2752485275268555, -153.3927001953125, -12.495126724243164, 173.21189880371094, 0.29150390625, 0.514404296875, -0.59521484375
584, 391101874, -5.556672096252441, -18.917390823364258, 1.636684775352478, 13.515475273132324, 22.722700119018555, 136.1635284423828, 0.31494140625, 0.507568359375, -0.582275390625
585, 391118541, -2.1655561923980713, -5.301540851593018, 10.825078964233398, 81.30484771728516, 44.902915954589844, 65.1593246459961, 0.33642578125, 0.47705078125, -0.591064453125
586, 391135208, 7.6515607833862305, -5.646111011505127, 1.7595652341842651, 35.397674560546875, 98.23211669921875, -11.206761360168457, 0.348388671875, 0.468505859375, -0.589599609375
587, 391151875, -6.89031982421875, 3.0338668823242188, 10.482782363891602, 9.845654487609863, 182.963134765625, -2.524122714996338, 0.37939453125, 0.458251953125, -0.5673828125
588, 391168542, -18.77513313293457, 5.03477668762207, 15.449994087219238, -0.02209354378283024, 125.66081237792969, 22.624502182006836, 0.404541015625, 0.450439453125, -0.5478515625
589, 391185209, -13.805692672729492, -4.109384059906006, 12.748127937316895, -6.060303211212158, 68.51699829101562, 38.92156219482422, 0.421630859375, 0.447021484375, -0.5302734375
590, 391201876, -8.732380867004395, -8.124140739440918, 5.527098178863525, 29.99711799621582, 29.031166076660156, 16.03374671936035, 0.4306640625, 0.43994140625, -0.529541015625
591, 391218543, -6.263464450836182, -1.20020592212677, 9.296039581298828, 27.1890926361084, 19.976913452148438, 18.051355361938477, 0.436279296875, 0.429931640625, -0.530517578125
592, 391235210, -6.017889976501465, -4.746938705444336, 6.970709800720215, 35.32441329956055, 5.388309001922607, 19.268308639526367, 0.439453125, 0.42333984375, -0.533447265625
593, 391251877, -6.241600036621094, -1.346782922744751, 8.49057388305664, 28.85835838317871, -5.718326568603516, 16.208171844482422, 0.44091796875, 0.411865234375, -0.539306640625
594, 391268544, -5.585820198059082, -1.7299638986587524, 8.377532958984375, 22.767242431640625, -7.310958385467529, 11.8800630569458, 0.442138671875, 0.406982421875, -0.540771484375
595, 391285211, -5.629829406738281, -1.6878210306167603, 8.216495513916016, 16.934980392456055, -6.230348587036133, 8.323863983154297, 0.439697265625, 0.40234375, -0.543701171875
596, 391301878, -5.440875053405762, -1.8492499589920044, 8.168486595153809, 12.640843391418457, -4.652755260467529, 6.0696187019348145, 0.4423828125, 0.39794921875, -0.547119140625
597, 391318545, -5.580532550811768, -1.6333982944488525, 8.27536392211914, 6.926347732543945, -1.3423875570297241, 2.9061520099639893, 0.443359375, 0.395263671875, -0.549072265625
598, 391335212, -5.3633551597595215, -2.334815740585327, 7.849416732788086, 3.6966750621795654, 0.741033136844635, 0.8912004232406616, 0.439697265625, 0.394287109375, -0.548828125
599, 391351879, -5.137552261352539, -2.9366791248321533, 7.475233554840088, 7.994564056396484, -1.414730429649353, 4.135497570037842, 0.44189453125, 0.393310546875, -0.546630859375
600, 391368546, -5.260993480682373, -2.592249631881714, 7.57395076751709, 11.381721496582031, -3.6456375122070312, 7.017147541046143, 0.44384765625, 0.389892578125, -0.547607421875
601, 391385213, -5.405938625335693, -2.001713991165161, 7.85462760925293, 9.812440872192383, -4.075788974761963, 6.158300876617432, 0.44384765625, 0.38720703125, -0.551513671875
602, 391401880, -5.367435932159424, -1.678419828414917, 8.007285118103027, 5.205660343170166, -2.4188637733459473, 3.152930498123169, 0.44287109375, 0.38671875, -0.549072265625
603, 391418547, -5.346061706542969, -2.029726028442383, 7.866722583770752, 2.48244047164917, -0.5364323258399963, 1.0405991077423096, 0.44482421875, 0.38525390625, -0.551513671875
604, 391435214, -5.36580753326416, -2.1670637130737305, 7.803083419799805, 1.1064364910125732, 0.13381995260715485, 0.24812941253185272, 0.443603515625, 0.3828125, -0.553466796875
605, 391451881, -5.211321830749512, -2.338712692260742, 7.823007583618164, 1.1889351606369019, -0.10798314958810806, 0.7949221134185791, 0.443359375, 0.38330078125, -0.553955078125
606, 391468548, -5.315381050109863, -2.2471606731414795, 7.787111759185791, 1.5840494632720947, -0.4968351125717163, 1.8245140314102173, 0.44189453125, 0.38330078125, -0.551025390625
607, 391485215, -5.3852338790893555, -2.0317656993865967, 7.881041526794434, 0.6225229501724243, -0.11506503820419312, 1.812732219696045, 0.445556640625, 0.38134765625, -0.551513671875
608, 391501882, -5.362931728363037, -1.9681689739227295, 7.875802040100098, -0.7823269367218018, 1.269077181816101, 1.3264622688293457, 0.445556640625, 0.3828125, -0.552001953125
609, 391518549, -5.282001495361328, -2.126919746398926, 7.821407794952393, -1.4562228918075562, 2.2166576385498047, 1.26039457321167, 0.447021484375, 0.3798828125, -0.550537109375
610, 391535216, -5.279356956481934, -2.166832208633423, 7.840003967285156, -1.4207110404968262, 2.911607265472412, 2.3659799098968506, 0.444580078125, 0.3828125, -0.551513671875
611, 391551883, -5.431783676147461, -2.1229119300842285, 7.814107894897461, -1.9277656078338623, 4.065497875213623, 2.967160940170288, 0.446533203125, 0.38330078125, -0.551025390625
612, 391568550, -5.350403308868408, -2.2230381965637207, 7.780291557312012, -0.9043334126472473, 4.909551620483398, 3.7741150856018066, 0.447998046875, 0.3818359375, -0.548828125
613, 391585217, -5.3430891036987305, -2.1292481422424316, 7.744825839996338, -0.6892249584197998, 5.609662055969238, 4.602877616882324, 0.450439453125, 0.3779296875, -0.5498046875
614, 391601884, -5.3469061851501465, -2.0707991123199463, 7.858191013336182, -1.2912771701812744, 6.798257827758789, 5.406591892242432, 0.453125, 0.3798828125, -0.546875
615, 391618551, -5.301002502441406, -2.1433229446411133, 7.884937763214111, -3.2777745723724365, 9.844138145446777, 6.652076721191406, 0.45361328125, 0.37744140625, -0.545166015625
616, 391635218, -5.237331867218018, -2.372920513153076, 7.939009666442871, -2.3828799724578857, 15.198067665100098, 8.339759826660156, 0.4580078125, 0.3759765625, -0.541748046875
617, 391651885, -5.156409740447998, -2.552098274230957, 7.976056098937988, -2.955174207687378, 21.473163604736328, 12.28157901763916, 0.462158203125, 0.374755859375, -0.53955078125
618, 391668552, -5.012724876403809, -2.125826597213745, 8.378324508666992, -3.305255889892578, 31.20831298828125, 15.662328720092773, 0.468994140625, 0.372802734375, -0.535400390625
619, 391685219, -5.19428825378418, -1.8143327236175537, 8.254372596740723, -4.557355880737305, 45.36803436279297, 14.943803787231445, 0.4775390625, 0.373046875, -0.52783203125
620, 391701886, -5.404679775238037, -1.7883130311965942, 8.207303047180176, -8.034979820251465, 60.20014572143555, 14.65928840637207, 0.487548828125, 0.368896484375, -0.5185546875
621, 391718553, -5.524289131164551, -1.7278629541397095, 8.130819320678711, -7.742793083190918, 75.18492889404297, 11.892255783081055, 0.50146484375, 0.36962890625, -0.509033203125
622, 391735220, -5.628860950469971, -1.8783175945281982, 8.10180950164795, -7.071530342102051, 90.59831237792969, 12.054174423217773, 0.514404296875, 0.36962890625, -0.496826171875
623, 391751887, -5.499750137329102, -2.1735920906066895, 8.28679370880127, -2.544206142425537, 109.45571899414062, 14.320080757141113, 0.531005859375, 0.367919921875, -0.477294921875
624, 391768554, -5.431576728820801, -2.683455228805542, 8.295310020446777, -3.8006818294525146, 139.9773712158203, 22.722118377685547, 0.551025390625, 0.364501953125, -0.453369140625
625, 391785221, -5.682558536529541, -2.930586576461792, 8.772944450378418, -5.1118340492248535, 178.45823669433594, 39.24748229980469, 0.577392578125, 0.358642578125, -0.421630859375
626, 391801888, -5.564229488372803, -2.501924753189087, 9.475115776062012, -4.850152015686035, 228.1541748046875, 59.487335205078125, 0.6083984375, 0.35107421875, -0.38330078125
627, 391818555, -6.748926639556885, -3.027588129043579, 10.469313621520996, -8.570629119873047, 290.597900390625, 85.07281494140625, 0.64892578125, 0.3359375, -0.330322265625
628, 391835222, -6.67567777633667, -5.415125846862793, 10.267913818359375, -24.948780059814453, 340.9897766113281, 128.37718200683594, 0.690673828125, 0.3154296875, -0.261962890625
629, 391851889, -11.958454132080078, -5.578336715698242, 11.62808609008789, -49.934757232666016, 369.9302673339844, 167.94773864746094, 0.7333984375, 0.284912109375, -0.1796875
630, 391868556, -15.3427152633667, -4.7758307456970215, 13.198928833007812, -65.36044311523438, 360.8150329589844, 176.63958740234375, 0.771728515625, 0.248779296875, -0.091796875
631, 391885223, -16.408557891845703, -3.8211936950683594, 13.426994323730469, -81.99241638183594, 335.0649108886719, 162.7806396484375, 0.798828125, 0.215087890625, -0.004150390625
632, 391901890, -11.297619819641113, -4.5179667472839355, 11.383895874023438, -77.40758514404297, 285.1813049316406, 158.7554473876953, 0.818603515625, 0.180419921875, 0.06787109375
633, 391918557, -2.8357338905334473, -4.4895124435424805, 9.008529663085938, -50.69684982299805, 268.1459045410156, 176.4547576904297, 0.8291015625, 0.14013671875, 0.135009765625
634, 391935224, -17.390520095825195, -8.346697807312012, 16.578908920288086, -74.91395568847656, 222.06924438476562, 124.09622955322266, 0.836181640625, 0.10546875, 0.197021484375
635, 391951891, -14.3531494140625, -11.12464427947998, 17.405441284179688, -74.91315460205078, 41.25538635253906, 39.328006744384766, 0.847900390625, 0.0888671875, 0.216552734375
636, 391968558, -5.610008716583252, -10.20407772064209, 10.941849708557129, -30.386199951171875, -77.47505187988281, -22.350954055786133, 0.8603515625, 0.096435546875, 0.197265625
637, 391985225, 0.3561350405216217, -6.229222774505615, 5.835472106933594, 18.48465919494629, -113.59165954589844, -50.74448776245117, 0.87548828125, 0.11474609375, 0.16259765625
638, 392001892, 2.0012869834899902, -2.7022249698638916, 3.9212021827697754, 37.216609954833984, -100.93781280517578, -67.65296936035156, 0.885009765625, 0.13916015625, 0.12451171875
639, 392018559, 0.347783625125885, -1.0213706493377686, 4.528872013092041, 27.375192642211914, -85.28099822998047, -88.25450897216797, 0.8857421875, 0.16650390625, 0.09375
640, 392035226, -1.9736442565917969, -1.0063731670379639, 5.921010494232178, 14.667947769165039, -88.67888641357422, -109.89655303955078, 0.881591796875, 0.19970703125, 0.064453125
641, 392051893, -4.201901435852051, -1.2967408895492554, 7.199612140655518, 15.72780990600586, -112.21717834472656, -125.3740005493164, 0.873779296875, 0.23388671875, 0.03125
642, 392068560, -6.3744425773620605, -1.2334654331207275, 7.994448661804199, 27.22113037109375, -151.9707794189453, -134.3645782470703, 0.8603515625, 0.2685546875, -0.00927734375
643, 392085227, -7.5364155769348145, -0.622825562953949, 7.9659342765808105, 40.811805725097656, -197.43980407714844, -137.4731903076172, 0.84423828125, 0.30517578125, -0.06201171875
644, 392101894, -7.67270040512085, 0.5538483262062073, 7.447551727294922, 46.90251159667969, -231.85397338867188, -135.9222412109375, 0.8251953125, 0.342529296875, -0.12548828125
645, 392118561, -7.778843402862549, 1.5891821384429932, 7.565710544586182, 39.29538345336914, -249.78688049316406, -127.37633514404297, 0.7998046875, 0.376708984375, -0.197021484375
646, 392135228, -9.086661338806152, 1.8562769889831543, 8.309043884277344, 18.223026275634766, -261.34149169921875, -112.28030395507812, 0.760009765625, 0.4091796875, -0.268798828125
647, 392151895, -10.239850044250488, 0.8182257413864136, 8.643050193786621, -4.214864253997803, -275.2550964355469, -97.59069061279297, 0.703369140625, 0.432861328125, -0.327392578125
648, 392168562, -10.71352767944336, -0.69658362865448, 8.627260208129883, -14.9470853805542, -286.6661376953125, -83.9893798828125, 0.641845703125, 0.4521484375, -0.369384765625
649, 392185229, -10.76303768157959, -1.5760586261749268, 8.383694648742676, -17.589136123657227, -285.82403564453125, -71.70533752441406, 0.58984375, 0.458251953125, -0.386962890625
650, 392201896, -11.745671272277832, -2.2773849964141846, 9.025097846984863, -22.61200523376465, -268.0719909667969, -62.733131408691406, 0.56787109375, 0.465576171875, -0.402587890625
651, 392218563, -14.80199909210205, -3.595104932785034, 11.311528205871582, -37.47380828857422, -248.67068481445312, -62.80024337768555, 0.55810546875, 0.483154296875, -0.43359375
652, 392235230, -19.555675506591797, -5.701696872711182, 12.524975776672363, -55.95915222167969, -252.13949584960938, -79.78543090820312, 0.541748046875, 0.516357421875, -0.480712890625
653, 392251897, -22.50313377380371, -8.032231330871582, 9.889049530029297, -44.49562454223633, -272.0570068359375, -106.61325073242188, 0.497802734375, 0.55419921875, -0.530029296875
654, 392268564, -23.57906150817871, -7.854294776916504, 4.983872890472412, -1.627250075340271, -283.2414245605469, -115.24366760253906, 0.433349609375, 0.58251953125, -0.581787109375
655, 392285231, -23.245878219604492, -2.5832979679107666, 0.7301275134086609, 12.171661376953125, -272.7090148925781, -102.91988372802734, 0.36279296875, 0.6005859375, -0.6240234375
656, 392301898, -22.5253849029541, 3.735581159591675, -3.98665714263916, -33.844337463378906, -231.8722686767578, -97.9613037109375, 0.29638671875, 0.6181640625, -0.650146484375
657, 392318565, -26.86040496826172, 14.847465515136719, -13.673310279846191, -122.24031829833984, -166.96189880371094, -108.56562042236328, 0.232177734375, 0.647216796875, -0.652099609375
658, 392335232, -21.472671508789062, 9.671648025512695, -19.860403060913086, -170.3372344970703, -70.98542785644531, -53.219940185546875, 0.198974609375, 0.688232421875, -0.626953125
