sep=,
DeviceTag:,B,,,,,,,,,,,,,,,,,
FirmwareVersion:,2.2.1,,,,,,,,,,,,,,,,,
AppVersion:,2022.0.1,,,,,,,,,,,,,,,,,
SyncStatus:,Synced,,,,,,,,,,,,,,,,,
OutputRate:,60Hz,,,,,,,,,,,,,,,,,
FilterProfile:,General,,,,,,,,,,,,,,,,,
Measurement Mode:,Inertial Mode - Rate quantities (with mag),,,,,,,,,,,,,,,,,
StartTime:,2022-08-03 10:37:51.986 +0300,,,,,,,,,,,,,,,,,
© Xsens Technologies B. V. 2005-2022,,,,,,,,,,,,,,,,,,,

PacketCounter,SampleTimeFine,Acc_X,Acc_Y,Acc_Z,Gyr_X,Gyr_Y,Gyr_Z,Mag_X,Mag_Y,Mag_Z
1, 2217891787, -4.316953182220459, -1.2262358665466309, 8.579109191894531, 0.06652258336544037, -1.3377641439437866, -0.8908352851867676, 0.36181640625, -0.154541015625, -0.8857421875
2, 2217908454, -4.318876266479492, -1.2184407711029053, 8.555469512939453, 0.13675259053707123, -1.4967292547225952, -0.9208405613899231, 0.35791015625, -0.152587890625, -0.8837890625
3, 2217925121, -4.283633708953857, -1.2158013582229614, 8.558609962463379, 0.10975681245326996, -1.6408774852752686, -0.9532150030136108, 0.3583984375, -0.153564453125, -0.88232421875
4, 2217941788, -4.2836127281188965, -1.2188559770584106, 8.562886238098145, 0.16984158754348755, -1.476302146911621, -0.9401448965072632, 0.359375, -0.154541015625, -0.88330078125
5, 2217958455, -4.259119987487793, -1.2220734357833862, 8.54453182220459, 0.2950390577316284, -1.3113957643508911, -0.7374023795127869, 0.356201171875, -0.154052734375, -0.886474609375
6, 2217975122, -4.296098709106445, -1.2312859296798706, 8.575215339660645, 0.3063471019268036, -1.1206324100494385, -0.7731833457946777, 0.3583984375, -0.153564453125, -0.8857421875
7, 2217991789, -4.284019947052002, -1.227423071861267, 8.562321662902832, 0.39167582988739014, -1.2255165576934814, -0.688021183013916, 0.36083984375, -0.154541015625, -0.8857421875
8, 2218008456, -4.297800064086914, -1.2020303010940552, 8.587525367736816, 0.19061611592769623, -1.10160231590271, -0.8257662653923035, 0.35693359375, -0.155029296875, -0.8837890625
9, 2218025123, -4.278904914855957, -1.2057369947433472, 8.586767196655273, 0.03676062449812889, -1.0262624025344849, -0.8864298462867737, 0.35791015625, -0.155029296875, -0.88427734375
10, 2218041790, -4.301046371459961, -1.2007455825805664, 8.57887077331543, -0.14674796164035797, -0.8505082130432129, -0.9713872671127319, 0.35888671875, -0.154052734375, -0.884765625
11, 2218058457, -4.288697242736816, -1.2231849431991577, 8.55573558807373, -0.1574924737215042, -0.8593700528144836, -0.924170196056366, 0.35888671875, -0.154052734375, -0.884765625
12, 2218075124, -4.273067474365234, -1.2271701097488403, 8.565613746643066, -0.18009568750858307, -0.8514941334724426, -0.9068687558174133, 0.359375, -0.156494140625, -0.88720703125
13, 2218091791, -4.277048110961914, -1.2147619724273682, 8.557181358337402, -0.016904383897781372, -0.847383439540863, -0.8937423825263977, 0.357421875, -0.155517578125, -0.884765625
14, 2218108458, -4.292515754699707, -1.2110213041305542, 8.570050239562988, -0.20098286867141724, -0.8533127903938293, -0.8981605768203735, 0.35888671875, -0.153564453125, -0.88623046875
15, 2218125125, -4.287048816680908, -1.2204911708831787, 8.582944869995117, -0.09711054712533951, -0.7864122986793518, -0.8669642210006714, 0.35888671875, -0.153564453125, -0.8837890625
16, 2218141792, -4.2960638999938965, -1.2026422023773193, 8.570209503173828, -0.16453596949577332, -0.7207797169685364, -0.9263857007026672, 0.35791015625, -0.153076171875, -0.88525390625
17, 2218158459, -4.285827159881592, -1.223887324333191, 8.593453407287598, -0.16937677562236786, -0.7756420969963074, -0.8763384819030762, 0.35888671875, -0.154541015625, -0.8857421875
18, 2218175126, -4.281482696533203, -1.2092769145965576, 8.582097053527832, -0.215748593211174, -0.9150266051292419, -0.8813841342926025, 0.359375, -0.153564453125, -0.88623046875
19, 2218191793, -4.289122581481934, -1.219218373298645, 8.576923370361328, -0.1557508260011673, -0.8722918033599854, -0.9288445711135864, 0.359375, -0.157958984375, -0.88623046875
20, 2218208460, -4.2861714363098145, -1.2073476314544678, 8.583259582519531, -0.17954501509666443, -0.928882896900177, -0.8742126226425171, 0.3583984375, -0.155517578125, -0.88623046875
21, 2218225127, -4.279911994934082, -1.2147327661514282, 8.58372688293457, -0.05735963582992554, -0.9706571102142334, -0.9170113801956177, 0.3603515625, -0.154541015625, -0.8857421875
22, 2218241794, -4.2814435958862305, -1.2101811170578003, 8.5840482711792, -0.12812753021717072, -1.042731523513794, -0.927525520324707, 0.35791015625, -0.154052734375, -0.8837890625
23, 2218258461, -4.251960754394531, -1.2280586957931519, 8.576313972473145, -0.14435316622257233, -0.8984678387641907, -0.9016438126564026, 0.35791015625, -0.154052734375, -0.88623046875
24, 2218275128, -4.298134803771973, -1.2087714672088623, 8.592716217041016, -0.16485613584518433, -0.7683809995651245, -0.8943569660186768, 0.35888671875, -0.154541015625, -0.884765625
25, 2218291795, -4.281601905822754, -1.213871955871582, 8.593362808227539, -0.19881859421730042, -0.8098351359367371, -0.862994372844696, 0.357421875, -0.154541015625, -0.886474609375
26, 2218308462, -4.2712178230285645, -1.2022294998168945, 8.575672149658203, -0.1475931853055954, -0.7705068588256836, -0.9091484546661377, 0.3583984375, -0.154541015625, -0.88671875
27, 2218325129, -4.286102771759033, -1.2029218673706055, 8.57157039642334, -0.17192526161670685, -0.661716878414154, -0.8661447167396545, 0.355224609375, -0.155517578125, -0.885009765625
28, 2218341796, -4.282891750335693, -1.2165077924728394, 8.575859069824219, -0.10574202984571457, -0.7316523194313049, -0.9123883247375488, 0.357421875, -0.153564453125, -0.885986328125
29, 2218358463, -4.297590732574463, -1.2158684730529785, 8.582002639770508, -0.07754245400428772, -0.8655043840408325, -0.9466710686683655, 0.35693359375, -0.155029296875, -0.886962890625
30, 2218375130, -4.282707214355469, -1.2044448852539062, 8.568740844726562, -0.17873822152614594, -0.8974177241325378, -0.9414973258972168, 0.35791015625, -0.155029296875, -0.887451171875
31, 2218391797, -4.270895481109619, -1.2158252000808716, 8.569551467895508, -0.16200032830238342, -0.6994059681892395, -0.8677710294723511, 0.35693359375, -0.155517578125, -0.88525390625
32, 2218408464, -4.2754034996032715, -1.2206960916519165, 8.585229873657227, -0.18683181703090668, -0.6833595633506775, -0.8211047053337097, 0.35791015625, -0.155517578125, -0.8857421875
33, 2218425131, -4.27626895904541, -1.2140729427337646, 8.572166442871094, -0.13752737641334534, -0.7774606943130493, -0.8608940243721008, 0.35791015625, -0.156982421875, -0.88427734375
34, 2218441798, -4.277233600616455, -1.204587459564209, 8.580965042114258, -0.15582767128944397, -0.8174165487289429, -0.813997209072113, 0.359375, -0.154541015625, -0.88671875
35, 2218458465, -4.276619911193848, -1.2112525701522827, 8.56523323059082, -0.15142227709293365, -0.7229952812194824, -0.9090971350669861, 0.35693359375, -0.155517578125, -0.885498046875
36, 2218475132, -4.276117324829102, -1.2214062213897705, 8.584909439086914, -0.16813457012176514, -0.8150728940963745, -0.8890551328659058, 0.35888671875, -0.155029296875, -0.887939453125
37, 2218491799, -4.276546955108643, -1.2119227647781372, 8.570858001708984, -0.21515950560569763, -0.875045120716095, -0.9429572224617004, 0.357421875, -0.155029296875, -0.886474609375
38, 2218508466, -4.279193878173828, -1.2203370332717896, 8.575419425964355, -0.18173490464687347, -0.8360625505447388, -0.8634041547775269, 0.35693359375, -0.155029296875, -0.887939453125
39, 2218525133, -4.284365177154541, -1.2049447298049927, 8.576562881469727, -0.15107649564743042, -0.7791894674301147, -0.9394993782043457, 0.35693359375, -0.155517578125, -0.88427734375
40, 2218541800, -4.269551753997803, -1.2068358659744263, 8.587808609008789, -0.1460692137479782, -0.7038112878799438, -0.8703450560569763, 0.355224609375, -0.154541015625, -0.885009765625
41, 2218558467, -4.28063440322876, -1.2135531902313232, 8.590202331542969, -0.2755798399448395, -0.6708093881607056, -0.8545932769775391, 0.355712890625, -0.153076171875, -0.885498046875
42, 2218575134, -4.278594970703125, -1.2145700454711914, 8.573551177978516, -0.2546670436859131, -0.7216761708259583, -0.8898620009422302, 0.35693359375, -0.155029296875, -0.886962890625
43, 2218591801, -4.271492958068848, -1.2091296911239624, 8.586743354797363, -0.2591492831707001, -0.6906080842018127, -0.8376889824867249, 0.35791015625, -0.153076171875, -0.887939453125
44, 2218608468, -4.279300212860107, -1.1989808082580566, 8.571146011352539, -0.1899181604385376, -0.6407015919685364, -0.8988136053085327, 0.3564453125, -0.155517578125, -0.887939453125
45, 2218625135, -4.260359764099121, -1.21976637840271, 8.576854705810547, -0.3008852005004883, -0.7870270609855652, -0.8639932870864868, 0.35791015625, -0.155029296875, -0.88525390625
46, 2218641802, -4.294692039489746, -1.195772647857666, 8.591926574707031, -0.36034104228019714, -0.6031127572059631, -0.9178476333618164, 0.35791015625, -0.153564453125, -0.8837890625
47, 2218658469, -4.270975589752197, -1.212229609489441, 8.579229354858398, -0.4126845896244049, -0.4690965414047241, -0.9241573810577393, 0.3583984375, -0.156005859375, -0.8857421875
48, 2218675136, -4.280058860778809, -1.2306678295135498, 8.585978507995605, -0.35469749569892883, -0.3472825586795807, -1.0363922119140625, 0.35986328125, -0.156494140625, -0.88671875
49, 2218691803, -4.27529764175415, -1.2216975688934326, 8.576446533203125, -0.4311129152774811, -0.2681137025356293, -1.0212551355361938, 0.35888671875, -0.155029296875, -0.887939453125
50, 2218708470, -4.282151699066162, -1.225664734840393, 8.57492446899414, -0.31472882628440857, -0.38937705755233765, -0.9432644248008728, 0.3583984375, -0.154541015625, -0.88623046875
51, 2218725137, -4.289058208465576, -1.2155344486236572, 8.596962928771973, -0.31625279784202576, -0.5411195158958435, -0.8947283625602722, 0.35595703125, -0.155517578125, -0.8837890625
52, 2218741804, -4.268986701965332, -1.2032097578048706, 8.569842338562012, -0.26044273376464844, -0.526225745677948, -0.789716362953186, 0.3583984375, -0.154052734375, -0.8837890625
53, 2218758471, -4.2782182693481445, -1.2060878276824951, 8.564257621765137, -0.24256505072116852, -0.5383405089378357, -0.8668873906135559, 0.35888671875, -0.153076171875, -0.8857421875
54, 2218775138, -4.279961585998535, -1.2217849493026733, 8.562531471252441, -0.2646816670894623, -0.5584849119186401, -0.8247674107551575, 0.35888671875, -0.156005859375, -0.8837890625
55, 2218791805, -4.283117294311523, -1.2138488292694092, 8.60839557647705, -0.22315064072608948, -0.6071234345436096, -0.6989065408706665, 0.35791015625, -0.155029296875, -0.886962890625
56, 2218808472, -4.290886878967285, -1.2043471336364746, 8.564319610595703, -0.11912466585636139, -0.7286940813064575, -0.8427858352661133, 0.35791015625, -0.154052734375, -0.88525390625
57, 2218825139, -4.304093837738037, -1.206815481185913, 8.590961456298828, -0.12998443841934204, -0.8029324412345886, -0.8784899115562439, 0.357421875, -0.154541015625, -0.8857421875
58, 2218841806, -4.296177864074707, -1.1802996397018433, 8.564723014831543, -0.12961307168006897, -0.7902414798736572, -0.875096321105957, 0.35791015625, -0.156005859375, -0.8837890625
59, 2218858473, -4.2789506912231445, -1.2119643688201904, 8.590901374816895, -0.17334675788879395, -0.7000207304954529, -0.9117096662521362, 0.35693359375, -0.156005859375, -0.885986328125
60, 2218875140, -4.2646942138671875, -1.2011586427688599, 8.578790664672852, -0.28587615489959717, -0.8487024307250977, -0.8556306958198547, 0.359375, -0.156005859375, -0.88671875
61, 2218891807, -4.278967380523682, -1.196851134300232, 8.563274383544922, -0.2799724042415619, -0.8210662603378296, -0.9522032737731934, 0.3583984375, -0.154541015625, -0.884765625
62, 2218908474, -4.2869110107421875, -1.2085646390914917, 8.573254585266113, -0.2719428241252899, -0.8204004168510437, -1.0015718936920166, 0.3564453125, -0.156982421875, -0.88525390625
63, 2218925141, -4.269669055938721, -1.2035826444625854, 8.577399253845215, -0.29229211807250977, -0.7886149883270264, -0.997127890586853, 0.359375, -0.154052734375, -0.88525390625
64, 2218941808, -4.275166034698486, -1.204686164855957, 8.584237098693848, -0.35398030281066895, -0.8155723214149475, -0.9410233497619629, 0.35791015625, -0.153564453125, -0.886474609375
65, 2218958475, -4.271091938018799, -1.2109694480895996, 8.567089080810547, -0.3368070125579834, -0.7181288003921509, -0.9094557166099548, 0.35693359375, -0.155029296875, -0.886962890625
66, 2218975142, -4.278323173522949, -1.2164736986160278, 8.58612060546875, -0.3746754229068756, -0.6780577898025513, -0.9666489362716675, 0.357421875, -0.156005859375, -0.8837890625
67, 2218991809, -4.27797269821167, -1.2109743356704712, 8.562917709350586, -0.43801555037498474, -0.6195712089538574, -0.9324560761451721, 0.35986328125, -0.152587890625, -0.88623046875
68, 2219008476, -4.294169902801514, -1.2174725532531738, 8.5748872756958, -0.3314923644065857, -0.6334660649299622, -0.93964022397995, 0.355712890625, -0.155029296875, -0.884521484375
69, 2219025143, -4.270733833312988, -1.2327752113342285, 8.577207565307617, -0.32666438817977905, -0.7571114301681519, -0.9608092308044434, 0.355712890625, -0.153076171875, -0.885498046875
70, 2219041810, -4.271103382110596, -1.2078710794448853, 8.546174049377441, -0.36330336332321167, -0.737530529499054, -0.943930447101593, 0.3564453125, -0.154541015625, -0.886474609375
71, 2219058477, -4.2704081535339355, -1.2040693759918213, 8.581388473510742, -0.3328114151954651, -0.7155420184135437, -0.8944467306137085, 0.35791015625, -0.153564453125, -0.887939453125
72, 2219075144, -4.269952297210693, -1.2124203443527222, 8.58670425415039, -0.11968813836574554, -0.8081703186035156, -0.8484079241752625, 0.35888671875, -0.154541015625, -0.886962890625
73, 2219091811, -4.288204193115234, -1.1999627351760864, 8.554397583007812, -0.15275415778160095, -0.8746353387832642, -0.8539402484893799, 0.356201171875, -0.152587890625, -0.886474609375
74, 2219108478, -4.279727458953857, -1.2072334289550781, 8.583738327026367, -0.03288670629262924, -1.020243525505066, -0.8170707821846008, 0.357421875, -0.154541015625, -0.886962890625
75, 2219125145, -4.274182319641113, -1.1926504373550415, 8.573735237121582, -0.12673163414001465, -1.061915397644043, -0.8315932154655457, 0.356689453125, -0.153076171875, -0.886474609375
76, 2219141812, -4.278347015380859, -1.2267264127731323, 8.570989608764648, 0.2192511260509491, -1.1063790321350098, -0.7908048629760742, 0.3583984375, -0.155517578125, -0.886962890625
77, 2219158479, -4.271880626678467, -1.2057909965515137, 8.557234764099121, 0.5754212737083435, -1.1475385427474976, -0.6802348494529724, 0.35693359375, -0.156005859375, -0.887451171875
78, 2219175146, -4.24025297164917, -1.214243769645691, 8.576424598693848, 0.1439753919839859, -0.8580254912376404, -0.642187237739563, 0.35693359375, -0.155029296875, -0.887939453125
79, 2219191813, -4.265946388244629, -1.1929649114608765, 8.602903366088867, 0.09111076593399048, -0.7505416870117188, -0.7460595369338989, 0.357421875, -0.155517578125, -0.884765625
80, 2219208480, -4.2783026695251465, -1.192873477935791, 8.608955383300781, -0.0025740761775523424, -0.7026843428611755, -0.8278408050537109, 0.357421875, -0.156494140625, -0.887451171875
81, 2219225147, -4.268424987792969, -1.2043894529342651, 8.590407371520996, -0.0069026220589876175, -0.7432165741920471, -0.8572953939437866, 0.355224609375, -0.155517578125, -0.884521484375
82, 2219241814, -4.248178005218506, -1.196449875831604, 8.575438499450684, -0.09731544554233551, -0.7830954194068909, -0.8656708002090454, 0.35791015625, -0.157470703125, -0.887939453125
83, 2219258481, -4.277472972869873, -1.1986844539642334, 8.570799827575684, -0.24038797616958618, -0.6823478937149048, -0.8737900257110596, 0.35693359375, -0.154052734375, -0.886962890625
84, 2219275148, -4.273345947265625, -1.1848551034927368, 8.57475471496582, -0.2921128273010254, -0.7045925855636597, -0.933032214641571, 0.35595703125, -0.156494140625, -0.887451171875
85, 2219291815, -4.266408920288086, -1.1952446699142456, 8.604583740234375, -0.3097343444824219, -0.7291294932365417, -0.9321998357772827, 0.3564453125, -0.155517578125, -0.886474609375
86, 2219308482, -4.261105537414551, -1.2101131677627563, 8.58220386505127, -0.3384590744972229, -0.6446460485458374, -0.9711822867393494, 0.35693359375, -0.154541015625, -0.886474609375
87, 2219325149, -4.248753070831299, -1.2061678171157837, 8.572772979736328, -0.33819010853767395, -0.6115288138389587, -0.9683136940002441, 0.355712890625, -0.155029296875, -0.888427734375
88, 2219341816, -4.268945217132568, -1.2016854286193848, 8.57761287689209, -0.4185749888420105, -0.47482386231422424, -0.8862780928611755, 0.355224609375, -0.155517578125, -0.886474609375
89, 2219358483, -4.259036064147949, -1.1915339231491089, 8.572553634643555, -0.2685619592666626, -0.5033023357391357, -0.8957016468048096, 0.3564453125, -0.156005859375, -0.887451171875
90, 2219375150, -4.27032995223999, -1.2096834182739258, 8.587505340576172, -0.21213719248771667, -0.45567554235458374, -0.9166144728660583, 0.35693359375, -0.156005859375, -0.886474609375
91, 2219391817, -4.276581764221191, -1.2090911865234375, 8.59213924407959, -0.2964029312133789, -0.5857624411582947, -0.8290062546730042, 0.3583984375, -0.155517578125, -0.88671875
92, 2219408484, -4.27044153213501, -1.2021712064743042, 8.578736305236816, -0.23399761319160461, -0.6616144180297852, -0.8185562491416931, 0.35693359375, -0.156982421875, -0.886962890625
93, 2219425151, -4.279342174530029, -1.203762173652649, 8.580146789550781, -0.2132769674062729, -0.7699050307273865, -0.9431876540184021, 0.35595703125, -0.156494140625, -0.884765625
94, 2219441818, -4.26381778717041, -1.2028602361679077, 8.55851936340332, -0.1992155909538269, -0.6873040795326233, -0.9098528027534485, 0.35595703125, -0.156982421875, -0.888427734375
95, 2219458485, -4.266201496124268, -1.1948362588882446, 8.595783233642578, -0.33797237277030945, -0.5835853219032288, -0.9657651782035828, 0.35888671875, -0.154541015625, -0.887451171875
96, 2219475152, -4.268808364868164, -1.2055062055587769, 8.565225601196289, -0.36987295746803284, -0.5219098925590515, -0.9718737006187439, 0.3583984375, -0.154541015625, -0.889404296875
97, 2219491819, -4.271656513214111, -1.218408226966858, 8.551334381103516, -0.3721909523010254, -0.6057146787643433, -0.9646126627922058, 0.35791015625, -0.157470703125, -0.886962890625
98, 2219508486, -4.269479274749756, -1.1997692584991455, 8.57848072052002, -0.2457922250032425, -0.539531409740448, -0.9632038474082947, 0.35693359375, -0.154541015625, -0.886474609375
99, 2219525153, -4.278082847595215, -1.194736123085022, 8.575551986694336, -0.2231762409210205, -0.588823139667511, -0.953548014163971, 0.357421875, -0.154052734375, -0.886962890625
100, 2219541820, -4.279546737670898, -1.2148001194000244, 8.579887390136719, -0.25159353017807007, -0.6265634894371033, -0.8566678762435913, 0.35693359375, -0.156494140625, -0.8857421875
101, 2219558487, -4.2712531089782715, -1.2043458223342896, 8.574666976928711, -0.23767302930355072, -0.5846994519233704, -0.8705884218215942, 0.359375, -0.157470703125, -0.88427734375
102, 2219575154, -4.275482654571533, -1.2042244672775269, 8.573071479797363, -0.3060717284679413, -0.620979905128479, -0.9398451447486877, 0.35791015625, -0.156005859375, -0.887451171875
103, 2219591821, -4.273199081420898, -1.1979433298110962, 8.585221290588379, -0.3341432511806488, -0.5408889651298523, -0.9181127548217773, 0.35791015625, -0.155517578125, -0.888916015625
104, 2219608488, -4.275278091430664, -1.194285273551941, 8.564351081848145, -0.32255348563194275, -0.6973697543144226, -0.9979603290557861, 0.3583984375, -0.156005859375, -0.887451171875
105, 2219625155, -4.273859024047852, -1.2126997709274292, 8.564313888549805, -0.37847888469696045, -0.5767852067947388, -0.9225054383277893, 0.357421875, -0.154052734375, -0.887939453125
106, 2219641822, -4.2621965408325195, -1.2034971714019775, 8.576299667358398, -0.4250299334526062, -0.5599831938743591, -0.9295616745948792, 0.35791015625, -0.155517578125, -0.886962890625
107, 2219658489, -4.269111633300781, -1.2005908489227295, 8.585333824157715, -0.4035409092903137, -0.656069278717041, -0.9199056625366211, 0.35791015625, -0.155517578125, -0.886474609375
108, 2219675156, -4.276556015014648, -1.206993579864502, 8.582171440124512, -0.3112070858478546, -0.585006833076477, -0.9105186462402344, 0.35791015625, -0.154541015625, -0.8857421875
109, 2219691823, -4.272678852081299, -1.2063976526260376, 8.56999397277832, -0.3770189583301544, -0.5858264565467834, -0.9295104146003723, 0.356689453125, -0.154052734375, -0.885986328125
110, 2219708490, -4.267804145812988, -1.2108209133148193, 8.594562530517578, -0.3094398081302643, -0.6221579909324646, -0.9016438126564026, 0.355712890625, -0.155517578125, -0.887939453125
111, 2219725157, -4.276150226593018, -1.2135777473449707, 8.596827507019043, -0.37791532278060913, -0.6730889081954956, -0.8423247933387756, 0.3564453125, -0.155517578125, -0.887939453125
112, 2219741824, -4.268044471740723, -1.2095141410827637, 8.592639923095703, -0.25137582421302795, -0.6735755205154419, -0.898250162601471, 0.355712890625, -0.153564453125, -0.886474609375
113, 2219758491, -4.279336929321289, -1.2089005708694458, 8.584113121032715, -0.3274071514606476, -0.7024154663085938, -0.9396018385887146, 0.355712890625, -0.154541015625, -0.885986328125
114, 2219775158, -4.288819313049316, -1.2073487043380737, 8.596470832824707, -0.2487889528274536, -0.7424864768981934, -0.9044996500015259, 0.357421875, -0.156982421875, -0.886962890625
115, 2219791825, -4.281341075897217, -1.2050976753234863, 8.571261405944824, -0.24862252175807953, -0.7704940438270569, -0.8790663480758667, 0.35693359375, -0.155517578125, -0.88525390625
116, 2219808492, -4.280642509460449, -1.2004507780075073, 8.589835166931152, -0.22699253261089325, -0.7072434425354004, -0.8510075211524963, 0.357421875, -0.155517578125, -0.88427734375
117, 2219825159, -4.286196708679199, -1.2139804363250732, 8.592719078063965, -0.28880879282951355, -0.7062061429023743, -0.8851364254951477, 0.355712890625, -0.154541015625, -0.885498046875
118, 2219841826, -4.279726028442383, -1.2001644372940063, 8.568553924560547, -0.23495805263519287, -0.732638418674469, -0.8901309370994568, 0.35498046875, -0.156005859375, -0.885986328125
119, 2219858493, -4.274668216705322, -1.2024470567703247, 8.571818351745605, -0.21687552332878113, -0.6976770758628845, -0.9140403866767883, 0.357666015625, -0.152099609375, -0.88525390625
120, 2219875160, -4.277583599090576, -1.1969449520111084, 8.601017951965332, -0.1989850550889969, -0.8014085292816162, -0.9093917012214661, 0.35693359375, -0.156005859375, -0.887451171875
121, 2219891827, -4.284452438354492, -1.2040337324142456, 8.574520111083984, -0.21311046183109283, -0.9141300320625305, -0.9576075673103333, 0.354736328125, -0.155517578125, -0.885986328125
122, 2219908494, -4.270951271057129, -1.208387017250061, 8.569828987121582, -0.26046833395957947, -0.867630124092102, -0.9490144848823547, 0.35595703125, -0.155029296875, -0.885986328125
123, 2219925161, -4.271822452545166, -1.2043912410736084, 8.585493087768555, -0.24758517742156982, -0.8836509585380554, -0.9635498523712158, 0.355712890625, -0.153076171875, -0.8837890625
124, 2219941828, -4.258693695068359, -1.2013217210769653, 8.597912788391113, -0.25569161772727966, -0.9059852361679077, -0.9422143697738647, 0.35791015625, -0.155029296875, -0.888427734375
125, 2219958495, -4.280172824859619, -1.2024707794189453, 8.571420669555664, -0.16641850769519806, -0.8418381810188293, -0.9240549206733704, 0.355224609375, -0.155029296875, -0.885009765625
126, 2219975162, -4.271763324737549, -1.2065961360931396, 8.570921897888184, -0.23778831958770752, -0.8930636644363403, -0.9010419845581055, 0.3564453125, -0.154541015625, -0.886962890625
127, 2219991829, -4.260418891906738, -1.2043663263320923, 8.590317726135254, -0.26933035254478455, -0.8074275851249695, -0.9324175119400024, 0.3564453125, -0.156005859375, -0.888427734375
128, 2220008496, -4.2689208984375, -1.2037166357040405, 8.585555076599121, -0.1932862550020218, -0.8793864846229553, -0.947733998298645, 0.3564453125, -0.156494140625, -0.887451171875
129, 2220025163, -4.276719093322754, -1.2004234790802002, 8.590988159179688, -0.26739659905433655, -0.810065746307373, -0.9601432681083679, 0.3564453125, -0.154541015625, -0.886962890625
130, 2220041830, -4.267991065979004, -1.1866835355758667, 8.589408874511719, -0.31663039326667786, -0.767876386642456, -0.9089084267616272, 0.3564453125, -0.154541015625, -0.885986328125
131, 2220058497, -4.262540340423584, -1.2029892206192017, 8.567573547363281, -0.4799051582813263, -0.6185082793235779, -0.9890856742858887, 0.35693359375, -0.156982421875, -0.888427734375
132, 2220075164, -4.289897918701172, -1.2089664936065674, 8.586981773376465, -0.5937920808792114, -0.6352334022521973, -1.0790246725082397, 0.357421875, -0.155517578125, -0.8857421875
133, 2220091831, -4.260543346405029, -1.2040176391601562, 8.595919609069824, -0.6922600269317627, -0.6842305064201355, -1.0662822723388672, 0.355712890625, -0.155029296875, -0.886474609375
134, 2220108498, -4.275638103485107, -1.2075997591018677, 8.605694770812988, -0.6674541234970093, -0.7641677260398865, -0.9987544417381287, 0.355712890625, -0.154541015625, -0.887451171875
135, 2220125165, -4.260101795196533, -1.2234498262405396, 8.564056396484375, -0.543616771697998, -0.7727352380752563, -0.9535096883773804, 0.354736328125, -0.152099609375, -0.889404296875
136, 2220141832, -4.2724409103393555, -1.2248303890228271, 8.570693016052246, -0.39101630449295044, -0.8436053991317749, -0.9340823888778687, 0.356201171875, -0.153076171875, -0.884521484375
137, 2220158499, -4.274531841278076, -1.2065826654434204, 8.570915222167969, -0.24017028510570526, -0.8999021649360657, -0.9552769064903259, 0.357421875, -0.154052734375, -0.8857421875
138, 2220175166, -4.271416187286377, -1.2149626016616821, 8.57181453704834, -0.39038872718811035, -0.9617696404457092, -0.9654962420463562, 0.3564453125, -0.154541015625, -0.885986328125
139, 2220191833, -4.26281213760376, -1.2176642417907715, 8.577213287353516, -0.3720757067203522, -0.8907073140144348, -0.8875057101249695, 0.353759765625, -0.154052734375, -0.889404296875
140, 2220208500, -4.266648292541504, -1.2075597047805786, 8.583429336547852, -0.18649886548519135, -0.7999358177185059, -0.8438103199005127, 0.355712890625, -0.154541015625, -0.887451171875
141, 2220225167, -4.263972759246826, -1.2210372686386108, 8.571122169494629, -0.2161327600479126, -0.6371286511421204, -0.9325839281082153, 0.355712890625, -0.154541015625, -0.886474609375
142, 2220241834, -4.273664474487305, -1.2217527627944946, 8.565997123718262, -0.4430100619792938, -0.867220401763916, -0.988573431968689, 0.355712890625, -0.154052734375, -0.885986328125
143, 2220258501, -4.262451171875, -1.2121964693069458, 8.57217788696289, -0.34917792677879333, -0.6987783908843994, -0.9857431650161743, 0.35595703125, -0.155029296875, -0.887451171875
144, 2220275168, -4.263861656188965, -1.2108392715454102, 8.573974609375, -0.3022170066833496, -0.7330353856086731, -0.9604377150535583, 0.357177734375, -0.153076171875, -0.887451171875
145, 2220291835, -4.2704901695251465, -1.21205735206604, 8.569083213806152, -0.26383644342422485, -0.6931694149971008, -0.9349660277366638, 0.355712890625, -0.153076171875, -0.885498046875
146, 2220308502, -4.275184631347656, -1.2116434574127197, 8.6017484664917, -0.30626386404037476, -0.6146791577339172, -0.9039233326911926, 0.357666015625, -0.152099609375, -0.887451171875
147, 2220325169, -4.269444465637207, -1.2077580690383911, 8.588735580444336, -0.2247130125761032, -0.715951681137085, -0.8601384162902832, 0.357421875, -0.154541015625, -0.8857421875
148, 2220341836, -4.26820182800293, -1.2073817253112793, 8.58962345123291, -0.19452844560146332, -0.668056070804596, -0.9268723726272583, 0.355224609375, -0.152587890625, -0.886474609375
149, 2220358503, -4.265899658203125, -1.2086845636367798, 8.591337203979492, -0.16430546343326569, -0.697395384311676, -0.8840864300727844, 0.355224609375, -0.154541015625, -0.886474609375
150, 2220375170, -4.253862380981445, -1.2188456058502197, 8.584794044494629, -0.12176276743412018, -0.5804990530014038, -0.8190428614616394, 0.355224609375, -0.154541015625, -0.886474609375
151, 2220391837, -4.263221263885498, -1.216457724571228, 8.604248046875, -0.1611422896385193, -0.6437111496925354, -0.8687699437141418, 0.354736328125, -0.154541015625, -0.888427734375
152, 2220408504, -4.257756233215332, -1.2215808629989624, 8.560515403747559, -0.05908850207924843, -0.6732298731803894, -0.8722405433654785, 0.354248046875, -0.155029296875, -0.887451171875
153, 2220425171, -4.260538578033447, -1.2153147459030151, 8.585474014282227, -0.06483854353427887, -0.5895402431488037, -0.925309956073761, 0.35693359375, -0.156005859375, -0.886474609375
154, 2220441838, -4.255661487579346, -1.214768409729004, 8.582194328308105, -0.23068077862262726, -0.5574219822883606, -0.9044229388237, 0.3564453125, -0.154052734375, -0.885009765625
155, 2220458505, -4.258688926696777, -1.2099884748458862, 8.58038330078125, -0.0706910490989685, -0.5840976238250732, -0.8310936689376831, 0.35791015625, -0.156494140625, -0.88427734375
156, 2220475172, -4.266008377075195, -1.2044628858566284, 8.581289291381836, -0.06509467214345932, -0.6668650507926941, -0.8113974332809448, 0.3564453125, -0.155029296875, -0.88525390625
157, 2220491839, -4.242143630981445, -1.211971640586853, 8.58580493927002, -0.10624148696660995, -0.6287789344787598, -0.8550543189048767, 0.356689453125, -0.153564453125, -0.885986328125
158, 2220508506, -4.265163421630859, -1.2186992168426514, 8.580240249633789, -0.1638060212135315, -0.5333331823348999, -0.8499830365180969, 0.35693359375, -0.156494140625, -0.8857421875
159, 2220525173, -4.262119770050049, -1.2146251201629639, 8.5935697555542, -0.16338340938091278, -0.4900093674659729, -0.8358832001686096, 0.355712890625, -0.153076171875, -0.886962890625
160, 2220541840, -4.2512431144714355, -1.2096213102340698, 8.591158866882324, -0.30174320936203003, -0.40945741534233093, -0.9045636653900146, 0.3564453125, -0.156494140625, -0.886962890625
161, 2220558507, -4.274311065673828, -1.2032687664031982, 8.576037406921387, -0.3389584422111511, -0.43833571672439575, -0.9660981297492981, 0.3564453125, -0.155029296875, -0.884765625
162, 2220575174, -4.276337623596191, -1.2142465114593506, 8.596465110778809, -0.3012949824333191, -0.47047966718673706, -0.9165632724761963, 0.35693359375, -0.156494140625, -0.886474609375
163, 2220591841, -4.266034126281738, -1.22096586227417, 8.576830863952637, -0.28298190236091614, -0.5211544036865234, -0.8791046142578125, 0.35888671875, -0.154541015625, -0.887451171875
164, 2220608508, -4.259045124053955, -1.2093175649642944, 8.578432083129883, -0.3635338544845581, -0.4920327961444855, -0.8996973037719727, 0.3564453125, -0.154052734375, -0.885498046875
165, 2220625175, -4.2742695808410645, -1.2020363807678223, 8.5736722946167, -0.34387609362602234, -0.4375929534435272, -0.9555200934410095, 0.357421875, -0.153564453125, -0.886474609375
166, 2220641842, -4.265475273132324, -1.2180583477020264, 8.574782371520996, -0.31367871165275574, -0.47628092765808105, -0.874161422252655, 0.356201171875, -0.154052734375, -0.885498046875
167, 2220658509, -4.280453681945801, -1.2166790962219238, 8.563705444335938, -0.3269973695278168, -0.5441802144050598, -0.9276279807090759, 0.354736328125, -0.155029296875, -0.885498046875
168, 2220675176, -4.268237113952637, -1.2148783206939697, 8.580292701721191, -0.38088640570640564, -0.5554113388061523, -0.8850852251052856, 0.35791015625, -0.155517578125, -0.886474609375
169, 2220691843, -4.265640735626221, -1.210762619972229, 8.581034660339355, -0.33450186252593994, -0.5225759744644165, -0.8966494202613831, 0.35693359375, -0.154052734375, -0.886962890625
170, 2220708510, -4.2631516456604, -1.2080549001693726, 8.570260047912598, -0.3237445056438446, -0.5522738099098206, -0.851827085018158, 0.356201171875, -0.154052734375, -0.888427734375
171, 2220725177, -4.262582778930664, -1.2040910720825195, 8.587623596191406, -0.28604263067245483, -0.594918966293335, -0.9293567538261414, 0.35693359375, -0.154541015625, -0.887451171875
172, 2220741844, -4.25164270401001, -1.2147626876831055, 8.581788063049316, -0.3808452785015106, -0.5460442900657654, -0.9169129133224487, 0.355712890625, -0.153076171875, -0.885986328125
173, 2220758511, -4.266117572784424, -1.1940999031066895, 8.582526206970215, -0.35428765416145325, -0.473565936088562, -0.9146422743797302, 0.356201171875, -0.153564453125, -0.885986328125
174, 2220775178, -4.261692047119141, -1.2010948657989502, 8.561511039733887, -0.34643739461898804, -0.6421487927436829, -0.9349659085273743, 0.357421875, -0.155517578125, -0.884765625
175, 2220791845, -4.257038116455078, -1.2170170545578003, 8.590106010437012, -0.3903759717941284, -0.4797899127006531, -0.9148727655410767, 0.357421875, -0.154052734375, -0.887939453125
176, 2220808512, -4.26182222366333, -1.2157096862792969, 8.571935653686523, -0.3044837713241577, -0.5206805467605591, -0.9403061866760254, 0.357421875, -0.155517578125, -0.885986328125
177, 2220825179, -4.264621257781982, -1.2135188579559326, 8.57310962677002, -0.3566952347755432, -0.3718835711479187, -0.8650688529014587, 0.356689453125, -0.153076171875, -0.88427734375
178, 2220841846, -4.259070873260498, -1.2241326570510864, 8.566840171813965, -0.405641108751297, -0.41966405510902405, -0.9135152697563171, 0.35693359375, -0.154541015625, -0.886962890625
179, 2220858513, -4.280213356018066, -1.2136309146881104, 8.600180625915527, -0.29557058215141296, -0.37631461024284363, -0.8689877390861511, 0.3583984375, -0.156494140625, -0.887451171875
180, 2220875180, -4.279157638549805, -1.2190635204315186, 8.592204093933105, -0.36756783723831177, -0.3314923644065857, -0.8239861130714417, 0.357421875, -0.156005859375, -0.886962890625
181, 2220891847, -4.280764102935791, -1.2164766788482666, 8.573712348937988, -0.19697445631027222, -0.374944269657135, -0.8642109036445618, 0.355712890625, -0.152587890625, -0.885498046875
182, 2220908514, -4.284455299377441, -1.229782223701477, 8.581440925598145, -0.21624800562858582, -0.6731913685798645, -0.8228975534439087, 0.3583984375, -0.154541015625, -0.88427734375
183, 2220925181, -4.273314476013184, -1.217536211013794, 8.567174911499023, -0.22924643754959106, -0.6088778376579285, -0.846525251865387, 0.35693359375, -0.156005859375, -0.885498046875
184, 2220941848, -4.28538703918457, -1.2110084295272827, 8.572975158691406, -0.17661237716674805, -0.5599448084831238, -0.833859920501709, 0.356689453125, -0.154052734375, -0.886962890625
185, 2220958515, -4.275701522827148, -1.2139203548431396, 8.563950538635254, -0.1010805144906044, -0.6732041835784912, -0.8401861786842346, 0.35693359375, -0.156005859375, -0.888427734375
186, 2220975182, -4.264215469360352, -1.2127039432525635, 8.56421184539795, -0.12131454050540924, -0.6841279864311218, -0.8533511161804199, 0.3564453125, -0.154541015625, -0.8837890625
187, 2220991849, -4.2783894538879395, -1.2263660430908203, 8.586607933044434, -0.047242626547813416, -0.5748898983001709, -0.7818533182144165, 0.35595703125, -0.156005859375, -0.88427734375
188, 2221008516, -4.279597759246826, -1.2229708433151245, 8.598506927490234, -0.07539097219705582, -0.6575420498847961, -0.8326944708824158, 0.357421875, -0.154541015625, -0.884765625
189, 2221025183, -4.27264928817749, -1.1938095092773438, 8.579137802124023, -0.06665705889463425, -0.6780449748039246, -0.861867368221283, 0.35791015625, -0.154052734375, -0.8837890625
190, 2221041850, -4.262737274169922, -1.2157416343688965, 8.566441535949707, -0.14854085445404053, -0.6040626168251038, -0.873969316482544, 0.355224609375, -0.153564453125, -0.887939453125
191, 2221058517, -4.275759696960449, -1.2229478359222412, 8.582040786743164, -0.16000251471996307, -0.6560437083244324, -0.9095581769943237, 0.356201171875, -0.153564453125, -0.886474609375
192, 2221075184, -4.288820743560791, -1.2253296375274658, 8.581518173217773, -0.2432565838098526, -0.5368293523788452, -0.88632732629776, 0.35595703125, -0.156494140625, -0.886962890625
193, 2221091851, -4.3024067878723145, -1.190579891204834, 8.583889961242676, -0.21865561604499817, -0.6235026717185974, -0.8747889399528503, 0.35595703125, -0.155029296875, -0.885986328125
194, 2221108518, -4.243777751922607, -1.2222682237625122, 8.561894416809082, -0.266512930393219, -0.6435958743095398, -0.8898235559463501, 0.35888671875, -0.154541015625, -0.88623046875
195, 2221125185, -4.274916172027588, -1.204267978668213, 8.580367088317871, -0.21462160348892212, -0.5305030345916748, -0.8275718688964844, 0.35791015625, -0.155029296875, -0.8857421875
196, 2221141852, -4.278639316558838, -1.215815544128418, 8.582260131835938, -0.22019235789775848, -0.7040162682533264, -0.9093276262283325, 0.35595703125, -0.154541015625, -0.884765625
197, 2221158519, -4.27425479888916, -1.1797583103179932, 8.594200134277344, -0.30463746190071106, -0.7180392146110535, -0.95883709192276, 0.35693359375, -0.154541015625, -0.88525390625
198, 2221175186, -4.279201507568359, -1.2105128765106201, 8.593806266784668, -0.3388432264328003, -0.5806911587715149, -1.032281517982483, 0.35791015625, -0.154052734375, -0.886474609375
199, 2221191853, -4.271488189697266, -1.2053176164627075, 8.572493553161621, -0.39164382219314575, -0.6502936482429504, -0.9815810918807983, 0.35791015625, -0.155029296875, -0.886474609375
200, 2221208520, -4.255600929260254, -1.182857632637024, 8.593656539916992, -0.32155460119247437, -0.7487360239028931, -0.9115687012672424, 0.35693359375, -0.154541015625, -0.886962890625
201, 2221225187, -4.276522636413574, -1.2150005102157593, 8.581744194030762, -0.560662031173706, -0.6199554204940796, -1.0956984758377075, 0.36083984375, -0.155029296875, -0.884765625
202, 2221241854, -4.298340320587158, -1.1842414140701294, 8.581113815307617, -0.8274950981140137, -0.5475099086761475, -1.1836652755737305, 0.35693359375, -0.155029296875, -0.88427734375
203, 2221258521, -4.279247283935547, -1.243825078010559, 8.567607879638672, -0.574697732925415, -0.6704251766204834, -1.1787348985671997, 0.356201171875, -0.154052734375, -0.886962890625
204, 2221275188, -4.2935872077941895, -1.2290802001953125, 8.554300308227539, -0.1471833735704422, -0.7770764827728271, -1.0124187469482422, 0.3564453125, -0.155517578125, -0.885986328125
205, 2221291855, -4.281782150268555, -1.2317821979522705, 8.591935157775879, 0.05269172787666321, -0.7324592471122742, -0.9811713099479675, 0.35888671875, -0.155029296875, -0.88671875
206, 2221308522, -4.270793914794922, -1.206889033317566, 8.573262214660645, 0.062296487390995026, -0.6237460970878601, -0.9044100046157837, 0.35693359375, -0.153564453125, -0.88525390625
207, 2221325189, -4.266951084136963, -1.2083851099014282, 8.583235740661621, -0.3233475089073181, -0.028583772480487823, -1.1770060062408447, 0.35595703125, -0.156494140625, -0.886474609375
208, 2221341856, -4.2764081954956055, -1.250151515007019, 8.53084659576416, -0.5939458012580872, -0.08256254345178604, -1.227475881576538, 0.35986328125, -0.154541015625, -0.88720703125
209, 2221358523, -4.2941975593566895, -1.2353256940841675, 8.562521934509277, -1.0587010383605957, -0.15712112188339233, -1.3467415571212769, 0.3583984375, -0.153076171875, -0.884765625
210, 2221375190, -4.285482883453369, -1.2182159423828125, 8.596393585205078, -1.2400132417678833, -0.44320210814476013, -1.4326591491699219, 0.35986328125, -0.155517578125, -0.88427734375
211, 2221391857, -4.313467502593994, -1.2196985483169556, 8.588830947875977, -2.059504508972168, -0.5462805032730103, -1.6692566871643066, 0.3583984375, -0.151611328125, -0.8857421875
212, 2221408524, -4.291959762573242, -1.214712142944336, 8.571229934692383, -2.4821906089782715, -0.6124892830848694, -1.811061143875122, 0.359130859375, -0.150390625, -0.887451171875
213, 2221425191, -4.263423919677734, -1.247577428817749, 8.556356430053711, -2.5017077922821045, -0.8516477942466736, -1.7695175409317017, 0.357177734375, -0.151611328125, -0.885986328125
214, 2221441858, -4.260961532592773, -1.25211501121521, 8.561902046203613, -2.189901828765869, -0.7705658078193665, -1.6150544881820679, 0.358642578125, -0.149658203125, -0.8857421875
215, 2221458525, -4.27832555770874, -1.2800241708755493, 8.559402465820312, -1.7791478633880615, -0.8190557360649109, -1.496959924697876, 0.35888671875, -0.151611328125, -0.88623046875
216, 2221475192, -4.2769455909729, -1.241479516029358, 8.54458236694336, -1.577883243560791, -0.8690772652626038, -1.4494867324829102, 0.36083984375, -0.151123046875, -0.88671875
217, 2221491859, -4.300292491912842, -1.2539546489715576, 8.602567672729492, -1.6222058534622192, -0.9811072945594788, -1.3839823007583618, 0.357666015625, -0.14892578125, -0.88525390625
218, 2221508526, -4.283517360687256, -1.2476701736450195, 8.586136817932129, -1.660701870918274, -0.9057419896125793, -1.4544044733047485, 0.358154296875, -0.150634765625, -0.886962890625
219, 2221525193, -4.322738170623779, -1.232276201248169, 8.608543395996094, -2.519021511077881, -0.8510843515396118, -1.7439814805984497, 0.358642578125, -0.14990234375, -0.888916015625
220, 2221541860, -4.268040657043457, -1.2399922609329224, 8.552840232849121, -1.8161067962646484, -0.301218181848526, -1.5587632656097412, 0.36083984375, -0.1494140625, -0.888427734375
221, 2221558527, -4.2445220947265625, -1.367713451385498, 8.566253662109375, -1.6240757703781128, -0.5650802254676819, -1.5018390417099, 0.356201171875, -0.149658203125, -0.887939453125
222, 2221575194, -4.2683281898498535, -1.3111952543258667, 8.551456451416016, -1.0282601118087769, -0.8146631121635437, -1.2677900791168213, 0.357666015625, -0.14697265625, -0.885009765625
223, 2221591861, -4.252132892608643, -1.3220752477645874, 8.544486045837402, -0.33582091331481934, -0.9328657388687134, -0.9324046969413757, 0.358154296875, -0.14697265625, -0.888427734375
224, 2221608528, -4.275047779083252, -1.2934409379959106, 8.5548095703125, -0.33932986855506897, -0.9728215932846069, -0.856053352355957, 0.358154296875, -0.14794921875, -0.889404296875
225, 2221625195, -4.261285781860352, -1.3038183450698853, 8.572029113769531, -0.1810433715581894, -1.1585520505905151, -0.8365747928619385, 0.355224609375, -0.14697265625, -0.885498046875
226, 2221641862, -4.264944076538086, -1.3036305904388428, 8.572979927062988, 0.05846739560365677, -1.0345096588134766, -0.8303508758544922, 0.357177734375, -0.1474609375, -0.888427734375
227, 2221658529, -4.252366542816162, -1.2890080213546753, 8.551264762878418, 0.22888150811195374, -0.8999535441398621, -0.6563510298728943, 0.359619140625, -0.14501953125, -0.887939453125
228, 2221675196, -4.294929504394531, -1.2490406036376953, 8.598918914794922, -0.15645518898963928, -0.9261168837547302, -0.8312346339225769, 0.357177734375, -0.150634765625, -0.886962890625
229, 2221691863, -4.299501895904541, -1.2615870237350464, 8.562471389770508, -0.3673885762691498, -0.9377066493034363, -0.9358881115913391, 0.359130859375, -0.1484375, -0.887939453125
230, 2221708530, -4.285315990447998, -1.2709102630615234, 8.55117416381836, 0.009150137193500996, -0.8237044215202332, -0.9064206480979919, 0.356201171875, -0.14599609375, -0.887451171875
231, 2221725197, -4.2622761726379395, -1.3053072690963745, 8.592952728271484, -0.20952469110488892, -0.9446731209754944, -1.0131357908248901, 0.358154296875, -0.14794921875, -0.888427734375
232, 2221741864, -4.346790790557861, -1.2400743961334229, 8.58459186553955, -0.2473546415567398, -0.6570553779602051, -0.9031037092208862, 0.357177734375, -0.1494140625, -0.887939453125
233, 2221758531, -4.499388217926025, -1.1626060009002686, 8.763639450073242, -2.704381227493286, -0.2509148120880127, -2.0276293754577637, 0.356689453125, -0.14794921875, -0.887939453125
234, 2221775198, -4.2813310623168945, -1.2718676328659058, 8.54908561706543, -3.710076332092285, -0.7506954669952393, -3.078915596008301, 0.358154296875, -0.1455078125, -0.887451171875
235, 2221791865, -4.0322651863098145, -1.4023346900939941, 8.433347702026367, -2.6187708377838135, -0.10773982852697372, -2.4763128757476807, 0.358154296875, -0.14453125, -0.887939453125
236, 2221808532, -4.091874122619629, -1.3931903839111328, 8.539103507995605, -0.6110678315162659, 1.9008530378341675, -0.8680144548416138, 0.355712890625, -0.14599609375, -0.885986328125
237, 2221825199, -4.177978038787842, -1.1832396984100342, 8.681763648986816, -1.6838558912277222, 4.675259113311768, -0.21774637699127197, 0.359130859375, -0.1455078125, -0.886474609375
238, 2221841866, -3.841519594192505, -1.379675030708313, 8.54273509979248, -3.8896877765655518, 10.750968933105469, 0.9371628165245056, 0.362060546875, -0.14404296875, -0.88671875
239, 2221858533, -3.7280404567718506, -1.1882747411727905, 8.798996925354004, -5.961645603179932, 18.835432052612305, 2.3054087162017822, 0.36767578125, -0.142578125, -0.88330078125
240, 2221875200, -3.1834585666656494, -1.4442873001098633, 9.222951889038086, -8.408676147460938, 35.32828140258789, 5.596010684967041, 0.3740234375, -0.143310546875, -0.882080078125
241, 2221891867, -1.9076049327850342, -1.31882643699646, 9.971344947814941, -18.31216812133789, 75.45291137695312, 18.126388549804688, 0.389404296875, -0.138427734375, -0.877197265625
242, 2221908534, -3.901594400405884, -2.2771568298339844, 10.852705955505371, -21.70757484436035, 98.62641906738281, 32.478939056396484, 0.412841796875, -0.13671875, -0.86328125
243, 2221925201, -2.5050883293151855, -1.9999425411224365, 14.336736679077148, -15.416664123535156, 83.97428894042969, 52.72202682495117, 0.43408203125, -0.142578125, -0.85498046875
244, 2221941868, -4.543971061706543, -2.543809413909912, 16.834369659423828, 30.142932891845703, 40.042266845703125, 71.81562042236328, 0.443359375, -0.151611328125, -0.8466796875
245, 2221958535, 0.797084629535675, -2.8101518154144287, 11.843613624572754, 43.21631622314453, 17.196584701538086, 71.66980743408203, 0.446044921875, -0.17578125, -0.841552734375
246, 2221975202, 3.2004759311676025, -3.428593158721924, 9.950629234313965, 39.55448532104492, 23.187334060668945, 64.33592224121094, 0.447265625, -0.1904296875, -0.833740234375
247, 2221991869, 4.039271354675293, -4.8123626708984375, 10.020275115966797, 27.15252113342285, 23.589460372924805, 44.69346618652344, 0.450927734375, -0.205810546875, -0.83154296875
248, 2222008536, 4.321323394775391, -5.539159297943115, 9.93665599822998, 27.397375106811523, 20.60296630859375, 21.025897979736328, 0.4541015625, -0.2138671875, -0.827880859375
249, 2222025203, 3.014538526535034, -4.8910136222839355, 11.499149322509766, 17.75505256652832, 11.238646507263184, -5.947009563446045, 0.457763671875, -0.220947265625, -0.82373046875
250, 2222041870, 1.2073216438293457, -4.673024654388428, 12.86471176147461, -5.592887878417969, -17.71007537841797, -37.59083938598633, 0.461669921875, -0.2177734375, -0.82421875
251, 2222058537, 0.4238843321800232, -4.545290470123291, 11.867273330688477, -11.537688255310059, -52.08503723144531, -61.237548828125, 0.451416015625, -0.206787109375, -0.8291015625
252, 2222075204, -0.25421738624572754, -3.623185396194458, 10.512439727783203, -7.649252891540527, -71.41547393798828, -74.54865264892578, 0.44091796875, -0.197265625, -0.838623046875
253, 2222091871, -0.8623863458633423, -2.898313045501709, 9.45488166809082, -1.7031627893447876, -79.64196014404297, -75.24170684814453, 0.42626953125, -0.186279296875, -0.8505859375
254, 2222108538, -0.8240175247192383, -2.7146739959716797, 7.973329067230225, 12.208929061889648, -75.65280151367188, -65.29698181152344, 0.407958984375, -0.180908203125, -0.859375
255, 2222125205, -2.42397403717041, -2.338092803955078, 9.985363006591797, 21.789142608642578, -59.7451057434082, -49.982940673828125, 0.39794921875, -0.179443359375, -0.863037109375
256, 2222141872, -5.773336887359619, -1.951541781425476, 13.869608879089355, -7.2811198234558105, -76.02922821044922, -53.366188049316406, 0.383056640625, -0.174072265625, -0.871337890625
257, 2222158539, -6.3646769523620605, -2.379102945327759, 13.283745765686035, -37.87800979614258, -107.70123291015625, -61.65962219238281, 0.36279296875, -0.16015625, -0.8818359375
258, 2222175206, -5.824157238006592, -1.998853325843811, 11.24399185180664, -39.42353057861328, -127.95799255371094, -58.644901275634766, 0.333251953125, -0.14306640625, -0.896728515625
259, 2222191873, -5.119199275970459, -0.6543670296669006, 9.508163452148438, -37.33085250854492, -128.91256713867188, -46.42512130737305, 0.30078125, -0.129638671875, -0.91259765625
260, 2222208540, -5.024539470672607, -0.3101777136325836, 8.490200996398926, -35.42436981201172, -117.81890869140625, -29.198516845703125, 0.269287109375, -0.116455078125, -0.923095703125
261, 2222225207, -5.897057056427002, -0.22319839894771576, 9.138323783874512, -27.156070709228516, -106.56009674072266, -10.170689582824707, 0.241455078125, -0.10791015625, -0.93017578125
262, 2222241874, -7.36944055557251, -0.2893413305282593, 10.35033130645752, -34.29911422729492, -106.86797332763672, -2.575765371322632, 0.215087890625, -0.10205078125, -0.939208984375
263, 2222258541, -7.383415699005127, -0.7374591827392578, 9.370838165283203, -45.8570556640625, -114.56855773925781, -3.267958879470825, 0.18603515625, -0.089111328125, -0.94482421875
264, 2222275208, -6.230332851409912, -0.9934995174407959, 7.2752299308776855, -43.26730728149414, -110.7575454711914, -4.404618263244629, 0.154052734375, -0.076416015625, -0.951416015625
265, 2222291875, -6.03287935256958, -0.4118698537349701, 6.7072296142578125, -32.804840087890625, -97.98674011230469, -4.113003253936768, 0.12353515625, -0.066650390625, -0.954833984375
266, 2222308542, -6.24509334564209, 0.2541685402393341, 6.544291019439697, -27.09471893310547, -85.85245513916016, -3.4066500663757324, 0.10302734375, -0.05908203125, -0.9609375
267, 2222325209, -6.38771915435791, 0.37551721930503845, 5.931262969970703, -21.9384765625, -73.6475830078125, 0.05871192738413811, 0.0791015625, -0.05419921875, -0.961181640625
268, 2222341876, -7.213043212890625, 0.38297706842422485, 6.159298896789551, -15.738567352294922, -62.17637252807617, 5.4550275802612305, 0.062744140625, -0.04638671875, -0.961669921875
269, 2222358543, -7.193134307861328, 0.4175112545490265, 5.38898229598999, -10.246255874633789, -57.57126998901367, 7.647321701049805, 0.046875, -0.046875, -0.96533203125
270, 2222375210, -6.061594009399414, 0.7862126231193542, 3.49937105178833, 9.791852951049805, -42.341644287109375, 16.342477798461914, 0.032470703125, -0.047607421875, -0.965087890625
271, 2222391877, -6.532125949859619, 1.0742719173431396, 3.578561305999756, 20.80548667907715, -14.454801559448242, 22.222299575805664, 0.025634765625, -0.05224609375, -0.9658203125
272, 2222408544, -7.276618480682373, 0.2685330808162689, 3.7749545574188232, 17.492525100708008, 9.962078094482422, 18.07402229309082, 0.025146484375, -0.0576171875, -0.96728515625
273, 2222425211, -7.422561168670654, -0.4553513526916504, 0.7752087712287903, 52.88551330566406, 57.46329116821289, 30.17334747314453, 0.037353515625, -0.071044921875, -0.965576171875
274, 2222441878, -5.93337869644165, 3.543452024459839, 1.1598379611968994, 42.60334396362305, 116.72181701660156, 39.9014778137207, 0.06787109375, -0.08642578125, -0.9609375
275, 2222458545, 0.6855072975158691, -2.9861021041870117, 12.747049331665039, 5.3089423179626465, 131.49034118652344, 21.620450973510742, 0.10009765625, -0.0908203125, -0.957275390625
276, 2222475212, -3.7140538692474365, -4.3436384201049805, 14.676807403564453, -23.320022583007812, 152.2027587890625, 28.585275650024414, 0.14013671875, -0.0869140625, -0.9541015625
277, 2222491879, -6.657497406005859, -0.5483760237693787, 7.479579925537109, -31.197032928466797, 167.2829132080078, 24.439693450927734, 0.187255859375, -0.078125, -0.947265625
278, 2222508546, -8.751426696777344, -1.9582633972167969, 13.07024097442627, -25.436235427856445, 155.72813415527344, 22.387495040893555, 0.23193359375, -0.0712890625, -0.9375
279, 2222525213, -7.900649070739746, -5.7905402183532715, 11.698436737060547, -21.064855575561523, 124.41992950439453, 15.71851921081543, 0.265625, -0.066162109375, -0.9287109375
280, 2222541880, -4.652125835418701, -0.4821133613586426, 9.76632308959961, -14.540543556213379, 107.5325927734375, 11.537910461425781, 0.29541015625, -0.066162109375, -0.916748046875
281, 2222558547, -4.76569938659668, -0.6605454087257385, 9.65589714050293, -12.957377433776855, 97.8672103881836, 12.94931697845459, 0.32421875, -0.0634765625, -0.90771484375
282, 2222575214, -10.731518745422363, -4.9746174812316895, 12.194879531860352, 28.627052307128906, 63.88632583618164, 18.253450393676758, 0.34619140625, -0.06982421875, -0.90185546875
283, 2222591881, -5.637530326843262, 0.18717864155769348, 10.641719818115234, 24.829355239868164, 25.952669143676758, 13.89713191986084, 0.353759765625, -0.078369140625, -0.897216796875
284, 2222608548, -4.972494602203369, -2.8047330379486084, 8.6846923828125, 21.246496200561523, 10.811127662658691, 9.795223236083984, 0.3564453125, -0.084716796875, -0.89794921875
285, 2222625215, -4.439808368682861, -0.9497862458229065, 8.868728637695312, 23.104915618896484, 0.5129659175872803, 8.904230117797852, 0.35595703125, -0.0888671875, -0.89697265625
286, 2222641882, -4.271856784820557, -1.9236602783203125, 8.593243598937988, 24.08629608154297, -4.139584541320801, 7.685484409332275, 0.357421875, -0.098876953125, -0.8955078125
287, 2222658549, -4.130693435668945, -1.4584988355636597, 8.659101486206055, 23.708057403564453, -4.671804904937744, 6.340649127960205, 0.355712890625, -0.104248046875, -0.89599609375
288, 2222675216, -3.818591594696045, -1.4609968662261963, 8.474287033081055, 22.0048885345459, -2.897672176361084, 4.786106586456299, 0.355712890625, -0.111328125, -0.89453125
289, 2222691883, -3.631592273712158, -1.4986047744750977, 8.34558391571045, 21.549348831176758, -0.07130587100982666, 3.8448500633239746, 0.352294921875, -0.119873046875, -0.89404296875
290, 2222708550, -3.800910711288452, -1.6873538494110107, 8.560609817504883, 16.322715759277344, 6.015718936920166, 2.224625587463379, 0.3583984375, -0.12353515625, -0.892333984375
291, 2222725217, -3.961146831512451, -1.7394341230392456, 8.591567993164062, 7.66035795211792, 8.1111421585083, 0.9333975315093994, 0.3603515625, -0.126953125, -0.892333984375
292, 2222741884, -4.4556145668029785, -1.4593853950500488, 8.88107967376709, 6.771955966949463, 6.969353199005127, 0.25063958764076233, 0.359375, -0.1279296875, -0.888916015625
293, 2222758551, -4.55609130859375, -1.308324933052063, 8.785252571105957, 2.7626953125, 4.51058292388916, -0.919816255569458, 0.36279296875, -0.12939453125, -0.888916015625
294, 2222775218, -4.167448997497559, -1.6547516584396362, 8.651603698730469, -2.1027133464813232, 7.734646320343018, -0.9936960339546204, 0.365966796875, -0.12744140625, -0.889892578125
295, 2222791885, -3.9684810638427734, -1.6456445455551147, 8.61234188079834, -3.2136402130126953, 12.283748626708984, -0.5642736554145813, 0.367431640625, -0.12841796875, -0.88623046875
296, 2222808552, -4.232235431671143, -1.5553269386291504, 8.515767097473145, -1.721341848373413, 17.735361099243164, 0.44422072172164917, 0.371826171875, -0.1298828125, -0.884765625
297, 2222825219, -4.6052632331848145, -1.5879319906234741, 8.453656196594238, -0.27520880103111267, 19.22728157043457, 2.9819560050964355, 0.37744140625, -0.13037109375, -0.884521484375
298, 2222841886, -4.747627258300781, -1.5227515697479248, 8.45789909362793, 1.0908924341201782, 18.353002548217773, 5.460097312927246, 0.38134765625, -0.12744140625, -0.881591796875
299, 2222858553, -4.721408367156982, -1.557544231414795, 8.404019355773926, 2.5772998332977295, 16.230627059936523, 6.582874298095703, 0.38427734375, -0.12841796875, -0.876953125
300, 2222875220, -4.580750465393066, -1.6166176795959473, 8.432418823242188, 3.1703364849090576, 15.659549713134766, 7.139847755432129, 0.390869140625, -0.13037109375, -0.877685546875
301, 2222891887, -4.67877197265625, -1.5846779346466064, 8.392955780029297, 4.159154891967773, 15.730589866638184, 9.019989967346191, 0.394287109375, -0.13671875, -0.876708984375
302, 2222908554, -4.661602973937988, -1.4296133518218994, 8.370469093322754, 4.442880630493164, 16.29123878479004, 9.905333518981934, 0.397705078125, -0.13671875, -0.875244140625
303, 2222925221, -4.580852508544922, -1.3913114070892334, 8.456445693969727, 5.685945987701416, 18.75861358642578, 10.58572769165039, 0.40283203125, -0.139892578125, -0.87158203125
304, 2222941888, -4.495532512664795, -1.2355672121047974, 8.352741241455078, 4.5835652351379395, 24.56268882751465, 10.431178092956543, 0.4052734375, -0.142333984375, -0.869140625
305, 2222958555, -4.23753023147583, -1.2352497577667236, 8.310341835021973, 1.0259027481079102, 36.38547897338867, 11.14714527130127, 0.415283203125, -0.143310546875, -0.8662109375
306, 2222975222, -4.422847747802734, -1.5861719846725464, 8.283276557922363, 1.6226760149002075, 49.57137680053711, 15.158271789550781, 0.42431640625, -0.145263671875, -0.859130859375
307, 2222991889, -4.668894290924072, -1.1245254278182983, 8.42383861541748, 4.209470272064209, 64.91756439208984, 18.092750549316406, 0.439697265625, -0.148193359375, -0.851806640625
308, 2223008556, -4.787669658660889, -0.9325298070907593, 8.279496192932129, 0.9397627711296082, 87.30149841308594, 19.39626693725586, 0.460205078125, -0.152099609375, -0.840087890625
309, 2223025223, -4.903702259063721, -1.0593205690383911, 8.188279151916504, -0.08143938332796097, 113.28030395507812, 21.04560089111328, 0.484619140625, -0.156494140625, -0.826416015625
310, 2223041890, -4.944386959075928, -1.0092103481292725, 8.113025665283203, 1.5316040515899658, 141.67120361328125, 25.526988983154297, 0.515869140625, -0.157958984375, -0.803955078125
311, 2223058557, -5.156153678894043, -0.8855807781219482, 8.107728958129883, 6.7676897048950195, 172.38027954101562, 30.53696060180664, 0.5517578125, -0.166015625, -0.779296875
312, 2223075224, -5.66950798034668, -0.7880688309669495, 8.020882606506348, 12.187654495239258, 200.90338134765625, 35.07442855834961, 0.591796875, -0.17236328125, -0.7470703125
313, 2223091891, -6.241795063018799, -0.6551235914230347, 7.242567539215088, 12.085618019104004, 230.9462432861328, 36.36063003540039, 0.63916015625, -0.182373046875, -0.7021484375
314, 2223108558, -5.87769889831543, -0.8481508493423462, 7.614523887634277, 13.903912544250488, 283.26763916015625, 33.54802322387695, 0.68994140625, -0.19384765625, -0.651611328125
315, 2223125225, -6.314131736755371, -2.220567226409912, 8.177824020385742, 0.3028355836868286, 389.6517333984375, 40.80509948730469, 0.7509765625, -0.200927734375, -0.574462890625
316, 2223141892, -7.685972690582275, -2.3352556228637695, 10.918708801269531, 11.264472007751465, 518.9309692382812, 66.62619018554688, 0.8203125, -0.21484375, -0.460693359375
317, 2223158559, -16.312896728515625, -0.33354848623275757, 13.690712928771973, 41.76453399658203, 555.0037231445312, 90.18045043945312, 0.882080078125, -0.240966796875, -0.317626953125
318, 2223175226, -17.352632522583008, -3.0992445945739746, 12.99466323852539, 50.9522705078125, 532.6058959960938, 95.31639099121094, 0.9169921875, -0.26806640625, -0.17333984375
319, 2223191893, -18.84376335144043, -6.706971645355225, 14.087800979614258, 100.7245101928711, 509.29534912109375, 124.15460205078125, 0.921875, -0.30322265625, -0.0263671875
320, 2223208560, -15.354756355285645, -7.272337436676025, 19.536222457885742, 114.18634033203125, 422.7895202636719, 109.33524322509766, 0.906494140625, -0.333251953125, 0.10400390625
321, 2223225227, -17.644975662231445, -1.3129618167877197, 22.76580238342285, 122.6069107055664, 232.27102661132812, 95.06473541259766, 0.88671875, -0.35302734375, 0.1865234375
322, 2223241894, -28.571060180664062, -0.6691902875900269, 37.74950408935547, 58.3905029296875, 25.803491592407227, 91.76737213134766, 0.869140625, -0.373046875, 0.2177734375
323, 2223258561, -6.619347095489502, -3.151836633682251, 21.912487030029297, -9.854784965515137, -254.63316345214844, 51.62628936767578, 0.873291015625, -0.39111328125, 0.16455078125
324, 2223275228, -0.9052790999412537, -2.987147808074951, 9.273893356323242, -12.25446891784668, -293.8249206542969, 64.20169830322266, 0.877685546875, -0.40966796875, 0.087646484375
325, 2223291895, 1.392730712890625, -3.4444611072540283, 3.9168753623962402, -8.143904685974121, -264.3669738769531, 67.85297393798828, 0.8759765625, -0.4287109375, 0.019775390625
326, 2223308562, -1.5610026121139526, -5.038673400878906, 4.976639747619629, -6.324142932891846, -223.54759216308594, 38.86902618408203, 0.867431640625, -0.44189453125, -0.0400390625
327, 2223325229, -6.027429580688477, -7.6407012939453125, 8.37417984008789, 6.034398078918457, -244.63975524902344, -17.91794204711914, 0.86181640625, -0.439697265625, -0.098388671875
328, 2223341896, -7.516237258911133, -7.70624303817749, 8.382051467895508, 46.430240631103516, -304.40789794921875, -70.99585723876953, 0.858154296875, -0.42919921875, -0.16845703125
329, 2223358563, -6.1976823806762695, -3.9312973022460938, 5.335447788238525, 74.85143280029297, -338.44873046875, -95.19927215576172, 0.849853515625, -0.4111328125, -0.24267578125
330, 2223375230, -6.751697063446045, -1.351534128189087, 5.833926200866699, 50.48655700683594, -334.4699401855469, -88.55762481689453, 0.83544921875, -0.3935546875, -0.316650390625
331, 2223391897, -8.653202056884766, -0.2992633581161499, 7.3437957763671875, 0.16624820232391357, -329.75445556640625, -70.03038024902344, 0.811279296875, -0.379150390625, -0.396484375
332, 2223408564, -9.210415840148926, -0.2999562621116638, 7.908802032470703, -38.55895233154297, -337.4241027832031, -41.77339553833008, 0.776123046875, -0.36376953125, -0.474609375
333, 2223425231, -10.478193283081055, -1.5335829257965088, 8.480533599853516, -61.15422821044922, -343.19158935546875, -10.511859893798828, 0.724609375, -0.352294921875, -0.55517578125
334, 2223441898, -12.78121280670166, -2.951167106628418, 9.098217010498047, -88.36262512207031, -345.7446594238281, -5.578991889953613, 0.668212890625, -0.341064453125, -0.631103515625
335, 2223458565, -13.061427116394043, -4.525696754455566, 8.017533302307129, -110.13003540039062, -341.921630859375, -27.736351013183594, 0.602294921875, -0.31591796875, -0.7060546875
336, 2223475232, -12.571318626403809, -4.941484451293945, 7.543019771575928, -107.96227264404297, -309.2239685058594, -50.8400764465332, 0.537109375, -0.286376953125, -0.768310546875
337, 2223491899, -13.66849136352539, -1.7646000385284424, 12.089818000793457, -117.73017120361328, -273.1072998046875, -62.53767776489258, 0.47705078125, -0.25341796875, -0.82177734375
338, 2223508566, -17.5718936920166, 2.5738885402679443, 16.34376335144043, -161.6661834716797, -281.0586242675781, -63.879066467285156, 0.413330078125, -0.20703125, -0.86474609375
339, 2223525233, -20.38746452331543, 4.500203609466553, 15.324411392211914, -203.61241149902344, -313.9524230957031, -49.332366943359375, 0.3388671875, -0.154052734375, -0.9072265625
340, 2223541900, -23.726287841796875, 4.774313449859619, 11.366801261901855, -210.85435485839844, -325.2427978515625, -30.5406551361084, 0.24755859375, -0.0947265625, -0.942138671875
341, 2223558567, -25.415937423706055, 2.1015548706054688, 6.050256729125977, -179.48727416992188, -311.4652099609375, -29.71729278564453, 0.161865234375, -0.041259765625, -0.96533203125
342, 2223575234, -26.24896240234375, -0.5260998606681824, -0.8409179449081421, -117.41522979736328, -270.6263122558594, -59.13528823852539, 0.08251953125, -4.8828125E-4, -0.975341796875
343, 2223591901, -26.960241317749023, 2.4460830688476562, -6.819309234619141, -42.757102966308594, -210.1888427734375, -78.29261779785156, 0.01708984375, 0.017578125, -0.979248046875
344, 2223608568, -28.924396514892578, 8.646184921264648, -11.035980224609375, -22.603538513183594, -139.4294891357422, -72.35401916503906, -0.030517578125, 0.024169921875, -0.9765625
345, 2223625235, -27.116455078125, 8.649076461791992, -14.750541687011719, 9.203325271606445, -48.55607604980469, -83.19203186035156, -0.053466796875, 0.02294921875, -0.9765625
346, 2223641902, -25.01785659790039, 8.302024841308594, -10.62499713897705, 85.45431518554688, 57.52557373046875, -84.02460479736328, -0.045166015625, 0.004150390625, -0.976806640625
347, 2223658569, 4.8947882652282715, -0.2771523892879486, 14.814133644104004, 212.23655700683594, 67.35245513916016, -48.98418045043945, -0.028076171875, -0.050537109375, -0.975341796875
348, 2223675236, 20.124427795410156, -5.8341450691223145, 22.18019676208496, 39.60673904418945, 163.9923095703125, -8.88849925994873, 0.016357421875, -0.0771484375, -0.973876953125
349, 2223691903, -5.921667575836182, 15.878538131713867, -3.6047937870025635, 67.53221130371094, 267.4259338378906, 72.95124816894531, 0.078125, -0.09033203125, -0.97119140625
350, 2223708570, -15.319579124450684, 16.902698516845703, 23.688688278198242, 1.8623206615447998, 289.2708740234375, 66.58229064941406, 0.162841796875, -0.097900390625, -0.958984375
351, 2223725237, -10.858575820922852, -9.888157844543457, 11.871829986572266, -17.130464553833008, 234.74305725097656, 42.57902908325195, 0.227294921875, -0.099365234375, -0.947509765625
352, 2223741904, -14.168034553527832, -11.627877235412598, 14.558773040771484, -7.275832653045654, 199.55841064453125, 19.102861404418945, 0.288818359375, -0.09814453125, -0.9296875
353, 2223758571, -7.682447910308838, 3.4671804904937744, 12.787725448608398, 21.632627487182617, 116.10624694824219, 20.703889846801758, 0.3232421875, -0.10205078125, -0.91552734375
354, 2223775238, -7.025725841522217, -3.0402796268463135, 10.965118408203125, 15.700492858886719, 83.84905242919922, 1.011580228805542, 0.34765625, -0.10791015625, -0.91015625
355, 2223791905, -6.951712608337402, -0.5491977334022522, 11.758018493652344, 23.151891708374023, 50.10291290283203, 1.0445802211761475, 0.365234375, -0.11376953125, -0.9013671875
356, 2223808572, -4.54610013961792, -2.311720371246338, 9.13365364074707, 19.574386596679688, 26.92208480834961, 1.4680041074752808, 0.374267578125, -0.11962890625, -0.896728515625
357, 2223825239, -3.9004251956939697, -0.9179074168205261, 8.907633781433105, 20.59093475341797, 18.673959732055664, 7.127720832824707, 0.380126953125, -0.126708984375, -0.89404296875
358, 2223841906, -4.479976177215576, -1.3683215379714966, 9.045903205871582, 24.75829315185547, 13.124149322509766, 10.687387466430664, 0.3837890625, -0.1328125, -0.892822265625
359, 2223858573, -4.759671211242676, -1.3459339141845703, 9.401371002197266, 21.656654357910156, 6.445059299468994, 10.932926177978516, 0.3828125, -0.139892578125, -0.888427734375
360, 2223875240, -4.551515579223633, -2.391543388366699, 8.671116828918457, 18.218509674072266, 3.6183810234069824, 8.806675910949707, 0.385009765625, -0.144287109375, -0.888427734375
361, 2223891907, -4.072254180908203, -2.0261037349700928, 8.76122760772705, 22.110803604125977, 2.237267255783081, 11.391251564025879, 0.384521484375, -0.15234375, -0.885498046875
362, 2223908574, -4.232508182525635, -1.5752873420715332, 8.789541244506836, 23.188228607177734, 1.1633893251419067, 14.318450927734375, 0.3837890625, -0.160888671875, -0.88623046875
363, 2223925241, -4.271439552307129, -1.297463059425354, 8.809677124023438, 19.21168327331543, 2.426558256149292, 14.468572616577148, 0.38525390625, -0.1689453125, -0.884765625
364, 2223941908, -4.520910263061523, -1.0915207862854004, 8.707982063293457, 12.468127250671387, 2.987410306930542, 11.86408805847168, 0.386474609375, -0.17529296875, -0.8857421875
365, 2223958575, -4.653716564178467, -0.977527916431427, 8.77978801727295, 9.867074012756348, 3.9255011081695557, 9.208867073059082, 0.385986328125, -0.177001953125, -0.88232421875
366, 2223975242, -4.240360736846924, -0.9579334259033203, 8.499378204345703, 5.444716930389404, 3.3387250900268555, 6.276617527008057, 0.386962890625, -0.179443359375, -0.88330078125
367, 2223991909, -4.190851211547852, -1.4023984670639038, 8.71567440032959, 6.051085948944092, 3.9084417819976807, 6.146903038024902, 0.387451171875, -0.182861328125, -0.88232421875
368, 2224008576, -4.195374011993408, -1.2418649196624756, 8.539937973022461, 7.352223873138428, 3.74658203125, 7.526543140411377, 0.389892578125, -0.183837890625, -0.882080078125
369, 2224025243, -4.4183268547058105, -1.2260000705718994, 8.574398040771484, 9.024480819702148, 3.6048812866210938, 9.352336883544922, 0.38671875, -0.1884765625, -0.880615234375
370, 2224041910, -4.082986354827881, -1.1919701099395752, 8.531173706054688, 7.782290458679199, 5.29747200012207, 10.890623092651367, 0.3896484375, -0.19091796875, -0.875244140625
371, 2224058577, -3.9252007007598877, -1.309813380241394, 8.594406127929688, 5.874760150909424, 11.960077285766602, 13.255208969116211, 0.392578125, -0.196533203125, -0.876220703125
372, 2224075244, -3.900038719177246, -1.7994050979614258, 8.637628555297852, 11.234090805053711, 20.243745803833008, 18.929502487182617, 0.397216796875, -0.198486328125, -0.87451171875
373, 2224091911, -4.379471302032471, -1.2578558921813965, 8.852163314819336, 17.38456153869629, 27.21924591064453, 26.310909271240234, 0.39990234375, -0.2080078125, -0.87255859375
374, 2224108578, -3.6693620681762695, -0.41233429312705994, 8.903316497802734, 15.260993957519531, 41.94938659667969, 27.290563583374023, 0.406982421875, -0.214599609375, -0.86376953125
375, 2224125245, -4.025023460388184, -0.3824566602706909, 8.811074256896973, 8.028400421142578, 75.13414764404297, 28.68621826171875, 0.42236328125, -0.220458984375, -0.85595703125
376, 2224141912, -4.016971588134766, 0.0276761706918478, 8.429924011230469, 5.589972496032715, 117.99559020996094, 27.290058135986328, 0.44775390625, -0.228271484375, -0.842529296875
377, 2224158579, -4.104969024658203, 0.03392784669995308, 8.343836784362793, -0.2871728539466858, 166.47067260742188, 27.949357986450195, 0.484130859375, -0.229248046875, -0.8203125
378, 2224175246, -4.361735820770264, -0.045446738600730896, 8.329602241516113, -5.111319541931152, 212.66055297851562, 29.337909698486328, 0.525390625, -0.234130859375, -0.791015625
379, 2224191913, -5.376773357391357, -0.04710311442613602, 8.069465637207031, -2.5093166828155518, 245.37255859375, 28.31037139892578, 0.580078125, -0.235595703125, -0.75244140625
380, 2224208580, -6.062295436859131, -0.09930824488401413, 7.752244472503662, 2.609088897705078, 271.7403259277344, 25.44902801513672, 0.631591796875, -0.241943359375, -0.7060546875
381, 2224225247, -6.037382125854492, -0.8282874822616577, 7.802120208740234, 7.472400188446045, 319.23297119140625, 27.83694076538086, 0.69140625, -0.25, -0.64501953125
382, 2224241914, -6.18947696685791, -2.050839900970459, 9.045218467712402, 8.027273178100586, 438.46575927734375, 35.66701126098633, 0.760498046875, -0.256103515625, -0.55810546875
383, 2224258581, -9.225882530212402, -1.7518481016159058, 13.320324897766113, 5.502776622772217, 573.254150390625, 60.46848678588867, 0.833984375, -0.26806640625, -0.430419921875
384, 2224275248, -18.017898559570312, -1.8517478704452515, 16.368213653564453, 33.24421310424805, 580.1629028320312, 82.67665100097656, 0.8896484375, -0.290771484375, -0.28125
385, 2224291915, -17.057954788208008, -2.773360252380371, 13.12215518951416, 78.7179946899414, 571.5995483398438, 97.65615844726562, 0.918701171875, -0.319091796875, -0.121337890625
386, 2224308582, -20.4530029296875, -6.170782566070557, 18.221851348876953, 92.73152923583984, 550.7945556640625, 100.48963928222656, 0.916015625, -0.346923828125, 0.040283203125
387, 2224325249, -7.496254920959473, -6.592598915100098, 21.95124626159668, 97.61695861816406, 409.69952392578125, 82.2088394165039, 0.892822265625, -0.37109375, 0.168212890625
388, 2224341916, -31.242080688476562, 0.9820241928100586, 30.56717300415039, 64.35184478759766, 259.0680236816406, 125.61786651611328, 0.863037109375, -0.393798828125, 0.251708984375
389, 2224358583, -21.102996826171875, -2.448800802230835, 35.018672943115234, -64.77493286132812, -17.073923110961914, 82.1976089477539, 0.844970703125, -0.422607421875, 0.261474609375
390, 2224375250, -6.38326358795166, -6.2761735916137695, 18.868776321411133, -68.47686004638672, -268.63946533203125, 31.605379104614258, 0.857666015625, -0.437744140625, 0.19189453125
391, 2224391917, 0.09150326251983643, -4.115042686462402, 8.020695686340332, -42.18080520629883, -288.2004089355469, 39.85136032104492, 0.863525390625, -0.448486328125, 0.112548828125
392, 2224408584, 1.7423769235610962, -2.341620445251465, 4.290760517120361, -41.20865249633789, -258.5224304199219, 29.568038940429688, 0.864501953125, -0.458984375, 0.041015625
393, 2224425251, -1.1076743602752686, -2.669010639190674, 5.986386299133301, -57.16865539550781, -239.5095977783203, 13.100048065185547, 0.862548828125, -0.466064453125, -0.0244140625
394, 2224441918, -5.4121246337890625, -3.933495283126831, 9.60817813873291, -62.12382125854492, -274.7674255371094, -12.020489692687988, 0.857666015625, -0.461181640625, -0.0986328125
395, 2224458585, -7.492268085479736, -4.148237228393555, 9.345694541931152, -54.29218292236328, -336.538818359375, -47.80558395385742, 0.85009765625, -0.450439453125, -0.189697265625
396, 2224475252, -6.869266986846924, -3.5550570487976074, 7.433265686035156, -29.35163116455078, -372.2635498046875, -74.896240234375, 0.834228515625, -0.432373046875, -0.284423828125
397, 2224491919, -7.845532417297363, -0.8088105916976929, 7.487638473510742, -15.641186714172363, -382.72772216796875, -86.55826568603516, 0.806396484375, -0.410400390625, -0.3740234375
398, 2224508586, -8.80986213684082, 1.850459337234497, 8.811105728149414, -36.97747802734375, -387.9381103515625, -86.79393005371094, 0.7734375, -0.386474609375, -0.467529296875
399, 2224525253, -9.4578275680542, 4.019291400909424, 10.240456581115723, -76.58979797363281, -390.07952880859375, -71.93524932861328, 0.722412109375, -0.36328125, -0.55712890625
400, 2224541920, -11.003535270690918, 5.414089679718018, 11.978912353515625, -122.55622863769531, -396.82733154296875, -50.959999084472656, 0.65673828125, -0.33154296875, -0.6494140625
401, 2224558587, -10.686644554138184, 8.001461029052734, 12.036742210388184, -170.67710876464844, -396.8374328613281, -29.712324142456055, 0.58203125, -0.294921875, -0.73681640625
402, 2224575254, -13.03873348236084, 8.698640823364258, 10.822230339050293, -225.8165283203125, -372.2657470703125, -9.301336288452148, 0.498779296875, -0.243896484375, -0.8095703125
403, 2224591921, -18.099931716918945, 2.7473514080047607, 12.616713523864746, -237.44639587402344, -340.9912109375, -11.68453598022461, 0.411865234375, -0.187744140625, -0.870361328125
404, 2224608588, -24.037586212158203, -1.5194957256317139, 15.297934532165527, -181.79049682617188, -336.38763427734375, -60.35325241088867, 0.328125, -0.12939453125, -0.91845703125
405, 2224625255, -28.819570541381836, -2.5501813888549805, 14.265226364135742, -81.39183044433594, -350.9422912597656, -124.9456787109375, 0.236572265625, -0.091796875, -0.94970703125
406, 2224641922, -29.2518367767334, 0.7497456669807434, 6.707943439483643, 1.410793423652649, -355.36444091796875, -124.95254516601562, 0.13916015625, -0.081787109375, -0.968017578125
407, 2224658589, -28.182876586914062, 5.373829364776611, -2.800105571746826, -12.068155288696289, -292.64031982421875, -92.00272369384766, 0.05224609375, -0.08056640625, -0.977294921875
408, 2224675256, -29.785640716552734, 5.387008190155029, -7.934666633605957, -60.78167724609375, -203.67697143554688, -89.71174621582031, -0.010009765625, -0.062744140625, -0.98046875
409, 2224691923, -30.958478927612305, 6.932599067687988, -12.307760238647461, -23.44838523864746, -121.59890747070312, -104.93781280517578, -0.0498046875, -0.052734375, -0.978759765625
410, 2224708590, -29.94204330444336, 8.941035270690918, -15.11806583404541, 48.99131774902344, -29.656415939331055, -102.70109558105469, -0.063232421875, -0.063232421875, -0.977783203125
411, 2224725257, -26.080263137817383, 14.09434700012207, -9.138400077819824, 58.66956329345703, 52.65013885498047, -55.05281066894531, -0.053955078125, -0.081787109375, -0.97412109375
412, 2224741924, 8.643583297729492, 8.30865478515625, 16.443099975585938, 48.31371307373047, 94.72301483154297, 39.660030364990234, -0.0322265625, -0.103759765625, -0.976806640625
413, 2224758591, 18.800188064575195, -19.1932430267334, 7.98193883895874, -99.188232421875, 241.17433166503906, 47.74917984008789, 0.025390625, -0.0751953125, -0.978759765625
414, 2224775258, -22.346282958984375, 3.385970115661621, 6.039153575897217, -55.45237731933594, 364.2491149902344, 57.869598388671875, 0.115478515625, -0.06103515625, -0.97314453125
415, 2224791925, -16.82766342163086, 4.6154608726501465, 23.300065994262695, -43.82981872558594, 290.7549743652344, 48.525047302246094, 0.209716796875, -0.04736328125, -0.956787109375
416, 2224808592, -12.660604476928711, -5.924858570098877, 12.619393348693848, -23.505203247070312, 182.7499237060547, 34.33157730102539, 0.266357421875, -0.04150390625, -0.9453125
417, 2224825259, -7.723398208618164, -6.280937671661377, 10.034778594970703, 18.92001724243164, 161.5281219482422, 37.26582717895508, 0.31005859375, -0.04931640625, -0.927978515625
418, 2224841926, -12.590398788452148, -0.9758509397506714, 14.08493709564209, 56.730499267578125, 97.52313232421875, 25.385099411010742, 0.345458984375, -0.063720703125, -0.915283203125
419, 2224858593, -7.449093341827393, -2.9663138389587402, 11.992903709411621, 62.964508056640625, 43.750328063964844, 16.53651237487793, 0.360595703125, -0.08154296875, -0.910888671875
420, 2224875260, -5.73183012008667, -1.5755584239959717, 9.921814918518066, 53.42675018310547, 8.635576248168945, 13.881422996520996, 0.364501953125, -0.099609375, -0.907470703125
421, 2224891927, -5.049250602722168, -1.8031080961227417, 9.339266777038574, 41.98558807373047, -3.277627944946289, 11.580278396606445, 0.363037109375, -0.1123046875, -0.907470703125
422, 2224908594, -4.431838035583496, -1.8331575393676758, 8.934053421020508, 34.30430603027344, -8.18127155303955, 10.794297218322754, 0.36083984375, -0.122802734375, -0.906494140625
423, 2224925261, -4.020014762878418, -1.6080725193023682, 8.813230514526367, 26.363155364990234, -6.634169101715088, 9.776952743530273, 0.3603515625, -0.13330078125, -0.9033203125
424, 2224941928, -4.228360176086426, -1.369469404220581, 8.778851509094238, 21.630849838256836, -4.796108722686768, 7.900195598602295, 0.357177734375, -0.140380859375, -0.90478515625
425, 2224958595, -3.827638626098633, -1.5699286460876465, 8.640280723571777, 16.835573196411133, -3.1115493774414062, 5.571542739868164, 0.354736328125, -0.143798828125, -0.903564453125
426, 2224975262, -3.6956050395965576, -1.55948805809021, 8.66181468963623, 12.575491905212402, 0.6704961061477661, 5.937648773193359, 0.356689453125, -0.1474609375, -0.90234375
427, 2224991929, -3.7964015007019043, -1.4574182033538818, 8.587900161743164, 8.621757507324219, 2.1944007873535156, 5.524462699890137, 0.357666015625, -0.15283203125, -0.90185546875
428, 2225008596, -4.154083251953125, -1.4809564352035522, 8.596405982971191, 7.5821733474731445, 2.569408655166626, 5.0867919921875, 0.356689453125, -0.155029296875, -0.90185546875
429, 2225025263, -4.183890342712402, -1.479651927947998, 8.593757629394531, 12.721906661987305, 2.387380361557007, 6.885690689086914, 0.359375, -0.158447265625, -0.90087890625
430, 2225041930, -4.245813846588135, -1.5574880838394165, 8.582598686218262, 10.858992576599121, 2.969813823699951, 8.341646194458008, 0.359375, -0.162841796875, -0.900390625
431, 2225058597, -3.9677462577819824, -1.5781947374343872, 8.55941104888916, 10.676348686218262, 3.6951282024383545, 11.207953453063965, 0.3603515625, -0.16748046875, -0.899658203125
432, 2225075264, -4.248978614807129, -1.2441534996032715, 8.68514347076416, 7.285517692565918, 3.067526340484619, 12.435480117797852, 0.360595703125, -0.1708984375, -0.898193359375
433, 2225091931, -4.1424760818481445, -1.1904054880142212, 8.565237045288086, 4.157436370849609, 2.835730791091919, 12.379322052001953, 0.360595703125, -0.172607421875, -0.895751953125
434, 2225108598, -4.13878870010376, -1.3139796257019043, 8.665432929992676, 3.0490856170654297, 5.557608604431152, 14.690707206726074, 0.359130859375, -0.176513671875, -0.897216796875
435, 2225125265, -4.087120532989502, -1.6080623865127563, 8.565461158752441, 2.838179588317871, 10.531862258911133, 17.568193435668945, 0.362060546875, -0.179931640625, -0.894775390625
436, 2225141932, -4.242246627807617, -1.6085294485092163, 8.756446838378906, 10.652915954589844, 19.62542152404785, 21.8953800201416, 0.36767578125, -0.181884765625, -0.89453125
437, 2225158599, -4.527466297149658, -1.1794242858886719, 8.814290046691895, 12.84703540802002, 26.377056121826172, 26.550594329833984, 0.373046875, -0.18798828125, -0.891357421875
438, 2225175266, -3.768301010131836, -0.22382107377052307, 8.94275188446045, 2.4090077877044678, 46.4582633972168, 26.939987182617188, 0.379638671875, -0.193603515625, -0.887939453125
439, 2225191933, -3.869558811187744, -0.6314423680305481, 8.846593856811523, -5.432417392730713, 82.6595687866211, 25.332172393798828, 0.396728515625, -0.19384765625, -0.876953125
440, 2225208600, -3.8635597229003906, -0.6348968744277954, 8.547323226928711, -10.128077507019043, 125.10404205322266, 25.91265869140625, 0.424560546875, -0.19775390625, -0.865966796875
441, 2225225267, -3.9814963340759277, -0.49435389041900635, 8.257169723510742, -9.102160453796387, 168.6204833984375, 30.376436233520508, 0.461181640625, -0.19775390625, -0.8427734375
442, 2225241934, -4.265587329864502, -0.6256488561630249, 8.101364135742188, -6.5200066566467285, 213.32383728027344, 35.22248458862305, 0.508544921875, -0.20166015625, -0.81640625
443, 2225258601, -5.240955352783203, -0.40498366951942444, 7.939539432525635, 0.2455967664718628, 247.90609741210938, 33.80671691894531, 0.564208984375, -0.205322265625, -0.779052734375
444, 2225275268, -6.026314735412598, -0.39403000473976135, 8.037704467773438, 12.08509349822998, 273.6533203125, 33.55131530761719, 0.62060546875, -0.21435546875, -0.7314453125
445, 2225291935, -5.785150527954102, -1.2008124589920044, 7.925795078277588, 24.713956832885742, 326.978271484375, 35.80876541137695, 0.678955078125, -0.225341796875, -0.669677734375
446, 2225308602, -6.541396617889404, -2.7292423248291016, 9.11279296875, 39.43279266357422, 440.8707580566406, 53.92713928222656, 0.75, -0.239013671875, -0.58154296875
447, 2225325269, -9.72134780883789, -3.7621867656707764, 13.894232749938965, 51.72055435180664, 581.1633911132812, 91.06977081298828, 0.82958984375, -0.266357421875, -0.447998046875
448, 2225341936, -20.17104721069336, -0.9533650875091553, 15.29718017578125, 80.33926391601562, 575.2081298828125, 118.39602661132812, 0.885009765625, -0.302734375, -0.29443359375
449, 2225358603, -20.346534729003906, -5.71406364440918, 15.524709701538086, 85.87596893310547, 559.8505859375, 120.35591125488281, 0.91455078125, -0.339599609375, -0.140869140625
450, 2225375270, -18.025434494018555, -7.9172892570495605, 18.571109771728516, 131.17530822753906, 517.3755493164062, 152.69044494628906, 0.909912109375, -0.3818359375, 0.013671875
451, 2225391937, -7.846011161804199, -4.035585403442383, 22.15008544921875, 97.34178924560547, 350.9051208496094, 114.8873062133789, 0.887451171875, -0.410888671875, 0.1279296875
452, 2225408604, -37.819374084472656, -5.194796562194824, 37.40643310546875, 82.52839660644531, 209.3591766357422, 128.7305145263672, 0.859130859375, -0.441650390625, 0.203857421875
453, 2225425271, -15.790870666503906, -5.450533866882324, 32.67228317260742, -43.47734832763672, -110.77233123779297, 39.93357849121094, 0.850341796875, -0.458740234375, 0.192138671875
454, 2225441938, -3.3415579795837402, -6.38992166519165, 14.987265586853027, -35.945343017578125, -297.1446533203125, -9.327996253967285, 0.8623046875, -0.459228515625, 0.119873046875
455, 2225458605, 2.530522584915161, -3.5708084106445312, 5.306570053100586, -5.563868045806885, -274.7323913574219, 0.38632312417030334, 0.870849609375, -0.46044921875, 0.044677734375
456, 2225475272, 2.951617956161499, -1.4652148485183716, 4.1412506103515625, -14.61510944366455, -220.1952362060547, -8.616171836853027, 0.872802734375, -0.459716796875, -0.015869140625
457, 2225491939, -1.6025185585021973, -3.238248825073242, 7.815363883972168, -39.54249954223633, -202.7552947998047, -41.67731857299805, 0.8740234375, -0.451171875, -0.0693359375
458, 2225508606, -5.7964630126953125, -4.333884239196777, 10.087501525878906, -34.39657211303711, -246.07029724121094, -85.5745849609375, 0.877197265625, -0.4296875, -0.1357421875
459, 2225525273, -5.869772434234619, -3.9950051307678223, 9.783555030822754, -3.3602263927459717, -311.8836669921875, -121.01097106933594, 0.8779296875, -0.401123046875, -0.212890625
460, 2225541940, -5.9266743659973145, -1.7448203563690186, 7.2549285888671875, 30.915267944335938, -342.6602478027344, -128.27024841308594, 0.865478515625, -0.369384765625, -0.296630859375
461, 2225558607, -7.120851516723633, 1.4003758430480957, 7.6966776847839355, 27.504480361938477, -350.4161682128906, -114.50897979736328, 0.843994140625, -0.343017578125, -0.37646484375
462, 2225575274, -9.254076957702637, 2.6395249366760254, 10.092412948608398, -8.474267959594727, -364.6135559082031, -91.76930236816406, 0.812744140625, -0.320068359375, -0.464599609375
463, 2225591941, -11.350242614746094, 2.517401933670044, 11.674542427062988, -40.244407653808594, -396.3883972167969, -66.3723373413086, 0.75927734375, -0.295654296875, -0.5556640625
464, 2225608608, -11.340399742126465, 3.0556089878082275, 10.749101638793945, -58.00476837158203, -419.02203369140625, -32.174842834472656, 0.692138671875, -0.281005859375, -0.6494140625
465, 2225625275, -11.333855628967285, 4.106340408325195, 10.229507446289062, -107.18667602539062, -407.90869140625, -10.537554740905762, 0.6103515625, -0.258056640625, -0.7333984375
466, 2225641942, -13.35731029510498, 3.7716445922851562, 11.032734870910645, -166.26060485839844, -375.294921875, -1.979849934577942, 0.52587890625, -0.22412109375, -0.806640625
467, 2225658609, -17.362215042114258, 0.8627359867095947, 12.95748233795166, -193.6527557373047, -351.1578063964844, -7.390740394592285, 0.439208984375, -0.177734375, -0.86669921875
468, 2225675276, -23.776674270629883, -0.7955976724624634, 15.54369068145752, -196.23312377929688, -349.8016052246094, -37.61456298828125, 0.352783203125, -0.122314453125, -0.91650390625
469, 2225691943, -28.67011833190918, -0.02121862769126892, 13.801935195922852, -171.8905029296875, -369.6781921386719, -72.17861938476562, 0.256591796875, -0.067138671875, -0.951904296875
470, 2225708610, -29.928836822509766, 1.3830833435058594, 6.175381660461426, -112.8953857421875, -360.2433166503906, -66.14385986328125, 0.1533203125, -0.025146484375, -0.974609375
471, 2225725277, -29.52204704284668, 2.358137369155884, -2.3891401290893555, -77.91548156738281, -305.3161926269531, -52.360633850097656, 0.05908203125, -2.44140625E-4, -0.98779296875
472, 2225741944, -31.35765266418457, 1.3854317665100098, -9.56906509399414, -48.579402923583984, -219.42462158203125, -72.77651977539062, -0.01416015625, 0.019775390625, -0.98876953125
473, 2225758611, -33.70953369140625, 6.538860321044922, -13.369818687438965, -7.660174369812012, -134.47857666015625, -75.67743682861328, -0.056396484375, 0.023193359375, -0.988525390625
474, 2225775278, -31.643272399902344, 8.483084678649902, -16.35919952392578, 25.982624053955078, -40.564979553222656, -64.80900573730469, -0.080078125, 0.015380859375, -0.98388671875
475, 2225791945, -24.422607421875, 6.489932060241699, -12.39013671875, 85.81312561035156, 73.3729019165039, -32.37443923950195, -0.072021484375, 0.00146484375, -0.98828125
476, 2225808612, 14.230480194091797, 0.1486491560935974, 24.579355239868164, 129.4219512939453, 143.14468383789062, 22.518600463867188, -0.03466796875, -0.0458984375, -0.98681640625
477, 2225825279, 9.881627082824707, -6.707715034484863, 1.6032788753509521, -16.15071678161621, 243.12989807128906, 21.989038467407227, 0.029296875, -0.038330078125, -0.98828125
478, 2225841946, -23.442256927490234, 18.877843856811523, 17.630443572998047, -50.91048049926758, 368.5540771484375, 61.0086784362793, 0.1259765625, -0.033203125, -0.97998046875
479, 2225858613, -11.658106803894043, 2.5692458152770996, 19.387943267822266, -43.369930267333984, 265.6304931640625, 66.29891204833984, 0.208984375, -0.023193359375, -0.96337890625
480, 2225875280, -10.62553882598877, -14.745821952819824, 7.626970291137695, -31.57449722290039, 219.2672882080078, 30.12986946105957, 0.279296875, -0.01220703125, -0.951171875
481, 2225891947, -12.492684364318848, 0.7070410847663879, 14.793549537658691, 16.87114143371582, 164.91693115234375, 37.29785919189453, 0.323974609375, -0.01904296875, -0.934326171875
482, 2225908614, -12.095385551452637, -6.410121440887451, 12.557510375976562, 45.806785583496094, 84.60160827636719, 14.15400505065918, 0.35546875, -0.030029296875, -0.923828125
483, 2225925281, -6.635165691375732, -0.3180631697177887, 11.983969688415527, 56.70154571533203, 42.135780334472656, 12.638490676879883, 0.369140625, -0.0478515625, -0.91748046875
484, 2225941948, -5.492708206176758, -3.155667304992676, 9.265098571777344, 41.16960906982422, 14.262126922607422, 6.06477689743042, 0.373779296875, -0.05908203125, -0.914306640625
485, 2225958615, -4.5747761726379395, -1.4433224201202393, 9.335315704345703, 33.3882942199707, 2.6606392860412598, 5.892168045043945, 0.37646484375, -0.069091796875, -0.91162109375
486, 2225975282, -3.654749870300293, -1.6243672370910645, 8.640429496765137, 29.726076126098633, 1.3904987573623657, 5.770591735839844, 0.37744140625, -0.07861328125, -0.91357421875
487, 2225991949, -4.28413724899292, -1.681713581085205, 8.826711654663086, 24.187232971191406, 5.7416181564331055, 5.50559663772583, 0.378173828125, -0.08642578125, -0.912109375
488, 2226008616, -3.937058925628662, -1.9570382833480835, 8.713950157165527, 14.313970565795898, 8.175716400146484, 1.9780385494232178, 0.379638671875, -0.090576171875, -0.908203125
489, 2226025283, -4.196945667266846, -2.2808728218078613, 8.334094047546387, 10.348556518554688, 10.833237648010254, 2.706207513809204, 0.38134765625, -0.094970703125, -0.906982421875
490, 2226041950, -4.348636627197266, -2.024038314819336, 8.518542289733887, 13.084677696228027, 11.508163452148438, 4.703258514404297, 0.3857421875, -0.09814453125, -0.906982421875
491, 2226058617, -4.629523277282715, -1.8225659132003784, 8.543285369873047, 9.80999755859375, 11.76081657409668, 5.303376197814941, 0.388916015625, -0.1025390625, -0.905029296875
492, 2226075284, -4.430883407592773, -2.0790629386901855, 8.443337440490723, 8.854646682739258, 12.806817054748535, 6.4629807472229, 0.393798828125, -0.10791015625, -0.90625
493, 2226091951, -4.624932289123535, -2.030052661895752, 8.34669017791748, 8.947324752807617, 9.580227851867676, 8.899134635925293, 0.39599609375, -0.109130859375, -0.90185546875
494, 2226108618, -4.559659957885742, -1.6437640190124512, 8.397419929504395, 10.941902160644531, 6.008354187011719, 10.634126663208008, 0.3955078125, -0.114501953125, -0.900146484375
495, 2226125285, -4.246133804321289, -1.9559987783432007, 8.407742500305176, 11.204460144042969, 3.4898552894592285, 12.628859519958496, 0.39599609375, -0.11767578125, -0.900146484375
496, 2226141952, -4.762599468231201, -1.8824785947799683, 8.242403984069824, 13.336392402648926, 3.2435519695281982, 15.650106430053711, 0.39794921875, -0.1220703125, -0.897705078125
497, 2226158619, -4.602652072906494, -1.5320662260055542, 8.413580894470215, 10.257368087768555, 5.970193862915039, 15.02035140991211, 0.401611328125, -0.12646484375, -0.897216796875
498, 2226175286, -4.508211612701416, -1.5018807649612427, 8.454340934753418, 5.449204921722412, 11.196113586425781, 14.553698539733887, 0.399658203125, -0.133056640625, -0.897705078125
499, 2226191953, -4.004302978515625, -1.7824240922927856, 8.393675804138184, 5.869695663452148, 20.059293746948242, 16.27919578552246, 0.4052734375, -0.133544921875, -0.89501953125
500, 2226208620, -4.219644069671631, -1.592965841293335, 8.522454261779785, 9.615706443786621, 34.78641128540039, 24.078115463256836, 0.412109375, -0.13916015625, -0.889404296875
501, 2226225287, -4.366693496704102, -1.4294848442077637, 8.571433067321777, 9.22052001953125, 57.21406173706055, 28.028457641601562, 0.4248046875, -0.146484375, -0.884033203125
502, 2226241954, -4.4748687744140625, -0.9506825804710388, 8.522798538208008, 6.604796409606934, 83.5888900756836, 29.676565170288086, 0.444091796875, -0.15087890625, -0.873291015625
503, 2226258621, -4.349891662597656, -1.2619223594665527, 8.399423599243164, 1.6539162397384644, 116.02766418457031, 33.66325759887695, 0.466552734375, -0.154541015625, -0.854248046875
504, 2226275288, -4.414012908935547, -0.9639813303947449, 8.117880821228027, 0.33576828241348267, 154.7842254638672, 43.7187614440918, 0.5009765625, -0.162353515625, -0.838623046875
505, 2226291955, -4.913096904754639, -0.8910751342773438, 8.0372953414917, 3.370210886001587, 191.84999084472656, 52.59269714355469, 0.54296875, -0.170654296875, -0.810791015625
506, 2226308622, -5.108194828033447, -0.562504231929779, 8.012470245361328, 14.257399559020996, 225.13172912597656, 55.10745620727539, 0.58837890625, -0.18115234375, -0.77392578125
507, 2226325289, -5.829733371734619, -0.410636305809021, 7.834139823913574, 25.112571716308594, 264.748779296875, 55.97334289550781, 0.642333984375, -0.195556640625, -0.724609375
508, 2226341956, -5.872087001800537, -0.8368919491767883, 7.916851997375488, 36.921470642089844, 335.3761291503906, 53.429298400878906, 0.7021484375, -0.212646484375, -0.664794921875
509, 2226358623, -6.718321323394775, -1.3069169521331787, 8.49690055847168, 38.6043815612793, 473.5663757324219, 52.31831359863281, 0.773193359375, -0.23583984375, -0.56396484375
510, 2226375290, -12.36016845703125, -2.416959285736084, 15.906831741333008, 26.868993759155273, 627.8388061523438, 62.34212875366211, 0.857177734375, -0.25, -0.4169921875
511, 2226391957, -19.016864776611328, -0.14348021149635315, 17.063371658325195, 64.59646606445312, 603.9932250976562, 74.85262298583984, 0.9169921875, -0.275634765625, -0.25244140625
512, 2226408624, -18.878625869750977, -6.4334330558776855, 15.62253189086914, 64.3763198852539, 601.3358764648438, 87.419921875, 0.9384765625, -0.2998046875, -0.0849609375
513, 2226425291, -20.582666397094727, -7.176692485809326, 18.171314239501953, 80.87451171875, 567.0391845703125, 122.26284790039062, 0.929931640625, -0.33154296875, 0.08349609375
514, 2226441958, -10.74250316619873, -6.333691596984863, 25.383590698242188, 43.378509521484375, 341.59698486328125, 74.31011962890625, 0.906982421875, -0.353515625, 0.196533203125
515, 2226458625, -41.73200225830078, -9.829031944274902, 39.58255386352539, 99.02684783935547, 154.47120666503906, 65.45942687988281, 0.884033203125, -0.36669921875, 0.258056640625
516, 2226475292, -9.719812393188477, -3.3260104656219482, 29.953720092773438, 47.5773811340332, -188.59690856933594, 15.424416542053223, 0.888427734375, -0.369873046875, 0.233154296875
517, 2226491959, -2.3036601543426514, -2.258085012435913, 13.069498062133789, 51.86286163330078, -321.6633605957031, 17.018733978271484, 0.90576171875, -0.369873046875, 0.153564453125
518, 2226508626, 3.07094669342041, -1.156450867652893, 5.466963291168213, 47.12069320678711, -283.4515686035156, 42.368568420410156, 0.912109375, -0.377685546875, 0.082275390625
519, 2226525293, 2.705834150314331, -1.0257738828659058, 5.249230861663818, 8.838153839111328, -237.65667724609375, 36.3205451965332, 0.9111328125, -0.389404296875, 0.017333984375
520, 2226541960, -3.51442289352417, -3.2251429557800293, 9.154412269592285, -37.47194290161133, -232.62017822265625, 6.329643726348877, 0.905517578125, -0.392578125, -0.042724609375
521, 2226558627, -7.8482489585876465, -4.670251369476318, 12.16530990600586, -46.70797348022461, -305.6236877441406, -38.6065788269043, 0.90380859375, -0.385009765625, -0.123779296875
522, 2226575294, -7.094019412994385, -4.171103000640869, 9.656852722167969, -20.55925750732422, -375.97515869140625, -70.6082763671875, 0.892333984375, -0.3681640625, -0.224609375
523, 2226591961, -6.67313814163208, -1.4647109508514404, 7.814147472381592, 8.862994194030762, -407.06292724609375, -70.82658386230469, 0.8681640625, -0.350830078125, -0.32666015625
524, 2226608628, -8.01926326751709, 1.1341654062271118, 8.086091995239258, -3.8298232555389404, -415.7667236328125, -64.06947326660156, 0.826904296875, -0.336181640625, -0.430419921875
525, 2226625295, -8.9591703414917, 1.1775562763214111, 8.91843032836914, -39.51445007324219, -415.2684631347656, -47.01176834106445, 0.7744140625, -0.322021484375, -0.52880859375
526, 2226641962, -10.70634937286377, 1.0436497926712036, 11.215052604675293, -74.62224578857422, -411.0356750488281, -31.690425872802734, 0.70654296875, -0.3017578125, -0.62451171875
527, 2226658629, -11.803353309631348, 2.8154475688934326, 12.984947204589844, -119.47462463378906, -416.8182678222656, -20.78453826904297, 0.630126953125, -0.283203125, -0.712890625
528, 2226675296, -13.66112995147705, 5.765196800231934, 13.022879600524902, -194.54029846191406, -411.4499816894531, -6.211684226989746, 0.5400390625, -0.240966796875, -0.796142578125
529, 2226691963, -18.809946060180664, 3.548335313796997, 13.850519180297852, -263.9202575683594, -392.330078125, 14.540497779846191, 0.445068359375, -0.18505859375, -0.8681640625
530, 2226708630, -24.93382453918457, -2.7546472549438477, 15.144125938415527, -257.0556335449219, -399.2928771972656, -3.774329662322998, 0.341796875, -0.1171875, -0.9228515625
531, 2226725297, -28.87920379638672, -0.6800293922424316, 12.763056755065918, -196.77186584472656, -393.92877197265625, -56.5056037902832, 0.231201171875, -0.05712890625, -0.9599609375
532, 2226741964, -30.68951416015625, 3.1319327354431152, 6.942136764526367, -126.37060546875, -356.213134765625, -78.2523422241211, 0.1298828125, -0.01416015625, -0.978515625
533, 2226758631, -33.48611068725586, 2.914787530899048, -0.07696926593780518, -72.98204803466797, -307.4124755859375, -73.14602661132812, 0.034423828125, 0.01318359375, -0.9873046875
534, 2226775298, -34.77603530883789, 0.45453089475631714, -10.685164451599121, -18.41364097595215, -234.87704467773438, -76.84844207763672, -0.03857421875, 0.021240234375, -0.986572265625
535, 2226791965, -33.83284378051758, 3.0726659297943115, -17.182750701904297, 25.04521369934082, -117.72991943359375, -91.48192596435547, -0.084716796875, 0.016845703125, -0.98291015625
536, 2226808632, -36.1901969909668, 7.550934314727783, -15.221099853515625, 27.653234481811523, -24.47732162475586, -128.4689483642578, -0.097412109375, 0.005126953125, -0.983642578125
537, 2226825299, -29.273344039916992, 10.225234031677246, -12.458800315856934, 80.54513549804688, 64.13877868652344, -116.96432495117188, -0.087646484375, -0.016357421875, -0.98291015625
538, 2226841966, -2.1442372798919678, 4.959088325500488, 13.068633079528809, 167.87474060058594, 41.17633056640625, -70.20222473144531, -0.059814453125, -0.0517578125, -0.98193359375
539, 2226858633, 28.162988662719727, 0.29980164766311646, 26.06178855895996, 48.73743438720703, 175.17276000976562, 6.044232368469238, -0.039794921875, -0.09423828125, -0.98095703125
540, 2226875300, 7.737135887145996, 0.5186797976493835, -12.558609008789062, -76.335693359375, 337.0703430175781, 43.46890640258789, 0.048095703125, -0.072021484375, -0.98388671875
541, 2226891967, -28.399030685424805, 13.01516056060791, 23.74285125732422, -110.96501922607422, 426.4132995605469, 44.39281463623047, 0.1689453125, -0.04052734375, -0.97412109375
542, 2226908634, -14.532750129699707, -5.04581880569458, 15.036919593811035, -45.517635345458984, 306.2304992675781, 68.37287902832031, 0.259765625, -0.032958984375, -0.950927734375
543, 2226925301, -27.35039520263672, -11.516496658325195, 21.791521072387695, 48.26185989379883, 185.66961669921875, 37.49699020385742, 0.328857421875, -0.03466796875, -0.93115234375
544, 2226941968, -4.206139087677002, 2.112011432647705, 12.658417701721191, 80.36302185058594, 49.2780876159668, 16.175704956054688, 0.345947265625, -0.064697265625, -0.92333984375
545, 2226958635, -6.698543548583984, -3.7447400093078613, 10.300084114074707, 49.002132415771484, 17.93372917175293, 5.818845272064209, 0.355224609375, -0.0771484375, -0.918701171875
546, 2226975302, -4.926774978637695, -2.4310102462768555, 9.205544471740723, 37.8621826171875, 0.49443644285202026, 4.2421183586120605, 0.354248046875, -0.089111328125, -0.9150390625
547, 2226991969, -3.2302091121673584, -1.9946686029434204, 8.74982738494873, 28.202747344970703, -2.1270644664764404, 9.03046989440918, 0.353515625, -0.099853515625, -0.91552734375
548, 2227008636, -3.8271381855010986, -2.3474035263061523, 8.299481391906738, 25.02605438232422, -0.8720124363899231, 12.827664375305176, 0.3525390625, -0.105224609375, -0.91650390625
549, 2227025303, -4.225322246551514, -1.1859954595565796, 8.997896194458008, 33.83164978027344, 1.628764033317566, 13.435402870178223, 0.353759765625, -0.1171875, -0.9140625
550, 2227041970, -4.258897304534912, -1.3955600261688232, 8.890708923339844, 28.051029205322266, 2.792748212814331, 10.481437683105469, 0.353271484375, -0.126220703125, -0.9130859375
551, 2227058637, -4.188536643981934, -1.472119688987732, 8.836115837097168, 17.729473114013672, 8.537384033203125, 5.597772121429443, 0.3583984375, -0.13134765625, -0.913818359375
552, 2227075304, -4.369461536407471, -1.5876519680023193, 8.779794692993164, 9.136734962463379, 17.439743041992188, 3.1027328968048096, 0.362060546875, -0.13818359375, -0.909912109375
553, 2227091971, -4.491537570953369, -1.8425878286361694, 8.587090492248535, 3.9765753746032715, 19.42990493774414, 3.712700366973877, 0.366455078125, -0.139892578125, -0.90869140625
554, 2227108638, -4.372998237609863, -1.6450663805007935, 8.624506950378418, 2.5245261192321777, 19.684921264648438, 5.696932792663574, 0.370849609375, -0.13916015625, -0.90625
555, 2227125305, -4.426867485046387, -1.5467643737792969, 8.499504089355469, 2.3141555786132812, 19.45253562927246, 7.080545425415039, 0.37548828125, -0.141357421875, -0.904052734375
556, 2227141972, -4.208526134490967, -1.8930727243423462, 8.424774169921875, 3.1384124755859375, 19.553503036499023, 9.516651153564453, 0.3779296875, -0.142822265625, -0.902099609375
557, 2227158639, -4.292934417724609, -1.6753528118133545, 8.4293851852417, 7.576606750488281, 22.264667510986328, 13.253931999206543, 0.385009765625, -0.146240234375, -0.90087890625
558, 2227175306, -4.504112720489502, -1.5600107908248901, 8.428282737731934, 8.933547973632812, 21.803146362304688, 15.354642868041992, 0.3916015625, -0.15234375, -0.896728515625
559, 2227191973, -4.110428810119629, -1.6786812543869019, 8.373528480529785, 10.366022109985352, 27.137441635131836, 18.905370712280273, 0.3955078125, -0.15380859375, -0.89208984375
560, 2227208640, -4.450037002563477, -1.4077167510986328, 8.387139320373535, 9.65665054321289, 36.02473831176758, 24.110204696655273, 0.404052734375, -0.16064453125, -0.887451171875
561, 2227225307, -4.338030815124512, -1.462602138519287, 8.418992042541504, 10.406791687011719, 47.82396697998047, 27.411941528320312, 0.4150390625, -0.166748046875, -0.8828125
562, 2227241974, -4.474364280700684, -1.1321239471435547, 8.522295951843262, 11.435386657714844, 65.53019714355469, 32.240299224853516, 0.427490234375, -0.173095703125, -0.87353515625
563, 2227258641, -4.638777732849121, -0.5470792055130005, 8.466364860534668, 5.23302698135376, 93.2034683227539, 32.10008239746094, 0.447509765625, -0.18115234375, -0.862060546875
564, 2227275308, -4.775265216827393, -0.5283718705177307, 8.389399528503418, 0.7823380827903748, 121.53071594238281, 28.530189514160156, 0.4765625, -0.18359375, -0.84814453125
565, 2227291975, -4.7932634353637695, -1.1138503551483154, 8.232267379760742, 2.2251362800598145, 148.21780395507812, 31.388404846191406, 0.50732421875, -0.1904296875, -0.826416015625
566, 2227308642, -5.228602409362793, -0.7732725143432617, 8.044657707214355, 10.819931030273438, 172.21084594726562, 35.77009582519531, 0.544677734375, -0.197021484375, -0.7958984375
567, 2227325309, -5.660378932952881, -0.5277915000915527, 7.798360347747803, 20.641965866088867, 194.70033264160156, 37.09782409667969, 0.585693359375, -0.204345703125, -0.764404296875
568, 2227341976, -5.842428684234619, -0.6428927779197693, 7.4076433181762695, 28.174331665039062, 227.50814819335938, 44.49549865722656, 0.632568359375, -0.22021484375, -0.72314453125
569, 2227358643, -6.31852388381958, -0.6958853602409363, 7.411797523498535, 28.4583683013916, 285.3671569824219, 48.688419342041016, 0.68212890625, -0.234375, -0.674072265625
570, 2227375310, -6.105330467224121, -1.5005723237991333, 8.471931457519531, 26.26296615600586, 403.65704345703125, 53.42652130126953, 0.74658203125, -0.25048828125, -0.590087890625
571, 2227391977, -8.123496055603027, -1.5263816118240356, 10.896293640136719, 7.830039978027344, 548.6083984375, 62.33534622192383, 0.822021484375, -0.267333984375, -0.4716796875
572, 2227408644, -16.470787048339844, -0.04509687423706055, 15.718992233276367, 6.210663318634033, 592.5640258789062, 60.59009552001953, 0.8876953125, -0.283447265625, -0.322265625
573, 2227425311, -20.307573318481445, -1.7006714344024658, 15.46430492401123, 17.251220703125, 572.5177612304688, 61.75109100341797, 0.923828125, -0.2978515625, -0.165283203125
574, 2227441978, -21.440176010131836, -5.553143501281738, 17.9108943939209, 67.71858978271484, 545.3871459960938, 100.65827178955078, 0.93408203125, -0.325927734375, -0.010986328125
575, 2227458645, -15.246702194213867, -9.384615898132324, 23.174957275390625, 76.54187774658203, 448.4879150390625, 103.69522094726562, 0.9169921875, -0.35693359375, 0.128662109375
576, 2227475312, -28.315338134765625, -2.316474199295044, 30.91636848449707, 110.6867904663086, 231.70428466796875, 101.98311614990234, 0.89111328125, -0.376220703125, 0.209716796875
577, 2227491979, -27.230310440063477, -1.8930999040603638, 38.456111907958984, 10.532820701599121, 4.330639362335205, 90.40164947509766, 0.875, -0.396728515625, 0.23486328125
578, 2227508646, -2.717594861984253, -4.370108604431152, 20.871950149536133, -46.51531982421875, -254.10287475585938, 60.210838317871094, 0.880126953125, -0.420166015625, 0.171630859375
579, 2227525313, 0.21416223049163818, -4.560564041137695, 8.653822898864746, -50.13173294067383, -274.5586242675781, 75.77945709228516, 0.881103515625, -0.439208984375, 0.09326171875
580, 2227541980, 2.6298632621765137, -4.65489387512207, 4.413372039794922, -50.06418228149414, -226.92478942871094, 70.28874206542969, 0.876953125, -0.46044921875, 0.02734375
581, 2227558647, -0.3337920308113098, -6.043277263641357, 4.849502086639404, -50.64577102661133, -203.93617248535156, 18.010465621948242, 0.870849609375, -0.468994140625, -0.03125
582, 2227575314, -4.0702924728393555, -7.450882911682129, 8.30785846710205, -12.135295867919922, -223.27867126464844, -45.216392517089844, 0.87060546875, -0.460693359375, -0.08935546875
583, 2227591981, -7.121553421020508, -4.930461883544922, 11.522191047668457, 32.698936462402344, -289.2481994628906, -99.89627838134766, 0.873779296875, -0.440185546875, -0.1552734375
584, 2227608648, -7.3076629638671875, -1.0230367183685303, 9.933540344238281, 45.6223258972168, -351.6191101074219, -131.1305694580078, 0.869140625, -0.410888671875, -0.23779296875
585, 2227625315, -6.072617053985596, 2.0938830375671387, 7.991354942321777, 37.24028396606445, -385.03289794921875, -130.8440704345703, 0.851806640625, -0.3828125, -0.3232421875
586, 2227641982, -8.112406730651855, 2.6453516483306885, 8.435173988342285, 20.62066650390625, -397.1239929199219, -91.77978515625, 0.822265625, -0.3583984375, -0.417236328125
587, 2227658649, -10.362388610839844, 2.0953214168548584, 10.234881401062012, -3.20322322845459, -400.5371398925781, -38.12600326538086, 0.77587890625, -0.349609375, -0.50830078125
588, 2227675316, -11.189533233642578, 2.8816511631011963, 11.491920471191406, -57.38335037231445, -408.7240905761719, -10.607508659362793, 0.71337890625, -0.33984375, -0.602783203125
589, 2227691983, -13.065655708312988, 3.7978696823120117, 10.976395606994629, -135.4656982421875, -412.50408935546875, 21.41531753540039, 0.633056640625, -0.3193359375, -0.6953125
590, 2227708650, -16.064233779907227, 2.535114049911499, 10.941787719726562, -218.27098083496094, -397.9025573730469, 49.5907096862793, 0.543212890625, -0.287353515625, -0.778564453125
591, 2227725317, -20.614036560058594, -3.194474220275879, 11.575652122497559, -260.6726989746094, -390.2456970214844, 37.880619049072266, 0.4453125, -0.23291015625, -0.85498046875
592, 2227741984, -24.826887130737305, -6.692384243011475, 11.499787330627441, -242.35723876953125, -386.6034851074219, -25.14170265197754, 0.345458984375, -0.1689453125, -0.90966796875
593, 2227758651, -26.559465408325195, -1.9008018970489502, 9.423200607299805, -196.80581665039062, -362.1866455078125, -92.50508880615234, 0.250244140625, -0.106201171875, -0.950927734375
594, 2227775318, -29.055620193481445, 6.703838348388672, 7.797244548797607, -179.7368927001953, -325.0171813964844, -103.83806610107422, 0.15771484375, -0.0517578125, -0.973876953125
595, 2227791985, -30.47292137145996, 9.56755542755127, 3.395979404449463, -175.5445556640625, -295.3673400878906, -78.43898010253906, 0.06982421875, 0.00341796875, -0.986083984375
596, 2227808652, -31.01505470275879, 3.512437582015991, -5.0475053787231445, -102.55899047851562, -242.84005737304688, -65.41154479980469, -0.006591796875, 0.04150390625, -0.987548828125
597, 2227825319, -31.939916610717773, 0.2171780914068222, -12.284241676330566, 28.55896759033203, -163.00721740722656, -77.72908020019531, -0.05859375, 0.0390625, -0.983642578125
598, 2227841986, -32.4383430480957, 9.925005912780762, -14.120677947998047, 54.04623794555664, -70.94917297363281, -104.52691650390625, -0.09130859375, 0.022705078125, -0.983154296875
599, 2227858653, -29.137758255004883, 9.730388641357422, -15.925162315368652, 51.56287384033203, 30.049468994140625, -118.29228210449219, -0.087158203125, 0.0087890625, -0.982666015625
600, 2227875320, -0.5183618068695068, 8.56918716430664, 9.703971862792969, 254.52052307128906, 119.55986785888672, 1.81419837474823, -0.058837890625, -0.0556640625, -0.98388671875
601, 2227891987, 20.387897491455078, 5.095641613006592, 20.830615997314453, 53.80095291137695, 213.0228729248047, 27.833566665649414, -0.00830078125, -0.083984375, -0.98193359375
602, 2227908654, -16.38504981994629, 16.066280364990234, 5.246877193450928, 15.463702201843262, 302.13079833984375, 82.05557250976562, 0.06591796875, -0.094482421875, -0.978515625
603, 2227925321, -15.904776573181152, 1.7768317461013794, 21.989261627197266, -42.93114471435547, 288.2251892089844, 45.112098693847656, 0.155517578125, -0.085693359375, -0.9697265625
604, 2227941988, -8.177312850952148, -11.426858901977539, 9.149916648864746, -67.90245819091797, 238.3818817138672, 18.108335494995117, 0.223388671875, -0.06689453125, -0.95751953125
605, 2227958655, -14.045839309692383, -6.413972854614258, 14.365487098693848, -20.23820686340332, 203.48716735839844, 23.841869354248047, 0.284423828125, -0.059814453125, -0.945068359375
606, 2227975322, -10.610491752624512, 0.6621218323707581, 13.052711486816406, 48.27039337158203, 78.14122009277344, 15.230895042419434, 0.31494140625, -0.0703125, -0.932861328125
607, 2227991989, -7.775180339813232, -2.0458922386169434, 12.499805450439453, 43.58917999267578, 35.88962173461914, 9.14185905456543, 0.33154296875, -0.083251953125, -0.925048828125
608, 2228008656, -5.716658592224121, -1.4469923973083496, 10.11587905883789, 29.800498962402344, 10.141775131225586, 3.2575175762176514, 0.33447265625, -0.0947265625, -0.927001953125
609, 2228025323, -4.772870063781738, -1.8638375997543335, 9.225857734680176, 19.939355850219727, -1.3161746263504028, 0.6884639859199524, 0.331787109375, -0.101318359375, -0.924560546875
610, 2228041990, -3.882596492767334, -1.5204848051071167, 8.880057334899902, 16.057966232299805, -2.4444143772125244, 0.5382065176963806, 0.330810546875, -0.104736328125, -0.926025390625
611, 2228058657, -3.9094762802124023, -1.7440297603607178, 8.829085350036621, 12.415627479553223, 2.207655668258667, 1.1226627826690674, 0.332763671875, -0.11083984375, -0.925048828125
612, 2228075324, -4.007264614105225, -1.706709384918213, 8.771737098693848, 4.262139797210693, 5.753605365753174, -1.54611074924469, 0.334716796875, -0.11083984375, -0.92236328125
613, 2228091991, -3.59425950050354, -1.7534645795822144, 8.571971893310547, 0.6883479356765747, 9.283638954162598, -2.292388439178467, 0.3369140625, -0.11181640625, -0.9208984375
614, 2228108658, -3.773012161254883, -2.071159839630127, 8.386259078979492, 1.6390665769577026, 13.033561706542969, -0.4997168779373169, 0.34033203125, -0.11279296875, -0.920166015625
615, 2228125325, -4.084632873535156, -2.139070749282837, 8.456064224243164, 7.046628952026367, 12.848702430725098, 2.494352340698242, 0.34521484375, -0.1162109375, -0.917236328125
616, 2228141992, -4.083559989929199, -2.0496230125427246, 8.55608081817627, 13.421012878417969, 12.239612579345703, 5.913883686065674, 0.347900390625, -0.117919921875, -0.917724609375
617, 2228158659, -4.203617572784424, -1.7690917253494263, 8.553250312805176, 15.363334655761719, 9.780269622802734, 9.701292037963867, 0.350830078125, -0.121826171875, -0.9150390625
618, 2228175326, -4.244062423706055, -1.4931023120880127, 8.677349090576172, 14.822851181030273, 9.210409164428711, 10.138154029846191, 0.350341796875, -0.1279296875, -0.9150390625
619, 2228191993, -4.457220554351807, -1.553181529045105, 8.685211181640625, 11.325197219848633, 9.197190284729004, 9.349099159240723, 0.35546875, -0.13232421875, -0.912841796875
620, 2228208660, -4.332736015319824, -1.6882658004760742, 8.505037307739258, 7.855875492095947, 8.869025230407715, 9.229063034057617, 0.35693359375, -0.1357421875, -0.912841796875
621, 2228225327, -4.270049571990967, -1.7711715698242188, 8.433777809143066, 8.25588321685791, 9.439702987670898, 11.192598342895508, 0.358642578125, -0.138916015625, -0.912353515625
622, 2228241994, -4.179698944091797, -1.8849852085113525, 8.366241455078125, 11.679340362548828, 9.558438301086426, 15.250639915466309, 0.360107421875, -0.144775390625, -0.910400390625
623, 2228258661, -3.96067214012146, -2.123957633972168, 8.435995101928711, 14.233468055725098, 9.564824104309082, 20.889583587646484, 0.362548828125, -0.14794921875, -0.90673828125
624, 2228275328, -4.314613342285156, -1.653990387916565, 8.507887840270996, 16.561420440673828, 12.46896743774414, 25.76932144165039, 0.36474609375, -0.159912109375, -0.90380859375
625, 2228291995, -4.003077983856201, -1.1077890396118164, 8.713533401489258, 12.544743537902832, 24.456626892089844, 29.883567810058594, 0.370361328125, -0.163818359375, -0.902587890625
626, 2228308662, -4.178933143615723, -0.9555224180221558, 8.773698806762695, 8.236126899719238, 49.88137435913086, 30.69272232055664, 0.37890625, -0.16845703125, -0.8974609375
627, 2228325329, -4.017095565795898, -0.9437752962112427, 8.739802360534668, 3.0146634578704834, 81.53446960449219, 30.94068145751953, 0.398681640625, -0.1748046875, -0.887939453125
628, 2228341996, -4.145226955413818, -1.1857051849365234, 8.636695861816406, 5.344164848327637, 115.63522338867188, 34.55896759033203, 0.423828125, -0.1787109375, -0.8740234375
629, 2228358663, -4.2252726554870605, -0.9981560111045837, 8.37026309967041, 8.382097244262695, 152.29454040527344, 44.04165267944336, 0.45751953125, -0.1875, -0.85595703125
630, 2228375330, -4.705002784729004, -0.7711583375930786, 8.364249229431152, 11.643293380737305, 188.9827880859375, 49.55215835571289, 0.49609375, -0.196044921875, -0.830810546875
631, 2228391997, -5.163460731506348, -0.3367999494075775, 8.130038261413574, 16.522335052490234, 221.78427124023438, 49.22636032104492, 0.54443359375, -0.20703125, -0.79931640625
632, 2228408664, -5.601029396057129, -0.2597156763076782, 8.160649299621582, 22.829299926757812, 260.4342956542969, 48.41283416748047, 0.5966796875, -0.218505859375, -0.75341796875
633, 2228425331, -5.5568108558654785, -1.0694143772125244, 8.063614845275879, 33.8934440612793, 327.32513427734375, 52.301246643066406, 0.6591796875, -0.23681640625, -0.693115234375
634, 2228441998, -6.719454765319824, -1.5481081008911133, 9.482095718383789, 29.067201614379883, 442.8740539550781, 53.519432067871094, 0.732666015625, -0.25439453125, -0.608642578125
635, 2228458665, -9.820648193359375, -1.379917860031128, 13.430889129638672, 4.183297157287598, 575.8109130859375, 57.56175994873047, 0.81591796875, -0.265869140625, -0.482666015625
636, 2228475332, -18.97612953186035, 0.2086205631494522, 15.19769287109375, 1.1576552391052246, 596.0220336914062, 63.758155822753906, 0.887451171875, -0.28173828125, -0.330810546875
637, 2228491999, -19.66957664489746, -5.534856796264648, 15.76435661315918, 46.08400344848633, 577.1825561523438, 83.2834243774414, 0.92333984375, -0.30517578125, -0.17529296875
638, 2228508666, -19.61850357055664, -5.813005447387695, 20.006282806396484, 58.89641571044922, 519.0635375976562, 99.35649108886719, 0.9306640625, -0.333740234375, -0.02197265625
639, 2228525333, -8.599518775939941, -5.434825897216797, 22.41634750366211, 48.159915924072266, 337.33819580078125, 78.25434112548828, 0.92333984375, -0.355224609375, 0.0869140625
640, 2228542000, -36.53956604003906, -6.175291061401367, 36.5376091003418, 112.3564453125, 164.03384399414062, 97.93673706054688, 0.9013671875, -0.37841796875, 0.152587890625
641, 2228558667, -9.864243507385254, -0.7156424522399902, 29.28839874267578, 23.79410743713379, -130.2451934814453, 61.88523864746094, 0.89453125, -0.3955078125, 0.143310546875
642, 2228575334, -2.131486177444458, -1.3496272563934326, 13.736851692199707, -5.243487358093262, -264.1900634765625, 49.86542510986328, 0.899658203125, -0.407470703125, 0.073974609375
643, 2228592001, 1.9248576164245605, -2.1165151596069336, 6.371130466461182, 4.925393104553223, -224.38284301757812, 84.69588470458984, 0.892333984375, -0.427490234375, 0.015380859375
644, 2228608668, 1.0041933059692383, -2.952906608581543, 5.705365180969238, -14.197176933288574, -187.8356475830078, 82.72463989257812, 0.878662109375, -0.448974609375, -0.03759765625
645, 2228625335, -2.682939052581787, -5.263984203338623, 7.556644916534424, -45.632320404052734, -188.6230010986328, 40.53553771972656, 0.87060546875, -0.462646484375, -0.08740234375
646, 2228642002, -6.739598274230957, -6.73463249206543, 11.40211296081543, -56.912269592285156, -237.79461669921875, -24.229894638061523, 0.864013671875, -0.460693359375, -0.14892578125
647, 2228658669, -7.242197036743164, -6.020328521728516, 9.710830688476562, -39.99384689331055, -299.9339294433594, -85.50723266601562, 0.856689453125, -0.439697265625, -0.232177734375
648, 2228675336, -5.157216548919678, -3.315704107284546, 7.501919269561768, -12.934065818786621, -336.5065002441406, -116.10978698730469, 0.8447265625, -0.41162109375, -0.313232421875
649, 2228692003, -5.417802333831787, 0.5792755484580994, 7.396875381469727, -4.546506881713867, -346.8553466796875, -116.93879699707031, 0.8212890625, -0.382568359375, -0.39892578125
650, 2228708670, -7.539775371551514, 3.2501702308654785, 9.336181640625, -20.809675216674805, -356.00634765625, -90.07122039794922, 0.786865234375, -0.355712890625, -0.482421875
651, 2228725337, -9.337199211120605, 4.116220474243164, 11.918838500976562, -49.36474609375, -379.12860107421875, -45.95010757446289, 0.73583984375, -0.340576171875, -0.570068359375
