Yaw,Pitch,Roll,MagX,MagY,MagZ,AccelX,AccelY,AccelZ,GyroX,GyroY,GyroZ
-143.007,-029.605,+009.405,+0.270,+0.858,+2.429,-04.6730,-01.3360,-08.1310,-00.002968,-00.000728,+00.001364
-143.004,-029.608,+009.401,+0.261,+0.848,+2.418,-04.6980,-01.3410,-08.1600,-00.002354,-00.002341,+00.002198
-143.001,-029.611,+009.398,+0.266,+0.828,+2.435,-04.6830,-01.3110,-08.1280,-00.001952,-00.002908,+00.002796
-142.998,-029.614,+009.394,+0.266,+0.823,+2.429,-04.6700,-01.3410,-08.0900,-00.002587,-00.003349,+00.002087
-142.996,-029.618,+009.392,+0.266,+0.858,+2.418,-04.6840,-01.3270,-08.1100,-00.000770,-00.001772,+00.001855
-142.994,-029.620,+009.390,+0.266,+0.828,+2.429,-04.6830,-01.3330,-08.1590,-00.000219,-00.002644,+00.001186
-142.993,-029.624,+009.391,+0.266,+0.838,+2.402,-04.6660,-01.3360,-08.1030,+00.001272,-00.004509,+00.001516
-142.993,-029.628,+009.392,+0.266,+0.818,+2.440,-04.6790,-01.3430,-08.1420,+00.001628,-00.002697,+00.000075
-142.993,-029.632,+009.394,+0.266,+0.823,+2.429,-04.6660,-01.3420,-08.1320,+00.002612,-00.003357,-00.000553
-142.994,-029.638,+009.398,+0.270,+0.823,+2.424,-04.6780,-01.3560,-08.1240,+00.003091,-00.003477,-00.001026
-142.995,-029.640,+009.400,+0.256,+0.823,+2.429,-04.6940,-01.3530,-08.1480,+00.001173,-00.001390,+00.000512
-142.996,-029.641,+009.402,+0.261,+0.823,+2.456,-04.7170,-01.3400,-08.1420,+00.001949,-00.000330,+00.000157
-142.996,-029.641,+009.403,+0.256,+0.833,+2.407,-04.6920,-01.3260,-08.0980,+00.001821,+00.001207,-00.000456
-142.996,-029.641,+009.405,+0.261,+0.823,+2.429,-04.6790,-01.3400,-08.1150,+00.001143,+00.000746,+00.000647
-142.997,-029.638,+009.407,+0.275,+0.838,+2.435,-04.6870,-01.3530,-08.1530,+00.001507,+00.001797,-00.001337
-142.998,-029.636,+009.409,+0.270,+0.848,+2.408,-04.6670,-01.3590,-08.1170,+00.000726,+00.001438,-00.001759
-142.999,-029.631,+009.411,+0.270,+0.828,+2.408,-04.6580,-01.3530,-08.1540,+00.000216,+00.002232,-00.001338
-142.999,-029.626,+009.410,+0.270,+0.818,+2.430,-04.6780,-01.3380,-08.1500,-00.000996,+00.004949,-00.001058
-142.999,-029.619,+009.406,+0.270,+0.843,+2.429,-04.6780,-01.3370,-08.1500,-00.001648,+00.004755,+00.000139
-142.998,-029.614,+009.404,+0.279,+0.848,+2.435,-04.6570,-01.3620,-08.1530,-00.001451,+00.002028,-00.000045
-142.996,-029.611,+009.402,+0.270,+0.833,+2.430,-04.6620,-01.3490,-08.1070,-00.000736,+00.000472,+00.001893
-142.995,-029.613,+009.402,+0.266,+0.843,+2.429,-04.6940,-01.3300,-08.1200,+00.001104,-00.001958,+00.000445
-142.996,-029.617,+009.405,+0.261,+0.833,+2.434,-04.6720,-01.3510,-08.1370,+00.003501,-00.003071,-00.000261
-142.996,-029.620,+009.409,+0.256,+0.843,+2.445,-04.6610,-01.3500,-08.1420,+00.002355,-00.004883,+00.000419
-142.994,-029.628,+009.411,+0.266,+0.828,+2.435,-04.6880,-01.3340,-08.1230,+00.004306,-00.007392,+00.002580
-142.994,-029.636,+009.414,+0.266,+0.838,+2.429,-04.7230,-01.3500,-08.1560,+00.004581,-00.005719,+00.001513
-142.994,-029.642,+009.418,+0.270,+0.813,+2.424,-04.6840,-01.3650,-08.1480,+00.004448,-00.005872,-00.000324
-142.994,-029.647,+009.422,+0.261,+0.823,+2.418,-04.6740,-01.3420,-08.1400,+00.004076,-00.005917,+00.001302
-142.996,-029.655,+009.431,+0.261,+0.843,+2.413,-04.7140,-01.3350,-08.1260,+00.012947,-00.009043,-00.002119
-142.998,-029.662,+009.439,+0.270,+0.828,+2.440,-04.7300,-01.3200,-08.1150,+00.003947,-00.004004,+00.000005
-143.000,-029.663,+009.445,+0.270,+0.863,+2.435,-04.6800,-01.3840,-08.1130,+00.001926,-00.000540,+00.000527
-142.999,-029.665,+009.448,+0.256,+0.823,+2.418,-04.7130,-01.4860,-08.1470,+00.005819,-00.000772,-00.000334
-142.999,-029.668,+009.450,+0.256,+0.828,+2.440,-04.6490,-01.3430,-08.1070,+00.002360,-00.002936,+00.001249
-142.997,-029.673,+009.454,+0.270,+0.843,+2.424,-04.6790,-01.3510,-08.1260,+00.006027,-00.005830,+00.002145
-142.997,-029.681,+009.461,+0.270,+0.833,+2.430,-04.6880,-01.4050,-08.1420,+00.006137,-00.007622,+00.001880
-142.997,-029.691,+009.467,+0.275,+0.848,+2.435,-04.7080,-01.3530,-08.1230,+00.006393,-00.007658,+00.000283
-142.997,-029.698,+009.472,+0.270,+0.828,+2.408,-04.7180,-01.3700,-08.1580,+00.004143,-00.006085,+00.001783
-142.994,-029.702,+009.470,+0.261,+0.823,+2.429,-04.7330,-01.2890,-08.1850,-00.006661,+00.002986,+00.004472
-142.988,-029.708,+009.467,+0.266,+0.843,+2.451,-04.7040,-01.3730,-08.1400,+00.003537,+00.001977,+00.000125
-142.987,-029.712,+009.470,+0.284,+0.858,+2.414,-04.6850,-01.3110,-08.1220,+00.002962,-00.004476,+00.001379
-142.986,-029.718,+009.473,+0.266,+0.823,+2.429,-04.6550,-01.4030,-08.0620,+00.003028,-00.006246,+00.002208
-142.988,-029.722,+009.480,+0.261,+0.848,+2.434,-04.7030,-01.3680,-08.1070,+00.005112,-00.003840,-00.000271
-142.991,-029.724,+009.488,+0.261,+0.833,+2.402,-04.7100,-01.3750,-08.1200,+00.004887,-00.000380,-00.002134
-142.995,-029.723,+009.495,+0.266,+0.828,+2.435,-04.7210,-01.3640,-08.1190,+00.003883,+00.001982,-00.002707
-142.997,-029.720,+009.502,+0.266,+0.833,+2.440,-04.6800,-01.3690,-08.1210,+00.004681,+00.000724,-00.003482
-143.000,-029.718,+009.507,+0.275,+0.843,+2.430,-04.7190,-01.3750,-08.1060,+00.003166,+00.001430,-00.001671
-143.000,-029.713,+009.511,+0.270,+0.843,+2.429,-04.7250,-01.3860,-08.0980,+00.001946,+00.005745,-00.001088
-143.006,-029.727,+009.518,+0.256,+0.838,+2.440,-04.7140,-01.3320,-08.1370,+00.003751,-00.008904,-00.000239
-143.004,-029.726,+009.520,+0.270,+0.843,+2.402,-04.7040,-01.3430,-08.1590,+00.002871,-00.001983,-00.000010
-143.007,-029.733,+009.526,+0.270,+0.833,+2.413,-04.7150,-01.3490,-08.0920,+00.005818,-00.013431,-00.002764
-143.008,-029.736,+009.533,+0.266,+0.828,+2.440,-04.7110,-01.3640,-08.1360,+00.006215,-00.002064,-00.001684
-143.011,-029.740,+009.542,+0.256,+0.838,+2.407,-04.7070,-01.3620,-08.1160,+00.004701,-00.003865,-00.001039
-143.016,-029.741,+009.552,+0.266,+0.823,+2.419,-04.7070,-01.4020,-08.0850,+00.007123,-00.002277,-00.002294
-143.016,-029.748,+009.556,+0.275,+0.813,+2.435,-04.7390,-01.4200,-08.0010,+00.009281,-00.005490,-00.000985
-143.022,-029.752,+009.569,+0.270,+0.868,+2.418,-04.7260,-01.3410,-08.1530,+00.009919,-00.006748,-00.005183
-143.032,-029.760,+009.586,+0.270,+0.833,+2.424,-04.7020,-01.4420,-08.1510,+00.012676,-00.007289,-00.007003
-143.043,-029.764,+009.605,+0.275,+0.838,+2.424,-04.6970,-01.3380,-08.1140,+00.012595,-00.005378,-00.009056
-143.054,-029.769,+009.623,+0.275,+0.828,+2.414,-04.6820,-01.3820,-08.1040,+00.009765,-00.005082,-00.004598
-143.061,-029.774,+009.638,+0.270,+0.828,+2.413,-04.6840,-01.4290,-08.1020,+00.008855,-00.006878,-00.003514
-143.067,-029.779,+009.652,+0.270,+0.813,+2.440,-04.6980,-01.3560,-08.1170,+00.009164,-00.002774,-00.004148
-143.072,-029.783,+009.665,+0.266,+0.838,+2.418,-04.6910,-01.3430,-08.0850,+00.009069,-00.004134,-00.004411
-143.077,-029.780,+009.685,+0.266,+0.848,+2.435,-04.6920,-01.3950,-08.1620,+00.020164,+00.005340,-00.002659
-143.080,-029.782,+009.696,+0.266,+0.808,+2.430,-04.6880,-01.3830,-08.1250,+00.009263,-00.003897,-00.001169
-143.084,-029.786,+009.709,+0.270,+0.853,+2.402,-04.7250,-01.4380,-08.1230,+00.010113,-00.003784,-00.002435
-143.086,-029.787,+009.724,+0.266,+0.843,+2.418,-04.7100,-01.3510,-08.1590,+00.010014,-00.005007,-00.001608
-143.091,-029.793,+009.738,+0.270,+0.838,+2.429,-04.7220,-01.3600,-08.1160,+00.012832,-00.006845,-00.005111
-143.100,-029.803,+009.759,+0.270,+0.843,+2.413,-04.6760,-01.3450,-08.1000,+00.012563,-00.016773,-00.006796
-143.116,-029.829,+009.789,+0.266,+0.838,+2.408,-04.6910,-01.3860,-08.0450,+00.020539,-00.012526,-00.008778
-143.134,-029.846,+009.830,+0.266,+0.838,+2.429,-04.7650,-01.4560,-08.2460,+00.040763,-00.013333,-00.013362
-143.155,-029.870,+009.871,+0.270,+0.858,+2.381,-04.7440,-01.4230,-08.1300,+00.030677,-00.024275,-00.010942
-143.174,-029.902,+009.912,+0.270,+0.833,+2.435,-04.6820,-01.3760,-08.0220,+00.028528,-00.027775,-00.009386
-143.194,-029.935,+009.964,+0.275,+0.833,+2.430,-04.6290,-01.4040,-08.0240,+00.051029,-00.030844,-00.010967
-143.217,-029.976,+010.016,+0.275,+0.848,+2.408,-04.7650,-01.3440,-08.0540,+00.033133,-00.037373,-00.010798
-143.246,-030.020,+010.080,+0.270,+0.843,+2.419,-04.7290,-01.3180,-08.1800,+00.039812,-00.044617,-00.016265
-143.275,-030.058,+010.141,+0.284,+0.833,+2.425,-04.7550,-01.5360,-08.2500,+00.038925,-00.036479,-00.014503
-143.306,-030.084,+010.198,+0.275,+0.853,+2.424,-04.8090,-01.4940,-08.0710,+00.029663,-00.021395,-00.015496
-143.331,-030.096,+010.249,+0.289,+0.877,+2.430,-04.7310,-01.4870,-08.1090,+00.024369,-00.006463,-00.015966
-143.352,-030.098,+010.284,+0.275,+0.848,+2.430,-04.7650,-01.5320,-08.0250,+00.022121,-00.006761,-00.014193
-143.370,-030.096,+010.317,+0.270,+0.848,+2.419,-04.7260,-01.4900,-08.1120,+00.025398,+00.000989,-00.012072
-143.384,-030.098,+010.343,+0.279,+0.853,+2.414,-04.8000,-01.5130,-08.0830,+00.025483,-00.006440,-00.009659
-143.394,-030.099,+010.366,+0.266,+0.848,+2.440,-04.7630,-01.4730,-08.0440,+00.017185,-00.001422,-00.004905
-143.402,-030.098,+010.387,+0.270,+0.863,+2.413,-04.7630,-01.5070,-08.0320,+00.013754,+00.001175,-00.005977
-143.414,-030.102,+010.409,+0.280,+0.868,+2.430,-04.6670,-01.6300,-08.0190,+00.017519,-00.021590,-00.008898
-143.426,-030.113,+010.433,+0.284,+0.873,+2.435,-04.7900,-01.4770,-08.0690,+00.015598,+00.000246,-00.005206
-143.435,-030.119,+010.454,+0.275,+0.853,+2.413,-04.8020,-01.4950,-08.0800,+00.017459,-00.000077,-00.005798
-143.450,-030.117,+010.476,+0.279,+0.863,+2.387,-04.7710,-01.4540,-08.0920,+00.011223,-00.006587,-00.013861
-143.471,-030.108,+010.507,+0.275,+0.848,+2.446,-04.8180,-01.5170,-07.9490,+00.011832,+00.005872,-00.018649
-143.505,-030.090,+010.543,+0.280,+0.873,+2.419,-04.9010,-01.4490,-08.0290,+00.026236,+00.015700,-00.034251
-143.566,-030.055,+010.609,+0.266,+0.868,+2.408,-04.9290,-01.4940,-08.1780,+00.046788,+00.027958,-00.059190
-143.660,-030.001,+010.735,+0.284,+0.868,+2.435,-04.8220,-01.5460,-08.0450,+00.085930,+00.035907,-00.089639
-143.788,-029.947,+010.913,+0.270,+0.873,+2.418,-04.7620,-01.6010,-07.9780,+00.104782,+00.021805,-00.107564
-143.935,-029.899,+011.121,+0.266,+0.897,+2.402,-04.7010,-01.6270,-07.9710,+00.127952,+00.018633,-00.122465
-144.091,-029.855,+011.342,+0.266,+0.873,+2.434,-04.6780,-01.6350,-08.0460,+00.122582,+00.013258,-00.122635
-144.233,-029.820,+011.539,+0.256,+0.888,+2.402,-04.6070,-01.6850,-08.0430,+00.101183,+00.006547,-00.103167
-144.349,-029.799,+011.699,+0.266,+0.878,+2.424,-04.4260,-01.7100,-08.0940,+00.080474,-00.008943,-00.073021
-144.433,-029.792,+011.816,+0.252,+0.873,+2.412,-04.7680,-01.5850,-08.0930,+00.059493,+00.003989,-00.063069
-144.512,-029.753,+011.910,+0.256,+0.902,+2.418,-04.6510,-01.6000,-07.9040,+00.039368,+00.021239,-00.066033
-144.582,-029.711,+011.992,+0.266,+0.882,+2.386,-04.6910,-01.7010,-08.0800,+00.041042,+00.015111,-00.054105
-144.636,-029.663,+012.058,+0.252,+0.893,+2.418,-04.6440,-01.7930,-08.0000,+00.025243,+00.032706,-00.041130
-144.665,-029.617,+012.090,+0.247,+0.893,+2.401,-04.7220,-01.6910,-08.0940,+00.008402,+00.044787,-00.022693
-144.659,-029.551,+012.075,+0.261,+0.888,+2.402,-04.6620,-01.8430,-08.1030,-00.019515,+00.070950,+00.003438
-144.642,-029.505,+012.042,+0.261,+0.883,+2.396,-04.6640,-01.7970,-08.2600,-00.022454,+00.028066,+00.008533
-144.606,-029.470,+011.978,+0.252,+0.903,+2.417,-04.6480,-01.7730,-08.1960,-00.054837,+00.016393,+00.028472
-144.538,-029.438,+011.852,+0.256,+0.898,+2.412,-04.5540,-01.8050,-08.0820,-00.095843,+00.033528,+00.057291
-144.435,-029.399,+011.670,+0.247,+0.873,+2.434,-04.6110,-01.8760,-08.0240,-00.124606,+00.050316,+00.076769
-144.330,-029.380,+011.489,+0.242,+0.893,+2.412,-04.6870,-01.6090,-08.1340,-00.102272,+00.025831,+00.072750
-144.248,-029.392,+011.362,+0.247,+0.873,+2.407,-04.6590,-01.5900,-08.0870,-00.057048,-00.005084,+00.058758
-144.188,-029.431,+011.291,+0.242,+0.848,+2.428,-04.6240,-01.6030,-08.0280,-00.033811,-00.037173,+00.050599
-144.135,-029.466,+011.236,+0.252,+0.893,+2.396,-04.7360,-01.5380,-08.0260,-00.026114,-00.005927,+00.043236
-144.096,-029.491,+011.192,+0.252,+0.858,+2.418,-04.6240,-01.5420,-07.9890,-00.025649,-00.016653,+00.031191
-144.051,-029.496,+011.142,+0.261,+0.878,+2.434,-04.6760,-01.6040,-08.1790,-00.026998,+00.008710,+00.038086
-144.000,-029.505,+011.080,+0.261,+0.892,+2.402,-04.6640,-01.6250,-07.9820,-00.030946,+00.007791,+00.042578
-143.939,-029.500,+011.002,+0.247,+0.903,+2.428,-04.6160,-01.5570,-08.0380,-00.050053,+00.012091,+00.046173
-143.880,-029.521,+010.921,+0.266,+0.868,+2.424,-04.6080,-01.5340,-08.0390,-00.044633,-00.018904,+00.048886
-143.828,-029.564,+010.854,+0.252,+0.863,+2.407,-04.5950,-01.5440,-08.1460,-00.031014,-00.050376,+00.047817
-143.765,-029.623,+010.769,+0.261,+0.863,+2.402,-04.5430,-01.6440,-07.9990,-00.054957,-00.056423,+00.061206
-143.703,-029.732,+010.696,+0.270,+0.853,+2.424,-04.5150,-01.4770,-07.9920,-00.024525,-00.106781,+00.063338
-143.645,-029.881,+010.649,+0.270,+0.863,+2.419,-04.5600,-01.5620,-07.9800,-00.010750,-00.127750,+00.075984
-143.563,-030.088,+010.604,+0.270,+0.858,+2.408,-04.5160,-01.4950,-08.0140,+00.004203,-00.199750,+00.105415
-143.470,-030.375,+010.572,+0.280,+0.853,+2.441,-04.7500,-01.5440,-08.0710,+00.012374,-00.243268,+00.121459
-143.360,-030.712,+010.533,+0.307,+0.862,+2.431,-04.7120,-01.5270,-08.1000,+00.012296,-00.294140,+00.149086
-143.200,-031.091,+010.456,+0.312,+0.857,+2.420,-04.6880,-01.6620,-08.1320,+00.002448,-00.329393,+00.205993
-142.978,-031.567,+010.341,+0.331,+0.857,+2.443,-04.7800,-01.6070,-08.1740,+00.017980,-00.414087,+00.253951
-142.683,-032.196,+010.226,+0.349,+0.867,+2.411,-04.4830,-01.4630,-08.2920,+00.055730,-00.562289,+00.347247
-142.422,-033.159,+010.140,+0.391,+0.866,+2.397,-04.9230,-01.4220,-08.1620,+00.052922,-00.948577,+00.329874
-142.305,-034.656,+010.098,+0.419,+0.861,+2.409,-04.8330,-01.4790,-08.2290,+00.019335,-01.475950,+00.319767
-142.260,-036.684,+010.089,+0.488,+0.890,+2.379,-04.9150,-01.2200,-07.7990,+00.006420,-01.964636,+00.377722
-142.119,-039.507,+009.904,+0.586,+0.859,+2.357,-04.6470,-01.6490,-07.7000,-00.122822,-02.675973,+00.631296
-141.542,-043.132,+009.421,+0.688,+0.834,+2.351,-04.6910,-01.8220,-08.3230,-00.084537,-03.203306,+01.078147
-140.359,-047.179,+008.291,+0.808,+0.812,+2.291,-06.2670,-01.4920,-07.9430,-00.321619,-03.527182,+01.377803
-138.525,-051.719,+006.450,+0.970,+0.780,+2.202,-07.7530,-02.1990,-07.6460,-00.434185,-03.936692,+01.634142
-135.844,-056.682,+003.605,+1.096,+0.715,+2.175,-08.5030,-01.8640,-08.1650,-00.665886,-04.366220,+01.802335
-132.041,-062.043,-000.454,+1.262,+0.648,+2.064,-08.7890,-00.9560,-07.6400,-00.705150,-04.812475,+01.841472
-126.276,-067.623,-006.544,+1.424,+0.586,+1.910,-11.1450,-02.5300,-09.6250,-00.842435,-05.048509,+01.829505
-116.544,-072.856,-016.833,+1.540,+0.481,+1.802,-12.6420,-04.7550,-09.0090,-01.189849,-05.020499,+02.012081
-099.191,-076.441,-036.021,+1.651,+0.390,+1.624,-09.9510,-08.6010,-09.0530,-03.016848,-04.268035,+02.427829
-079.765,-076.861,-060.209,+1.729,+0.191,+1.521,-24.6360,-07.0550,-32.8640,-04.461698,-01.724131,+01.653190
-080.962,-076.359,-061.695,+1.729,+0.126,+1.532,-05.1290,-03.7160,-16.6830,-01.144754,+01.307648,-00.258419
-087.900,-075.737,-055.689,+1.711,+0.156,+1.531,+00.1640,-05.7370,-07.8130,-00.654577,+01.490004,-00.202492
-093.565,-074.801,-051.167,+1.715,+0.097,+1.564,-01.9350,-04.8180,-09.4880,-00.861991,+01.600874,-00.092031
-100.723,-073.481,-044.870,+1.688,+0.078,+1.612,-03.2930,-03.4920,-11.6950,-00.225060,+02.356171,-00.429078
-109.793,-071.414,-035.989,+1.665,+0.113,+1.686,-03.0370,-03.8010,-10.7010,+00.387760,+03.231870,-00.749401
-118.499,-068.420,-027.226,+1.614,+0.124,+1.797,-02.7800,-03.4140,-08.9850,+00.556085,+03.735895,-00.909510
-125.746,-064.725,-019.742,+1.540,+0.180,+1.945,-04.7010,-02.3280,-09.8660,+00.869366,+04.101339,-01.092209
-131.740,-060.231,-013.150,+1.415,+0.261,+2.079,-05.8680,-02.3130,-09.9770,+01.232489,+04.610844,-01.271848
-136.416,-055.140,-007.581,+1.243,+0.323,+2.249,-05.8170,-01.6450,-08.6020,+01.525999,+04.789961,-01.379681
-139.880,-049.958,-002.779,+1.095,+0.419,+2.334,-06.4460,-01.1810,-07.9160,+01.954710,+04.551125,-01.442561
-142.515,-045.122,+001.657,+0.924,+0.505,+2.391,-06.9490,-01.0960,-07.6370,+02.270731,+04.003287,-01.557276
-144.727,-040.838,+005.861,+0.766,+0.610,+2.426,-10.8120,-00.6600,-13.0450,+02.433345,+03.531337,-01.698095
-146.547,-036.176,+009.982,+0.623,+0.661,+2.436,-13.1130,-00.9290,-14.9640,+02.634771,+04.065347,-01.833288
-147.972,-031.293,+013.644,+0.483,+0.796,+2.385,-13.2980,-02.1840,-11.5930,+02.352131,+03.805363,-01.929359
-149.468,-026.517,+016.727,+0.381,+0.822,+2.359,-17.1320,-03.0090,-12.9070,+01.928614,+03.739317,-02.414880
-151.337,-021.246,+019.615,+0.289,+0.872,+2.419,-17.0180,-02.1450,-10.9880,+01.815174,+03.981342,-03.097470
-153.415,-015.799,+022.235,+0.131,+1.003,+2.444,-15.8790,+00.1080,-07.5630,+01.649919,+03.672824,-03.362045
-155.378,-010.654,+024.423,-0.091,+1.079,+2.477,-17.7880,+00.8480,-05.9340,+01.368936,+03.357053,-03.223091
-156.845,-006.151,+025.864,-0.277,+1.131,+2.490,-16.8030,+04.8970,-00.2800,+00.958530,+02.729793,-02.495101
-157.612,-003.077,+027.418,-0.444,+1.201,+2.406,-18.1800,+10.6140,+04.1070,+01.635707,+01.705526,-01.365665
-157.909,-001.633,+029.633,-0.532,+1.266,+2.348,-18.6640,+07.8550,+06.1970,+01.796491,+00.524256,-00.540589
-158.079,-001.935,+030.292,-0.560,+1.296,+2.368,-14.8870,+02.0760,+03.6320,-00.318476,-00.774607,+00.329539
-157.589,-004.932,+029.604,-0.476,+1.355,+2.404,+03.2750,+01.3880,-02.5710,-00.105225,-02.691148,+02.125000
-155.871,-008.767,+027.487,-0.328,+1.324,+2.470,-01.5220,-10.8680,-06.5850,-02.340582,-02.498084,+03.342489
-154.745,-013.698,+024.934,-0.193,+1.303,+2.552,-03.0460,-08.7930,-04.2560,-01.694835,-03.853872,+02.022901
-154.439,-018.939,+022.417,-0.003,+1.247,+2.620,-07.9780,+05.6520,-11.1070,-02.355210,-04.071123,+02.326339
-153.161,-023.562,+019.745,+0.169,+1.221,+2.682,-15.4960,+00.5880,-16.8380,-01.602952,-02.841465,+02.325940
-152.284,-026.683,+017.299,+0.271,+1.156,+2.735,-13.9760,-11.0970,-12.8250,-02.149444,-02.171164,+01.156852
-151.654,-028.221,+014.570,+0.331,+1.072,+2.760,-05.6020,+05.8890,-07.0570,-01.735444,-00.762097,+00.642597
-151.419,-028.935,+013.302,+0.364,+1.012,+2.767,-05.2650,-01.3990,-07.8140,-00.701298,-00.490126,+00.212246
-151.343,-029.287,+012.750,+0.373,+0.997,+2.795,-05.6600,-02.4440,-08.6670,-00.350700,-00.188210,+00.102744
-151.282,-029.507,+012.460,+0.387,+1.002,+2.774,-04.7480,-01.7550,-08.1580,-00.169858,-00.172852,+00.077416
-151.255,-029.725,+012.324,+0.401,+0.987,+2.780,-04.9230,-00.9700,-08.4790,-00.054943,-00.171464,+00.045626
-151.304,-029.926,+012.340,+0.396,+0.972,+2.812,-04.8410,-01.2550,-08.2480,+00.014458,-00.188298,-00.023100
-151.424,-030.114,+012.454,+0.396,+1.022,+2.779,-04.9580,-01.7010,-08.0380,+00.056114,-00.173187,-00.066496
-151.547,-030.283,+012.579,+0.410,+0.987,+2.769,-04.6600,-01.7870,-07.9710,+00.056748,-00.157354,-00.048128
-151.639,-030.482,+012.688,+0.419,+1.017,+2.802,-04.7770,-02.0710,-07.9200,+00.037907,-00.177468,-00.016379
-151.680,-030.671,+012.727,+0.429,+1.021,+2.786,-04.8940,-01.7950,-08.0150,+00.009748,-00.157336,+00.012860
-151.723,-030.846,+012.776,+0.433,+1.001,+2.776,-04.9350,-01.7580,-07.9830,+00.037695,-00.160161,-00.006298
-151.781,-031.032,+012.866,+0.438,+1.002,+2.798,-04.8470,-01.7630,-08.0250,+00.060460,-00.176731,-00.003549
-151.816,-031.245,+012.946,+0.452,+1.016,+2.771,-04.9890,-02.0190,-07.8590,+00.044821,-00.187247,+00.033377
-151.798,-031.455,+012.974,+0.447,+1.006,+2.792,-04.9910,-01.8600,-07.8870,+00.027097,-00.168078,+00.063430
-151.744,-031.665,+012.974,+0.466,+0.996,+2.783,-04.9070,-01.8840,-07.8460,+00.023067,-00.175259,+00.091544
-151.649,-031.895,+012.946,+0.470,+1.016,+2.772,-05.0000,-01.9280,-07.8770,+00.019040,-00.188756,+00.125248
-151.523,-032.164,+012.885,+0.480,+1.011,+2.778,-05.1240,-01.7420,-07.9120,+00.004914,-00.202373,+00.151839
-151.377,-032.425,+012.813,+0.489,+1.031,+2.794,-05.1750,-01.7120,-07.9020,+00.010784,-00.201934,+00.155111
-151.225,-032.684,+012.750,+0.498,+1.020,+2.746,-05.1670,-01.7030,-07.8140,+00.009702,-00.189294,+00.166072
-151.040,-032.920,+012.640,+0.512,+1.025,+2.774,-05.1470,-01.7040,-07.8470,-00.014855,-00.159612,+00.185903
-150.799,-033.139,+012.447,+0.512,+1.011,+2.774,-05.1700,-01.8900,-07.7640,-00.080558,-00.130851,+00.231980
-150.465,-033.343,+012.145,+0.517,+1.010,+2.769,-05.3280,-01.8630,-07.4310,-00.135617,-00.120288,+00.298465
-150.064,-033.549,+011.769,+0.531,+0.971,+2.786,-05.3100,-01.6740,-07.7530,-00.117743,-00.127986,+00.333058
-149.644,-033.819,+011.423,+0.540,+0.996,+2.786,-05.2720,-01.6240,-07.8020,-00.080513,-00.191867,+00.357375
-149.234,-034.180,+011.146,+0.559,+0.995,+2.770,-05.2620,-01.4180,-07.8010,-00.029837,-00.289112,+00.343620
-148.860,-034.669,+010.896,+0.572,+0.965,+2.755,-05.2790,-01.6630,-07.8480,-00.059289,-00.407063,+00.366977
-148.468,-035.330,+010.559,+0.605,+0.955,+2.757,-05.4380,-01.3560,-07.6120,-00.097732,-00.578547,+00.365401
-148.193,-036.168,+010.258,+0.633,+0.994,+2.752,-05.5150,-01.0130,-07.6640,-00.138350,-00.756430,+00.289492
-148.077,-037.250,+010.015,+0.670,+0.940,+2.743,-05.4520,-01.1740,-07.7040,-00.154943,-01.020394,+00.235190
-147.999,-038.717,+009.770,+0.711,+0.910,+2.751,-05.2880,-01.3770,-07.5000,-00.180717,-01.419356,+00.308948
-147.816,-040.805,+009.478,+0.809,+0.933,+2.717,-05.4240,-01.4530,-07.4360,-00.146894,-01.999749,+00.505664
-147.387,-043.624,+009.106,+0.911,+0.912,+2.689,-05.2400,-01.3610,-07.9180,-00.033461,-02.565079,+00.770894
-146.536,-047.032,+008.354,+1.004,+0.916,+2.661,-05.5290,-01.7410,-08.4850,-00.215063,-03.083687,+01.084446
-145.061,-051.245,+006.877,+1.161,+0.860,+2.560,-06.1450,-01.8000,-08.0910,-00.356232,-03.810796,+01.493894
-142.409,-056.354,+004.165,+1.333,+0.778,+2.471,-09.0850,-02.5210,-08.8100,-00.617031,-04.594154,+01.929887
-137.781,-062.362,-000.555,+1.490,+0.707,+2.349,-08.9500,-03.3270,-10.6020,-00.693350,-05.551730,+02.430544
-129.026,-069.360,-009.002,+1.694,+0.605,+2.127,-10.7840,-00.6930,-10.1640,-00.073096,-06.742467,+02.621273
-111.216,-076.341,-025.784,+1.897,+0.478,+1.872,-16.1430,-03.8520,-12.4570,+00.250370,-07.116306,+02.512131
-075.600,-079.801,-061.085,+2.004,+0.411,+1.661,-16.5970,-09.9080,-17.0250,-01.121446,-05.937439,+02.767867
-045.564,-077.399,-094.240,+2.063,+0.172,+1.417,-30.3570,-12.1100,-30.4360,-03.795485,-03.255816,+02.876472
-048.495,-076.551,-093.894,+2.045,+0.078,+1.390,-06.6420,-04.2300,-21.8920,-01.144129,+01.904455,-00.088211
-058.557,-077.231,-084.624,+2.026,+0.083,+1.465,+01.5460,-05.2240,-06.5020,-00.412124,+01.826027,-00.727921
-069.223,-077.751,-075.105,+2.013,+0.148,+1.550,-01.6920,-05.0810,-07.8230,-00.994233,+02.023158,-00.876994
-083.998,-077.860,-061.926,+1.962,+0.140,+1.678,-03.5310,-03.0800,-10.4680,-01.067577,+02.864006,-01.206010
-102.846,-076.675,-044.355,+1.878,+0.201,+1.819,-03.3010,-01.1680,-09.5360,-00.455514,+03.862914,-01.398462
-119.237,-073.718,-028.493,+1.707,+0.272,+1.973,-03.2160,-00.9520,-07.4930,+00.243602,+04.375772,-01.410022
-130.617,-069.460,-017.157,+1.512,+0.354,+2.083,-05.9050,-02.3810,-08.9520,+00.536430,+04.822638,-01.502727
-138.699,-064.113,-008.999,+1.332,+0.401,+2.199,-06.2730,-02.0770,-07.8940,+00.697617,+05.323327,-01.748178
-144.382,-058.376,-002.929,+1.109,+0.502,+2.242,-06.4420,-00.6490,-05.7430,+01.098004,+05.081421,-01.872912
-148.232,-052.924,+001.829,+0.924,+0.544,+2.277,-09.1780,+00.3250,-06.8890,+01.550148,+04.609725,-01.825942
-150.673,-047.831,+005.714,+0.808,+0.604,+2.293,-10.7620,-00.2890,-08.3310,+01.781917,+04.169334,-01.511356
-152.142,-042.794,+008.779,+0.678,+0.714,+2.270,-16.3560,-02.3820,-13.5860,+01.727715,+04.420978,-01.473852
-153.286,-037.535,+011.497,+0.544,+0.795,+2.253,-15.0660,-01.7640,-09.4780,+01.751030,+04.173196,-01.602158
-154.388,-032.634,+014.039,+0.465,+0.845,+2.282,-19.3560,-03.8350,-10.6340,+01.567816,+03.974219,-01.814721
-155.655,-027.485,+016.147,+0.331,+0.960,+2.280,-19.6940,-04.5570,-09.7370,+01.109523,+04.189570,-02.308187
-157.279,-022.075,+017.883,+0.113,+1.012,+2.324,-17.9370,-02.4090,-07.4620,+00.852322,+04.049053,-02.752759
-159.047,-016.714,+019.382,-0.059,+1.004,+2.322,-17.9700,-00.2160,-05.6180,+00.763372,+03.889826,-02.905860
-160.674,-011.812,+020.564,-0.277,+1.051,+2.253,-17.6120,+02.3380,-00.3960,+00.636181,+03.278705,-02.600905
-161.882,-008.097,+021.755,-0.412,+1.027,+2.199,-19.1200,+08.2780,+05.4230,+01.141974,+02.226618,-01.810799
-162.644,-006.001,+023.986,-0.482,+1.047,+2.152,-20.7840,+11.0490,+09.1400,+02.184454,+00.932747,-01.057082
-163.218,-006.099,+025.624,-0.495,+1.111,+2.076,-16.1010,+05.6460,+16.2070,-00.077792,-01.357389,+00.329022
-162.381,-009.834,+024.888,-0.389,+1.135,+2.129,-04.0360,+04.5940,-09.7360,-00.588023,-02.577585,+02.705896
-160.432,-013.197,+023.545,-0.305,+1.105,+2.149,+01.1610,-09.5460,-00.7320,-00.911121,-02.654002,+02.703507
-159.935,-017.990,+022.622,-0.161,+1.128,+2.160,-10.9910,-14.6350,-13.2530,-00.589856,-03.697749,+01.453051
-159.996,-022.348,+021.598,-0.027,+1.102,+2.161,-11.4140,+03.2800,-13.8950,-01.007756,-03.330214,+01.467729
-159.629,-025.697,+019.981,+0.052,+1.052,+2.192,-13.1140,-06.2570,-13.1150,-01.499532,-02.238022,+01.138539
-159.168,-027.736,+017.460,+0.131,+1.007,+2.233,-11.0440,-00.4690,-12.9590,-01.860129,-01.040674,+00.711628
-158.754,-028.841,+015.412,+0.154,+0.937,+2.251,-06.7260,-02.0710,-10.0320,-01.307013,-00.682456,+00.445436
-158.518,-029.382,+014.270,+0.177,+0.967,+2.301,-05.6460,-01.7520,-10.1150,-00.700678,-00.289844,+00.229638
-158.324,-029.647,+013.633,+0.182,+0.922,+2.279,-05.1600,-01.2460,-08.4850,-00.375879,-00.143258,+00.181059
-158.157,-029.787,+013.224,+0.187,+0.893,+2.274,-04.9090,-01.4540,-08.3310,-00.246474,-00.066590,+00.136184
-158.035,-029.863,+012.980,+0.187,+0.873,+2.280,-04.9050,-01.4060,-08.1780,-00.120745,-00.051962,+00.087290
-157.990,-029.962,+012.845,+0.196,+0.893,+2.291,-04.9740,-01.3470,-08.2650,-00.103182,-00.112311,+00.035004
-157.971,-030.097,+012.720,+0.196,+0.892,+2.264,-04.9300,-01.7940,-08.0770,-00.105644,-00.087002,+00.048109
-157.865,-030.153,+012.493,+0.196,+0.858,+2.302,-04.8000,-02.0650,-08.0340,-00.187943,+00.008500,+00.118129
-157.633,-030.144,+012.118,+0.191,+0.873,+2.280,-04.7580,-02.1280,-07.6850,-00.230559,+00.033306,+00.184408
-157.382,-030.137,+011.720,+0.205,+0.853,+2.276,-04.8800,-01.6520,-08.0440,-00.225796,+00.049961,+00.181074
-157.189,-030.140,+011.438,+0.210,+0.863,+2.324,-04.6770,-01.3540,-07.9420,-00.119566,-00.013733,+00.120403
-157.092,-030.262,+011.310,+0.219,+0.868,+2.292,-04.6760,-01.2890,-08.0670,-00.046668,-00.133098,+00.078512
-157.048,-030.465,+011.254,+0.219,+0.887,+2.308,-04.8790,-01.4280,-08.1030,-00.028459,-00.183940,+00.064822
-156.998,-030.686,+011.184,+0.219,+0.843,+2.298,-04.9520,-01.6030,-08.0470,-00.041144,-00.176562,+00.081569
-156.923,-030.909,+011.102,+0.224,+0.863,+2.293,-04.9070,-01.6510,-08.0270,-00.042458,-00.142657,+00.110545
-156.782,-031.131,+010.970,+0.238,+0.853,+2.299,-04.9900,-01.7680,-07.9970,-00.065744,-00.158523,+00.164168
-156.574,-031.318,+010.777,+0.238,+0.848,+2.320,-05.0380,-01.5210,-07.9750,-00.073129,-00.111478,+00.187409
-156.336,-031.459,+010.560,+0.247,+0.862,+2.294,-05.0700,-01.5370,-08.0220,-00.088226,-00.079539,+00.204529
-156.068,-031.577,+010.333,+0.242,+0.828,+2.288,-04.9640,-01.4800,-07.8250,-00.074496,-00.066871,+00.221190
-155.796,-031.713,+010.113,+0.251,+0.828,+2.294,-04.9380,-01.1510,-07.8860,-00.060421,-00.089648,+00.206932
-155.556,-031.877,+009.941,+0.265,+0.852,+2.284,-05.0330,-01.3480,-07.9800,-00.030955,-00.119337,+00.201295
-155.313,-032.068,+009.805,+0.275,+0.867,+2.306,-05.1700,-01.2990,-07.9640,+00.011068,-00.151933,+00.208455
-155.103,-032.338,+009.743,+0.265,+0.828,+2.311,-04.9750,-01.2410,-07.8990,+00.065176,-00.242698,+00.185911
-154.910,-032.718,+009.730,+0.289,+0.847,+2.279,-04.9190,-01.3860,-07.8900,+00.078587,-00.337184,+00.212877
-154.690,-033.219,+009.691,+0.307,+0.847,+2.286,-04.8410,-00.9770,-07.9460,+00.051895,-00.455398,+00.227671
-154.574,-033.843,+009.691,+0.321,+0.827,+2.313,-04.9830,-01.1190,-07.9750,+00.041207,-00.573877,+00.155252
-154.551,-034.663,+009.739,+0.344,+0.856,+2.271,-05.1430,-01.1230,-07.9470,+00.060620,-00.769967,+00.135827
-154.596,-035.747,+009.842,+0.391,+0.846,+2.284,-05.2740,-01.0920,-07.8370,+00.070567,-01.039514,+00.123282
-154.780,-037.188,+010.101,+0.414,+0.846,+2.263,-05.3690,-01.0770,-07.7540,+00.187851,-01.409649,+00.069935
-155.130,-039.167,+010.557,+0.479,+0.885,+2.255,-05.1080,-01.5980,-07.3750,+00.170366,-01.964073,+00.107768
-155.387,-041.827,+010.864,+0.548,+0.864,+2.226,-05.5450,-01.4470,-07.5570,+00.128328,-02.463040,+00.363968
-155.349,-045.086,+011.022,+0.632,+0.853,+2.230,-05.5710,-01.4490,-07.6230,+00.149963,-02.973170,+00.666531
-155.094,-048.917,+010.954,+0.766,+0.881,+2.176,-06.0360,-01.4300,-07.7480,+00.076301,-03.433436,+00.871188
-154.540,-053.379,+010.572,+0.882,+0.830,+2.100,-06.7380,-01.2100,-07.5820,+00.052417,-04.014133,+01.110277
-153.881,-058.689,+010.033,+0.993,+0.819,+2.030,-08.3180,-02.4700,-07.3410,-00.013068,-04.819673,+01.132809
-153.020,-065.011,+009.251,+1.165,+0.797,+1.919,-10.1650,-02.3220,-11.4580,+00.127383,-05.773885,+01.341606
-151.087,-072.847,+007.416,+1.350,+0.755,+1.716,-10.8720,-00.0210,-09.4640,-00.039067,-07.197569,+01.687569
-144.688,-081.613,+000.941,+1.508,+0.693,+1.578,-15.4850,-05.6290,-12.6090,-00.458194,-07.480906,+01.957281
-068.518,-087.897,-075.267,+1.642,+0.656,+1.325,-20.0050,-04.3780,-16.3210,+00.264025,-06.465618,+01.634158
+000.374,-082.858,-144.863,+1.716,+0.540,+1.102,+04.1770,-08.7090,-10.6480,-02.180094,-04.587746,+02.232921
-004.499,-081.766,-142.315,+1.720,+0.441,+1.066,-15.4070,-06.0930,-31.0740,-01.563491,+01.794847,+00.250746
-021.105,-083.605,-126.599,+1.688,+0.431,+1.032,+01.4520,-01.8980,-08.7520,-00.292877,+02.331297,+00.231991
-047.154,-084.326,-100.927,+1.711,+0.327,+1.034,-02.8900,-04.3320,-09.3580,-00.242037,+02.601933,+00.433680
-080.760,-083.521,-067.986,+1.762,+0.247,+1.047,-03.5220,-05.1670,-09.9060,-00.549382,+03.425372,+00.307659
-107.675,-080.751,-042.007,+1.882,+0.197,+1.145,-04.1980,-04.5060,-10.1980,-00.561033,+04.285547,-00.050589
-124.912,-076.329,-025.406,+2.008,+0.088,+1.388,-04.7010,-03.5380,-09.0210,-00.044084,+05.116181,-00.543911
-135.661,-070.806,-014.620,+2.003,+0.125,+1.755,-04.7950,-03.1450,-07.5590,+00.664755,+05.539010,-01.013114
-142.658,-064.660,-006.997,+1.791,+0.173,+2.156,-06.3860,-03.0670,-07.9470,+01.172365,+05.788591,-01.404032
-147.391,-058.143,-001.044,+1.471,+0.257,+2.400,-06.6550,-01.3790,-06.5600,+01.818924,+05.736557,-01.635078
-150.472,-051.976,+003.922,+1.230,+0.329,+2.513,-08.4040,-01.5950,-06.4520,+02.232988,+05.097513,-01.675486
-152.709,-046.310,+008.155,+0.989,+0.431,+2.605,-12.0270,-03.4680,-09.8430,+02.139502,+04.655667,-01.873302
-154.700,-040.732,+012.118,+0.739,+0.543,+2.663,-16.0480,-00.8260,-13.8270,+02.471130,+04.605449,-02.218308
-156.382,-034.834,+016.244,+0.512,+0.654,+2.695,-19.7450,-03.2700,-13.1910,+02.677008,+04.734047,-02.499309
-158.066,-028.388,+019.564,+0.242,+0.740,+2.618,-24.7350,-05.5560,-13.4920,+01.735743,+05.166961,-03.267658
-160.048,-021.341,+021.732,-0.031,+0.802,+2.573,-21.8950,-01.3110,-06.6340,+00.873276,+05.062483,-03.750695
-161.991,-014.873,+022.704,-0.245,+0.799,+2.559,-23.0530,-01.4000,-02.2080,-00.046491,+04.315312,-03.524337
-163.815,-009.533,+022.606,-0.431,+0.796,+2.486,-23.0220,+02.9420,+04.1620,-00.438852,+03.275557,-03.014384
-165.276,-005.943,+023.234,-0.561,+0.777,+2.437,-23.0330,+11.3500,+09.5000,+01.070345,+01.852294,-01.943163
-166.371,-004.383,+025.549,-0.621,+0.788,+2.407,-22.6240,+09.3530,+10.4040,+02.102190,+00.234727,-01.162210
-167.329,-004.822,+026.671,-0.607,+0.852,+2.375,-16.2230,+05.0090,+06.5130,-00.000882,-01.241090,-00.045311
-166.533,-007.605,+026.682,-0.523,+0.861,+2.411,-07.1370,-03.3580,-21.6290,+00.163247,-01.220522,+02.053215
-164.262,-010.989,+025.215,-0.463,+0.850,+2.430,+03.1870,-07.1350,+04.9090,-01.208346,-02.688073,+03.286856
-163.638,-015.612,+024.155,-0.296,+0.819,+2.481,-10.0590,-17.2940,-11.2100,-00.886341,-03.549959,+01.560133
-163.769,-020.163,+022.804,-0.152,+0.764,+2.514,-08.0700,+03.8620,-12.0430,-01.252875,-03.676572,+01.583165
-163.261,-024.080,+021.258,-0.041,+0.718,+2.552,-13.0990,-03.9340,-14.1030,-01.241116,-02.675097,+01.546583
-162.985,-027.025,+019.322,+0.075,+0.682,+2.541,-10.9540,-04.0210,-11.3900,-01.753106,-02.126755,+00.968945
-162.499,-028.832,+016.933,+0.135,+0.593,+2.577,-06.6360,+00.6830,-08.5620,-01.626344,-01.045117,+00.659286
-162.203,-029.872,+015.430,+0.168,+0.538,+2.600,-09.9270,-01.9760,-11.4520,-00.863131,-00.544092,+00.362853
-161.956,-030.352,+014.529,+0.196,+0.523,+2.602,-05.1850,-02.0290,-08.2630,-00.608594,-00.283880,+00.269490
-161.725,-030.649,+013.946,+0.200,+0.508,+2.607,-05.2790,-02.0940,-08.2730,-00.318123,-00.185676,+00.217011
-161.536,-030.833,+013.580,+0.205,+0.469,+2.619,-05.2450,-01.2320,-08.0240,-00.159501,-00.098275,+00.138698
-161.476,-030.955,+013.406,+0.214,+0.528,+2.597,-05.1900,-01.2220,-08.1990,-00.108416,-00.077667,+00.037099
-161.458,-031.064,+013.266,+0.205,+0.459,+2.592,-05.0340,-01.9310,-07.9530,-00.112020,-00.097604,+00.038435
-161.407,-031.175,+013.110,+0.210,+0.468,+2.608,-04.9800,-02.0620,-07.8950,-00.121947,-00.058090,+00.080093
-161.257,-031.267,+012.836,+0.223,+0.463,+2.587,-05.0910,-02.1790,-08.0180,-00.211152,-00.005359,+00.161554
-161.008,-031.287,+012.467,+0.205,+0.449,+2.586,-05.0570,-01.8180,-07.7860,-00.186816,+00.031965,+00.182354
-160.791,-031.318,+012.170,+0.219,+0.444,+2.625,-04.9440,-01.4940,-07.9710,-00.150811,+00.007282,+00.152293
-160.606,-031.347,+011.918,+0.228,+0.468,+2.593,-04.9880,-01.5660,-07.9310,-00.122152,-00.003909,+00.134991
-160.448,-031.394,+011.713,+0.219,+0.424,+2.598,-05.0460,-01.4970,-07.9230,-00.101751,-00.014670,+00.118183
-160.339,-031.473,+011.567,+0.210,+0.444,+2.641,-05.1880,-01.6500,-07.9800,-00.082378,-00.043860,+00.090569
-160.221,-031.525,+011.438,+0.223,+0.458,+2.598,-04.8250,-01.5800,-07.7380,-00.038288,-00.059621,+00.095218
-160.122,-031.641,+011.385,+0.219,+0.439,+2.592,-04.7990,-01.5950,-07.8190,+00.014743,-00.096549,+00.096209
-160.027,-031.815,+011.366,+0.233,+0.419,+2.615,-05.0910,-01.5920,-07.8790,+00.028681,-00.135923,+00.099462
-159.936,-031.971,+011.371,+0.233,+0.429,+2.604,-05.1130,-01.5070,-07.9060,+00.064735,-00.121453,+00.083569
-159.842,-032.114,+011.344,+0.242,+0.428,+2.593,-05.1040,-01.6360,-07.9090,-00.016320,-00.106398,+00.109276
-159.700,-032.267,+011.232,+0.242,+0.414,+2.621,-04.9280,-01.7050,-07.8340,-00.037066,-00.117383,+00.146276
-159.502,-032.441,+011.080,+0.265,+0.423,+2.611,-05.0180,-01.6130,-07.9010,-00.039340,-00.131902,+00.185520
-159.265,-032.634,+010.913,+0.256,+0.423,+2.610,-05.0360,-01.5580,-07.9120,-00.038894,-00.128498,+00.221969
-158.962,-032.855,+010.701,+0.261,+0.443,+2.616,-05.0470,-01.5000,-07.8560,-00.029979,-00.161099,+00.267714
-158.633,-033.149,+010.524,+0.270,+0.423,+2.606,-04.9980,-01.4300,-07.8150,+00.016410,-00.242846,+00.294192
-158.278,-033.560,+010.349,+0.293,+0.423,+2.580,-05.2070,-01.5270,-07.8780,+00.010265,-00.343191,+00.339683
-157.925,-034.110,+010.156,+0.316,+0.433,+2.624,-05.3550,-01.1360,-07.8680,+00.011993,-00.486460,+00.310785
-157.690,-034.870,+010.021,+0.330,+0.432,+2.581,-05.1850,-01.1220,-07.8120,-00.011593,-00.718699,+00.271996
-157.557,-035.902,+009.935,+0.372,+0.412,+2.594,-05.2310,-01.1420,-07.8180,-00.004349,-00.974599,+00.244768
-157.524,-037.287,+009.921,+0.400,+0.412,+2.590,-05.3140,-01.1300,-07.5960,+00.011474,-01.333747,+00.233549
-157.539,-039.202,+009.916,+0.465,+0.441,+2.582,-05.1500,-01.3830,-07.3550,-00.053521,-01.866481,+00.334979
-157.397,-041.892,+009.799,+0.567,+0.430,+2.575,-05.2370,-01.0920,-07.3950,+00.023296,-02.549075,+00.596493
-156.986,-045.227,+009.686,+0.664,+0.414,+2.569,-05.3940,-00.7840,-07.5930,+00.178315,-03.025040,+00.809183
-156.535,-049.286,+009.560,+0.799,+0.427,+2.488,-05.8260,-00.8920,-07.8460,+00.152312,-03.707949,+00.905680
-155.925,-054.235,+009.294,+0.952,+0.406,+2.414,-07.0450,-01.3510,-07.7540,+00.157719,-04.507548,+01.140641
-155.235,-060.092,+008.608,+1.105,+0.384,+2.356,-08.7770,-02.3760,-08.2180,-00.095738,-05.354294,+01.130807
-154.249,-067.304,+007.748,+1.322,+0.371,+2.177,-09.9330,-02.5830,-11.4280,+00.108907,-06.681104,+01.419660
-151.195,-076.002,+004.998,+1.549,+0.323,+1.961,-13.0430,-03.2680,-11.1790,+00.112199,-07.799054,+01.792524
-135.118,-085.047,-011.137,+1.711,+0.276,+1.774,-14.4600,-02.1580,-11.0780,-00.436326,-07.957076,+01.919371
-003.971,-085.408,-141.875,+1.873,+0.253,+1.462,-16.5560,-07.8690,-16.3150,+00.685876,-06.874275,+01.421133
+006.330,-079.921,-151.530,+1.938,+0.207,+1.277,-33.7310,-06.7620,-29.1700,+00.459483,-02.594874,+01.906054
-004.400,-080.453,-140.900,+1.906,+0.188,+1.308,-07.7510,-07.1110,-22.0980,+00.001627,+02.814772,+00.868440
-027.151,-081.884,-118.746,+1.845,+0.179,+1.332,+01.4080,-03.9560,-06.0400,-00.473328,+02.990167,+01.102875
-051.741,-081.722,-095.020,+1.785,+0.145,+1.384,-01.9330,-04.0770,-07.0260,-00.497569,+02.920768,+00.852944
-076.622,-080.708,-070.864,+1.739,+0.111,+1.463,-03.6620,-05.5940,-08.7950,-00.359573,+03.697300,+00.214756
-100.015,-078.410,-048.226,+1.683,+0.142,+1.525,-03.1630,-05.0190,-07.6840,-00.281228,+04.397904,-00.397331
-117.721,-074.879,-030.972,+1.628,+0.133,+1.609,-03.7240,-03.0930,-06.8420,+00.258172,+04.710285,-01.027704
-130.278,-070.389,-018.109,+1.577,+0.203,+1.725,-05.9010,-02.2660,-07.7100,+01.024001,+05.046972,-01.507646
-138.989,-064.948,-008.580,+1.535,+0.298,+1.831,-06.8970,-02.6130,-07.0690,+01.369172,+05.353849,-01.830779
-145.011,-059.224,-001.477,+1.457,+0.403,+1.983,-07.8700,-00.8580,-05.5280,+01.654994,+05.008543,-02.100156
-149.263,-053.779,+004.264,+1.350,+0.514,+2.166,-09.9500,+01.4440,-06.2910,+02.104743,+04.515127,-02.148968
-151.949,-048.626,+008.939,+1.151,+0.675,+2.281,-12.9700,-00.7240,-09.4500,+02.195501,+04.222353,-01.839088
-153.419,-043.335,+012.288,+0.934,+0.806,+2.335,-16.3270,-01.9020,-11.8300,+01.897609,+04.484415,-01.730887
-154.709,-037.927,+015.386,+0.743,+0.853,+2.326,-17.6770,-02.2580,-09.7340,+02.051900,+04.252905,-02.141991
-156.439,-032.458,+018.582,+0.586,+0.958,+2.248,-22.2270,-05.9340,-10.3550,+01.694963,+04.258918,-02.858464
-158.492,-026.384,+020.776,+0.433,+1.029,+2.252,-20.1590,-04.2700,-06.8070,+00.632955,+04.494728,-03.450126
-160.631,-020.390,+021.848,+0.303,+1.040,+2.279,-19.1080,-01.7060,-04.2830,-00.009999,+04.062309,-03.477086
-162.639,-015.003,+022.107,+0.164,+1.046,+2.294,-18.6800,-00.4000,-01.3260,-00.460831,+03.504233,-03.164538
-164.347,-010.660,+022.022,+0.001,+1.018,+2.341,-18.3950,+04.2210,+03.1430,-00.241030,+02.598363,-02.485612
-165.507,-007.901,+022.775,-0.082,+1.039,+2.354,-18.7370,+10.5590,+07.2670,+01.037538,+01.373111,-01.421482
-166.206,-006.949,+024.705,-0.133,+1.124,+2.356,-18.3500,+07.9510,+07.5980,+01.645130,+00.004877,-00.597152
-166.370,-008.944,+024.965,-0.073,+1.133,+2.380,-19.6900,+11.4490,+09.8520,-00.479391,-02.402374,+01.535592
-164.946,-012.343,+024.481,+0.057,+1.147,+2.424,-06.0440,-07.6940,-22.0610,-00.174043,-01.581068,+02.417084
-163.877,-016.232,+024.018,+0.201,+1.141,+2.425,-01.9350,-12.7560,+00.5230,-00.219723,-03.565775,+02.122052
-163.899,-020.645,+023.664,+0.373,+1.154,+2.421,-10.2970,-03.2960,-12.1520,-00.554229,-03.403299,+01.467209
-163.371,-024.602,+022.303,+0.526,+1.113,+2.444,-13.1600,-03.8620,-14.3290,-01.300646,-02.684433,+01.668064
-162.864,-027.594,+019.867,+0.660,+1.087,+2.478,-13.7060,-09.1840,-15.3790,-02.633204,-01.869352,+01.203590
-162.237,-029.210,+017.081,+0.725,+0.943,+2.508,-08.2410,+00.4840,-13.5320,-01.809208,-01.014207,+00.721895
-161.891,-030.175,+015.422,+0.762,+0.893,+2.548,-06.2650,+00.2170,-09.1990,-00.959629,-00.611020,+00.374046
-161.722,-030.736,+014.657,+0.785,+0.883,+2.528,-06.4370,-01.5420,-09.0560,-00.400744,-00.340286,+00.191623
-161.645,-031.055,+014.363,+0.799,+0.888,+2.550,-05.2530,-01.8640,-08.1320,-00.171514,-00.249717,+00.091856
-161.656,-031.293,+014.251,+0.813,+0.858,+2.556,-05.1170,-01.6950,-08.1230,-00.072878,-00.174613,+00.013914
-161.735,-031.478,+014.301,+0.813,+0.888,+2.513,-05.2310,-01.7890,-07.9660,+00.038960,-00.176083,-00.033666
-161.872,-031.659,+014.448,+0.823,+0.873,+2.524,-05.1920,-01.9880,-07.9030,+00.077747,-00.182585,-00.072140
-162.021,-031.820,+014.617,+0.827,+0.873,+2.551,-05.2340,-02.1870,-07.7980,+00.078224,-00.141987,-00.063174
-162.119,-031.942,+014.753,+0.832,+0.882,+2.514,-05.0830,-02.1050,-07.7930,+00.075753,-00.115578,-00.035988
-162.196,-032.078,+014.885,+0.836,+0.877,+2.519,-05.0490,-02.0080,-07.7360,+00.073097,-00.144864,-00.015253
-162.268,-032.252,+015.002,+0.841,+0.872,+2.519,-05.1360,-02.0810,-07.7730,+00.067917,-00.156520,-00.007953
-162.329,-032.413,+015.108,+0.850,+0.907,+2.514,-05.1660,-01.9790,-07.6860,+00.060177,-00.144853,-00.008987
-162.388,-032.589,+015.212,+0.855,+0.877,+2.515,-05.1010,-02.1050,-07.8100,+00.076704,-00.169179,+00.010500
-162.402,-032.790,+015.312,+0.855,+0.877,+2.520,-05.0310,-02.1510,-07.5090,+00.061301,-00.178771,+00.050969
-162.382,-033.021,+015.354,+0.878,+0.897,+2.505,-05.2210,-02.1700,-07.6380,+00.041072,-00.196962,+00.075163
-162.346,-033.234,+015.379,+0.874,+0.892,+2.526,-05.3200,-02.0540,-07.6290,+00.035003,-00.153512,+00.074146
-162.268,-033.390,+015.347,+0.883,+0.907,+2.510,-05.3280,-02.1900,-07.5760,-00.015234,-00.095580,+00.104189
-162.083,-033.456,+015.156,+0.888,+0.902,+2.510,-05.2260,-02.3670,-07.5460,-00.107422,+00.022896,+00.173291
-161.727,-033.435,+014.776,+0.887,+0.887,+2.500,-05.2550,-02.2860,-07.5240,-00.191306,+00.114380,+00.296983
-161.183,-033.332,+014.205,+0.878,+0.872,+2.543,-05.4210,-02.0780,-07.5100,-00.258103,+00.216953,+00.387963
-160.600,-033.159,+013.583,+0.883,+0.872,+2.521,-05.3830,-01.8900,-07.6200,-00.253412,+00.247241,+00.365263
-160.105,-033.020,+013.054,+0.869,+0.828,+2.521,-04.9780,-01.5610,-07.7760,-00.202380,+00.148932,+00.297699
-159.722,-033.017,+012.618,+0.869,+0.828,+2.564,-05.1480,-01.6410,-07.7650,-00.196872,+00.013113,+00.259570
-159.420,-033.165,+012.285,+0.883,+0.813,+2.538,-05.0350,-01.5060,-07.8190,-00.113373,-00.137020,+00.237335
-159.193,-033.459,+012.132,+0.897,+0.808,+2.549,-05.0700,-01.5730,-07.8610,+00.017925,-00.265622,+00.215283
-159.000,-033.906,+012.102,+0.901,+0.808,+2.544,-05.2770,-01.5360,-07.8400,+00.088283,-00.401194,+00.217057
-158.934,-034.553,+012.168,+0.929,+0.822,+2.529,-05.3910,-01.2700,-07.7640,+00.110440,-00.627312,+00.119067
-159.063,-035.445,+012.393,+0.962,+0.817,+2.520,-05.0290,-01.6130,-07.7570,+00.124420,-00.885299,+00.061709
-159.343,-036.690,+012.752,+0.994,+0.816,+2.494,-05.2370,-01.3880,-07.7030,+00.184329,-01.237716,+00.033169
-159.777,-038.402,+013.255,+1.064,+0.850,+2.459,-05.3320,-01.6440,-07.4680,+00.207234,-01.709555,+00.057308
-160.298,-040.741,+013.868,+1.133,+0.829,+2.414,-05.6960,-01.5320,-07.4350,+00.306234,-02.266458,+00.167489
-160.791,-043.683,+014.634,+1.203,+0.829,+2.374,-05.3320,-01.8400,-07.3800,+00.439851,-02.766560,+00.400049
-161.246,-047.261,+015.577,+1.319,+0.862,+2.308,-05.8500,-02.0650,-07.5120,+00.562716,-03.260278,+00.618368
-161.705,-051.450,+016.543,+1.463,+0.885,+2.228,-06.1830,-01.9510,-07.0460,+00.517185,-03.795594,+00.854216
-162.321,-056.526,+017.614,+1.574,+0.853,+2.131,-07.3770,-02.2990,-07.0100,+00.473940,-04.663160,+01.069315
-163.816,-062.574,+019.287,+1.741,+0.846,+1.965,-09.2590,-02.9650,-09.5010,+00.257432,-05.545695,+01.016682
-166.999,-069.543,+022.795,+1.898,+0.814,+1.751,-10.8980,-04.1690,-09.7950,+00.435265,-06.380849,+01.321314
-173.245,-077.381,+029.021,+2.018,+0.752,+1.589,-14.5700,-04.2100,-10.8220,+00.126531,-06.996704,+01.680848
+163.712,-084.982,+051.904,+2.139,+0.700,+1.314,-18.4930,-01.5850,-13.4880,+00.096916,-06.757248,+01.943418
+065.345,-085.591,+151.239,+2.185,+0.654,+1.106,-07.2570,-04.9390,-12.8620,+01.668616,-05.686797,+01.291612
+040.203,-081.891,+178.590,+2.194,+0.634,+0.999,-36.2170,-17.3320,-37.6340,+01.053975,-01.208495,+01.249263
+030.547,-083.649,-172.652,+2.106,+0.591,+1.103,-06.1740,-09.5960,-18.1540,-01.683100,+02.671953,+01.004712
+001.050,-086.109,-145.792,+1.971,+0.543,+1.254,+01.8730,-02.5850,-05.4220,-02.311964,+02.595477,+01.593833
-049.159,-085.976,-097.910,+1.874,+0.441,+1.326,-01.9610,-02.2590,-07.5170,-01.590504,+02.480669,+01.530068
-086.511,-083.927,-061.857,+1.767,+0.382,+1.349,-05.0840,-05.4750,-10.7440,-00.751972,+03.512180,+00.957970
-110.750,-080.193,-038.498,+1.683,+0.294,+1.411,-04.7320,-06.5980,-09.6850,-00.507397,+04.655850,+00.371916
-125.170,-075.257,-024.769,+1.651,+0.300,+1.485,-05.0970,-05.7390,-08.1260,-00.160321,+05.216656,-00.285971
-134.965,-069.664,-015.094,+1.628,+0.326,+1.608,-06.4500,-04.5430,-08.1320,+00.588329,+05.582335,-01.034395
-142.254,-063.464,-007.207,+1.586,+0.362,+1.805,-07.9190,-03.8830,-08.6680,+01.292714,+05.919169,-01.639691
-147.452,-056.774,-000.823,+1.508,+0.477,+2.001,-07.1360,-02.2980,-05.4560,+01.832138,+05.882473,-01.910932
-150.947,-050.614,+004.429,+1.406,+0.633,+2.233,-08.8080,-00.5850,-05.9750,+02.304665,+04.977883,-01.996602
-153.432,-045.093,+009.233,+1.189,+0.869,+2.427,-11.3990,-00.9080,-09.8870,+02.669349,+04.438062,-01.993859
-155.035,-039.791,+013.189,+0.920,+1.035,+2.506,-15.2630,-03.0990,-13.9450,+02.394903,+04.363522,-01.903497
-156.303,-034.299,+016.536,+0.554,+1.162,+2.462,-16.2100,-04.4630,-11.3730,+02.166451,+04.320950,-02.260841
-158.110,-029.014,+019.549,+0.294,+1.243,+2.369,-19.7720,-06.9430,-09.3820,+01.511768,+03.790668,-03.001787
-160.652,-023.675,+021.883,+0.104,+1.230,+2.317,-21.6580,-03.6540,-08.0700,+00.841721,+03.591866,-03.777603
-163.405,-018.285,+023.644,-0.101,+1.232,+2.233,-22.6690,+00.7730,-05.6220,+00.566792,+03.395485,-03.867214
-165.714,-013.235,+024.505,-0.254,+1.159,+2.151,-22.2590,+03.5350,-00.2810,-00.049654,+03.068835,-03.321409
-167.321,-009.228,+024.489,-0.333,+1.125,+2.148,-22.0390,+07.4110,+04.8220,-00.316628,+02.298302,-02.291593
-168.148,-006.730,+024.658,-0.403,+1.120,+2.091,-21.5030,+10.6530,+09.3390,+00.357123,+01.254481,-01.126818
-168.577,-006.097,+025.474,-0.407,+1.091,+2.069,-20.3200,+07.9770,+09.0870,+00.666500,-00.195025,-00.252946
-168.231,-008.289,+026.041,-0.338,+1.125,+2.083,+03.7870,+06.8850,+00.2830,+01.009849,-02.147193,+01.703373
-166.684,-010.688,+026.097,-0.245,+1.143,+2.043,+04.4150,-14.7250,-06.1460,-00.180417,-01.693020,+02.496787
-166.032,-015.216,+025.484,-0.087,+1.117,+2.056,-07.6250,-18.7930,-07.9420,-00.353047,-03.766709,+01.622915
-166.578,-019.546,+025.057,+0.024,+1.091,+2.077,-06.4460,+03.1570,-09.5230,-00.652496,-03.629641,+01.291629
-166.666,-023.541,+024.432,+0.177,+1.090,+2.051,-13.8090,-03.6170,-15.7320,-00.721662,-02.804228,+01.293994
-166.832,-026.556,+023.153,+0.284,+1.004,+2.078,-11.0910,-06.6080,-12.7500,-01.410825,-02.165389,+00.744215
-166.808,-028.411,+021.060,+0.321,+0.960,+2.064,-06.4440,-00.4890,-10.5990,-01.482332,-01.379611,+00.498143
-166.840,-029.584,+019.605,+0.363,+0.944,+2.093,-06.7800,-03.3430,-09.0990,-01.198479,-00.784333,+00.257458
-166.737,-030.247,+018.434,+0.390,+0.875,+2.095,-06.6440,-02.5260,-08.6920,-00.798192,-00.371978,+00.242486
-166.621,-030.546,+017.786,+0.395,+0.855,+2.127,-05.6840,-02.1300,-08.1600,-00.365897,-00.155824,+00.118096
-166.564,-030.684,+017.452,+0.414,+0.870,+2.107,-05.4850,-01.8310,-08.3730,-00.207978,-00.069090,+00.055436
-166.529,-030.743,+017.253,+0.409,+0.845,+2.107,-05.1540,-01.9430,-08.1490,-00.127503,-00.030163,+00.040489
-166.501,-030.792,+017.137,+0.409,+0.825,+2.128,-05.1950,-02.3430,-07.8480,-00.080462,-00.036803,+00.026174
-166.501,-030.842,+017.052,+0.414,+0.845,+2.096,-04.9700,-02.3360,-07.8140,-00.076992,-00.038316,+00.013416
-166.480,-030.897,+016.950,+0.418,+0.845,+2.129,-04.9220,-02.4600,-07.7330,-00.086224,-00.043497,+00.041644
-166.421,-030.980,+016.797,+0.418,+0.825,+2.107,-04.9100,-02.3690,-07.6780,-00.124063,-00.062727,+00.075003
-166.343,-031.083,+016.594,+0.423,+0.830,+2.113,-04.9840,-02.3130,-07.7570,-00.150621,-00.059071,+00.081790
-166.256,-031.157,+016.374,+0.423,+0.815,+2.118,-04.9250,-02.2380,-07.7840,-00.154255,-00.036376,+00.086536
-166.100,-031.231,+016.072,+0.423,+0.805,+2.134,-04.6930,-02.3470,-07.7260,-00.228646,-00.023951,+00.163943
-165.803,-031.306,+015.564,+0.432,+0.800,+2.130,-04.7940,-02.3510,-07.7670,-00.362489,+00.016833,+00.275079
-165.345,-031.337,+014.835,+0.428,+0.815,+2.135,-05.0810,-02.3830,-07.8510,-00.453158,+00.086112,+00.369229
-164.798,-031.257,+014.056,+0.427,+0.766,+2.140,-05.2440,-01.7760,-08.0680,-00.397672,+00.215282,+00.373210
-164.250,-031.043,+013.370,+0.432,+0.761,+2.124,-05.1110,-01.8200,-07.8490,-00.306362,+00.288459,+00.317754
-163.808,-030.835,+012.831,+0.432,+0.756,+2.130,-05.0280,-01.5120,-07.8770,-00.242260,+00.253286,+00.257731
-163.500,-030.663,+012.468,+0.432,+0.741,+2.146,-04.8470,-01.5660,-07.9360,-00.152877,+00.177059,+00.168204
-163.289,-030.574,+012.232,+0.427,+0.761,+2.146,-04.7130,-01.4600,-07.9650,-00.088944,+00.070678,+00.123354
-163.156,-030.612,+012.094,+0.427,+0.736,+2.151,-04.8250,-01.5600,-07.9650,-00.051551,-00.040081,+00.100936
-163.038,-030.692,+011.979,+0.427,+0.756,+2.157,-04.8400,-01.6800,-07.9320,-00.044917,-00.055757,+00.103621
-162.916,-030.797,+011.852,+0.437,+0.731,+2.141,-04.8140,-01.7050,-07.9100,-00.074149,-00.083637,+00.116636
-162.749,-030.942,+011.644,+0.427,+0.721,+2.135,-04.8220,-01.7030,-07.9860,-00.114291,-00.114130,+00.164260
-162.561,-031.146,+011.431,+0.441,+0.726,+2.163,-04.8700,-01.6040,-07.9450,-00.082662,-00.168214,+00.174687
-162.386,-031.402,+011.280,+0.437,+0.736,+2.152,-04.9280,-01.4970,-07.9710,-00.040385,-00.222025,+00.172253
-162.206,-031.712,+011.156,+0.465,+0.721,+2.159,-04.9540,-01.4640,-07.9540,-00.007962,-00.259792,+00.187652
-162.054,-032.081,+011.105,+0.474,+0.746,+2.148,-04.8870,-01.4920,-07.9200,+00.041628,-00.320820,+00.168571
-161.950,-032.544,+011.134,+0.497,+0.740,+2.138,-05.2810,-01.3980,-07.9140,+00.092487,-00.422388,+00.139164
-161.868,-033.106,+011.220,+0.502,+0.750,+2.133,-04.9290,-01.9700,-07.6650,+00.121541,-00.507632,+00.177193
-161.773,-033.861,+011.311,+0.516,+0.711,+2.139,-05.3510,-00.7650,-08.1220,+00.119014,-00.733810,+00.178988
-161.816,-034.911,+011.528,+0.543,+0.725,+2.119,-04.6880,-02.1020,-07.9650,+00.177034,-01.042473,+00.169539
-161.938,-036.486,+011.816,+0.599,+0.734,+2.094,-05.2700,-01.2470,-07.6620,+00.204197,-01.552346,+00.190935
-162.186,-038.618,+012.259,+0.645,+0.729,+2.102,-05.1890,-01.2850,-07.5690,+00.298385,-02.032226,+00.238122
-162.485,-041.475,+012.820,+0.734,+0.737,+2.024,-05.2830,-01.5490,-07.7540,+00.337645,-02.723075,+00.421281
-162.756,-045.068,+013.580,+0.836,+0.751,+1.996,-05.4330,-01.6090,-07.7890,+00.576512,-03.296291,+00.618356
-163.092,-049.239,+014.533,+0.933,+0.740,+1.952,-06.2620,-01.8520,-07.6530,+00.650692,-03.781870,+00.745517
-163.667,-054.166,+015.753,+1.063,+0.768,+1.860,-07.3730,-02.0010,-07.3670,+00.684056,-04.536547,+00.872678
-164.859,-060.047,+017.492,+1.202,+0.781,+1.758,-09.6760,-02.8090,-08.3600,+00.581670,-05.360825,+00.892608
-167.661,-066.651,+020.945,+1.332,+0.749,+1.640,-10.0870,-02.6180,-10.1880,+00.846026,-06.089559,+00.950628
-173.294,-073.974,+026.955,+1.494,+0.781,+1.437,-13.1350,-02.1770,-11.0290,+00.501503,-06.656376,+01.131620
+173.822,-081.047,+039.804,+1.637,+0.710,+1.238,-16.5360,-01.9990,-10.7140,-00.029882,-06.209528,+01.482120
+129.892,-085.754,+084.260,+1.730,+0.728,+1.113,-09.4110,-04.0020,-13.3740,+01.120494,-05.211649,+01.170762
+069.655,-085.047,+146.254,+1.823,+0.706,+0.917,-32.7030,-13.7940,-31.6630,+01.197899,-02.405612,+01.287048
+062.861,-086.393,+152.838,+1.883,+0.676,+0.958,-07.7690,-08.6920,-20.7400,-00.788344,+02.193382,+00.866330
+080.790,-089.494,+133.501,+1.920,+0.617,+1.073,+01.9480,-02.9920,-05.7270,-01.400058,+02.385458,+01.390424
-113.947,-087.319,-033.325,+1.967,+0.587,+1.189,-01.9820,-02.7640,-07.4900,-01.257999,+02.325576,+01.592167
-118.429,-083.761,-029.939,+1.985,+0.533,+1.314,-04.4680,-04.8480,-10.4270,-00.773829,+03.171530,+01.204098
-125.610,-079.424,-023.472,+1.967,+0.515,+1.524,-03.5750,-05.3670,-08.8540,-00.428758,+04.087910,+00.678908
-131.912,-074.631,-017.584,+1.907,+0.492,+1.727,-03.2600,-05.3560,-06.8340,-00.100283,+04.439718,+00.080383
-137.563,-069.622,-012.066,+1.754,+0.509,+1.990,-05.4810,-05.3340,-08.4970,+00.250670,+04.757129,-00.606890
-142.904,-064.076,-006.628,+1.559,+0.542,+2.170,-06.0690,-04.5400,-08.3520,+00.569893,+05.224035,-01.240768
-147.286,-058.226,-001.864,+1.267,+0.644,+2.291,-05.8190,-02.2340,-05.8160,+00.986233,+05.109724,-01.538938
-150.404,-052.715,+002.251,+0.984,+0.623,+2.306,-08.2760,-00.7970,-06.2160,+01.551931,+04.640802,-01.533930
-152.369,-047.750,+005.822,+0.845,+0.644,+2.295,-09.8300,-01.1460,-08.0700,+01.929155,+04.001300,-01.306409
-153.684,-042.891,+009.225,+0.738,+0.669,+2.241,-16.0160,-03.5260,-13.9340,+02.231423,+04.316067,-01.452989
-154.892,-037.698,+012.551,+0.687,+0.719,+2.244,-13.9750,-03.0550,-09.1930,+02.217053,+04.097941,-01.745302
-156.144,-033.017,+015.864,+0.646,+0.814,+2.333,-17.6090,-01.6780,-10.0580,+02.277852,+03.601085,-01.930331
-157.241,-028.514,+018.882,+0.540,+1.008,+2.403,-18.2500,-02.1590,-09.9700,+01.998517,+03.484361,-01.963855
-158.173,-023.808,+021.340,+0.322,+1.164,+2.441,-17.0520,-02.2230,-09.6990,+01.720086,+03.672530,-02.219681
-159.148,-018.744,+023.516,+0.099,+1.201,+2.441,-15.8080,-02.2740,-08.1700,+01.462414,+03.812406,-02.519767
-160.141,-013.723,+025.278,-0.133,+1.277,+2.360,-14.7620,+00.5760,-05.8520,+01.229225,+03.523494,-02.562254
-160.986,-009.157,+026.756,-0.333,+1.299,+2.260,-15.3900,+03.1280,-02.3610,+01.098909,+03.075225,-02.250377
-161.609,-005.498,+028.126,-0.453,+1.300,+2.227,-18.7230,+07.0230,+05.8450,+01.188034,+02.192200,-01.776263
-162.533,-003.401,+029.673,-0.537,+1.325,+2.164,-20.6200,+09.2050,+12.0880,+01.274465,+00.523449,-01.461290
-163.758,-003.586,+030.163,-0.542,+1.310,+2.137,-16.0240,+03.0410,+06.8260,-00.422785,-01.292286,-00.370666
-164.005,-005.600,+029.234,-0.490,+1.290,+2.194,-04.9660,+01.4550,-17.2480,-00.726384,-01.467177,+01.086624
-163.174,-008.222,+028.356,-0.412,+1.304,+2.208,+05.6050,-05.4130,+00.8840,-01.708706,-02.362500,+02.887104
-161.929,-012.733,+026.407,-0.249,+1.243,+2.264,-06.7310,-08.2270,-10.5840,-00.744516,-03.156894,+01.981816
-161.854,-016.962,+025.298,-0.124,+1.218,+2.307,-06.1150,-02.1380,-09.0110,-01.105013,-03.342086,+01.745127
-161.535,-021.194,+023.978,+0.039,+1.216,+2.314,-11.6530,+00.2180,-14.5360,-01.040515,-03.007315,+01.829538
-161.023,-024.570,+022.367,+0.150,+1.146,+2.331,-11.5450,-07.5010,-11.8520,-01.441853,-02.264481,+01.261575
-160.666,-026.904,+020.234,+0.229,+1.071,+2.378,-10.1030,-02.2850,-13.2730,-01.857508,-01.401172,+00.903441
-160.145,-028.133,+017.761,+0.289,+1.036,+2.386,-05.6220,-02.1400,-08.9690,-01.781423,-00.836826,+00.606221
-159.724,-028.905,+015.884,+0.312,+0.951,+2.415,-06.7720,-02.8680,-10.4800,-01.303360,-00.422467,+00.448148
-159.317,-029.267,+014.589,+0.321,+0.887,+2.432,-05.2640,-02.2750,-09.5670,-00.826369,-00.204074,+00.355640
-158.952,-029.547,+013.682,+0.335,+0.902,+2.449,-05.0440,-01.1260,-08.4230,-00.502693,-00.142462,+00.294623
-158.689,-029.722,+013.157,+0.345,+0.867,+2.449,-04.9270,-00.6610,-08.3380,-00.247876,-00.084670,+00.190019
-158.549,-029.876,+012.903,+0.344,+0.852,+2.444,-04.9690,-01.2830,-08.2200,-00.125770,-00.108140,+00.112535
-158.479,-030.046,+012.759,+0.354,+0.842,+2.439,-05.4600,-01.6080,-08.0140,-00.078407,-00.153445,+00.070928
-158.414,-030.178,+012.641,+0.363,+0.842,+2.445,-04.8420,-02.0910,-08.0230,-00.073217,-00.085922,+00.079895
-158.273,-030.248,+012.466,+0.349,+0.837,+2.455,-04.9590,-01.9320,-07.9180,-00.094577,-00.010649,+00.131072
-158.103,-030.275,+012.285,+0.368,+0.832,+2.440,-04.8760,-01.5490,-07.9620,-00.073903,-00.014178,+00.122922
-157.985,-030.306,+012.179,+0.358,+0.847,+2.455,-04.9770,-01.3300,-08.0620,-00.016566,-00.007253,+00.068513
-157.949,-030.348,+012.177,+0.363,+0.822,+2.445,-04.7940,-01.4140,-08.0860,+00.034682,-00.040407,+00.018812
-157.963,-030.436,+012.242,+0.368,+0.852,+2.439,-04.8100,-01.5260,-07.9790,+00.060198,-00.096408,-00.000399
-157.991,-030.533,+012.342,+0.363,+0.847,+2.466,-04.7710,-01.6830,-07.8680,+00.078499,-00.074658,+00.000851
-158.071,-030.722,+012.487,+0.372,+0.872,+2.461,-04.9620,-01.9150,-07.8670,+00.076470,-00.139493,-00.015240
-158.099,-030.820,+012.577,+0.372,+0.862,+2.440,-04.8990,-01.8620,-07.9680,+00.061610,-00.060491,+00.006518
-158.073,-030.883,+012.615,+0.377,+0.867,+2.429,-04.8350,-01.9080,-07.9200,+00.035918,-00.038182,+00.047337
-158.014,-030.991,+012.615,+0.377,+0.847,+2.451,-04.8920,-01.8170,-07.9330,+00.024649,-00.107178,+00.069028
-157.934,-031.121,+012.590,+0.377,+0.847,+2.424,-04.8970,-01.7710,-07.8470,+00.008707,-00.095178,+00.089850
-157.829,-031.263,+012.542,+0.396,+0.857,+2.441,-04.8440,-01.6870,-07.8830,+00.011383,-00.126198,+00.106484
-157.743,-031.455,+012.525,+0.391,+0.832,+2.462,-04.9730,-01.6530,-07.9270,+00.034838,-00.161626,+00.098452
-157.667,-031.678,+012.527,+0.405,+0.857,+2.436,-04.9720,-01.6910,-07.8560,+00.040426,-00.190752,+00.089492
-157.601,-031.917,+012.546,+0.414,+0.842,+2.442,-04.9290,-01.8200,-07.8240,+00.052967,-00.203555,+00.097254
-157.514,-032.189,+012.573,+0.414,+0.842,+2.458,-04.9340,-01.5500,-08.0000,+00.069629,-00.226679,+00.120865
-157.398,-032.511,+012.588,+0.447,+0.851,+2.416,-04.9920,-01.7800,-07.8240,+00.065965,-00.273789,+00.157070
-157.254,-032.893,+012.607,+0.456,+0.836,+2.416,-05.1430,-01.7170,-07.8250,+00.096323,-00.322019,+00.184054
-157.117,-033.374,+012.647,+0.465,+0.841,+2.422,-05.0040,-01.5660,-07.6450,+00.089723,-00.447092,+00.180898
-157.073,-034.020,+012.717,+0.484,+0.890,+2.407,-05.1000,-01.5920,-07.8640,+00.077107,-00.600656,+00.155040
-157.050,-034.881,+012.791,+0.516,+0.855,+2.403,-05.0810,-01.8650,-07.8060,+00.048389,-00.810292,+00.203382
-157.071,-036.061,+012.801,+0.544,+0.845,+2.426,-05.4260,-01.6370,-07.4680,-00.002641,-01.131312,+00.206947
-157.162,-037.640,+012.886,+0.604,+0.859,+2.390,-05.4410,-01.7310,-07.5050,+00.052504,-01.528892,+00.284125
-157.217,-039.825,+013.033,+0.674,+0.873,+2.361,-05.5040,-01.6800,-07.3500,+00.126999,-02.091663,+00.474620
-157.159,-042.738,+013.194,+0.753,+0.877,+2.354,-05.2920,-01.3180,-07.4500,+00.215130,-02.676655,+00.699653
-156.996,-046.259,+013.426,+0.873,+0.861,+2.294,-05.4140,-01.5790,-07.6660,+00.292486,-03.173249,+00.874813
-156.815,-050.452,+013.599,+1.003,+0.845,+2.224,-06.7260,-01.6560,-07.8200,+00.239364,-03.743889,+01.006901
-156.660,-055.487,+013.756,+1.124,+0.838,+2.170,-07.3920,-01.9280,-07.0790,+00.264161,-04.622473,+01.180206
-157.363,-061.652,+014.741,+1.304,+0.855,+2.011,-08.6320,-03.1620,-09.0490,+00.458256,-05.728154,+00.987941
-159.243,-069.100,+017.309,+1.508,+0.803,+1.815,-09.6860,-02.1780,-09.8190,+00.839496,-06.843194,+01.250288
-163.833,-077.530,+022.386,+1.647,+0.786,+1.643,-13.9940,-02.3230,-11.5380,+00.390968,-07.500110,+01.461853
+175.348,-085.672,+043.197,+1.809,+0.748,+1.353,-19.5590,-00.8320,-12.2280,+00.104773,-07.081084,+01.608629
+057.902,-085.708,+161.575,+1.920,+0.726,+1.088,-06.8430,-05.2970,-16.2030,+01.512805,-05.697056,+01.150106
+038.744,-082.108,-177.925,+1.962,+0.670,+0.956,-35.8130,-16.2340,-38.2110,+00.345640,-00.910240,+01.088174
+029.664,-084.086,-169.625,+1.999,+0.685,+0.979,-04.9990,-06.9050,-17.6980,-01.124750,+03.020713,+00.723601
-003.287,-086.800,-138.352,+2.017,+0.591,+1.078,+02.4190,-02.4240,-04.2200,-01.519520,+02.776057,+01.262132
-061.243,-086.261,-082.245,+2.055,+0.527,+1.193,-01.7440,-03.4990,-06.6610,-01.498131,+02.669732,+01.387408
-093.595,-083.531,-051.551,+2.097,+0.508,+1.330,-04.4410,-05.4010,-09.8350,-01.239189,+03.578834,+00.940540
-112.957,-079.481,-033.496,+2.097,+0.435,+1.557,-04.0680,-05.5390,-08.5490,-00.783832,+04.584868,+00.274671
-125.187,-074.558,-022.182,+2.041,+0.446,+1.819,-04.5510,-05.9520,-07.1870,-00.404109,+05.030873,-00.344227
-133.809,-069.064,-014.135,+1.866,+0.524,+2.097,-06.2970,-05.5310,-07.4510,+00.039668,+05.439814,-00.970856
-140.410,-063.104,-007.677,+1.620,+0.611,+2.350,-06.2030,-04.5980,-05.3770,+00.582807,+05.519213,-01.484170
-145.406,-057.284,-002.188,+1.402,+0.689,+2.502,-08.4520,-03.1540,-05.3160,+01.266547,+05.082215,-01.847621
-149.325,-051.715,+002.838,+1.129,+0.865,+2.619,-09.5300,-03.6370,-05.1580,+01.725478,+04.674522,-02.042443
-152.205,-046.707,+006.891,+0.786,+0.963,+2.738,-13.4850,-04.7640,-09.0630,+01.590112,+03.998724,-02.024685
-154.652,-041.489,+010.539,+0.447,+0.937,+2.745,-16.9600,-03.8870,-11.8100,+01.782247,+04.448640,-02.321888
-156.724,-036.164,+014.124,+0.080,+0.945,+2.577,-17.5470,-02.7330,-09.7700,+02.123150,+04.045544,-02.361826
-158.379,-030.940,+017.575,-0.083,+0.782,+2.323,-21.8150,-03.9430,-11.8170,+02.201880,+04.167990,-02.445552
-159.585,-025.223,+020.481,-0.074,+0.717,+2.232,-19.9060,-02.8370,-09.6920,+01.923425,+04.520994,-02.531103
-160.354,-019.474,+023.003,-0.027,+0.815,+2.223,-16.4120,+00.8990,-06.6920,+02.029268,+04.288701,-02.331261
-160.658,-014.217,+025.678,-0.096,+0.970,+2.273,-16.5410,+02.5570,-06.4960,+02.379228,+03.971876,-01.980721
-160.384,-009.577,+028.375,-0.226,+1.149,+2.282,-15.4660,+04.1550,-02.7030,+02.373711,+03.507665,-01.380713
-159.628,-006.102,+031.046,-0.374,+1.299,+2.204,-16.5960,+07.7510,+02.2550,+02.523626,+02.581928,-00.682027
-158.914,-004.144,+034.254,-0.472,+1.443,+2.139,-19.2430,+10.0100,+08.2400,+03.019523,+01.236936,-00.256819
-158.637,-003.928,+037.200,-0.509,+1.557,+2.110,-17.2970,+03.6710,+06.4770,+01.996075,-00.206563,+00.420841
-158.120,-005.438,+037.591,-0.467,+1.601,+2.106,-14.1300,-01.3190,+00.9610,-00.546011,-01.005180,+01.535868
-157.169,-007.162,+035.876,-0.397,+1.596,+2.168,-00.2090,-14.9170,-14.4240,-01.022827,-00.639489,+01.308893
-156.565,-010.900,+033.026,-0.304,+1.585,+2.291,+02.0110,-03.8860,+02.2560,-03.059185,-03.279210,+02.921723
-156.238,-015.137,+030.029,-0.146,+1.575,+2.401,-02.0640,-02.4440,-08.9570,-02.367951,-02.892739,+01.881832
-156.125,-019.600,+028.044,+0.016,+1.539,+2.484,-06.3350,+07.6110,-10.6150,-01.407877,-03.519748,+02.181980
-155.297,-024.008,+026.375,+0.160,+1.562,+2.544,-14.7030,-07.5300,-14.8320,-01.351462,-02.739410,+02.272636
-154.711,-027.104,+023.668,+0.304,+1.477,+2.589,-11.8400,-09.2790,-12.6170,-02.612515,-01.958024,+01.172702
-154.070,-028.628,+020.260,+0.369,+1.383,+2.646,-08.7460,+01.7720,-11.8080,-02.179855,-00.805680,+00.779220
-153.656,-029.385,+018.148,+0.383,+1.304,+2.728,-06.5560,-03.0650,-08.9240,-01.496717,-00.453597,+00.429389
-153.311,-029.769,+016.681,+0.397,+1.274,+2.729,-05.2890,-01.9480,-08.5140,-00.920155,-00.150859,+00.334459
-152.979,-030.078,+015.649,+0.420,+1.219,+2.741,-05.0610,-01.4750,-08.7080,-00.638483,-00.179381,+00.291704
-152.763,-030.314,+015.024,+0.424,+1.204,+2.769,-04.9300,-01.4570,-08.3870,-00.356765,-00.166451,+00.169288
-152.697,-030.538,+014.728,+0.434,+1.194,+2.764,-05.1080,-01.5820,-08.1110,-00.168585,-00.168847,+00.065462
-152.681,-030.731,+014.618,+0.434,+1.180,+2.759,-05.2410,-02.0190,-08.0790,-00.056737,-00.148904,+00.055621
-152.643,-030.872,+014.573,+0.452,+1.194,+2.781,-05.0530,-02.1090,-07.8250,-00.012298,-00.127796,+00.061784
-152.597,-030.993,+014.552,+0.452,+1.194,+2.765,-04.9460,-02.0720,-07.8870,+00.006359,-00.078885,+00.057235
-152.546,-031.096,+014.536,+0.461,+1.224,+2.765,-04.9730,-01.9950,-07.8790,+00.010703,-00.073607,+00.061543
-152.489,-031.192,+014.526,+0.457,+1.199,+2.786,-05.0560,-01.9530,-07.9110,+00.022526,-00.063230,+00.061991
-152.433,-031.270,+014.534,+0.452,+1.204,+2.765,-05.0530,-01.8750,-07.8870,+00.036077,-00.054590,+00.053258
-152.386,-031.347,+014.552,+0.457,+1.209,+2.759,-04.9490,-01.9020,-07.9290,+00.038078,-00.061779,+00.051166
-152.329,-031.428,+014.546,+0.466,+1.194,+2.781,-05.0000,-02.0940,-07.8970,+00.002407,-00.039666,+00.070108
-152.234,-031.542,+014.454,+0.471,+1.214,+2.749,-05.1660,-02.2350,-07.8890,-00.077681,-00.059551,+00.117844
-152.006,-031.585,+014.175,+0.475,+1.194,+2.776,-05.0680,-02.1970,-07.7040,-00.169416,+00.034682,+00.214360
-151.627,-031.570,+013.737,+0.475,+1.179,+2.798,-05.0940,-02.1460,-07.7040,-00.224232,+00.106989,+00.292709
-151.181,-031.512,+013.237,+0.485,+1.194,+2.782,-05.1340,-01.8970,-07.7650,-00.237649,+00.132321,+00.317754
-150.763,-031.448,+012.761,+0.475,+1.154,+2.761,-05.0550,-01.7100,-07.8490,-00.210276,+00.104625,+00.275856
-150.423,-031.416,+012.377,+0.480,+1.150,+2.809,-04.9760,-01.5090,-07.9430,-00.160963,+00.068232,+00.220629
-150.155,-031.419,+012.081,+0.485,+1.169,+2.788,-04.9170,-01.5320,-07.8620,-00.122595,+00.011546,+00.179699
-149.938,-031.473,+011.842,+0.475,+1.135,+2.799,-04.9730,-01.5770,-07.9190,-00.102346,-00.026823,+00.160937
-149.744,-031.566,+011.643,+0.480,+1.145,+2.815,-04.9250,-01.6120,-07.8740,-00.079022,-00.058504,+00.155800
-149.566,-031.686,+011.471,+0.499,+1.179,+2.805,-04.9980,-01.6160,-07.9570,-00.067163,-00.081711,+00.149474
-149.377,-031.831,+011.295,+0.494,+1.159,+2.815,-04.9420,-01.5830,-07.8910,-00.063593,-00.114537,+00.168133
-149.202,-032.039,+011.139,+0.508,+1.135,+2.822,-04.9740,-01.5370,-07.9250,-00.050550,-00.174003,+00.165349
-149.024,-032.303,+010.989,+0.526,+1.144,+2.790,-04.8910,-01.6000,-07.8680,-00.055101,-00.217423,+00.186335
-148.787,-032.617,+010.798,+0.536,+1.129,+2.790,-04.8680,-01.4510,-08.0560,-00.050860,-00.251423,+00.256934
-148.459,-033.026,+010.579,+0.550,+1.109,+2.807,-05.1700,-01.5430,-07.7770,-00.023100,-00.337412,+00.327037
-148.149,-033.572,+010.395,+0.573,+1.173,+2.792,-05.0630,-00.8660,-08.0210,-00.001493,-00.509667,+00.287752
-147.969,-034.347,+010.320,+0.596,+1.114,+2.799,-05.0190,-01.0910,-07.9670,+00.028064,-00.736147,+00.228511
-147.948,-035.415,+010.363,+0.647,+1.118,+2.806,-05.2140,-01.2490,-07.7480,+00.055731,-01.035962,+00.165633
-148.010,-036.880,+010.462,+0.698,+1.142,+2.760,-05.3070,-01.6100,-07.6890,+00.056841,-01.413746,+00.214772
-148.037,-038.850,+010.533,+0.777,+1.136,+2.742,-05.3930,-01.5590,-07.3980,+00.019200,-01.887633,+00.358391
-147.928,-041.350,+010.517,+0.860,+1.126,+2.734,-05.4030,-01.0790,-07.4620,+00.078401,-02.356894,+00.545260
-147.670,-044.486,+010.485,+0.986,+1.154,+2.675,-05.7250,-01.0490,-07.6470,+00.128174,-02.839798,+00.722995
-147.254,-048.245,+010.269,+1.115,+1.113,+2.600,-05.8870,-01.1430,-07.8170,+00.019393,-03.402360,+00.906743
-146.531,-052.772,+009.675,+1.264,+1.091,+2.553,-06.7430,-01.6950,-07.4110,-00.052854,-04.077078,+01.189439
-145.300,-058.071,+008.514,+1.449,+1.084,+2.437,-08.4140,-02.4460,-07.9490,-00.179691,-04.695387,+01.396250
-143.178,-064.183,+006.478,+1.639,+1.037,+2.289,-09.4480,-02.7420,-09.5460,-00.116820,-05.513811,+01.717506
-138.944,-071.401,+002.532,+1.806,+0.975,+2.124,-12.1710,-03.0380,-09.0130,-00.048638,-06.529664,+01.980447
-128.965,-079.162,-007.297,+2.000,+0.932,+1.873,-14.9600,-02.1010,-09.8790,-00.071576,-06.868250,+01.790079
-092.723,-085.328,-042.856,+2.121,+0.855,+1.615,-19.1570,-02.9360,-12.4380,+00.783352,-05.906329,+01.518783
-022.982,-084.673,-111.549,+2.171,+0.869,+1.460,+04.7230,-04.8880,-16.1140,+00.258391,-03.912132,+01.822693
-022.183,-083.374,-113.077,+2.130,+0.790,+1.394,-10.9310,-09.5780,-24.3370,-00.976787,+01.336738,+00.468233
-040.951,-083.678,-095.703,+2.009,+0.757,+1.465,+01.6810,-04.0930,-06.9470,-01.203448,+01.735599,+00.243229
-058.314,-083.296,-079.743,+1.953,+0.738,+1.533,-02.7590,-03.0650,-09.2540,-01.005133,+01.885078,+00.169036
-080.968,-082.389,-058.062,+1.847,+0.699,+1.577,-05.0380,-04.7140,-11.9730,-00.573422,+03.049704,-00.343406
-104.676,-079.759,-035.284,+1.731,+0.676,+1.669,-03.2850,-04.1130,-09.4800,-00.569468,+04.248332,-00.638008
-119.531,-075.618,-021.122,+1.638,+0.648,+1.752,-02.0850,-02.2630,-05.9080,-00.081857,+04.499555,-00.802011
-128.743,-070.992,-011.819,+1.568,+0.649,+1.835,-04.4260,-02.8910,-05.5700,+00.657660,+04.491667,-01.270923
-135.715,-066.360,-004.583,+1.504,+0.640,+1.940,-05.7660,-04.4480,-04.9190,+00.505689,+04.167481,-01.793548
-141.260,-061.755,+000.692,+1.471,+0.686,+2.106,-09.3060,-02.5020,-07.9840,+00.188424,+04.114604,-02.081707
-145.668,-056.875,+004.820,+1.323,+0.787,+2.287,-09.9380,-01.3250,-06.9380,+00.342741,+04.120133,-02.171594
-148.978,-052.108,+007.820,+1.143,+0.909,+2.457,-11.1860,-02.4510,-06.3370,+00.162077,+03.822517,-02.094998
-151.607,-047.582,+009.865,+0.939,+1.035,+2.550,-14.7080,-03.6560,-09.1670,+00.009534,+03.672003,-02.085154
-154.071,-042.929,+011.655,+0.661,+1.127,+2.591,-15.5270,-04.9020,-08.3890,+00.013597,+03.738494,-02.353580
-156.799,-038.171,+013.113,+0.396,+1.100,+2.590,-17.6020,-09.2260,-07.8400,-00.521676,+03.637557,-02.932387
-160.494,-033.129,+014.169,+0.238,+1.052,+2.594,-16.9540,-09.6580,-05.3500,-01.191270,+03.616095,-03.992883
-165.214,-028.124,+014.939,+0.071,+0.935,+2.572,-15.4650,-07.3800,-03.2010,-01.508411,+03.124204,-04.793847
-170.477,-023.563,+015.375,-0.059,+0.852,+2.615,-14.7380,-07.3390,-01.7500,-01.692319,+02.523469,-05.124738
-176.064,-019.696,+015.441,-0.147,+0.779,+2.660,-14.5030,-09.1080,+00.7500,-01.711619,+01.734917,-05.394654
+177.581,-016.720,+015.729,-0.245,+0.696,+2.646,-15.0640,-09.7450,+02.8650,-01.257161,+00.680350,-06.015367
+170.559,-014.680,+016.777,-0.301,+0.652,+2.692,-16.5420,-06.4060,+02.7370,-00.410373,-00.254120,-06.100454
+164.288,-013.249,+018.192,-0.324,+0.603,+2.703,-17.8000,-02.2620,+01.7190,+00.058929,-00.403737,-04.904674
+159.862,-012.371,+019.586,-0.356,+0.598,+2.696,-15.2870,+01.1810,+04.7580,+00.581812,-00.613390,-03.173682
+156.975,-012.475,+021.211,-0.324,+0.623,+2.697,-15.8360,-01.6440,+03.9450,+00.998868,-01.108804,-01.804938
+154.662,-013.746,+022.912,-0.287,+0.687,+2.714,-08.5320,-05.5940,+12.8580,+00.964883,-02.649728,-01.281963
+152.774,-016.054,+023.895,-0.180,+0.715,+2.708,-02.5670,-03.8720,-13.9990,-00.274631,-02.452823,+00.040040
+152.090,-020.023,+024.092,-0.031,+0.758,+2.730,-06.9900,+06.6630,-09.9020,+00.277737,-03.661235,+01.141493
+152.420,-024.364,+023.607,+0.108,+0.742,+2.758,-11.4060,-01.5940,-13.0800,-00.802347,-03.197630,+02.021523
+153.430,-027.331,+020.153,+0.238,+0.652,+2.759,-27.5950,-14.9000,-16.7590,-02.540994,-01.145819,+01.235091
+153.883,-028.294,+018.596,+0.280,+0.607,+2.745,-08.0230,-01.6020,-13.3220,-00.685194,-00.400854,+00.348007
+153.925,-028.859,+018.103,+0.289,+0.578,+2.805,-06.8750,-00.4420,-09.7740,-00.198393,-00.410480,+00.049502
+153.713,-029.066,+018.291,+0.312,+0.612,+2.774,-04.6480,-03.8540,-07.0220,+00.131564,-00.205329,-00.122001
+153.512,-029.207,+018.515,+0.326,+0.627,+2.790,-05.2220,-02.5790,-08.0220,+00.124969,-00.113173,-00.116549
+153.372,-029.317,+018.646,+0.321,+0.592,+2.790,-04.2880,-03.5560,-07.2710,-00.024996,-00.145794,-00.018597
+153.374,-029.461,+018.509,+0.321,+0.602,+2.779,-04.5480,-02.9490,-07.5560,-00.147410,-00.103253,+00.063745
+153.423,-029.625,+018.269,+0.321,+0.622,+2.779,-05.0310,-02.3470,-07.9360,-00.188989,-00.116708,+00.075805
+153.441,-029.739,+018.082,+0.326,+0.577,+2.774,-04.9790,-02.2030,-07.9750,-00.131784,-00.074726,+00.024334
+153.409,-029.826,+017.999,+0.344,+0.587,+2.754,-04.8370,-02.2530,-07.9670,-00.052187,-00.085498,-00.012964
+153.364,-029.918,+017.960,+0.340,+0.592,+2.748,-04.7130,-02.7510,-07.6610,-00.067537,-00.088679,+00.008056
+153.367,-030.006,+017.870,+0.335,+0.567,+2.786,-05.0300,-02.3630,-07.8130,-00.068472,-00.070170,+00.028900
+153.372,-030.094,+017.816,+0.340,+0.582,+2.770,-04.9310,-02.4730,-07.7910,-00.032295,-00.074724,+00.026473
+153.400,-030.200,+017.757,+0.349,+0.562,+2.786,-05.0880,-02.3040,-07.9590,-00.032339,-00.080929,+00.059856
+153.451,-030.316,+017.717,+0.354,+0.602,+2.792,-04.9350,-02.5130,-07.7000,-00.010169,-00.093275,+00.075531
+153.512,-030.457,+017.678,+0.358,+0.596,+2.770,-05.1040,-02.4520,-07.7400,-00.008613,-00.106601,+00.083777
+153.587,-030.583,+017.616,+0.368,+0.581,+2.771,-05.1530,-02.2690,-07.7930,-00.029001,-00.072393,+00.085557
+153.660,-030.679,+017.546,+0.363,+0.562,+2.782,-05.0550,-02.3320,-07.7910,-00.027333,-00.057950,+00.074819
+153.737,-030.773,+017.467,+0.368,+0.577,+2.771,-05.0540,-02.3660,-07.7490,-00.041118,-00.059054,+00.081505
+153.822,-030.857,+017.368,+0.382,+0.591,+2.782,-04.9840,-02.3630,-07.7050,-00.058328,-00.043566,+00.087159
+153.914,-030.931,+017.249,+0.377,+0.586,+2.782,-05.0730,-02.2730,-07.7490,-00.055417,-00.043736,+00.077563
+153.982,-031.017,+017.150,+0.382,+0.567,+2.772,-05.1680,-02.2210,-07.7490,-00.062072,-00.055360,+00.067736
+154.067,-031.072,+017.018,+0.382,+0.567,+2.772,-05.0180,-02.3890,-07.6370,-00.086602,-00.012516,+00.080775
+154.183,-031.099,+016.855,+0.382,+0.552,+2.782,-05.1350,-02.2230,-07.6900,-00.083484,+00.008796,+00.089148
+154.299,-031.112,+016.707,+0.372,+0.557,+2.771,-05.1260,-02.1640,-07.7270,-00.073349,+00.015587,+00.083651
+154.424,-031.085,+016.562,+0.372,+0.552,+2.782,-05.0880,-02.2470,-07.6910,-00.084171,+00.072901,+00.088454
+154.573,-031.050,+016.368,+0.368,+0.542,+2.787,-05.0480,-02.1340,-07.7260,-00.092981,+00.047046,+00.093482
+154.715,-031.045,+016.173,+0.377,+0.552,+2.766,-05.0020,-02.2720,-07.7570,-00.116024,+00.040568,+00.108987
+154.906,-031.010,+015.914,+0.377,+0.537,+2.766,-05.0570,-02.2520,-07.7770,-00.156772,+00.082442,+00.141088
+155.125,-030.949,+015.606,+0.363,+0.522,+2.803,-05.1420,-01.9620,-07.9010,-00.178724,+00.099133,+00.140358
+155.366,-030.849,+015.238,+0.377,+0.517,+2.766,-05.0530,-02.1570,-07.8130,-00.238365,+00.154831,+00.163568
+155.673,-030.685,+014.753,+0.358,+0.547,+2.792,-05.0750,-02.0900,-07.8100,-00.308349,+00.224572,+00.194438
+155.989,-030.494,+014.266,+0.349,+0.498,+2.798,-05.0240,-01.6970,-07.7820,-00.243080,+00.193918,+00.169253
+156.200,-030.384,+013.941,+0.349,+0.483,+2.765,-04.9190,-01.6480,-07.9320,-00.165986,+00.105622,+00.117501
+156.327,-030.335,+013.732,+0.344,+0.473,+2.787,-04.9320,-01.7060,-07.9440,-00.111253,+00.056693,+00.067170
+156.418,-030.308,+013.573,+0.335,+0.478,+2.803,-04.8920,-01.8350,-07.9120,-00.097555,+00.023461,+00.062403
+156.520,-030.309,+013.401,+0.344,+0.517,+2.776,-04.9240,-01.8170,-07.8910,-00.114039,+00.012154,+00.083186
+156.637,-030.322,+013.215,+0.335,+0.453,+2.797,-04.8940,-01.8080,-07.8590,-00.105094,+00.005931,+00.088317
+156.754,-030.352,+013.055,+0.335,+0.463,+2.803,-04.7520,-01.7020,-07.9150,-00.076435,-00.027094,+00.092839
+156.864,-030.449,+012.910,+0.349,+0.463,+2.798,-04.8720,-01.6950,-07.9450,-00.096447,-00.075722,+00.107392
+156.988,-030.591,+012.727,+0.349,+0.448,+2.798,-04.9510,-01.6040,-07.9280,-00.097216,-00.108920,+00.119736
+157.114,-030.762,+012.565,+0.349,+0.458,+2.809,-04.9590,-01.5630,-08.0290,-00.074879,-00.138140,+00.128710
+157.238,-030.993,+012.423,+0.363,+0.473,+2.766,-04.6360,-01.6980,-08.1110,-00.062586,-00.186541,+00.140138
+157.406,-031.309,+012.228,+0.372,+0.473,+2.788,-04.9470,-01.8370,-07.8880,-00.119230,-00.260033,+00.202968
+157.594,-031.719,+011.974,+0.386,+0.438,+2.810,-04.8890,-01.1840,-08.1050,-00.121995,-00.364013,+00.204556
+157.712,-032.299,+011.779,+0.414,+0.457,+2.785,-04.9050,-01.4360,-08.0820,-00.120131,-00.572392,+00.184609
+157.784,-033.146,+011.567,+0.446,+0.418,+2.797,-04.8580,-01.7600,-08.0290,-00.140010,-00.760734,+00.230231
+157.928,-034.257,+011.323,+0.465,+0.407,+2.782,-05.0450,-01.4670,-07.9450,-00.148785,-01.070645,+00.315827
+158.034,-035.777,+011.092,+0.521,+0.397,+2.779,-05.2280,-01.5480,-07.9450,-00.149539,-01.436601,+00.360333
+158.206,-037.843,+010.805,+0.613,+0.435,+2.761,-05.1880,-01.5790,-07.4870,-00.171526,-01.953982,+00.527079
+158.562,-040.570,+010.373,+0.687,+0.365,+2.743,-05.3630,-01.5600,-07.6750,-00.193111,-02.509227,+00.771288
+159.319,-043.824,+009.600,+0.817,+0.364,+2.690,-05.6780,-01.8780,-07.7350,-00.292389,-02.826140,+01.096412
+160.629,-047.557,+008.144,+0.947,+0.347,+2.652,-06.5940,-01.9690,-07.7750,-00.573928,-03.275816,+01.417907
+162.729,-051.765,+005.581,+1.072,+0.292,+2.609,-08.1600,-01.7910,-08.2570,-01.008249,-03.635245,+01.728577
+166.068,-056.199,+001.213,+1.211,+0.166,+2.503,-10.1170,-03.5990,-08.4770,-01.721150,-03.789727,+02.108940
+171.295,-060.405,-005.314,+1.350,+0.070,+2.407,-10.3730,-03.6890,-08.3720,-01.907925,-03.746099,+02.422158
+178.983,-063.771,-014.780,+1.429,-0.104,+2.336,-12.4050,-06.3080,-09.2070,-02.638786,-03.240522,+02.730085
-170.723,-065.697,-028.511,+1.512,-0.299,+2.179,-09.3400,-09.0060,-08.0280,-04.674388,-02.851880,+03.046981
-160.633,-066.207,-044.450,+1.520,-0.557,+2.036,-15.9780,-07.6940,-15.3680,-05.997837,-02.013344,+01.741735
-162.214,-066.624,-047.219,+1.511,-0.646,+1.993,-05.8780,-07.6620,-12.5830,-02.657550,+00.894895,-01.641108
-168.435,-067.681,-044.077,+1.497,-0.651,+1.938,-02.6970,-07.4020,-06.2560,-02.369635,+00.798808,-02.200640
-175.174,-068.557,-040.786,+1.511,-0.716,+1.886,-04.5690,-03.6970,-08.3360,-02.602143,+01.093981,-02.099499
+176.677,-068.588,-035.670,+1.487,-0.711,+1.922,-05.3530,-00.9680,-10.0880,-01.807012,+01.919897,-02.000028
+168.045,-067.363,-029.126,+1.460,-0.740,+1.916,-03.8580,-01.5010,-08.4330,-01.041214,+02.636957,-01.662293
+160.773,-065.091,-023.444,+1.408,-0.764,+1.946,-04.0890,-02.7270,-07.6290,-00.766051,+03.051797,-01.290790
+154.734,-062.055,-018.713,+1.381,-0.818,+2.032,-05.3280,-03.7150,-07.8750,-00.476168,+03.466149,-01.244540
+149.308,-058.534,-014.324,+1.348,-0.822,+2.101,-05.3210,-04.4350,-06.2280,-00.167629,+03.611070,-01.475818
+144.256,-055.027,-010.051,+1.367,-0.822,+2.242,-07.1480,-04.5480,-06.9250,+00.160152,+03.451718,-01.865501
+139.382,-051.475,-005.756,+1.349,-0.762,+2.381,-08.5460,-04.1970,-07.4110,+00.432943,+03.391843,-02.204569
+134.900,-047.898,-001.714,+1.307,-0.617,+2.562,-09.2880,-03.7210,-07.0910,+00.595929,+03.179673,-02.369806
+130.940,-044.416,+001.849,+1.164,-0.431,+2.700,-10.3080,-03.9660,-07.9770,+00.612200,+02.951710,-02.403303
+127.396,-040.948,+005.047,+1.007,-0.331,+2.773,-12.3590,-03.2730,-10.1950,+00.794724,+02.875505,-02.500363
+124.148,-037.295,+008.228,+0.817,-0.156,+2.736,-11.8680,-02.0860,-08.4860,+01.087199,+02.853429,-02.555362
+121.285,-033.787,+011.302,+0.673,-0.135,+2.676,-12.8620,-01.5940,-08.5960,+01.299922,+02.587602,-02.495928
+118.800,-030.301,+014.212,+0.589,-0.159,+2.683,-13.1840,-01.6480,-08.8170,+01.430092,+02.563401,-02.444148
+116.658,-026.708,+016.942,+0.519,-0.148,+2.664,-12.7010,-01.6910,-08.9600,+01.524185,+02.607279,-02.418304
+114.878,-022.911,+019.438,+0.431,-0.093,+2.714,-11.6830,-01.3010,-08.9120,+01.509023,+02.760993,-02.321126
+113.613,-019.056,+021.583,+0.343,-0.052,+2.758,-10.4070,-00.3600,-08.2430,+01.457884,+02.794412,-02.020335
+112.888,-015.335,+023.482,+0.200,+0.014,+2.773,-09.6800,-00.0660,-07.5830,+01.486336,+02.743125,-01.676064
+112.586,-011.828,+025.331,+0.065,+0.080,+2.734,-09.7630,-00.0240,-07.4340,+01.584587,+02.660045,-01.400246
+112.626,-008.528,+027.173,-0.032,+0.110,+2.735,-09.0310,+00.1870,-06.0300,+01.616331,+02.531401,-01.143574
+112.860,-005.639,+028.997,-0.144,+0.170,+2.676,-09.2450,+00.1600,-05.0630,+01.623095,+02.188812,-00.948602
+113.053,-003.211,+030.895,-0.204,+0.215,+2.630,-09.1330,+01.2220,-02.8890,+01.719936,+01.725567,-00.893075
+113.048,-001.386,+032.984,-0.241,+0.260,+2.639,-10.7320,+02.4960,-00.9910,+01.862302,+01.112186,-00.799223
+112.889,-000.267,+035.031,-0.273,+0.320,+2.604,-12.0920,+03.2050,+00.7080,+01.671486,+00.491185,-00.545763
+112.724,-000.149,+036.445,-0.259,+0.344,+2.588,-10.8440,+01.5600,+00.5720,+00.890296,-00.286367,+00.101354
+112.854,-001.042,+036.726,-0.250,+0.384,+2.616,-10.4930,-00.5880,-02.6560,-00.095300,-00.651683,+00.778444
+113.543,-001.965,+036.293,-0.213,+0.334,+2.585,-01.2860,-13.3350,-20.5730,+00.021249,+00.000184,+00.832994
+114.501,-004.958,+034.617,-0.144,+0.269,+2.583,+03.3890,-04.2250,+01.8220,-02.078532,-02.560762,+03.030765
+115.392,-008.830,+031.980,-0.055,+0.219,+2.620,-03.8000,-08.4010,-06.2350,-02.249481,-02.487340,+02.133773
+115.599,-013.071,+029.240,+0.093,+0.093,+2.584,-02.1830,-03.8700,-07.8270,-02.123585,-03.340491,+01.870481
+115.703,-017.233,+027.125,+0.232,-0.027,+2.575,-07.6250,+05.3070,-12.9470,-01.679593,-02.981702,+01.957649
+116.412,-020.926,+025.477,+0.325,-0.092,+2.569,-08.9250,-03.1390,-11.3630,-00.956231,-02.441371,+01.760929
+116.873,-023.897,+023.901,+0.427,-0.153,+2.530,-10.3060,-07.4620,-10.6250,-01.402595,-01.967829,+01.168959
+117.400,-025.790,+021.202,+0.487,-0.267,+2.501,-12.4990,-08.7310,-13.9270,-03.174894,-00.848581,+01.027779
+118.044,-026.773,+018.190,+0.505,-0.352,+2.503,-07.5720,-01.0880,-11.8450,-02.285121,-00.607244,+00.695743
+118.657,-027.370,+015.862,+0.519,-0.441,+2.450,-06.5960,-02.3030,-10.4820,-01.556453,-00.297647,+00.518627
+119.119,-027.642,+014.444,+0.533,-0.476,+2.435,-06.1230,-00.8860,-09.9330,-00.819317,-00.092612,+00.341428
+119.408,-027.807,+013.636,+0.528,-0.506,+2.440,-05.4360,-00.8540,-08.7640,-00.459014,-00.067490,+00.203000
+119.569,-027.900,+013.158,+0.537,-0.516,+2.425,-04.8060,-01.1770,-08.4490,-00.290039,-00.047373,+00.105539
+119.647,-027.969,+012.914,+0.542,-0.506,+2.425,-04.8930,-01.5080,-08.3030,-00.150258,-00.054921,+00.063379
+119.736,-028.007,+012.700,+0.537,-0.530,+2.441,-04.8780,-01.9480,-08.0570,-00.159873,+00.007945,+00.086873
+119.883,-027.995,+012.433,+0.528,-0.525,+2.419,-04.6940,-01.9600,-07.9830,-00.186124,+00.050534,+00.122527
+120.070,-027.970,+012.131,+0.537,-0.531,+2.403,-04.6730,-01.5910,-08.0870,-00.181152,+00.049861,+00.136812
+120.234,-027.946,+011.867,+0.532,-0.565,+2.419,-04.7040,-01.4870,-08.0480,-00.156759,+00.045217,+00.106164
+120.362,-027.926,+011.649,+0.528,-0.560,+2.414,-04.6880,-01.6470,-08.0870,-00.131897,+00.033087,+00.088803
+120.488,-027.925,+011.433,+0.523,-0.570,+2.419,-04.6400,-01.6100,-08.1270,-00.143784,+00.017351,+00.101080
+120.635,-027.949,+011.197,+0.514,-0.580,+2.429,-04.5490,-01.5830,-08.0990,-00.150183,-00.000414,+00.128095
+120.800,-028.011,+010.953,+0.523,-0.545,+2.408,-04.7870,-01.5510,-08.1350,-00.172000,-00.083843,+00.134237
+121.015,-028.005,+010.675,+0.509,-0.605,+2.413,-04.6990,-01.4110,-08.0690,-00.143003,+00.033672,+00.166502
+121.221,-028.032,+010.428,+0.514,-0.585,+2.419,-04.7320,-01.4380,-08.0930,-00.124573,-00.012532,+00.154031
+121.447,-028.060,+010.166,+0.518,-0.590,+2.403,-04.6170,-01.5620,-08.0540,-00.135458,+00.007992,+00.185622
+121.700,-028.089,+009.899,+0.504,-0.609,+2.402,-04.8140,-01.3970,-08.0920,-00.127256,+00.017307,+00.198859
+121.952,-028.094,+009.639,+0.504,-0.624,+2.413,-04.8310,-01.2500,-08.1470,-00.123212,+00.038408,+00.183366
+122.183,-028.094,+009.401,+0.504,-0.600,+2.380,-04.5950,-01.1720,-08.1220,-00.107003,+00.014325,+00.167795
+122.370,-028.130,+009.202,+0.500,-0.600,+2.396,-04.6580,-01.1520,-08.1490,-00.087961,-00.020240,+00.140093
+122.529,-028.202,+009.035,+0.491,-0.609,+2.423,-04.6850,-01.0910,-08.1290,-00.072156,-00.051768,+00.123304
+122.671,-028.293,+008.898,+0.495,-0.619,+2.380,-04.6630,-01.1330,-08.1340,-00.057586,-00.062133,+00.121130
+122.812,-028.410,+008.768,+0.509,-0.610,+2.392,-04.6930,-01.2080,-08.1280,-00.057187,-00.096046,+00.125108
+122.973,-028.547,+008.616,+0.500,-0.639,+2.413,-04.6400,-01.2130,-08.0970,-00.067025,-00.113291,+00.152554
+123.177,-028.746,+008.436,+0.509,-0.629,+2.376,-04.6930,-01.2600,-08.1200,-00.076404,-00.165729,+00.194767
+123.430,-028.996,+008.212,+0.509,-0.624,+2.397,-04.6420,-01.3920,-08.0590,-00.100142,-00.204832,+00.250727
+123.758,-029.315,+007.944,+0.509,-0.659,+2.376,-04.6980,-01.3450,-08.1830,-00.082053,-00.259992,+00.312255
+124.168,-029.743,+007.619,+0.528,-0.615,+2.382,-04.7080,-01.2670,-08.1740,-00.120725,-00.364489,+00.385623
+124.671,-030.297,+007.207,+0.532,-0.654,+2.371,-04.7040,-01.1710,-08.2360,-00.149193,-00.467465,+00.473625
+125.328,-031.010,+006.710,+0.537,-0.674,+2.388,-05.1680,+00.0030,-08.3360,-00.102625,-00.615114,+00.631724
+126.157,-032.027,+006.121,+0.555,-0.670,+2.356,-05.3050,-00.5760,-08.3420,-00.146766,-00.969711,+00.725112
+126.980,-033.553,+005.437,+0.592,-0.695,+2.353,-04.9280,-00.5780,-08.3260,-00.231627,-01.491310,+00.735451
+127.721,-035.827,+004.677,+0.639,-0.715,+2.355,-04.6550,-00.7080,-08.4020,-00.353845,-02.229127,+00.708289
+128.572,-038.922,+003.668,+0.727,-0.736,+2.299,-04.5720,-00.4310,-08.2360,-00.468316,-02.921180,+00.843884
+129.832,-042.993,+002.139,+0.829,-0.777,+2.256,-05.2060,-00.4080,-08.1700,-00.687693,-03.848271,+01.134673
+131.889,-047.951,-000.234,+0.931,-0.803,+2.206,-06.2200,-01.6780,-06.8530,-00.965038,-04.582063,+01.463094
+135.452,-053.662,-004.004,+1.074,-0.845,+2.051,-08.0890,-01.1900,-08.3550,-00.791867,-05.359111,+01.991364
+141.674,-059.844,-010.010,+1.209,-0.901,+1.949,-10.0870,-02.6730,-09.8740,-00.666166,-05.895171,+02.453009
+151.832,-065.856,-019.356,+1.306,-0.986,+1.852,-11.3420,-00.6910,-09.5750,+00.072509,-06.132308,+02.579356
+167.114,-070.725,-032.865,+1.403,-1.018,+1.705,-15.9990,-03.7830,-11.0630,+00.733133,-05.656524,+02.596336
-172.120,-072.525,-053.405,+1.468,-1.098,+1.584,-08.9280,-10.0500,-12.9180,-01.826488,-04.493977,+03.360221
-158.654,-071.326,-068.996,+1.467,-1.222,+1.477,-24.0940,-03.2650,-37.3000,-01.294177,-00.564810,+01.459695
-162.344,-070.654,-065.246,+1.472,-1.203,+1.509,+00.9790,-06.8150,-08.8730,+00.660540,+01.450186,-00.289818
-166.742,-070.495,-060.687,+1.482,-1.163,+1.564,-01.6280,-04.6360,-08.2180,+00.191303,+01.246654,-00.574240
-173.314,-070.341,-054.114,+1.477,-1.142,+1.650,-04.0860,-02.8760,-11.3030,+00.499725,+02.040917,-01.143304
+176.747,-069.515,-043.894,+1.496,-1.024,+1.725,-03.2020,-02.1530,-10.2110,+00.870360,+03.092299,-01.503605
+166.348,-067.482,-033.096,+1.454,-0.963,+1.879,-01.9160,-01.0040,-07.2220,+01.037252,+03.587752,-01.476410
+157.663,-064.627,-023.757,+1.422,-0.858,+2.018,-03.0470,-01.1510,-07.5230,+01.328096,+03.693843,-01.608653
+149.921,-061.197,-015.308,+1.339,-0.683,+2.169,-04.2740,-02.2600,-08.5860,+01.318573,+03.940420,-02.082135
+143.119,-057.305,-008.088,+1.173,-0.527,+2.312,-04.4450,-00.1010,-07.1690,+01.172294,+03.874417,-02.366228
+137.605,-053.267,-001.970,+0.997,-0.412,+2.390,-07.2730,+01.6220,-08.8220,+01.521448,+03.709154,-02.433831
+133.246,-048.999,+003.219,+0.793,-0.321,+2.369,-09.1380,-00.2490,-09.4460,+01.495413,+03.669138,-02.413188
+129.877,-044.683,+006.959,+0.672,-0.359,+2.359,-10.6180,-01.6310,-09.5300,+00.842803,+03.464923,-02.272387
+127.203,-040.395,+009.456,+0.598,-0.408,+2.372,-13.6100,-02.3200,-11.6070,+00.559649,+03.500458,-02.280339
+124.519,-035.996,+011.770,+0.583,-0.511,+2.383,-14.0620,-04.0950,-08.9020,+00.556701,+03.332387,-02.685052
+121.396,-031.787,+013.890,+0.681,-0.581,+2.491,-16.0630,-06.7770,-08.2620,+00.164553,+02.949966,-03.261617
+117.526,-027.545,+015.726,+0.755,-0.581,+2.672,-15.7040,-07.6900,-07.3430,-00.206401,+02.759371,-04.112128
+112.983,-023.262,+017.085,+0.728,-0.486,+2.897,-13.9770,-06.5630,-05.3520,-00.653294,+02.424870,-04.666863
+108.123,-019.198,+018.125,+0.571,-0.439,+3.046,-14.0690,-05.4260,-05.8660,-00.609016,+02.080776,-04.905141
+103.329,-015.340,+018.665,+0.431,-0.422,+3.094,-12.5190,-04.9770,-04.1150,-00.882126,+01.795412,-04.794920
+098.628,-012.020,+018.750,+0.311,-0.426,+3.024,-11.5270,-03.6170,-02.6960,-00.839085,+01.235653,-04.644764
+094.048,-009.423,+018.884,+0.264,-0.461,+2.963,-11.7220,-02.9970,-01.7780,-00.463588,+00.674314,-04.300259
+089.856,-007.537,+019.352,+0.283,-0.481,+2.942,-12.5880,-01.6540,-00.4340,+00.093835,+00.205103,-03.706216
+086.298,-006.354,+020.276,+0.310,-0.437,+2.884,-13.2860,-00.8250,+01.5760,+00.579574,-00.252977,-02.991458
+083.241,-005.975,+021.144,+0.375,-0.413,+2.854,-13.9430,-01.6380,+02.7430,+00.289516,-00.860311,-02.349751
+080.752,-006.527,+021.142,+0.426,-0.443,+2.851,-12.8010,-01.1000,+02.4820,-00.535270,-01.435365,-01.516237
+078.930,-007.880,+020.514,+0.519,-0.479,+2.807,-11.5430,-01.6390,+00.1310,-00.798243,-01.757250,-00.817615
+077.525,-010.270,+021.603,+0.607,-0.455,+2.746,-00.6700,-07.8680,-02.2390,+01.314304,-02.777977,-00.327047
+076.736,-013.562,+021.869,+0.700,-0.466,+2.750,-01.0970,-05.1300,-07.3960,-00.119193,-03.257653,+00.675141
+075.602,-017.906,+022.189,+0.834,-0.498,+2.670,-09.4590,-03.5680,-11.0080,+00.049986,-04.019018,+00.457616
+074.745,-022.220,+022.266,+0.960,-0.514,+2.600,-11.2880,+05.1290,-14.5930,-00.285035,-03.529199,+01.114191
+075.141,-025.599,+021.075,+1.015,-0.604,+2.538,-16.2070,-06.8860,-14.4040,-01.313898,-01.999494,+01.312297
+075.850,-027.100,+018.884,+1.047,-0.664,+2.469,-03.6690,-00.2970,-06.1960,-01.439834,-00.870815,+00.802333
+076.305,-028.158,+017.309,+1.056,-0.738,+2.438,-07.4450,-02.5350,-09.0740,-01.099727,-00.675829,+00.497484
+076.490,-028.842,+016.301,+1.066,-0.773,+2.433,-06.3430,-02.8420,-09.4740,-00.660317,-00.457146,+00.270357
+076.613,-029.273,+015.756,+1.061,-0.793,+2.368,-05.7220,-02.8260,-07.8380,-00.352434,-00.267299,+00.157983
+076.709,-029.500,+015.360,+1.070,-0.818,+2.380,-05.3100,-02.5650,-07.8970,-00.280434,-00.139127,+00.104767
+076.830,-029.662,+015.019,+1.070,-0.818,+2.412,-05.2060,-02.4910,-07.9000,-00.208929,-00.090094,+00.141374
+076.989,-029.792,+014.703,+1.075,-0.823,+2.348,-05.4870,-01.6470,-08.0150,-00.180186,-00.065092,+00.121349
+077.044,-029.862,+014.556,+1.070,-0.843,+2.358,-05.3460,-01.9780,-07.9160,-00.074996,-00.037911,+00.026932
+077.050,-029.861,+014.501,+1.066,-0.848,+2.391,-05.0850,-01.9640,-07.8800,-00.017625,+00.009197,-00.015833
+077.010,-029.879,+014.538,+1.061,-0.828,+2.369,-04.9530,-02.0580,-07.9130,+00.028617,-00.036012,-00.018970
+076.985,-029.929,+014.597,+1.075,-0.843,+2.359,-04.9940,-02.1600,-07.8110,+00.046263,-00.048638,+00.004098
+076.988,-029.969,+014.652,+1.066,-0.838,+2.374,-05.1790,-01.9370,-07.8370,+00.053414,-00.020451,+00.005115
+076.975,-029.975,+014.727,+1.075,-0.823,+2.358,-05.1360,-02.1400,-07.8250,+00.054774,-00.006774,-00.006960
+076.986,-029.973,+014.765,+1.075,-0.863,+2.370,-04.9820,-02.1420,-07.8150,+00.031622,+00.003418,+00.016775
+077.028,-030.008,+014.764,+1.070,-0.828,+2.391,-05.0050,-02.1840,-07.7810,+00.009794,-00.028286,+00.050658
+077.088,-030.039,+014.742,+1.075,-0.803,+2.353,-05.1960,-02.0440,-07.7870,+00.009660,-00.000866,+00.047491
+077.144,-030.015,+014.724,+1.070,-0.813,+2.358,-05.1390,-01.9790,-07.8090,+00.008950,+00.048856,+00.028109
+077.181,-029.961,+014.709,+1.056,-0.853,+2.374,-05.1140,-02.1350,-07.7670,-00.007643,+00.061521,+00.013245
+077.240,-029.887,+014.640,+1.066,-0.828,+2.374,-04.9770,-02.2040,-07.7200,-00.053863,+00.085587,+00.037258
+077.320,-029.822,+014.531,+1.056,-0.848,+2.374,-04.9910,-02.1580,-07.7580,-00.063314,+00.062610,+00.047548
+077.406,-029.768,+014.405,+1.052,-0.843,+2.358,-05.0450,-02.0480,-07.8350,-00.076978,+00.062930,+00.051177
+077.493,-029.706,+014.271,+1.047,-0.858,+2.352,-05.0040,-01.9820,-07.8580,-00.082925,+00.074980,+00.051672
+077.602,-029.633,+014.109,+1.042,-0.848,+2.357,-04.9120,-02.0600,-07.8100,-00.104963,+00.085701,+00.073309
+077.765,-029.543,+013.866,+1.042,-0.847,+2.406,-04.9040,-02.2180,-07.8390,-00.169132,+00.113761,+00.119612
+078.000,-029.433,+013.494,+1.019,-0.872,+2.367,-04.9520,-02.0870,-07.8590,-00.255325,+00.153026,+00.166852
+078.280,-029.310,+013.027,+1.028,-0.887,+2.362,-05.0600,-01.9450,-07.9180,-00.300807,+00.154235,+00.187433
+078.585,-029.150,+012.529,+1.014,-0.902,+2.378,-05.0510,-01.8120,-07.8660,-00.296095,+00.193136,+00.193528
+078.888,-028.970,+012.053,+1.000,-0.872,+2.356,-04.8060,-01.6820,-07.9290,-00.270500,+00.198200,+00.187689
+079.167,-028.828,+011.636,+0.986,-0.921,+2.361,-04.8420,-01.5540,-07.9690,-00.223597,+00.135834,+00.169691
+079.379,-028.736,+011.314,+0.986,-0.941,+2.355,-04.9360,-01.3500,-08.0260,-00.169226,+00.099420,+00.123705
+079.516,-028.660,+011.097,+0.986,-0.936,+2.334,-04.8430,-01.4590,-08.0000,-00.112974,+00.068766,+00.071926
+079.608,-028.614,+010.938,+0.986,-0.926,+2.345,-04.8120,-01.6000,-07.9970,-00.095866,+00.047906,+00.058708
+079.697,-028.597,+010.784,+0.968,-0.966,+2.366,-04.7970,-01.6100,-07.9610,-00.095601,+00.026957,+00.068602
+079.802,-028.593,+010.625,+0.959,-0.941,+2.322,-04.8120,-01.5400,-08.0380,-00.093179,+00.003564,+00.080398
+079.896,-028.601,+010.480,+0.977,-0.956,+2.344,-04.8250,-01.3340,-08.0580,-00.080164,-00.000462,+00.067165
+079.963,-028.609,+010.366,+0.973,-0.956,+2.355,-04.7160,-01.5300,-08.0520,-00.069622,-00.011709,+00.053699
+080.030,-028.656,+010.260,+0.972,-0.956,+2.333,-04.7630,-01.5400,-08.0140,-00.066746,-00.037213,+00.060264
+080.124,-028.733,+010.125,+0.972,-0.966,+2.317,-04.8010,-01.4210,-08.0350,-00.082756,-00.055562,+00.087348
+080.215,-028.822,+009.986,+0.963,-0.981,+2.333,-04.8480,-01.2730,-08.0500,-00.081424,-00.062037,+00.087104
+080.300,-028.937,+009.843,+0.977,-0.956,+2.328,-04.8270,-01.4460,-08.0500,-00.104060,-00.092172,+00.084435
+080.394,-029.084,+009.707,+0.972,-0.956,+2.317,-04.8270,-01.4010,-08.0240,-00.072223,-00.132800,+00.094205
+080.483,-029.261,+009.585,+0.968,-0.961,+2.333,-04.7450,-01.4490,-08.0830,-00.081922,-00.149375,+00.102689
+080.607,-029.463,+009.426,+0.972,-0.961,+2.301,-04.7420,-01.5600,-08.0950,-00.103855,-00.169852,+00.143528
+080.794,-029.710,+009.184,+0.972,-0.971,+2.312,-04.8140,-01.4920,-07.9890,-00.154208,-00.219443,+00.192943
+081.014,-030.060,+008.827,+0.982,-1.006,+2.296,-04.7620,-01.0620,-08.3280,-00.208548,-00.325801,+00.220565
+081.249,-030.638,+008.459,+0.991,-0.991,+2.286,-04.9150,-01.2780,-08.3470,-00.209978,-00.545029,+00.261600
+081.494,-031.457,+008.124,+1.014,-1.031,+2.271,-04.7430,-01.2890,-08.2730,-00.179839,-00.800939,+00.309703
+081.723,-032.688,+007.793,+1.019,-1.051,+2.255,-04.7770,-01.3210,-08.3920,-00.187584,-01.193262,+00.333510
+082.018,-034.461,+007.382,+1.074,-1.062,+2.182,-04.8800,-01.5780,-08.1600,-00.231996,-01.708362,+00.483725
+082.573,-036.964,+006.675,+1.121,-1.082,+2.168,-04.9800,-02.0010,-07.8690,-00.436746,-02.377431,+00.789502
+083.708,-040.251,+005.169,+1.158,-1.102,+2.105,-05.8320,-03.0360,-08.9820,-00.868886,-02.965785,+01.231572
+085.716,-044.062,+002.441,+1.218,-1.178,+1.979,-06.4940,-02.0760,-08.9640,-01.389305,-03.387991,+01.673367
+088.767,-048.136,-001.749,+1.264,-1.278,+1.846,-08.2270,-02.8450,-09.2670,-01.892045,-03.542198,+01.956393
+093.221,-051.888,-007.763,+1.287,-1.338,+1.729,-09.5550,-03.5050,-08.9430,-02.551771,-03.399708,+02.408411
+099.502,-054.798,-016.012,+1.281,-1.473,+1.519,-11.4230,-06.9190,-10.5630,-03.188453,-02.996788,+02.943126
+107.595,-056.319,-027.986,+1.225,-1.637,+1.291,-10.1740,-09.2470,-08.9660,-05.618267,-02.598217,+03.333164
+116.008,-056.572,-043.536,+1.160,-1.751,+1.014,-03.2560,-10.0580,-07.1000,-08.590738,-02.402227,+02.838671
+116.833,-057.455,-051.394,+1.196,-1.748,+0.664,-12.0840,-05.2130,-17.3600,-04.307035,+00.528375,-01.995159
+110.693,-059.805,-049.468,+1.368,-1.706,+0.547,-03.7930,-09.3330,-05.7520,-02.733219,+00.715929,-03.718419
+103.720,-062.348,-047.122,+1.503,-1.594,+0.472,-05.3510,-04.4830,-07.0880,-03.534128,+00.776746,-03.492650
+096.137,-064.233,-044.102,+1.670,-1.443,+0.359,-04.7220,+00.6000,-08.2430,-02.931827,+01.164590,-03.095449
+087.824,-065.005,-039.073,+1.809,-1.335,+0.321,-05.1870,-00.1710,-09.7750,-01.779226,+01.832408,-02.537597
+079.594,-064.316,-033.331,+1.907,-1.222,+0.368,-05.0060,-02.3900,-09.4310,-01.397866,+02.564320,-01.885180
+072.123,-062.382,-028.149,+2.032,-1.120,+0.389,-05.0630,-03.4430,-08.8040,-01.234726,+03.143088,-01.566432
+065.192,-059.611,-023.254,+2.167,-1.076,+0.513,-05.8100,-04.5910,-08.3020,-00.885769,+03.596974,-01.643745
+058.721,-056.363,-018.542,+2.260,-1.041,+0.701,-06.4780,-05.2730,-07.5490,-00.570132,+03.764260,-01.871598
+052.777,-052.803,-014.106,+2.405,-0.898,+0.922,-08.0920,-04.8750,-08.0130,-00.206240,+03.862229,-02.087072
+047.465,-049.000,-009.895,+2.475,-0.783,+1.259,-08.6010,-04.2070,-07.2100,+00.244894,+03.821828,-02.194918
+042.902,-045.200,-006.007,+2.429,-0.633,+1.536,-09.4030,-04.2750,-07.0600,+00.577544,+03.554631,-02.245899
+038.864,-041.578,-002.445,+2.281,-0.442,+1.766,-10.0850,-04.1190,-07.6000,+00.749308,+03.195377,-02.379301
+035.060,-038.127,+001.026,+2.138,-0.287,+1.904,-12.0170,-04.0160,-10.5540,+01.016160,+03.012872,-02.599591
+031.357,-034.436,+004.653,+2.022,-0.211,+1.985,-11.7840,-02.2960,-09.5560,+01.391258,+03.084367,-02.818769
+028.067,-030.776,+008.214,+1.943,-0.047,+2.040,-12.4170,-00.5210,-09.3650,+01.649407,+02.808896,-02.695940
+025.436,-027.050,+011.545,+1.874,+0.068,+2.122,-13.8510,+00.4920,-11.3960,+01.893543,+02.953905,-02.437030
+023.534,-022.859,+014.743,+1.814,+0.188,+2.184,-12.6060,+01.3150,-10.6310,+02.199511,+03.358743,-02.214803
+022.331,-018.422,+017.810,+1.717,+0.402,+2.297,-11.3650,+00.6670,-09.5250,+02.332005,+03.474115,-01.904237
+021.781,-013.981,+020.536,+1.583,+0.538,+2.403,-11.5640,-00.0670,-08.8130,+02.156702,+03.515920,-01.609531
+021.651,-009.710,+022.916,+1.467,+0.609,+2.473,-11.7470,+00.8670,-06.8540,+02.017334,+03.328648,-01.414671
+021.659,-005.903,+025.234,+1.314,+0.749,+2.509,-12.4250,+01.6270,-03.8980,+02.037492,+02.812862,-01.318774
+021.491,-002.878,+027.793,+1.189,+0.874,+2.529,-14.8470,+04.8250,-00.2040,+02.387602,+01.970791,-01.297246
+021.040,-000.771,+030.874,+1.115,+0.998,+2.525,-19.7290,+08.3910,+05.2510,+02.762502,+01.049153,-01.179517
+020.296,-000.165,+033.375,+1.083,+1.117,+2.474,-10.3160,+02.0680,+10.1810,+01.531712,-00.654553,-00.447467
+020.645,-003.590,+032.107,+1.208,+1.066,+2.448,-09.2710,+02.9270,-19.3350,-01.076002,-02.125518,+02.516841
+022.638,-006.861,+029.427,+1.273,+0.922,+2.452,+02.3060,-05.4320,-01.5790,-02.955260,-02.107218,+03.781733
+024.709,-011.793,+026.061,+1.430,+0.747,+2.422,-03.2160,-06.9660,-08.4510,-02.092816,-03.131169,+02.838118
+025.080,-016.645,+023.944,+1.569,+0.607,+2.310,-06.4320,-02.9550,-07.8730,-01.752324,-04.002836,+01.957638
+025.480,-021.463,+022.009,+1.685,+0.521,+2.251,-12.3640,+03.1440,-15.4480,-01.433225,-03.389488,+01.972131
+026.166,-024.672,+019.922,+1.787,+0.480,+2.159,-14.1560,-08.3010,-13.4430,-01.790333,-01.874476,+01.157497
+026.627,-026.256,+017.278,+1.828,+0.371,+2.140,-11.3920,+00.1230,-13.5620,-01.808446,-00.658753,+00.580892
+027.006,-027.049,+015.201,+1.833,+0.296,+2.114,-07.1640,-01.8320,-10.2230,-01.383331,-00.424785,+00.420040
+027.326,-027.418,+013.837,+1.837,+0.262,+2.087,-05.2130,-01.7160,-08.6510,-00.880125,-00.149378,+00.293217
+027.624,-027.613,+012.829,+1.846,+0.222,+2.082,-04.9290,-01.9870,-08.3750,-00.703469,-00.083226,+00.266292
+027.898,-027.716,+012.096,+1.842,+0.202,+2.115,-04.9920,-01.6700,-08.3590,-00.464498,-00.027091,+00.203349
+028.132,-027.743,+011.557,+1.851,+0.177,+2.088,-04.8740,-01.3390,-08.2480,-00.351607,+00.037062,+00.169709
+028.311,-027.721,+011.142,+1.851,+0.192,+2.083,-04.8810,-01.2220,-08.0390,-00.259919,+00.059695,+00.108932
+028.410,-027.707,+010.845,+1.837,+0.148,+2.104,-04.9070,-01.7100,-08.1680,-00.202848,+00.043305,+00.065858
+028.520,-027.662,+010.569,+1.851,+0.158,+2.099,-04.6420,-01.9080,-08.1550,-00.180268,+00.077884,+00.086532
+028.686,-027.569,+010.281,+1.851,+0.162,+2.083,-04.5830,-01.7720,-08.0260,-00.189064,+00.089034,+00.123587
+028.864,-027.504,+010.009,+1.837,+0.113,+2.115,-04.5860,-01.6460,-08.1120,-00.148745,+00.074679,+00.122899
+029.044,-027.433,+009.774,+1.837,+0.123,+2.088,-04.6060,-01.5600,-08.1190,-00.131359,+00.083928,+00.128784
+029.220,-027.384,+009.548,+1.828,+0.108,+2.099,-04.5860,-01.5560,-08.1060,-00.126298,+00.052335,+00.127701
+029.409,-027.342,+009.317,+1.823,+0.079,+2.115,-04.7810,-01.4580,-08.1980,-00.125127,+00.113175,+00.155078
+029.582,-027.376,+009.111,+1.818,+0.099,+2.109,-04.7270,-01.4240,-08.1430,-00.120577,+00.058492,+00.163302
+029.790,-027.360,+008.902,+1.832,+0.079,+2.099,-04.7560,-01.3670,-08.1000,-00.086500,+00.021427,+00.138507
+029.967,-027.349,+008.730,+1.828,+0.069,+2.110,-04.6550,-01.3940,-08.0060,-00.080469,+00.033960,+00.133620
+030.150,-027.353,+008.559,+1.818,+0.079,+2.098,-04.5930,-01.4690,-08.0920,-00.072904,+00.007050,+00.150008
+030.345,-027.370,+008.395,+1.841,+0.039,+2.089,-04.5770,-01.4840,-08.1130,-00.066793,+00.005172,+00.150421
+030.530,-027.374,+008.238,+1.823,+0.054,+2.126,-04.6890,-01.2970,-08.1850,-00.056889,+00.025045,+00.133995
+030.683,-027.351,+008.106,+1.832,+0.064,+2.094,-04.6620,-01.2270,-08.1380,-00.055631,+00.031257,+00.100647
+030.803,-027.348,+007.991,+1.823,+0.054,+2.126,-04.4600,-01.3550,-08.1850,-00.045970,-00.001875,+00.093737
+030.931,-027.393,+007.874,+1.823,+0.039,+2.131,-04.5020,-01.2710,-08.1590,-00.050064,-00.036827,+00.109773
+031.085,-027.501,+007.741,+1.832,+0.029,+2.088,-04.4370,-01.3160,-08.1090,-00.058492,-00.102746,+00.147885
+031.272,-027.670,+007.581,+1.828,+0.024,+2.094,-04.5830,-01.1710,-08.1540,-00.064193,-00.142607,+00.168760
+031.470,-027.885,+007.413,+1.823,+0.010,+2.121,-04.7010,-01.2290,-08.1710,-00.071969,-00.169104,+00.188540
+031.721,-028.153,+007.211,+1.846,+0.019,+2.089,-04.6190,-01.3430,-08.0910,-00.074635,-00.222015,+00.244374
+032.030,-028.502,+006.984,+1.851,-0.001,+2.106,-04.6440,-01.2920,-08.1920,-00.070066,-00.316031,+00.292008
+032.410,-028.968,+006.726,+1.855,-0.011,+2.079,-04.6020,-01.2830,-08.2220,-00.069365,-00.442795,+00.358177
+032.871,-029.633,+006.400,+1.874,-0.011,+2.047,-04.5780,-01.3460,-08.2970,-00.096266,-00.609245,+00.458582
+033.464,-030.549,+006.000,+1.888,-0.061,+1.994,-04.3540,-01.7710,-08.2690,-00.101991,-00.857416,+00.567859
+034.045,-031.966,+005.593,+1.911,-0.051,+1.995,-04.5950,-00.7140,-08.3420,-00.060449,-01.392738,+00.542788
+034.469,-034.097,+005.258,+1.962,-0.097,+1.922,-04.4410,-00.7980,-08.5870,-00.139190,-02.090333,+00.466601
+034.863,-037.069,+004.802,+2.017,-0.118,+1.822,-04.5980,-00.9090,-08.1530,-00.233981,-02.817685,+00.590336
+035.657,-041.094,+003.975,+2.077,-0.158,+1.739,-04.5480,-00.9320,-08.6020,-00.304843,-03.794672,+00.982793
+037.252,-045.918,+002.436,+2.156,-0.200,+1.527,-05.4840,-01.2570,-08.7430,-00.490586,-04.322692,+01.402284
+040.017,-051.493,-000.279,+2.206,-0.290,+1.303,-08.1540,-02.3060,-09.3710,-00.567733,-05.149560,+01.866973
+044.882,-057.926,-005.097,+2.234,-0.361,+1.126,-09.7990,-01.5310,-09.5290,-00.754112,-06.084948,+02.344275
+053.226,-065.058,-013.095,+2.238,-0.462,+0.787,-09.3170,+00.5070,-09.2760,-00.404919,-07.135045,+02.463435
+067.754,-072.102,-026.516,+2.196,-0.596,+0.462,-15.9210,-05.1330,-11.4080,+00.054647,-07.155324,+02.288249
+093.871,-076.105,-052.602,+2.116,-0.691,+0.244,-14.3480,-09.7410,-14.5140,-01.722664,-06.098410,+02.919843
+121.487,-074.727,-084.141,+1.972,-0.770,-0.086,-17.0290,-06.6520,-14.7500,-05.055136,-04.662657,+03.267512
+122.297,-073.665,-088.058,+1.916,-0.735,-0.170,-10.1630,+00.3860,-25.9510,-00.951123,+01.632403,-00.123964
+114.027,-074.219,-079.527,+1.939,-0.760,-0.104,+01.2620,-05.2720,-07.0470,+00.712320,+01.747330,-00.730096
+105.961,-074.303,-071.634,+1.977,-0.700,-0.033,-02.2410,-05.6400,-08.1610,-00.222118,+01.955059,-00.500425
+095.271,-073.913,-061.697,+2.028,-0.730,+0.019,-04.2810,-03.1160,-10.9470,-00.203712,+02.870840,-00.867215
+081.171,-072.594,-048.013,+2.074,-0.691,+0.161,-04.0750,-02.2990,-10.1300,+00.366659,+03.913190,-01.207434
+067.395,-069.788,-034.181,+2.149,-0.636,+0.299,-04.3560,-01.3800,-08.7240,+00.874618,+04.610469,-01.365043
+056.497,-065.630,-022.735,+2.210,-0.586,+0.533,-05.3090,-00.9860,-08.4480,+01.340703,+05.046000,-01.495369
+048.508,-060.457,-013.866,+2.256,-0.536,+0.756,-05.9340,-00.6070,-08.3570,+01.635797,+05.378820,-01.639303
+042.825,-054.851,-006.829,+2.238,-0.406,+1.040,-05.1840,+01.8910,-04.8940,+02.164792,+05.080518,-01.755470
+039.175,-049.753,-001.211,+2.165,-0.285,+1.301,-08.7610,+01.7680,-07.3580,+02.475016,+04.362994,-01.521931
+036.988,-044.911,+003.109,+2.095,-0.180,+1.448,-10.9210,-00.8280,-09.3760,+02.204795,+04.095708,-01.272030
+035.531,-040.107,+006.448,+2.008,-0.064,+1.568,-15.8010,-01.2740,-13.2120,+02.046998,+04.167185,-01.366740
+034.082,-035.110,+009.817,+1.929,+0.007,+1.769,-14.4340,-01.1360,-08.6870,+02.230885,+04.008644,-01.735797
+032.516,-030.627,+013.153,+1.832,+0.117,+1.915,-17.9150,-01.9000,-09.0950,+02.079410,+03.445172,-02.017323
+030.786,-026.258,+016.067,+1.740,+0.262,+2.029,-18.9150,-03.2830,-09.8850,+01.648265,+03.362661,-02.414885
+028.810,-021.373,+018.416,+1.610,+0.338,+2.147,-18.0560,-02.8030,-09.7830,+01.160503,+03.743607,-02.961618
+026.809,-016.256,+020.097,+1.513,+0.429,+2.255,-14.6820,+00.1380,-06.5170,+00.799973,+03.557307,-03.018063
+025.052,-011.470,+021.380,+1.383,+0.544,+2.330,-14.5500,+01.0450,-04.5990,+00.710718,+03.262737,-02.752152
+023.654,-007.344,+022.354,+1.263,+0.630,+2.394,-14.1970,+02.9230,-00.2250,+00.681260,+02.594331,-02.259330
+022.607,-004.459,+023.858,+1.179,+0.691,+2.449,-16.5040,+09.2640,+04.5440,+01.698773,+01.574178,-01.526878
+021.894,-003.018,+026.483,+1.133,+0.820,+2.425,-19.8730,+09.5220,+07.2300,+02.229607,+00.454321,-00.812128
+021.729,-003.442,+027.303,+1.152,+0.839,+2.425,-16.6120,+04.4410,+05.4830,-00.459182,-00.913205,+00.628915
+022.745,-005.904,+025.698,+1.221,+0.774,+2.434,+02.0330,+01.2450,-06.0940,-01.331208,-01.883593,+02.264002
+024.283,-009.104,+023.587,+1.318,+0.659,+2.380,+02.9330,-08.4040,-01.7340,-02.246679,-02.672826,+02.813999
+024.663,-013.634,+021.890,+1.481,+0.543,+2.318,-06.0310,-04.8400,-10.2870,-01.020465,-03.740896,+01.254510
+025.068,-018.237,+020.440,+1.596,+0.488,+2.253,-08.2980,+05.5330,-11.3480,-01.013748,-03.511910,+01.914855
+025.930,-022.374,+019.026,+1.717,+0.402,+2.151,-10.9870,-06.3110,-11.3060,-01.220492,-02.960778,+01.840338
+026.590,-025.934,+016.333,+1.819,+0.257,+2.043,-15.4330,-11.4820,-15.7980,-02.934645,-02.496276,+01.359376
+027.398,-027.567,+013.045,+1.851,+0.157,+2.051,-10.2680,+06.4680,-15.9140,-01.789506,-00.874313,+00.692024
+027.703,-028.068,+011.914,+1.865,+0.132,+2.008,-07.3100,-02.3380,-11.2790,-00.653665,-00.375104,+00.179024
+027.801,-028.355,+011.416,+1.879,+0.112,+2.031,-05.3730,-02.5050,-08.1800,-00.291681,-00.201625,+00.105641
+027.954,-028.553,+011.097,+1.879,+0.093,+2.004,-05.3850,-01.6580,-08.2290,-00.183872,-00.104422,+00.149162
+028.126,-028.657,+010.827,+1.892,+0.117,+2.004,-04.8860,-01.5680,-07.9460,-00.154410,-00.059342,+00.145920
+028.267,-028.712,+010.619,+1.888,+0.073,+1.993,-04.9130,-01.3610,-07.9860,-00.095711,-00.026772,+00.096183
+028.363,-028.787,+010.498,+1.897,+0.063,+1.999,-05.1700,-01.6560,-08.0100,-00.052519,-00.059724,+00.079328
+028.442,-028.849,+010.429,+1.897,+0.072,+1.983,-05.1100,-01.3590,-08.0010,-00.004806,-00.041429,+00.056500
+028.477,-028.898,+010.460,+1.888,+0.068,+1.993,-04.8060,-01.5140,-08.0380,+00.080236,-00.047884,+00.019235
+028.483,-028.939,+010.555,+1.892,+0.053,+2.015,-04.8840,-01.5210,-08.0420,+00.071928,-00.042567,+00.007764
+028.502,-028.944,+010.592,+1.897,+0.082,+1.994,-04.9140,-01.6570,-07.9970,+00.024179,+00.012754,+00.018748
+028.543,-028.940,+010.569,+1.902,+0.077,+2.005,-04.9330,-01.7970,-07.9310,-00.027377,+00.010214,+00.040778
+028.637,-028.940,+010.444,+1.888,+0.053,+2.010,-04.8290,-01.7740,-08.0040,-00.084035,+00.014388,+00.088438
+028.780,-028.960,+010.279,+1.883,+0.063,+1.993,-05.0020,-01.6140,-08.1120,-00.080976,+00.041981,+00.126898
+028.939,-029.035,+010.110,+1.892,+0.048,+1.978,-04.9030,-01.6340,-07.9360,-00.092823,-00.033874,+00.145135
+029.141,-029.112,+009.903,+1.902,+0.028,+2.027,-04.8460,-01.6360,-07.9330,-00.092869,-00.050129,+00.173264
+029.363,-029.202,+009.694,+1.902,+0.058,+2.000,-04.8550,-01.5350,-07.9350,-00.091344,-00.057573,+00.179841
+029.566,-029.321,+009.491,+1.892,+0.023,+1.983,-05.0020,-01.4370,-08.0170,-00.084679,-00.087598,+00.163745
+029.749,-029.460,+009.322,+1.888,+0.008,+2.005,-04.9460,-01.3440,-07.9700,-00.059653,-00.105093,+00.151238
+029.905,-029.603,+009.200,+1.902,+0.033,+1.978,-04.9350,-01.3370,-07.9670,-00.033654,-00.110095,+00.130875
+030.050,-029.761,+009.096,+1.897,+0.053,+1.983,-04.9210,-01.4420,-07.9210,-00.023817,-00.118772,+00.131844
+030.197,-029.942,+009.004,+1.911,-0.012,+1.990,-04.8600,-01.3610,-07.9660,-00.011242,-00.145961,+00.131407
+030.333,-030.154,+008.938,+1.920,+0.037,+1.957,-04.9320,-01.3350,-07.9960,+00.000545,-00.179624,+00.138706
+030.488,-030.407,+008.856,+1.920,+0.003,+1.958,-05.0430,-01.4190,-07.9460,-00.006855,-00.206339,+00.159341
+030.702,-030.711,+008.735,+1.925,-0.017,+1.974,-05.0120,-01.5100,-07.9860,-00.008408,-00.254454,+00.226632
+031.005,-031.108,+008.571,+1.929,-0.022,+1.942,-05.1860,-01.6910,-07.7640,-00.000911,-00.346892,+00.304692
+031.319,-031.658,+008.396,+1.948,-0.018,+1.910,-05.0040,-01.2970,-07.9850,+00.003283,-00.499454,+00.292217
+031.579,-032.408,+008.257,+1.952,-0.042,+1.916,-05.2170,-01.0880,-07.8720,-00.000251,-00.698134,+00.270246
+031.760,-033.384,+008.136,+1.971,-0.058,+1.879,-05.2620,-01.2490,-07.7790,-00.024893,-00.901289,+00.247078
+031.976,-034.678,+007.986,+1.999,-0.053,+1.821,-05.2800,-01.3420,-07.8090,-00.026021,-01.234144,+00.361822
+032.293,-036.472,+007.731,+2.022,-0.068,+1.806,-05.1500,-01.4230,-07.4570,-00.088773,-01.726227,+00.511584
+032.745,-038.964,+007.325,+2.073,-0.104,+1.711,-05.2300,-01.0920,-07.5080,-00.126105,-02.352654,+00.645943
+033.439,-042.042,+006.725,+2.128,-0.135,+1.611,-05.2270,-00.8800,-07.4850,-00.135257,-02.779580,+00.878930
+034.528,-045.717,+005.711,+2.160,-0.185,+1.511,-06.0720,-00.8690,-08.1700,-00.284178,-03.337900,+01.113887
+036.195,-050.163,+004.089,+2.216,-0.246,+1.324,-06.2640,-00.7380,-07.7410,-00.356215,-04.073411,+01.439931
+038.880,-055.436,+001.452,+2.257,-0.317,+1.100,-08.6370,-02.1700,-08.2370,-00.502650,-04.753041,+01.716204
+043.248,-061.488,-002.760,+2.275,-0.377,+0.972,-09.2000,-02.2410,-09.1620,-00.363382,-05.703187,+02.070623
+051.282,-068.559,-010.094,+2.261,-0.487,+0.653,-11.4500,-02.4250,-10.0520,+00.147197,-06.901091,+02.340656
+067.513,-075.762,-025.103,+2.209,-0.577,+0.344,-15.8630,-00.7640,-09.9500,+00.445238,-07.302925,+02.125471
+099.934,-079.967,-056.569,+2.130,-0.657,+0.147,-18.0390,-09.2300,-17.6450,-00.125213,-05.701418,+02.236209
+130.490,-078.454,-088.431,+2.032,-0.696,-0.063,-15.7660,-03.4230,-16.9610,-02.124024,-03.524503,+03.120298
+128.347,-076.608,-087.888,+1.991,-0.696,-0.059,-09.6520,-02.4950,-23.9050,-00.368446,+02.036702,+00.796314
+117.201,-075.839,-076.777,+1.986,-0.690,+0.043,+01.8290,-05.3950,-05.2840,+00.290543,+02.234453,+00.290056
+108.269,-074.868,-068.361,+1.986,-0.665,+0.065,-01.1480,-06.2740,-06.2960,-00.467373,+02.154245,+00.084865
+098.095,-073.965,-059.273,+1.991,-0.596,+0.113,-04.4290,-05.1300,-10.5640,-00.593437,+02.831710,-00.643323
+084.273,-072.500,-046.348,+2.047,-0.478,+0.147,-03.2450,-03.0140,-08.8330,-00.025817,+03.865258,-01.301453
+070.907,-070.018,-033.273,+2.182,-0.335,+0.168,-02.3860,-02.2960,-05.6600,+00.551853,+04.070646,-01.571832
+060.242,-066.797,-022.437,+2.400,-0.144,+0.274,-05.1240,-02.3580,-07.3150,+00.926854,+04.136013,-01.823168
+051.499,-062.834,-013.297,+2.605,+0.053,+0.443,-06.2220,-01.3520,-07.3140,+01.122986,+04.329849,-02.135356
+044.851,-058.362,-006.106,+2.759,+0.380,+0.798,-07.5020,+00.5590,-07.1690,+01.306045,+04.282671,-02.108269
+040.408,-053.629,-000.689,+2.709,+0.645,+1.275,-09.4960,+00.8150,-08.1550,+01.613455,+04.236952,-01.786750
+037.710,-048.804,+003.265,+2.454,+0.719,+1.673,-11.2330,-00.7140,-08.4180,+01.543020,+04.122344,-01.440993
+036.117,-043.962,+006.121,+1.954,+0.720,+1.986,-14.8830,-01.5050,-11.4160,+01.531803,+04.229110,-01.287776
+034.810,-038.875,+008.976,+1.499,+0.616,+2.032,-14.9920,-02.0970,-09.3530,+01.846775,+04.280767,-01.532758
+033.484,-033.919,+011.853,+1.248,+0.480,+2.000,-16.2610,-03.3400,-08.9950,+01.748049,+04.004691,-01.793775
+032.181,-029.190,+014.357,+1.109,+0.387,+1.865,-16.6710,-02.4440,-09.5360,+01.564265,+03.711866,-01.941113
+030.862,-024.358,+016.821,+1.136,+0.312,+1.851,-16.2790,-02.0210,-09.2960,+01.676141,+03.813809,-02.233484
+029.510,-019.429,+019.197,+1.164,+0.322,+1.900,-15.0880,-02.3600,-07.4790,+01.571946,+03.679276,-02.446899
+028.014,-014.747,+021.334,+1.169,+0.357,+1.987,-13.8680,-00.9440,-05.1130,+01.465629,+03.192779,-02.663000
+026.320,-010.566,+023.488,+1.165,+0.437,+2.083,-14.8950,+00.9100,-03.7120,+01.610384,+02.620375,-02.719841
+024.743,-007.016,+025.751,+1.128,+0.502,+2.173,-16.9120,+06.0880,+00.3680,+01.927401,+02.008670,-02.341125
+023.454,-004.489,+028.612,+1.105,+0.646,+2.214,-20.9780,+11.3830,+08.5990,+02.638711,+01.026246,-01.853616
+022.052,-003.685,+031.115,+1.100,+0.779,+2.218,-18.8860,+05.2180,+08.8150,+01.323845,-00.598809,-00.942376
+021.919,-006.148,+030.038,+1.174,+0.709,+2.195,+02.0740,+10.0360,+02.4000,-01.561265,-02.674826,+02.442414
+023.663,-009.371,+027.483,+1.290,+0.594,+2.158,-01.3320,-08.5260,-12.8270,-02.590261,-01.654978,+03.257409
+025.804,-013.610,+024.717,+1.415,+0.449,+2.132,-02.1210,-00.5600,-07.7190,-01.091078,-02.866609,+02.521868
+026.111,-017.913,+024.098,+1.517,+0.379,+2.083,-07.1190,+00.5310,-08.6410,-00.512678,-03.542052,+01.937597
+026.779,-022.297,+023.048,+1.647,+0.263,+1.954,-11.3720,-06.7110,-12.0970,-01.099079,-03.060481,+02.022157
+027.274,-025.808,+019.820,+1.748,+0.138,+1.863,-18.0420,-15.8890,-17.6350,-04.450335,-02.213930,+01.334222
+027.682,-027.497,+016.833,+1.785,+0.063,+1.843,-12.6200,+02.4690,-17.8860,-01.838905,-00.804384,+00.487423
+027.651,-028.252,+015.531,+1.795,+0.038,+1.784,-07.6810,-00.3430,-11.5560,-00.795854,-00.508043,+00.022561
+027.514,-028.543,+015.033,+1.808,+0.018,+1.780,-04.4610,-04.0160,-07.2750,-00.429367,-00.278271,-00.004174
+027.472,-028.817,+014.706,+1.799,+0.008,+1.779,-04.7450,-01.9230,-08.2530,-00.213096,-00.209607,+00.012561
+027.381,-029.057,+014.643,+1.813,+0.008,+1.764,-05.1260,-01.7930,-08.1700,-00.034779,-00.209155,-00.040037
+027.228,-029.232,+014.740,+1.836,+0.008,+1.754,-05.3900,-01.8120,-07.9880,+00.057836,-00.164869,-00.092351
+027.067,-029.361,+014.912,+1.836,+0.018,+1.759,-04.9060,-02.2600,-07.7710,+00.084744,-00.129521,-00.072547
+026.960,-029.517,+015.090,+1.836,+0.023,+1.765,-05.2020,-02.2490,-07.8640,+00.124947,-00.154074,-00.029719
+026.881,-029.659,+015.277,+1.846,+0.032,+1.738,-04.9710,-02.2020,-07.8580,+00.126684,-00.134126,-00.024264
+026.797,-029.810,+015.443,+1.841,+0.012,+1.749,-04.9960,-02.3080,-07.6970,+00.092975,-00.142105,-00.026118
+026.716,-029.984,+015.573,+1.850,+0.012,+1.738,-05.0720,-02.3460,-07.7620,+00.074145,-00.163265,-00.008977
+026.686,-030.158,+015.660,+1.859,+0.027,+1.739,-05.0280,-02.5930,-07.6750,+00.055621,-00.151341,+00.037218
+026.715,-030.361,+015.703,+1.864,+0.017,+1.750,-05.0840,-02.4850,-07.5850,+00.045240,-00.165783,+00.084437
+026.776,-030.564,+015.711,+1.864,+0.042,+1.723,-05.2470,-02.2910,-07.7020,+00.027669,-00.151793,+00.093370
+026.821,-030.736,+015.725,+1.855,+0.017,+1.712,-05.1830,-02.2600,-07.6080,+00.039538,-00.126075,+00.061326
+026.849,-030.886,+015.760,+1.864,+0.017,+1.739,-05.2080,-02.3280,-07.6680,+00.050033,-00.125671,+00.050577
+026.860,-031.048,+015.821,+1.869,+0.012,+1.718,-05.1830,-02.3490,-07.5960,+00.060868,-00.144019,+00.043778
+026.880,-031.223,+015.867,+1.883,+0.032,+1.713,-05.1740,-02.3780,-07.6230,+00.046960,-00.139768,+00.065155
+026.928,-031.382,+015.883,+1.883,+0.007,+1.702,-05.2190,-02.3260,-07.5680,+00.031987,-00.103569,+00.081680
+026.998,-031.514,+015.873,+1.878,+0.017,+1.707,-05.3030,-02.2640,-07.5220,+00.007862,-00.096666,+00.085859
+027.156,-031.571,+015.731,+1.873,+0.002,+1.707,-05.2380,-02.4810,-07.4590,-00.083343,+00.029242,+00.164790
+027.427,-031.569,+015.475,+1.873,+0.017,+1.718,-05.2410,-02.4270,-07.4330,-00.105165,+00.074999,+00.207592
+027.783,-031.527,+015.158,+1.883,+0.012,+1.707,-05.2720,-02.2580,-07.6070,-00.117515,+00.114963,+00.257101
+028.193,-031.465,+014.781,+1.869,-0.043,+1.691,-05.1680,-02.2290,-07.6300,-00.164355,+00.144222,+00.299250
+028.685,-031.364,+014.281,+1.859,-0.052,+1.712,-05.1520,-02.2690,-07.6220,-00.246307,+00.200405,+00.358474
+029.314,-031.210,+013.567,+1.855,-0.052,+1.717,-05.2900,-02.3800,-07.6350,-00.385034,+00.278868,+00.462701
+030.067,-031.023,+012.721,+1.845,-0.106,+1.744,-05.1910,-02.1650,-07.6700,-00.396300,+00.272362,+00.520711
+030.755,-030.888,+011.947,+1.831,-0.131,+1.755,-04.9910,-01.8090,-07.7030,-00.331144,+00.184877,+00.454021
+031.304,-030.870,+011.346,+1.836,-0.111,+1.739,-04.9780,-01.5900,-07.8920,-00.260947,+00.039900,+00.370904
+031.748,-030.997,+010.891,+1.836,-0.146,+1.717,-04.9140,-01.7500,-07.7690,-00.161787,-00.101141,+00.342200
+032.129,-031.278,+010.584,+1.836,-0.186,+1.745,-05.0560,-01.4150,-07.9920,-00.066403,-00.233979,+00.314941
+032.426,-031.760,+010.369,+1.845,-0.176,+1.696,-05.2410,-01.1480,-08.0340,-00.044129,-00.462843,+00.263774
+032.561,-032.456,+010.300,+1.859,-0.176,+1.692,-05.0940,-01.3300,-08.0340,+00.029894,-00.681742,+00.204521
+032.610,-033.477,+010.294,+1.873,-0.186,+1.687,-05.2970,-01.4560,-07.7960,+00.038909,-00.995649,+00.181885
+032.563,-034.915,+010.384,+1.896,-0.192,+1.634,-05.4660,-01.3880,-07.6680,+00.069173,-01.379660,+00.181837
+032.486,-036.855,+010.452,+1.924,-0.202,+1.576,-05.7420,-01.4790,-07.4930,+00.001920,-01.845086,+00.283676
+032.493,-039.309,+010.397,+1.956,-0.198,+1.512,-05.5470,-01.1930,-07.3050,-00.029127,-02.294367,+00.443632
+032.681,-042.392,+010.269,+2.012,-0.248,+1.402,-05.6120,-01.6530,-07.7460,+00.020872,-02.785658,+00.702980
+033.188,-045.959,+009.894,+2.049,-0.279,+1.285,-06.2680,-01.7130,-07.7480,-00.060828,-03.124209,+00.943942
+034.182,-050.015,+009.021,+2.072,-0.314,+1.200,-06.7120,-01.9430,-07.4830,-00.115991,-03.545951,+01.282434
+035.895,-054.637,+007.467,+2.118,-0.375,+1.013,-08.2450,-02.6500,-07.8050,-00.191451,-04.092593,+01.594564
+038.673,-059.887,+004.604,+2.113,-0.430,+0.857,-09.4530,-02.2490,-08.9130,-00.532598,-04.667728,+01.902700
+043.171,-065.970,+000.057,+2.099,-0.515,+0.684,-10.1800,-02.4610,-07.6110,-00.502938,-05.549180,+02.091467
+051.229,-072.658,-007.988,+2.093,-0.585,+0.431,-11.3850,-00.7640,-08.3880,-00.382723,-06.198063,+02.009348
+068.040,-078.752,-024.753,+2.023,-0.665,+0.196,-15.5700,-03.9360,-12.3210,-00.344133,-05.811210,+01.964302
+103.659,-081.663,-060.599,+1.958,-0.695,+0.042,-07.1990,-08.3070,-08.9730,-01.089954,-05.052083,+02.425395
+132.892,-079.600,-092.420,+1.874,-0.735,-0.183,-31.5240,-09.6790,-37.6880,-03.002738,-01.565230,+02.125794
+125.306,-078.632,-086.943,+1.911,-0.775,-0.154,-04.9660,-03.9990,-16.6970,-00.948035,+02.233227,+00.275589
+112.549,-078.189,-075.037,+1.972,-0.720,-0.038,-00.5490,-04.8760,-06.9670,-00.467951,+02.193828,+00.000890
+100.642,-077.383,-064.156,+2.056,-0.745,+0.047,-03.6590,-05.9990,-08.3590,-00.769312,+02.442337,-00.232215
+086.753,-076.111,-051.623,+2.130,-0.711,+0.185,-04.9390,-05.4480,-10.1250,-00.869687,+03.272398,-00.734343
+071.740,-073.825,-037.923,+2.181,-0.676,+0.338,-04.4970,-03.5250,-09.1840,-00.545269,+04.081670,-01.156239
+058.825,-070.286,-025.831,+2.256,-0.562,+0.583,-04.4790,-02.6180,-07.6000,+00.037879,+04.604591,-01.391314
+049.326,-065.774,-016.651,+2.270,-0.501,+0.848,-05.8600,-02.7580,-07.8000,+00.454827,+04.876393,-01.508783
+042.377,-060.501,-009.697,+2.224,-0.450,+1.062,-06.7200,-02.3350,-07.5330,+00.785191,+05.203663,-01.688869
+037.323,-054.937,-004.226,+2.160,-0.315,+1.285,-06.9090,-00.9340,-05.5210,+01.196742,+04.948123,-01.746971
+033.851,-049.744,+000.218,+2.081,-0.254,+1.464,-09.0010,-00.2610,-06.3900,+01.623914,+04.390609,-01.635915
+031.561,-044.982,+003.831,+2.008,-0.158,+1.633,-11.2460,-02.1800,-08.8240,+01.636541,+03.960100,-01.411164
+029.932,-040.236,+006.676,+1.938,-0.117,+1.754,-15.1420,-03.4380,-12.4810,+01.493596,+04.165761,-01.509800
+028.306,-035.298,+009.499,+1.869,-0.051,+1.902,-13.9170,-03.1730,-08.7910,+01.661234,+03.950086,-01.835231
+026.510,-030.697,+012.333,+1.837,+0.069,+2.072,-16.8200,-04.8520,-09.7100,+01.527602,+03.602016,-02.199701
+024.557,-025.956,+014.666,+1.758,+0.214,+2.219,-16.8390,-03.9940,-10.0370,+01.061898,+03.733709,-02.555275
+022.565,-021.069,+016.592,+1.582,+0.379,+2.372,-14.5530,-00.0970,-08.5630,+01.021097,+03.598740,-02.722287
+020.737,-016.374,+018.518,+1.439,+0.495,+2.456,-14.8860,+01.9680,-08.1080,+01.237328,+03.371760,-02.604975
+019.381,-011.966,+020.167,+1.258,+0.631,+2.496,-15.9720,+02.0680,-05.1860,+01.020917,+03.146133,-02.182395
+018.501,-008.320,+021.211,+1.119,+0.721,+2.533,-17.3550,+04.9800,+01.0560,+00.716433,+02.383415,-01.590766
+017.987,-005.976,+022.794,+1.040,+0.737,+2.534,-21.4080,+12.4980,+06.2760,+01.897691,+01.356892,-00.954880
+017.623,-004.824,+025.738,+1.003,+0.861,+2.483,-20.4990,+09.9800,+09.2130,+02.558902,+00.375914,-00.480067
+017.681,-005.545,+027.079,+1.031,+0.905,+2.457,-14.8200,+02.6090,+06.4190,+00.074206,-01.084245,+00.900732
+019.338,-008.115,+026.004,+1.087,+0.830,+2.466,-02.9950,-06.2080,-18.1600,-00.629469,-01.070550,+02.445468
