Yaw,Pitch,Roll,MagX,MagY,MagZ,AccelX,AccelY,AccelZ,GyroX,GyroY,GyroZ
-120.921,-031.427,+009.014,+0.279,+0.675,+2.475,-04.9900,-01.3250,-07.9800,+00.001939,-00.005173,+00.004267
-120.916,-031.434,+009.011,+0.279,+0.680,+2.502,-04.9570,-01.2680,-08.0010,+00.001053,-00.003155,+00.003776
-120.910,-031.443,+009.008,+0.275,+0.705,+2.469,-04.9570,-01.2600,-07.9510,-00.000299,-00.003475,+00.005395
-120.904,-031.449,+009.006,+0.275,+0.685,+2.480,-04.9570,-01.2960,-07.9800,+00.000400,-00.004234,+00.004323
-120.901,-031.454,+009.006,+0.275,+0.685,+2.486,-04.9670,-01.2760,-08.0120,+00.002412,-00.003733,+00.001724
-120.900,-031.459,+009.007,+0.275,+0.690,+2.470,-04.9620,-01.2650,-07.9900,+00.001795,-00.004654,+00.000850
-120.900,-031.463,+009.009,+0.284,+0.675,+2.465,-04.9550,-01.2730,-08.0060,+00.001241,-00.002734,+00.002648
-120.900,-031.464,+009.012,+0.284,+0.670,+2.508,-04.9660,-01.2740,-07.9960,+00.000195,-00.000144,-00.000331
-120.899,-031.462,+009.011,+0.275,+0.695,+2.475,-04.9470,-01.2790,-07.9790,-00.000318,+00.002253,+00.001627
-120.898,-031.460,+009.008,+0.275,+0.680,+2.459,-04.9540,-01.2510,-07.9960,-00.000858,+00.002095,+00.000356
-120.898,-031.458,+009.007,+0.275,+0.665,+2.497,-04.9500,-01.2720,-07.9900,+00.000455,+00.003038,-00.000051
-120.900,-031.455,+009.007,+0.279,+0.685,+2.470,-04.9510,-01.2760,-08.0050,-00.001050,+00.002783,-00.001220
-120.901,-031.450,+009.006,+0.275,+0.685,+2.480,-04.9810,-01.2650,-08.0270,-00.000853,+00.004331,-00.001348
-120.902,-031.442,+009.003,+0.284,+0.700,+2.497,-04.9280,-01.2700,-08.0200,-00.003117,+00.006290,-00.002005
-120.901,-031.433,+009.000,+0.284,+0.695,+2.470,-04.9570,-01.2440,-07.9850,-00.002987,+00.006009,-00.000772
-120.901,-031.426,+008.998,+0.279,+0.675,+2.481,-04.9240,-01.2570,-07.9880,-00.001288,+00.004833,-00.000704
-120.902,-031.423,+008.997,+0.270,+0.695,+2.496,-04.9640,-01.2500,-07.9530,+00.000369,+00.004046,-00.002147
-120.907,-031.420,+009.001,+0.284,+0.680,+2.454,-04.9460,-01.2570,-07.9910,+00.001247,+00.004133,-00.002970
-120.910,-031.416,+009.005,+0.279,+0.700,+2.459,-04.9680,-01.2660,-08.0040,+00.001083,+00.004186,-00.002315
-120.912,-031.412,+009.007,+0.284,+0.670,+2.481,-04.9460,-01.2430,-07.9870,+00.000940,+00.002128,-00.002497
-120.914,-031.409,+009.009,+0.279,+0.710,+2.475,-04.9430,-01.2670,-07.9850,+00.003887,+00.002801,-00.003320
-120.919,-031.405,+009.014,+0.279,+0.700,+2.475,-04.9360,-01.2890,-07.9600,+00.002715,+00.003977,-00.003400
-120.922,-031.405,+009.018,+0.279,+0.680,+2.497,-04.9800,-01.2460,-07.9740,+00.002705,+00.001267,-00.003347
-120.925,-031.403,+009.023,+0.289,+0.695,+2.470,-04.9080,-01.2600,-07.9920,+00.002589,-00.000221,-00.002670
-120.931,-031.400,+009.032,+0.275,+0.670,+2.464,-04.9090,-01.4230,-07.9880,+00.005557,-00.000053,-00.002678
-120.933,-031.402,+009.036,+0.275,+0.690,+2.475,-04.9750,-01.2260,-07.9840,+00.005356,-00.000666,-00.002659
-120.939,-031.401,+009.046,+0.270,+0.690,+2.480,-04.9550,-01.2960,-07.9690,+00.005009,-00.000371,-00.006308
-120.945,-031.400,+009.057,+0.265,+0.680,+2.480,-04.9370,-01.3040,-08.0420,+00.006462,+00.000507,-00.004304
-120.951,-031.398,+009.066,+0.275,+0.665,+2.508,-04.8980,-01.2720,-07.9660,+00.004355,-00.000835,-00.004280
-120.954,-031.398,+009.073,+0.279,+0.680,+2.464,-04.9470,-01.2440,-07.9550,+00.005939,+00.001139,-00.004524
-120.960,-031.392,+009.081,+0.284,+0.680,+2.448,-04.9640,-01.2840,-07.9770,+00.002963,+00.002109,-00.003986
-120.965,-031.383,+009.090,+0.265,+0.675,+2.502,-04.9120,-01.2230,-08.0580,+00.007053,+00.006797,-00.006851
-120.972,-031.373,+009.099,+0.279,+0.710,+2.491,-04.9000,-01.1830,-08.0060,+00.007176,+00.010736,-00.007903
-120.980,-031.359,+009.110,+0.275,+0.695,+2.486,-04.9750,-01.2730,-07.9970,+00.007017,+00.009670,-00.008525
-120.993,-031.342,+009.124,+0.275,+0.700,+2.491,-04.9670,-01.3220,-08.0370,+00.007603,+00.015020,-00.013757
-121.007,-031.322,+009.140,+0.275,+0.705,+2.464,-04.9740,-01.2530,-08.0120,+00.008621,+00.017059,-00.016622
-121.027,-031.299,+009.160,+0.275,+0.680,+2.453,-04.9870,-01.3180,-07.9710,+00.008150,+00.019489,-00.020120
-121.049,-031.272,+009.180,+0.265,+0.675,+2.502,-04.8970,-01.2290,-07.9940,+00.004247,+00.020731,-00.021908
-121.077,-031.245,+009.200,+0.261,+0.695,+2.474,-04.9290,-01.3180,-07.9390,+00.007737,+00.021077,-00.024144
-121.106,-031.212,+009.220,+0.270,+0.680,+2.464,-04.9090,-01.3510,-07.9760,+00.005617,+00.026790,-00.025924
-121.136,-031.176,+009.232,+0.270,+0.680,+2.502,-04.9220,-01.3570,-08.0430,-00.010266,+00.029354,-00.026771
-121.165,-031.132,+009.246,+0.265,+0.690,+2.469,-04.8780,-01.3060,-07.9270,-00.005087,+00.037220,-00.026862
-121.186,-031.093,+009.256,+0.261,+0.675,+2.469,-04.9040,-01.2820,-08.0060,-00.001003,+00.024602,-00.017061
-121.200,-031.065,+009.255,+0.265,+0.670,+2.475,-04.9120,-01.2870,-08.0940,+00.000271,+00.018436,-00.013953
-121.210,-031.038,+009.256,+0.261,+0.710,+2.463,-04.9340,-01.3250,-08.0840,-00.006984,+00.020596,-00.008069
-121.223,-031.011,+009.254,+0.275,+0.680,+2.486,-04.9270,-01.2920,-08.0770,-00.008611,+00.020964,-00.012680
-121.236,-030.982,+009.254,+0.251,+0.670,+2.474,-04.8480,-01.3130,-08.0260,-00.004298,+00.022261,-00.012611
-121.247,-030.948,+009.245,+0.261,+0.700,+2.485,-04.8500,-01.3000,-07.9860,-00.011854,+00.033563,-00.013920
-121.259,-030.910,+009.240,+0.265,+0.690,+2.480,-04.8680,-01.3390,-07.9560,-00.008420,+00.029341,-00.013000
-121.272,-030.874,+009.233,+0.256,+0.670,+2.496,-04.9110,-01.3280,-08.0280,-00.002236,+00.021702,-00.013892
-121.283,-030.842,+009.227,+0.270,+0.685,+2.464,-04.8550,-01.2670,-07.9810,-00.007248,+00.023741,-00.011173
-121.294,-030.812,+009.224,+0.252,+0.680,+2.501,-04.8550,-01.3350,-08.0270,-00.007847,+00.022899,-00.009995
-121.307,-030.778,+009.222,+0.261,+0.680,+2.502,-04.7940,-01.3910,-08.0390,-00.011723,+00.028705,-00.013995
-121.322,-030.745,+009.223,+0.261,+0.695,+2.469,-04.7910,-01.4100,-08.0600,-00.008225,+00.032331,-00.017506
-121.338,-030.712,+009.228,+0.265,+0.670,+2.469,-04.8210,-01.2690,-08.0690,-00.005220,+00.023541,-00.016232
-121.350,-030.683,+009.230,+0.261,+0.670,+2.491,-04.9250,-01.2710,-07.9880,+00.001856,+00.021369,-00.014069
-121.363,-030.658,+009.232,+0.256,+0.680,+2.474,-04.8500,-01.4070,-08.0600,-00.002774,+00.018217,-00.009884
-121.376,-030.636,+009.237,+0.251,+0.680,+2.463,-04.7250,-01.3830,-07.9340,-00.006559,+00.017622,-00.010405
-121.382,-030.618,+009.236,+0.247,+0.685,+2.501,-04.8370,-01.3380,-08.0340,-00.001112,+00.013947,-00.008566
-121.391,-030.601,+009.239,+0.261,+0.680,+2.480,-04.8130,-01.2480,-08.0490,-00.000630,+00.011685,-00.008727
-121.398,-030.587,+009.241,+0.256,+0.700,+2.474,-04.8140,-01.3180,-08.0390,-00.000827,+00.010126,-00.006172
-121.405,-030.575,+009.245,+0.247,+0.680,+2.485,-04.8070,-01.2950,-08.0630,-00.000843,+00.006693,-00.006002
-121.412,-030.566,+009.249,+0.261,+0.680,+2.485,-04.8120,-01.3250,-08.0520,+00.001623,+00.006873,-00.006232
-121.419,-030.559,+009.254,+0.252,+0.695,+2.485,-04.8160,-01.3280,-08.0640,+00.001955,+00.004755,-00.004517
-121.425,-030.553,+009.259,+0.252,+0.690,+2.501,-04.8240,-01.3610,-08.0430,+00.000010,+00.004141,-00.003795
-121.430,-030.549,+009.263,+0.256,+0.680,+2.469,-04.8150,-01.3130,-08.0780,+00.000924,+00.001654,-00.004927
-121.433,-030.545,+009.267,+0.242,+0.680,+2.474,-04.8040,-01.2840,-08.0570,+00.003746,+00.004452,-00.003310
-121.438,-030.544,+009.272,+0.247,+0.705,+2.512,-04.8480,-01.3010,-08.0620,+00.002994,+00.002053,-00.002689
-121.441,-030.543,+009.278,+0.252,+0.710,+2.479,-04.8090,-01.3410,-08.1080,+00.003408,-00.000224,-00.002554
-121.446,-030.547,+009.289,+0.251,+0.685,+2.474,-04.8210,-01.3530,-08.0830,+00.010462,-00.006317,-00.002668
-121.454,-030.561,+009.314,+0.251,+0.655,+2.491,-04.8940,-01.2780,-08.1300,+00.033533,-00.009800,-00.007162
-121.467,-030.573,+009.353,+0.251,+0.685,+2.469,-05.0140,-01.3020,-08.2220,+00.028167,-00.008347,-00.007440
-121.484,-030.570,+009.406,+0.247,+0.675,+2.490,-04.8830,-01.2870,-08.0720,+00.044102,+00.004545,-00.016313
-121.503,-030.560,+009.457,+0.256,+0.685,+2.474,-04.7770,-01.2400,-08.0820,+00.039912,+00.009456,-00.016054
-121.520,-030.546,+009.506,+0.252,+0.695,+2.485,-04.7490,-01.2320,-08.1640,+00.033515,+00.010210,-00.014568
-121.535,-030.531,+009.555,+0.261,+0.705,+2.480,-04.8440,-01.2480,-08.0460,+00.028522,+00.011528,-00.013438
-121.549,-030.511,+009.598,+0.247,+0.695,+2.495,-04.8410,-01.2710,-08.0620,+00.018612,+00.012920,-00.008837
-121.563,-030.490,+009.639,+0.228,+0.695,+2.473,-04.7940,-01.4290,-08.0220,+00.023097,+00.014337,-00.009542
-121.573,-030.472,+009.662,+0.242,+0.680,+2.490,-04.7710,-01.4360,-08.1100,+00.018183,+00.016710,-00.010783
-121.583,-030.456,+009.689,+0.252,+0.695,+2.506,-04.7650,-01.4860,-08.0160,+00.011305,+00.010312,-00.004947
-121.585,-030.445,+009.694,+0.242,+0.710,+2.474,-04.7750,-01.3760,-08.0370,+00.004754,+00.008801,-00.004101
-121.584,-030.438,+009.693,+0.251,+0.685,+2.480,-04.7640,-01.4250,-08.0150,-00.005942,+00.005881,+00.000911
-121.581,-030.435,+009.681,+0.242,+0.680,+2.479,-04.7970,-01.3850,-08.0340,-00.011391,+00.002965,+00.003213
-121.575,-030.435,+009.661,+0.242,+0.710,+2.479,-04.8080,-01.3630,-08.0320,-00.015728,-00.001318,+00.004539
-121.572,-030.437,+009.642,+0.247,+0.685,+2.485,-04.8130,-01.3580,-08.0680,-00.014944,-00.001281,+00.003580
-121.568,-030.439,+009.624,+0.247,+0.685,+2.506,-04.7980,-01.3680,-08.0560,-00.012673,-00.000497,+00.002696
-121.566,-030.441,+009.611,+0.247,+0.715,+2.479,-04.8130,-01.3700,-08.0810,-00.009491,-00.000645,+00.001961
-121.564,-030.443,+009.604,+0.242,+0.685,+2.463,-04.8430,-01.3440,-08.0670,-00.001211,-00.002304,+00.001072
-121.564,-030.443,+009.600,+0.242,+0.685,+2.512,-04.8160,-01.3780,-08.0400,-00.002838,+00.000138,+00.001552
-121.562,-030.442,+009.592,+0.252,+0.720,+2.479,-04.7940,-01.3680,-08.0220,-00.008553,-00.000087,+00.001728
-121.558,-030.442,+009.583,+0.233,+0.715,+2.478,-04.8200,-01.3240,-08.1050,-00.002974,+00.002198,+00.002826
-121.555,-030.442,+009.570,+0.238,+0.675,+2.495,-04.7910,-01.3420,-08.0220,-00.008173,-00.000841,+00.001051
-121.555,-030.442,+009.562,+0.251,+0.680,+2.469,-04.7870,-01.3380,-08.0340,-00.008877,+00.000480,+00.000099
-121.555,-030.444,+009.551,+0.242,+0.680,+2.468,-04.8050,-01.3490,-08.0310,-00.010354,-00.001878,+00.000634
-121.554,-030.446,+009.538,+0.238,+0.695,+2.511,-04.7490,-01.3620,-08.0520,-00.016662,-00.003722,+00.002496
-121.551,-030.450,+009.520,+0.251,+0.685,+2.469,-04.8540,-01.3200,-08.0620,-00.010350,-00.004079,+00.002740
-121.543,-030.450,+009.491,+0.238,+0.680,+2.457,-04.7880,-01.3550,-08.0760,-00.021729,+00.001654,+00.005443
-121.534,-030.451,+009.460,+0.247,+0.665,+2.496,-04.8090,-01.3430,-08.0730,-00.020563,+00.000412,+00.007077
-121.527,-030.453,+009.435,+0.251,+0.690,+2.479,-04.8050,-01.3510,-08.0850,-00.018558,-00.002333,+00.006645
-121.519,-030.457,+009.413,+0.247,+0.680,+2.479,-04.7790,-01.3410,-08.1010,-00.013477,-00.004890,+00.006406
-121.514,-030.464,+009.398,+0.242,+0.666,+2.506,-04.7900,-01.3330,-08.0530,-00.005265,-00.006825,+00.004497
-121.504,-030.476,+009.381,+0.251,+0.690,+2.463,-04.8210,-01.3030,-07.9970,-00.016170,-00.008821,+00.011569
-121.491,-030.488,+009.359,+0.251,+0.670,+2.480,-04.8500,-01.2870,-08.0280,-00.010786,-00.009854,+00.010073
-121.481,-030.504,+009.346,+0.242,+0.690,+2.501,-04.7970,-01.2070,-08.0300,-00.001100,-00.016385,+00.011967
-121.467,-030.525,+009.324,+0.242,+0.675,+2.474,-04.7460,-01.2920,-08.0410,-00.011245,-00.012540,+00.012652
-121.457,-030.544,+009.318,+0.242,+0.720,+2.484,-04.8070,-01.3510,-08.0670,-00.007576,-00.016531,+00.011262
-121.449,-030.560,+009.311,+0.251,+0.675,+2.496,-04.8590,-01.3670,-08.0480,+00.005155,-00.016002,+00.005898
-121.441,-030.580,+009.306,+0.247,+0.695,+2.468,-04.8150,-01.2840,-08.0540,-00.005094,-00.015779,+00.014039
-121.432,-030.604,+009.303,+0.247,+0.665,+2.485,-04.8070,-01.4010,-08.0060,+00.001440,-00.018394,+00.009146
-121.419,-030.628,+009.295,+0.251,+0.670,+2.490,-04.8990,-01.2570,-08.0250,-00.003304,-00.020023,+00.013827
-121.409,-030.649,+009.294,+0.251,+0.695,+2.458,-04.8030,-01.2430,-08.0630,+00.013420,-00.015906,+00.008921
-121.398,-030.675,+009.285,+0.251,+0.670,+2.469,-04.7700,-01.1690,-08.0620,+00.000959,-00.020067,+00.010859
-121.387,-030.702,+009.287,+0.261,+0.690,+2.496,-04.8070,-01.3310,-07.9180,+00.006236,-00.019512,+00.013547
-121.377,-030.731,+009.286,+0.265,+0.695,+2.475,-04.8070,-01.3740,-08.0110,+00.005135,-00.025622,+00.011413
-121.365,-030.762,+009.284,+0.247,+0.670,+2.479,-04.8610,-01.2400,-08.0260,+00.001114,-00.025035,+00.014117
-121.354,-030.792,+009.291,+0.251,+0.670,+2.480,-04.8430,-01.3390,-08.0110,+00.002139,-00.022663,+00.014415
-121.345,-030.820,+009.294,+0.261,+0.705,+2.469,-04.8750,-01.2930,-08.0560,+00.013327,-00.022483,+00.007870
-121.340,-030.845,+009.300,+0.256,+0.680,+2.474,-04.8480,-01.3750,-07.9160,+00.006962,-00.020089,+00.007300
-121.336,-030.865,+009.305,+0.265,+0.690,+2.502,-04.8000,-01.3380,-08.0290,+00.008131,-00.018875,+00.005994
-121.328,-030.888,+009.307,+0.261,+0.690,+2.480,-04.8660,-01.3720,-08.0450,+00.006382,-00.017361,+00.009568
-121.318,-030.909,+009.304,+0.251,+0.670,+2.490,-04.9520,-01.3010,-08.0410,+00.002096,-00.017458,+00.011237
-121.312,-030.929,+009.304,+0.252,+0.700,+2.490,-04.8880,-01.2950,-08.0110,+00.003263,-00.011905,+00.006852
-121.307,-030.943,+009.305,+0.261,+0.705,+2.480,-04.8520,-01.3390,-08.0070,+00.003582,-00.011241,+00.003777
-121.302,-030.958,+009.306,+0.265,+0.685,+2.480,-04.9210,-01.3150,-08.0750,+00.001959,-00.011757,+00.006358
-121.300,-030.971,+009.309,+0.261,+0.680,+2.480,-04.9030,-01.3220,-08.0500,+00.003091,-00.007789,+00.003703
-121.296,-030.982,+009.311,+0.270,+0.680,+2.475,-04.8620,-01.3310,-08.0020,+00.002266,-00.008423,+00.003720
-121.291,-030.993,+009.310,+0.256,+0.680,+2.485,-04.9060,-01.3180,-08.0520,+00.001096,-00.010456,+00.006103
-121.285,-031.005,+009.309,+0.265,+0.660,+2.491,-04.9100,-01.3250,-07.9990,+00.001010,-00.009252,+00.006024
-121.281,-031.017,+009.308,+0.270,+0.739,+2.475,-04.9240,-01.3070,-08.0380,+00.002097,-00.006347,+00.002927
-121.279,-031.024,+009.308,+0.265,+0.675,+2.480,-04.8700,-01.3030,-07.9980,+00.001952,-00.003393,+00.000352
-121.277,-031.028,+009.308,+0.265,+0.690,+2.491,-04.8680,-01.3220,-07.9940,+00.000114,-00.003070,+00.004256
-121.273,-031.032,+009.304,+0.256,+0.685,+2.464,-04.9090,-01.3200,-08.0670,-00.001465,-00.000692,+00.002323
-121.271,-031.033,+009.300,+0.251,+0.695,+2.458,-04.8920,-01.3020,-07.9720,-00.002768,+00.002719,-00.000128
-121.271,-031.029,+009.298,+0.265,+0.675,+2.496,-04.9190,-01.3180,-07.9890,-00.002202,+00.004328,-00.000756
-121.270,-031.023,+009.294,+0.265,+0.705,+2.475,-04.9070,-01.3040,-08.0200,-00.003767,+00.007900,-00.001343
-121.268,-031.014,+009.289,+0.261,+0.705,+2.491,-04.9080,-01.3130,-08.0430,-00.004338,+00.007526,+00.000310
-121.267,-031.007,+009.285,+0.261,+0.685,+2.502,-04.8980,-01.3030,-08.0470,-00.002980,+00.007209,-00.000908
-121.266,-030.998,+009.280,+0.265,+0.690,+2.480,-04.8850,-01.3020,-08.0050,-00.003023,+00.008974,-00.000912
-121.269,-030.988,+009.278,+0.261,+0.700,+2.474,-04.9020,-01.3160,-07.9970,-00.002337,+00.010657,-00.004998
-121.272,-030.972,+009.275,+0.261,+0.705,+2.496,-04.8910,-01.2900,-08.0280,-00.003902,+00.014067,-00.005882
-121.276,-030.954,+009.271,+0.261,+0.695,+2.475,-04.8570,-01.3240,-08.0010,-00.008627,+00.015586,-00.003450
-121.278,-030.933,+009.266,+0.256,+0.700,+2.463,-04.8520,-01.3100,-08.0170,-00.008194,+00.014532,-00.002750
-121.279,-030.918,+009.258,+0.261,+0.670,+2.502,-04.9020,-01.3250,-08.0350,-00.006942,+00.012856,-00.003059
-121.281,-030.904,+009.254,+0.256,+0.690,+2.469,-04.8850,-01.3140,-08.0530,-00.004751,+00.014069,-00.002967
-121.284,-030.887,+009.247,+0.256,+0.680,+2.474,-04.8810,-01.2980,-08.0470,-00.006954,+00.013373,-00.004845
-121.287,-030.872,+009.243,+0.247,+0.670,+2.490,-04.8830,-01.3140,-08.0360,-00.006308,+00.013442,-00.005184
-121.292,-030.852,+009.238,+0.256,+0.675,+2.474,-04.8420,-01.2910,-08.0050,-00.005149,+00.013701,-00.006168
-121.296,-030.835,+009.237,+0.256,+0.680,+2.464,-04.8350,-01.3050,-08.0200,-00.001890,+00.011002,-00.004746
-121.300,-030.820,+009.237,+0.261,+0.690,+2.485,-04.8180,-01.2870,-08.0050,-00.002963,+00.013451,-00.004619
-121.305,-030.806,+009.236,+0.261,+0.700,+2.474,-04.8600,-01.3170,-08.0440,-00.002468,+00.011085,-00.004957
-121.308,-030.792,+009.236,+0.256,+0.660,+2.469,-04.8460,-01.3360,-08.0010,-00.002427,+00.012782,-00.002708
-121.311,-030.779,+009.236,+0.256,+0.675,+2.507,-04.8400,-01.3110,-08.0480,-00.001684,+00.007964,-00.002538
-121.314,-030.768,+009.235,+0.252,+0.715,+2.490,-04.8180,-01.3060,-08.0420,+00.000885,+00.004211,-00.003423
-121.319,-030.762,+009.237,+0.251,+0.675,+2.490,-04.8450,-01.3020,-08.0330,+00.001318,+00.005464,-00.005844
-121.324,-030.756,+009.238,+0.256,+0.685,+2.501,-04.8360,-01.3070,-08.0250,+00.000063,+00.005404,-00.006078
-121.329,-030.747,+009.241,+0.256,+0.720,+2.485,-04.8340,-01.3100,-08.0510,-00.000388,+00.005576,-00.003071
-121.330,-030.740,+009.241,+0.261,+0.675,+2.480,-04.8370,-01.3010,-08.0600,-00.001417,+00.004096,+00.000136
-121.332,-030.733,+009.239,+0.251,+0.660,+2.496,-04.8600,-01.3040,-08.0260,-00.002248,+00.006107,-00.001507
-121.333,-030.725,+009.238,+0.256,+0.725,+2.485,-04.7750,-01.3140,-07.9920,-00.001978,+00.008171,-00.002227
-121.334,-030.718,+009.237,+0.256,+0.690,+2.491,-04.8020,-01.2960,-07.9720,-00.002362,+00.005518,-00.001433
-121.335,-030.708,+009.235,+0.256,+0.675,+2.496,-04.7760,-01.3210,-07.9610,-00.002696,+00.005804,+00.001266
-121.332,-030.703,+009.230,+0.252,+0.700,+2.474,-04.7540,-01.3100,-07.9670,-00.004647,+00.003070,+00.001200
-121.328,-030.702,+009.224,+0.247,+0.670,+2.458,-04.7770,-01.3010,-08.0320,-00.002602,-00.002514,+00.003247
-121.324,-030.705,+009.219,+0.251,+0.670,+2.501,-04.8300,-01.2880,-08.0600,-00.002638,-00.002494,+00.003998
-121.322,-030.707,+009.216,+0.242,+0.680,+2.474,-04.8380,-01.2870,-08.0600,+00.000784,-00.000870,+00.002112
-121.323,-030.709,+009.218,+0.261,+0.665,+2.475,-04.8210,-01.2960,-08.0330,+00.003009,-00.003151,-00.000218
-121.324,-030.713,+009.222,+0.252,+0.680,+2.501,-04.8070,-01.2990,-08.0470,+00.003657,-00.005365,+00.000193
-121.325,-030.721,+009.227,+0.256,+0.705,+2.485,-04.8530,-01.3390,-08.0360,+00.003363,-00.009109,+00.001918
-121.323,-030.730,+009.229,+0.247,+0.695,+2.463,-04.8730,-01.3050,-08.0530,+00.001369,-00.007276,+00.000845
-121.321,-030.737,+009.231,+0.256,+0.715,+2.496,-04.8560,-01.2710,-08.0000,+00.002416,-00.003075,+00.000310
-121.321,-030.739,+009.232,+0.242,+0.725,+2.473,-04.7700,-01.2270,-08.0580,-00.000742,-00.003470,+00.000906
-121.319,-030.741,+009.230,+0.256,+0.690,+2.480,-04.8030,-01.2800,-07.9640,-00.001818,+00.000529,+00.000950
-121.318,-030.739,+009.226,+0.247,+0.675,+2.501,-04.7530,-01.3010,-07.9540,-00.001771,+00.000449,-00.001383
-121.319,-030.736,+009.224,+0.256,+0.690,+2.474,-04.8810,-01.3410,-08.0760,-00.003087,+00.001445,-00.000083
-121.316,-030.737,+009.215,+0.242,+0.675,+2.485,-04.8870,-01.3310,-08.0750,-00.008638,+00.000149,+00.006265
-121.307,-030.737,+009.201,+0.256,+0.685,+2.507,-04.8430,-01.3300,-08.0010,-00.011214,+00.001552,+00.006871
-121.298,-030.732,+009.183,+0.256,+0.710,+2.469,-04.8520,-01.3010,-08.0750,-00.009670,+00.003209,+00.005392
-121.292,-030.725,+009.172,+0.251,+0.680,+2.480,-04.8320,-01.3000,-08.1050,-00.005653,+00.006225,+00.001072
-121.292,-030.722,+009.167,+0.251,+0.661,+2.501,-04.8550,-01.3030,-08.0280,-00.002257,+00.003650,-00.001527
-121.293,-030.717,+009.164,+0.256,+0.675,+2.464,-04.8650,-01.3100,-08.0580,-00.003150,+00.005005,-00.000843
-121.294,-030.712,+009.160,+0.251,+0.680,+2.490,-04.8270,-01.3440,-08.0510,-00.006037,+00.003199,-00.000239
-121.290,-030.707,+009.153,+0.242,+0.680,+2.506,-04.8410,-01.3000,-08.0570,-00.006223,+00.003004,+00.002108
-121.285,-030.702,+009.142,+0.251,+0.680,+2.469,-04.8580,-01.2570,-08.1070,-00.005555,+00.004401,+00.001867
-121.284,-030.695,+009.136,+0.247,+0.656,+2.490,-04.8430,-01.2860,-08.0590,-00.002359,+00.004991,-00.001626
-121.287,-030.689,+009.137,+0.256,+0.670,+2.480,-04.8360,-01.3200,-08.0700,-00.001074,+00.002941,-00.001406
-121.288,-030.686,+009.135,+0.256,+0.690,+2.485,-04.8580,-01.2930,-08.0250,-00.001381,+00.004969,-00.000454
-121.288,-030.681,+009.133,+0.247,+0.670,+2.480,-04.8420,-01.2740,-08.0390,-00.000746,+00.004882,-00.003032
-121.292,-030.676,+009.136,+0.251,+0.665,+2.474,-04.8370,-01.2840,-08.0240,+00.002749,+00.005324,-00.005245
-121.299,-030.670,+009.142,+0.251,+0.700,+2.463,-04.8380,-01.3090,-08.0800,+00.004365,+00.005150,-00.005726
-121.307,-030.662,+009.150,+0.256,+0.680,+2.491,-04.8310,-01.2710,-08.0550,+00.005584,+00.006505,-00.006906
-121.318,-030.652,+009.163,+0.247,+0.665,+2.496,-04.8130,-01.3190,-08.0180,+00.003987,+00.008665,-00.007875
-121.327,-030.638,+009.170,+0.261,+0.685,+2.453,-04.8710,-01.3430,-08.0400,-00.000685,+00.013508,-00.007254
-121.334,-030.620,+009.171,+0.251,+0.670,+2.496,-04.8780,-01.2110,-08.1360,-00.002517,+00.015574,-00.007443
-121.336,-030.599,+009.164,+0.252,+0.675,+2.512,-04.8130,-01.2900,-08.1480,-00.009917,+00.018356,-00.003191
-121.340,-030.580,+009.157,+0.256,+0.675,+2.469,-04.8090,-01.3410,-08.0820,-00.007796,+00.017117,-00.005666
-121.347,-030.562,+009.156,+0.247,+0.695,+2.474,-04.7620,-01.1430,-07.9760,-00.004051,+00.017436,-00.009483
-121.354,-030.545,+009.155,+0.242,+0.675,+2.512,-04.7580,-01.2710,-08.0230,-00.003227,+00.010468,-00.006417
-121.360,-030.527,+009.144,+0.256,+0.690,+2.480,-04.7020,-01.4290,-08.1410,+00.001602,+00.015909,-00.009889
-121.369,-030.515,+009.151,+0.242,+0.700,+2.479,-04.8130,-01.3160,-08.0420,+00.002486,+00.008905,-00.009982
-121.377,-030.503,+009.155,+0.247,+0.665,+2.501,-04.7950,-01.3110,-07.9840,-00.006572,+00.008957,-00.005929
-121.383,-030.491,+009.156,+0.247,+0.710,+2.479,-04.8170,-01.2810,-08.0990,-00.002021,+00.010274,-00.006897
-121.387,-030.479,+009.156,+0.247,+0.680,+2.469,-04.8040,-01.3210,-08.0740,-00.003531,+00.010121,-00.003802
-121.388,-030.468,+009.153,+0.242,+0.690,+2.501,-04.8500,-01.3390,-08.0600,-00.005215,+00.010017,-00.001754
-121.388,-030.458,+009.148,+0.242,+0.695,+2.479,-04.8260,-01.3580,-08.0480,-00.003524,+00.007148,-00.001577
-121.390,-030.449,+009.144,+0.256,+0.675,+2.496,-04.8160,-01.2960,-08.0630,-00.002327,+00.005745,-00.002856
-121.392,-030.442,+009.145,+0.242,+0.670,+2.501,-04.7910,-01.2680,-08.0770,+00.002632,+00.004559,-00.003824
-121.397,-030.439,+009.149,+0.247,+0.685,+2.485,-04.8240,-01.2850,-08.0680,+00.001749,+00.001985,-00.003266
-121.403,-030.436,+009.154,+0.242,+0.661,+2.490,-04.7930,-01.3020,-08.0660,+00.000884,+00.003014,-00.005386
-121.410,-030.433,+009.160,+0.251,+0.660,+2.491,-04.7940,-01.3130,-08.0860,+00.002884,+00.001334,-00.006123
-121.415,-030.429,+009.166,+0.242,+0.685,+2.479,-04.7910,-01.2830,-08.0810,+00.003913,+00.001754,-00.005941
-121.421,-030.426,+009.172,+0.242,+0.675,+2.468,-04.8120,-01.3280,-08.0650,-00.000081,+00.000693,-00.001411
-121.421,-030.425,+009.171,+0.252,+0.680,+2.507,-04.8010,-01.2880,-08.0680,-00.002148,+00.002329,+00.000049
-121.420,-030.420,+009.169,+0.238,+0.700,+2.484,-04.7950,-01.2950,-08.0630,-00.000604,+00.002200,+00.000104
-121.419,-030.418,+009.168,+0.251,+0.660,+2.474,-04.8060,-01.2850,-08.0330,-00.001120,+00.002302,-00.000402
-121.419,-030.414,+009.166,+0.238,+0.680,+2.490,-04.7590,-01.2970,-08.0670,-00.000805,+00.001728,-00.000729
-121.419,-030.410,+009.165,+0.233,+0.680,+2.484,-04.8020,-01.3150,-08.0860,+00.000773,+00.003321,+00.000167
-121.420,-030.408,+009.166,+0.238,+0.690,+2.474,-04.8090,-01.3160,-08.0360,-00.000758,+00.000198,-00.001044
-121.419,-030.406,+009.165,+0.233,+0.666,+2.511,-04.7820,-01.3430,-08.0520,-00.002343,+00.002402,+00.001171
-121.417,-030.405,+009.161,+0.252,+0.695,+2.480,-04.8110,-01.3520,-08.0490,-00.002358,-00.000018,+00.000924
-121.413,-030.404,+009.155,+0.247,+0.665,+2.474,-04.8160,-01.3010,-08.0470,-00.004417,+00.000605,+00.003247
-121.407,-030.404,+009.147,+0.247,+0.670,+2.507,-04.7990,-01.3130,-08.0850,-00.003721,-00.002172,+00.005425
-121.400,-030.406,+009.138,+0.247,+0.680,+2.490,-04.7700,-01.2770,-08.0700,-00.003840,-00.004367,+00.007186
-121.392,-030.413,+009.128,+0.247,+0.675,+2.490,-04.7740,-01.2620,-08.0510,-00.004345,-00.005227,+00.007186
-121.385,-030.422,+009.121,+0.251,+0.660,+2.491,-04.7910,-01.2510,-08.0500,+00.000090,-00.008370,+00.004000
-121.382,-030.430,+009.122,+0.247,+0.690,+2.474,-04.7750,-01.2800,-08.0480,+00.002329,-00.009762,+00.002904
-121.380,-030.442,+009.122,+0.247,+0.665,+2.474,-04.8170,-01.3080,-08.0840,+00.001687,-00.012022,+00.004103
-121.377,-030.458,+009.124,+0.251,+0.665,+2.501,-04.8200,-01.3190,-08.0930,+00.004279,-00.010866,+00.004664
-121.373,-030.472,+009.124,+0.252,+0.710,+2.490,-04.7960,-01.3050,-08.0660,+00.001658,-00.012079,+00.006608
-121.365,-030.490,+009.122,+0.247,+0.660,+2.474,-04.8060,-01.3160,-08.0870,+00.003812,-00.018501,+00.009388
-121.359,-030.512,+009.122,+0.242,+0.675,+2.496,-04.8570,-01.2610,-08.0310,+00.003724,-00.016506,+00.006544
-121.353,-030.533,+009.124,+0.247,+0.680,+2.479,-04.7490,-01.3860,-07.9850,+00.007622,-00.021175,+00.007617
-121.348,-030.556,+009.131,+0.238,+0.675,+2.463,-04.8250,-01.3100,-08.0520,+00.009273,-00.024634,+00.008740
-121.338,-030.583,+009.130,+0.261,+0.670,+2.502,-04.9610,-01.1950,-08.1840,+00.009814,-00.018783,+00.007812
-121.334,-030.606,+009.136,+0.261,+0.675,+2.480,-04.8360,-01.2610,-08.0290,+00.006450,-00.016954,+00.006067
-121.331,-030.625,+009.143,+0.251,+0.675,+2.480,-04.7820,-01.3120,-08.0580,+00.007566,-00.017574,+00.005758
-121.325,-030.648,+009.154,+0.256,+0.715,+2.507,-04.8740,-01.2810,-08.0590,+00.007109,-00.021582,+00.010942
-121.317,-030.671,+009.155,+0.256,+0.695,+2.458,-04.8790,-01.3350,-08.0490,+00.007745,-00.014104,+00.008183
-121.307,-030.692,+009.154,+0.251,+0.690,+2.469,-04.8810,-01.3560,-08.0100,+00.009074,-00.016167,+00.009093
-121.301,-030.711,+009.162,+0.256,+0.670,+2.507,-04.8710,-01.2920,-08.0500,+00.004884,-00.013239,+00.007544
-121.293,-030.732,+009.163,+0.256,+0.685,+2.474,-04.8340,-01.3300,-08.0180,+00.005521,-00.020141,+00.007557
-121.290,-030.753,+009.175,+0.256,+0.690,+2.469,-04.8890,-01.1900,-08.0120,+00.015295,-00.017309,+00.003680
-121.285,-030.770,+009.179,+0.265,+0.680,+2.497,-04.9250,-01.2770,-08.1500,+00.007444,-00.012918,+00.004360
-121.278,-030.789,+009.181,+0.261,+0.665,+2.486,-04.8810,-01.3490,-08.0770,+00.007284,-00.016275,+00.008864
-121.270,-030.809,+009.183,+0.261,+0.685,+2.491,-04.8640,-01.1810,-08.0660,+00.002741,-00.016744,+00.009419
-121.260,-030.830,+009.183,+0.261,+0.680,+2.491,-04.8650,-01.2800,-08.0530,+00.003343,-00.014602,+00.009252
-121.256,-030.849,+009.193,+0.261,+0.715,+2.474,-04.8800,-01.2660,-08.0210,+00.004943,-00.015523,+00.005224
-121.252,-030.867,+009.198,+0.251,+0.675,+2.485,-04.8870,-01.3120,-08.0110,+00.007239,-00.012844,+00.005168
-121.249,-030.883,+009.202,+0.256,+0.695,+2.507,-04.8450,-01.2620,-08.0260,+00.006305,-00.012778,+00.002535
-121.250,-030.893,+009.210,+0.261,+0.695,+2.480,-04.8460,-01.2850,-08.0280,+00.007022,-00.009440,+00.000025
-121.250,-030.904,+009.216,+0.256,+0.665,+2.491,-04.8720,-01.2670,-08.0340,+00.004673,-00.006633,+00.001666
-121.251,-030.909,+009.220,+0.261,+0.680,+2.513,-04.8990,-01.3210,-08.0330,+00.002088,-00.002187,+00.000520
-121.252,-030.909,+009.222,+0.261,+0.710,+2.458,-04.8780,-01.3030,-08.0230,+00.001928,+00.002723,-00.000772
-121.251,-030.906,+009.221,+0.261,+0.695,+2.475,-04.8660,-01.3070,-08.0080,-00.001452,+00.003381,+00.000465
-121.247,-030.903,+009.218,+0.256,+0.675,+2.496,-04.8820,-01.3090,-08.0100,-00.001683,+00.002880,+00.002888
-121.246,-030.899,+009.215,+0.261,+0.730,+2.480,-04.8650,-01.3130,-08.0300,-00.001259,+00.004611,-00.000900
-121.247,-030.893,+009.215,+0.261,+0.680,+2.469,-04.8390,-01.3310,-08.0430,-00.000935,+00.003652,-00.000807
-121.246,-030.891,+009.214,+0.261,+0.680,+2.496,-04.8500,-01.2900,-08.0130,+00.000397,+00.001699,+00.000696
-121.245,-030.891,+009.214,+0.256,+0.690,+2.480,-04.8580,-01.2830,-08.0340,+00.001860,-00.001828,+00.001147
-121.247,-030.890,+009.217,+0.256,+0.695,+2.491,-04.8740,-01.3290,-08.0060,+00.001208,+00.001526,-00.002583
-121.248,-030.889,+009.218,+0.256,+0.720,+2.496,-04.8950,-01.3350,-08.0340,-00.000621,+00.002127,-00.002421
-121.248,-030.885,+009.218,+0.256,+0.695,+2.464,-04.8450,-01.3160,-08.0470,-00.000233,+00.001544,-00.001030
-121.248,-030.884,+009.219,+0.261,+0.685,+2.469,-04.8630,-01.3260,-08.0620,+00.000927,-00.001122,+00.000796
-121.245,-030.888,+009.219,+0.275,+0.695,+2.497,-04.9380,-01.2480,-07.9540,+00.002614,-00.002698,+00.001180
-121.246,-030.891,+009.222,+0.270,+0.690,+2.475,-04.8630,-01.3540,-07.9520,+00.002248,-00.003778,+00.000386
-121.249,-030.896,+009.227,+0.261,+0.685,+2.480,-04.8900,-01.2850,-08.0080,+00.002498,-00.002759,-00.003059
-121.253,-030.897,+009.233,+0.265,+0.660,+2.497,-04.8910,-01.2600,-08.0730,+00.004019,-00.000021,-00.002855
-121.255,-030.890,+009.236,+0.265,+0.685,+2.491,-04.9160,-01.3160,-08.0650,-00.001983,+00.019496,-00.000813
-121.256,-030.893,+009.240,+0.252,+0.690,+2.485,-04.8900,-01.3210,-08.0320,+00.001142,+00.002101,+00.002164
-121.256,-030.893,+009.239,+0.256,+0.670,+2.496,-04.8710,-01.2990,-08.0100,-00.000570,-00.000168,+00.001173
-121.255,-030.894,+009.238,+0.265,+0.675,+2.480,-04.8590,-01.3170,-08.0630,+00.000856,-00.002197,+00.002022
-121.254,-030.897,+009.238,+0.261,+0.690,+2.485,-04.8860,-01.3270,-08.0340,+00.000630,-00.004010,+00.000951
-121.254,-030.900,+009.240,+0.247,+0.680,+2.480,-04.8710,-01.3030,-08.0360,+00.001591,-00.004167,-00.000608
-121.254,-030.904,+009.240,+0.265,+0.690,+2.469,-04.8690,-01.3360,-08.0280,-00.001950,-00.001518,+00.001804
-121.252,-030.908,+009.238,+0.261,+0.660,+2.475,-04.8540,-01.2890,-08.0340,+00.000580,-00.004645,+00.002439
-121.249,-030.914,+009.236,+0.270,+0.695,+2.497,-04.8760,-01.3270,-08.0130,+00.000537,-00.004983,+00.003980
-121.246,-030.922,+009.234,+0.270,+0.685,+2.470,-04.8880,-01.2880,-08.0380,-00.001841,-00.003575,+00.002826
-121.240,-030.927,+009.227,+0.261,+0.690,+2.480,-04.8730,-01.2980,-08.0410,-00.003002,-00.002660,+00.005670
-121.235,-030.931,+009.221,+0.270,+0.680,+2.481,-04.8620,-01.2850,-08.0430,-00.002157,-00.003185,+00.003085
-121.229,-030.937,+009.215,+0.265,+0.695,+2.480,-04.8000,-01.3360,-07.9300,-00.002739,-00.006469,+00.005661
-121.222,-030.942,+009.211,+0.261,+0.690,+2.475,-04.9070,-01.2930,-08.0040,-00.002915,-00.003535,+00.005676
-121.217,-030.947,+009.209,+0.265,+0.665,+2.491,-04.8960,-01.2980,-08.0430,-00.000994,-00.001985,+00.005510
-121.209,-030.953,+009.204,+0.256,+0.690,+2.480,-04.8750,-01.3110,-07.9940,-00.001463,-00.004748,+00.007531
-121.199,-030.962,+009.197,+0.256,+0.675,+2.496,-04.8830,-01.2900,-08.0370,+00.000727,-00.005785,+00.007207
-121.195,-030.966,+009.205,+0.265,+0.680,+2.475,-04.8700,-01.4220,-08.1560,+00.024719,-00.000542,+00.001612
-121.191,-030.976,+009.207,+0.270,+0.685,+2.464,-04.8710,-01.2930,-08.0830,-00.003723,-00.018377,+00.005268
-121.184,-030.984,+009.202,+0.261,+0.690,+2.480,-04.8780,-01.2980,-07.9990,-00.001126,-00.003739,+00.005988
-121.178,-030.990,+009.199,+0.275,+0.675,+2.519,-04.8840,-01.3330,-08.0010,+00.002972,-00.005590,+00.005769
-121.174,-030.999,+009.196,+0.265,+0.685,+2.480,-04.8880,-01.2750,-08.0140,+00.000117,-00.003157,+00.004752
-121.168,-031.006,+009.193,+0.256,+0.690,+2.480,-04.8900,-01.2880,-08.0160,+00.000374,-00.002388,+00.005924
-121.161,-031.014,+009.187,+0.265,+0.685,+2.480,-04.8850,-01.2910,-08.0030,-00.001480,-00.001679,+00.005473
-121.155,-031.019,+009.183,+0.270,+0.695,+2.480,-04.9250,-01.2630,-08.0210,-00.001131,-00.003887,+00.004039
-121.148,-031.026,+009.178,+0.256,+0.680,+2.485,-04.8730,-01.3180,-07.9790,-00.000545,-00.001549,+00.004690
-121.143,-031.033,+009.173,+0.261,+0.660,+2.486,-04.8810,-01.2870,-08.0400,-00.001419,-00.002855,+00.005801
-121.137,-031.037,+009.166,+0.265,+0.695,+2.469,-04.9070,-01.2970,-08.0140,-00.004785,-00.000549,+00.005405
-121.132,-031.038,+009.160,+0.256,+0.700,+2.474,-04.9100,-01.3120,-08.0030,-00.003174,-00.003156,+00.003910
-121.127,-031.040,+009.153,+0.256,+0.675,+2.502,-04.8770,-01.2690,-08.0560,-00.002014,-00.000739,+00.004690
-121.126,-031.044,+009.150,+0.270,+0.690,+2.464,-04.8760,-01.3160,-08.0560,-00.001059,-00.004929,+00.001308
-121.127,-031.052,+009.151,+0.261,+0.665,+2.486,-04.9420,-01.2890,-08.0330,+00.001621,-00.009537,-00.000503
-121.130,-031.059,+009.156,+0.265,+0.685,+2.486,-04.9350,-01.2580,-08.0330,+00.004508,-00.003198,-00.004490
-121.139,-031.059,+009.166,+0.270,+0.695,+2.480,-04.9550,-01.2820,-08.0910,+00.004861,+00.002885,-00.008403
-121.154,-031.048,+009.178,+0.270,+0.680,+2.475,-04.9430,-01.2480,-08.0600,+00.003117,+00.014536,-00.015176
-121.175,-031.025,+009.191,+0.265,+0.670,+2.475,-05.0450,-01.2670,-08.0760,+00.003147,+00.032439,-00.023791
-121.206,-030.977,+009.202,+0.261,+0.700,+2.469,-04.9330,-01.2610,-08.0300,-00.007901,+00.044291,-00.031773
-121.232,-030.924,+009.203,+0.265,+0.680,+2.464,-04.7590,-01.2440,-07.9760,-00.013149,+00.035239,-00.021253
-121.245,-030.883,+009.197,+0.265,+0.690,+2.486,-04.7870,-01.2330,-08.0220,-00.006561,+00.025811,-00.012957
-121.256,-030.849,+009.186,+0.261,+0.680,+2.475,-04.8430,-01.1900,-08.0630,-00.008230,+00.028439,-00.013923
-121.272,-030.814,+009.185,+0.247,+0.680,+2.485,-04.9440,-01.2320,-08.0970,-00.017979,+00.032087,-00.017360
-121.296,-030.775,+009.190,+0.265,+0.680,+2.491,-04.8720,-01.4080,-08.0040,-00.007662,+00.033664,-00.025245
-121.327,-030.730,+009.203,+0.256,+0.685,+2.458,-04.7830,-01.3250,-08.0670,+00.004524,+00.031915,-00.029397
-121.356,-030.688,+009.213,+0.251,+0.675,+2.469,-04.7800,-01.2450,-08.0830,+00.002613,+00.035666,-00.027310
-121.373,-030.658,+009.213,+0.242,+0.665,+2.490,-04.7080,-01.3360,-08.0270,-00.005939,+00.014301,-00.010206
-121.376,-030.634,+009.207,+0.252,+0.680,+2.501,-04.8480,-01.3120,-08.1000,-00.007787,+00.020029,-00.005043
-121.377,-030.610,+009.195,+0.256,+0.665,+2.469,-04.8520,-01.2890,-08.0430,-00.012018,+00.018758,-00.002321
-121.378,-030.587,+009.181,+0.256,+0.670,+2.512,-04.7530,-01.3270,-07.9430,-00.008639,+00.020245,-00.003516
-121.378,-030.570,+009.174,+0.252,+0.720,+2.485,-04.7970,-01.2750,-08.0980,-00.007155,+00.009154,-00.003023
-121.381,-030.559,+009.176,+0.242,+0.665,+2.474,-04.8050,-01.3160,-07.9270,-00.005001,+00.002598,-00.004090
-121.388,-030.548,+009.188,+0.242,+0.665,+2.474,-04.8750,-01.3440,-08.2130,+00.016344,+00.015467,-00.007004
-121.394,-030.536,+009.194,+0.256,+0.700,+2.480,-04.8090,-01.3440,-08.0240,+00.003927,+00.012651,-00.005461
-121.399,-030.518,+009.203,+0.238,+0.675,+2.490,-04.7750,-01.3380,-08.0610,+00.011136,+00.018674,-00.005216
-121.401,-030.506,+009.204,+0.247,+0.670,+2.496,-04.7950,-01.3150,-08.0210,-00.000158,+00.006090,-00.001134
-121.397,-030.496,+009.200,+0.247,+0.695,+2.485,-04.8190,-01.3250,-08.0420,-00.005781,+00.006931,+00.003901
-121.393,-030.490,+009.197,+0.247,+0.665,+2.496,-04.8060,-01.2800,-07.9790,-00.003599,+00.001930,+00.001929
-121.392,-030.482,+009.197,+0.247,+0.661,+2.507,-04.8550,-01.1640,-08.1830,+00.009809,+00.009969,-00.002974
-121.395,-030.474,+009.202,+0.256,+0.690,+2.475,-04.7170,-01.3250,-08.0710,+00.004354,+00.001275,-00.000845
-121.395,-030.476,+009.216,+0.242,+0.665,+2.474,-04.7270,-01.3060,-07.9340,+00.011523,-00.013020,+00.002515
-121.396,-030.491,+009.238,+0.242,+0.680,+2.496,-04.8080,-01.2350,-08.0840,+00.027989,-00.016003,-00.001648
-121.406,-030.514,+009.271,+0.247,+0.695,+2.479,-04.7960,-01.4180,-08.0330,+00.029830,-00.018962,-00.006175
-121.419,-030.543,+009.311,+0.251,+0.670,+2.496,-04.7400,-01.2470,-08.0870,+00.032712,-00.030512,-00.006773
-121.433,-030.581,+009.369,+0.256,+0.675,+2.491,-04.8400,-01.3580,-08.0510,+00.039966,-00.039715,-00.004691
-121.452,-030.622,+009.428,+0.252,+0.705,+2.480,-04.7930,-01.2140,-07.9100,+00.039401,-00.044882,-00.008451
-121.475,-030.668,+009.491,+0.251,+0.680,+2.458,-04.7270,-01.3240,-08.1050,+00.058473,-00.046783,-00.013974
-121.506,-030.735,+009.568,+0.261,+0.710,+2.491,-04.8040,-01.2370,-07.9770,+00.060101,-00.071836,-00.013934
-121.545,-030.818,+009.662,+0.256,+0.705,+2.464,-04.8110,-01.3140,-08.0000,+00.062334,-00.078061,-00.017738
-121.583,-030.904,+009.766,+0.256,+0.685,+2.469,-04.8570,-01.3830,-07.9790,+00.075310,-00.081471,-00.013576
-121.617,-030.981,+009.860,+0.261,+0.715,+2.491,-04.8950,-01.3930,-07.9880,+00.069478,-00.068899,-00.015063
-121.653,-031.042,+009.952,+0.261,+0.700,+2.458,-04.9770,-01.5430,-07.9630,+00.058349,-00.048847,-00.016460
-121.665,-031.082,+010.007,+0.261,+0.695,+2.475,-04.9730,-01.4820,-07.9650,+00.038075,-00.026436,+00.004575
-121.655,-031.106,+010.029,+0.265,+0.710,+2.486,-04.9220,-01.3840,-08.0490,+00.023398,-00.017398,+00.012352
-121.648,-031.121,+010.050,+0.270,+0.710,+2.480,-04.9750,-01.4450,-08.0120,+00.021475,-00.010218,+00.003392
-121.645,-031.141,+010.069,+0.261,+0.715,+2.480,-04.9360,-01.5230,-08.0170,+00.018338,-00.019659,+00.008743
-121.634,-031.187,+010.070,+0.275,+0.720,+2.491,-04.9520,-01.4260,-07.9810,-00.001127,-00.043072,+00.016895
-121.620,-031.231,+010.047,+0.270,+0.710,+2.475,-04.9920,-01.4010,-08.0420,-00.018087,-00.031429,+00.016931
-121.602,-031.263,+010.009,+0.275,+0.734,+2.480,-04.9340,-01.4710,-08.0410,-00.032264,-00.022479,+00.019673
-121.561,-031.297,+009.927,+0.275,+0.700,+2.486,-04.8970,-01.5540,-08.0100,-00.070453,-00.024631,+00.048644
-121.478,-031.332,+009.782,+0.275,+0.710,+2.459,-04.9390,-01.4930,-08.0340,-00.099871,-00.012176,+00.079423
-121.354,-031.359,+009.588,+0.270,+0.680,+2.454,-04.9370,-01.4590,-07.9090,-00.121725,-00.001099,+00.104989
-121.211,-031.366,+009.380,+0.270,+0.710,+2.502,-04.9540,-01.3020,-07.9600,-00.111031,+00.017099,+00.105235
-121.075,-031.375,+009.201,+0.275,+0.685,+2.486,-04.8970,-01.2440,-07.9900,-00.088034,+00.002783,+00.100421
-120.953,-031.387,+009.045,+0.279,+0.690,+2.459,-04.8520,-01.2800,-07.9090,-00.078082,-00.013180,+00.093213
-120.832,-031.420,+008.897,+0.284,+0.705,+2.508,-04.8160,-01.2890,-07.9020,-00.073253,-00.007576,+00.091946
-120.696,-031.478,+008.733,+0.289,+0.675,+2.481,-04.9230,-01.1510,-08.0450,-00.079448,-00.035710,+00.111116
-120.550,-031.549,+008.568,+0.279,+0.680,+2.465,-04.8780,-01.2020,-07.9510,-00.074469,-00.059163,+00.124435
-120.389,-031.661,+008.410,+0.298,+0.675,+2.498,-04.8760,-01.1480,-07.9220,-00.057590,-00.097730,+00.139435
-120.220,-031.827,+008.271,+0.303,+0.699,+2.482,-04.8790,-01.1820,-08.0270,-00.039970,-00.153408,+00.153537
-120.023,-032.058,+008.125,+0.298,+0.670,+2.460,-04.9210,-01.1650,-08.0330,-00.041260,-00.210734,+00.188449
-119.788,-032.392,+007.942,+0.312,+0.660,+2.504,-04.9400,-01.1380,-07.9660,-00.057685,-00.293943,+00.229602
-119.505,-032.810,+007.720,+0.335,+0.674,+2.467,-04.8420,-01.2710,-07.9020,-00.063813,-00.361198,+00.270771
-119.067,-033.370,+007.452,+0.340,+0.645,+2.479,-04.8820,-01.6240,-07.8670,-00.001437,-00.501298,+00.451693
-118.564,-034.177,+007.181,+0.377,+0.654,+2.480,-05.2160,-01.2200,-08.3250,+00.026384,-00.722063,+00.408325
-118.137,-035.311,+006.941,+0.419,+0.659,+2.471,-05.1370,-00.7940,-08.3770,+00.011002,-01.078900,+00.415109
-117.870,-036.881,+006.824,+0.465,+0.638,+2.479,-05.0630,-00.7860,-07.8960,+00.025098,-01.510654,+00.344039
-117.694,-039.021,+006.702,+0.525,+0.633,+2.444,-05.2780,-00.8910,-07.7690,-00.053566,-02.048842,+00.365645
-117.442,-041.812,+006.461,+0.627,+0.651,+2.394,-05.2550,-00.8290,-07.8810,-00.066528,-02.628391,+00.539542
-116.960,-045.118,+006.192,+0.734,+0.640,+2.382,-05.6380,-01.4820,-08.1900,+00.046422,-02.978372,+00.683639
-116.069,-048.915,+005.561,+0.822,+0.629,+2.359,-06.6220,-01.6620,-07.8140,+00.012725,-03.395891,+01.000381
-114.333,-053.253,+004.136,+0.971,+0.612,+2.242,-08.1050,-02.2380,-07.8110,-00.118194,-03.870908,+01.437839
-111.235,-058.112,+001.255,+1.119,+0.556,+2.189,-08.8420,-01.5340,-07.7330,-00.333650,-04.326705,+01.871478
-106.367,-063.322,-003.173,+1.258,+0.510,+2.093,-10.4850,-02.6350,-08.6040,-00.141394,-04.694339,+02.090736
-098.810,-068.439,-010.085,+1.406,+0.448,+1.960,-12.3210,-02.3650,-09.2460,+00.063733,-04.697345,+02.178530
-087.047,-072.720,-021.291,+1.536,+0.372,+1.804,-13.9060,-08.7330,-09.9640,-00.436547,-04.210253,+02.468998
-070.168,-074.539,-039.659,+1.619,+0.262,+1.727,-03.5090,-02.5320,-17.3770,-02.547861,-02.787405,+02.937411
-064.294,-073.574,-046.505,+1.638,+0.177,+1.648,-05.2450,-02.0470,-16.8720,+00.049136,+00.707497,+00.877097
-065.710,-072.439,-044.640,+1.633,+0.147,+1.642,-00.2190,-06.5430,-06.7800,+00.300420,+00.912296,+00.329752
-067.307,-071.652,-043.308,+1.624,+0.138,+1.685,-02.5780,-04.9120,-08.4570,-00.341602,+00.851983,+00.027545
-070.929,-070.926,-040.119,+1.624,+0.148,+1.680,-03.0380,-02.7760,-09.9120,-00.042438,+01.352536,-00.554339
-076.679,-069.874,-034.395,+1.605,+0.178,+1.722,-02.7900,-01.7890,-09.4520,+00.398016,+01.973415,-00.857924
-082.892,-068.175,-028.025,+1.573,+0.164,+1.775,-02.7840,-01.7170,-08.7580,+00.517898,+02.431746,-00.917730
-088.957,-065.871,-021.825,+1.540,+0.204,+1.848,-03.8610,-01.7670,-09.0680,+00.553194,+02.849134,-01.114351
-094.797,-063.021,-015.906,+1.485,+0.235,+1.965,-04.5150,-01.8130,-08.5430,+00.574380,+03.164768,-01.370556
-100.097,-059.769,-010.549,+1.406,+0.295,+2.069,-05.5320,-01.2480,-08.1270,+00.648771,+03.306067,-01.577825
-104.735,-056.258,-005.709,+1.309,+0.376,+2.183,-06.8430,-00.6850,-08.4620,+00.898084,+03.350375,-01.757523
-108.720,-052.618,-001.280,+1.161,+0.467,+2.278,-07.6490,-00.4850,-08.9320,+01.077304,+03.249928,-01.837316
-111.928,-048.885,+002.478,+1.049,+0.503,+2.338,-09.9580,-00.0860,-11.4560,+01.147324,+03.285082,-01.782655
-114.388,-044.786,+005.658,+0.906,+0.609,+2.396,-10.7260,+00.1100,-11.3900,+01.249366,+03.544599,-01.667668
-116.180,-040.572,+008.344,+0.748,+0.645,+2.426,-11.4700,-00.5520,-10.3850,+01.295591,+03.466689,-01.557483
-117.639,-036.517,+010.682,+0.632,+0.706,+2.448,-12.4720,-01.8800,-10.0490,+01.190988,+03.249236,-01.581158
-118.952,-032.550,+012.673,+0.511,+0.737,+2.399,-13.5280,-01.7310,-10.9400,+01.052095,+03.203854,-01.667042
-120.195,-028.382,+014.504,+0.386,+0.772,+2.393,-13.1140,-01.5080,-10.6970,+01.049945,+03.379243,-01.823568
-121.393,-024.019,+016.207,+0.321,+0.773,+2.390,-12.1200,-01.3040,-09.3710,+01.009848,+03.422628,-01.958133
-122.529,-019.591,+017.781,+0.224,+0.839,+2.450,-12.7110,-00.7630,-09.7610,+01.009855,+03.463151,-02.032997
-123.462,-015.123,+019.213,+0.061,+0.890,+2.475,-11.3710,+00.3370,-07.7250,+00.998680,+03.401796,-01.903519
-124.101,-011.037,+020.527,-0.068,+0.926,+2.507,-10.6330,+01.2620,-05.7390,+01.053149,+03.001465,-01.606489
-124.521,-007.539,+022.061,-0.222,+1.017,+2.473,-11.1560,+03.3850,-03.9630,+01.484689,+02.546593,-01.353623
-124.815,-004.762,+024.449,-0.375,+1.097,+2.433,-12.0780,+06.6170,+00.3980,+02.418128,+01.844923,-01.076019
-125.199,-003.029,+027.461,-0.449,+1.187,+2.397,-13.1010,+04.5030,+04.3270,+02.514707,+00.760359,-00.912491
-125.822,-002.649,+029.316,-0.477,+1.251,+2.347,-13.7280,+00.2620,+01.1370,+00.868002,-00.293790,-00.380095
-125.988,-003.216,+029.155,-0.467,+1.271,+2.368,-10.9070,+01.0860,-01.5640,-00.577983,-00.584434,+00.402441
-125.677,-004.355,+028.322,-0.439,+1.241,+2.402,-08.8090,+00.0730,-02.4690,-00.688295,-00.844555,+00.829137
-125.363,-005.791,+027.590,-0.393,+1.266,+2.415,-08.4010,-02.7100,-03.4510,-00.614086,-01.054920,+00.770973
-124.699,-006.613,+027.947,-0.360,+1.270,+2.454,+11.7980,-15.5670,-09.9630,+00.850300,-00.422233,+00.941936
-122.823,-010.466,+026.111,-0.258,+1.294,+2.507,-03.7780,-05.4080,-08.2800,-01.432763,-02.782952,+03.211487
-122.157,-013.891,+024.802,-0.110,+1.303,+2.557,-01.9190,-10.2550,-01.9370,-01.102809,-02.612047,+01.369820
-122.180,-017.889,+023.383,+0.025,+1.253,+2.633,-08.2450,+00.9290,-13.1120,-01.170508,-03.249212,+01.356888
-121.748,-021.536,+022.121,+0.151,+1.252,+2.687,-09.1160,+00.6740,-13.5720,-00.791103,-02.557689,+01.612416
-121.396,-024.652,+021.222,+0.281,+1.255,+2.688,-08.4020,-06.2070,-10.4410,-00.764295,-02.370941,+01.135486
-121.153,-027.211,+019.822,+0.373,+1.215,+2.714,-09.5500,-03.4970,-11.0040,-01.385202,-01.764721,+00.941068
-120.623,-028.671,+017.509,+0.434,+1.155,+2.754,-08.7420,-05.3000,-09.4360,-01.711126,-00.609824,+00.641924
-120.095,-029.622,+015.246,+0.466,+1.085,+2.778,-06.7710,-00.4580,-09.4190,-01.549880,-00.515466,+00.616855
-119.556,-030.222,+013.474,+0.489,+1.026,+2.812,-08.2980,-00.6920,-11.0590,-01.103197,-00.265134,+00.471169
-119.113,-030.494,+012.287,+0.503,+1.011,+2.818,-05.2530,-00.8860,-08.0840,-00.675824,-00.095383,+00.325936
-118.811,-030.636,+011.584,+0.508,+0.991,+2.835,-04.9930,-01.1320,-08.3820,-00.365306,-00.060984,+00.201930
-118.651,-030.735,+011.231,+0.508,+0.952,+2.835,-04.8840,-01.1200,-08.1970,-00.181856,-00.058626,+00.099706
-118.557,-030.829,+010.990,+0.512,+0.957,+2.824,-05.0250,-01.6030,-08.0700,-00.175462,-00.055066,+00.096067
-118.389,-030.887,+010.678,+0.526,+0.971,+2.836,-05.1730,-01.9300,-08.0400,-00.210861,+00.001330,+00.154848
-118.125,-030.875,+010.272,+0.517,+0.932,+2.841,-04.9940,-01.7150,-07.9670,-00.248029,+00.070854,+00.208185
-117.841,-030.830,+009.859,+0.522,+0.952,+2.862,-04.9370,-01.1260,-08.0120,-00.217937,+00.062833,+00.190459
-117.635,-030.807,+009.564,+0.517,+0.922,+2.857,-04.8110,-01.0260,-08.0400,-00.138298,+00.026911,+00.125373
-117.499,-030.829,+009.352,+0.517,+0.917,+2.846,-04.8960,-01.1720,-08.0960,-00.113492,-00.008578,+00.091579
-117.372,-030.869,+009.131,+0.522,+0.902,+2.863,-04.9200,-01.3450,-08.0370,-00.150683,-00.013690,+00.107023
-117.224,-030.906,+008.888,+0.522,+0.907,+2.868,-04.9020,-01.1690,-08.0670,-00.134867,-00.017616,+00.115266
-117.073,-030.960,+008.671,+0.522,+0.877,+2.868,-04.9290,-01.2580,-08.0660,-00.115077,-00.030470,+00.123738
-116.900,-031.021,+008.460,+0.517,+0.877,+2.857,-04.8760,-01.2510,-08.0250,-00.103438,-00.030727,+00.146851
-116.706,-031.079,+008.257,+0.531,+0.892,+2.836,-05.0060,-01.2290,-08.0790,-00.074356,-00.016981,+00.150822
-116.519,-031.142,+008.064,+0.522,+0.877,+2.868,-04.9800,-01.1170,-08.0110,-00.078865,-00.029357,+00.134473
-116.368,-031.176,+007.900,+0.522,+0.873,+2.879,-04.9400,-01.0950,-07.9950,-00.076858,-00.012596,+00.107338
-116.226,-031.211,+007.737,+0.540,+0.917,+2.864,-04.9050,-01.1170,-08.0210,-00.079738,-00.020790,+00.109406
-116.081,-031.261,+007.574,+0.540,+0.862,+2.842,-04.8940,-01.0720,-08.0260,-00.073748,-00.033238,+00.113563
-115.931,-031.332,+007.412,+0.549,+0.862,+2.859,-04.8460,-01.0620,-08.0250,-00.073074,-00.049547,+00.121491
-115.777,-031.424,+007.259,+0.545,+0.877,+2.869,-04.8710,-00.9770,-07.9860,-00.058171,-00.069512,+00.123341
-115.635,-031.543,+007.137,+0.554,+0.862,+2.859,-04.8190,-00.9470,-07.9970,-00.029484,-00.113191,+00.115232
-115.490,-031.736,+007.046,+0.559,+0.847,+2.892,-04.8140,-01.0020,-08.0520,-00.004657,-00.183648,+00.139177
-115.296,-032.001,+006.929,+0.577,+0.857,+2.871,-04.9410,-01.1020,-08.0350,-00.023896,-00.225353,+00.188834
-115.032,-032.311,+006.765,+0.591,+0.872,+2.877,-04.9850,-01.0810,-08.0240,-00.017394,-00.254130,+00.245967
-114.667,-032.693,+006.534,+0.605,+0.857,+2.888,-04.9760,-01.1460,-08.0950,-00.035291,-00.317886,+00.345496
-114.175,-033.160,+006.223,+0.628,+0.881,+2.846,-05.1780,-01.1220,-07.9280,-00.030334,-00.394309,+00.438864
-113.583,-033.761,+005.861,+0.633,+0.842,+2.841,-05.3560,-00.9850,-07.8920,-00.027111,-00.514195,+00.507641
-112.992,-034.593,+005.408,+0.675,+0.841,+2.870,-04.9070,-00.9270,-08.1060,-00.138221,-00.786145,+00.488908
-112.406,-035.791,+004.927,+0.730,+0.831,+2.819,-04.9780,-00.6490,-08.0830,-00.110977,-01.148540,+00.513725
-111.928,-037.487,+004.600,+0.795,+0.800,+2.800,-05.2640,-00.0640,-08.0830,+00.012211,-01.635728,+00.373306
-111.662,-039.819,+004.403,+0.851,+0.814,+2.802,-05.1860,-00.1890,-07.8040,-00.030138,-02.261040,+00.326139
-111.370,-042.903,+004.237,+0.981,+0.818,+2.749,-05.0060,-00.3510,-08.3960,+00.087559,-02.873484,+00.460502
-110.722,-046.591,+003.785,+1.106,+0.782,+2.706,-05.5720,-01.3610,-08.2820,-00.111546,-03.396967,+00.762184
-109.223,-051.052,+002.391,+1.250,+0.745,+2.647,-06.4150,-01.7560,-08.3480,-00.274803,-04.119825,+01.264509
-106.169,-056.410,-000.540,+1.435,+0.718,+2.494,-09.2700,-03.2380,-09.4270,-00.530278,-04.955575,+01.884425
-100.440,-062.484,-006.276,+1.630,+0.606,+2.319,-11.1090,-01.6030,-11.0600,-00.590277,-05.769926,+02.392174
-090.568,-068.927,-015.342,+1.783,+0.535,+2.181,-12.4020,-00.4250,-11.4690,+00.367150,-06.361407,+02.345352
-074.855,-074.398,-029.828,+1.936,+0.477,+1.918,-17.1710,-07.5090,-14.2270,+00.094848,-05.635353,+02.189404
-052.236,-076.417,-053.722,+2.009,+0.283,+1.712,+01.4990,-05.4680,-14.0980,-03.158176,-03.748773,+02.894988
-044.042,-075.627,-063.817,+2.000,+0.169,+1.653,-06.0170,-03.5850,-19.4380,-00.943517,+00.370208,+00.528267
-046.000,-075.273,-062.498,+1.953,+0.164,+1.629,-00.3190,-06.8460,-07.1940,-00.566122,+00.473453,-00.055819
-049.599,-075.134,-060.032,+1.930,+0.110,+1.650,-02.5210,-04.8540,-08.9550,-00.982916,+01.042053,-00.435142
-057.106,-074.827,-053.683,+1.911,+0.125,+1.698,-02.2610,-03.0330,-09.1790,-00.611368,+01.876339,-00.846530
-067.630,-073.900,-043.922,+1.870,+0.166,+1.804,-02.5520,-02.7680,-08.5540,-00.185644,+02.681710,-01.101994
-078.741,-072.046,-033.296,+1.777,+0.261,+1.956,-02.8540,-02.5830,-07.3540,+00.097599,+03.195599,-01.281070
-088.856,-069.384,-023.437,+1.676,+0.313,+2.091,-04.1590,-02.4850,-07.8560,+00.361737,+03.564234,-01.581198
-097.716,-065.907,-014.648,+1.490,+0.414,+2.158,-05.4050,-01.7650,-08.1060,+00.606879,+03.962537,-01.901850
-104.821,-061.764,-007.439,+1.291,+0.486,+2.273,-06.3130,-00.6900,-07.1560,+00.774093,+04.083242,-02.006620
-109.989,-057.293,-001.990,+1.128,+0.577,+2.319,-07.9580,+00.4120,-07.4460,+00.917619,+04.051358,-01.907924
-113.464,-052.814,+002.022,+0.938,+0.628,+2.305,-08.9090,+00.5690,-07.9330,+01.053551,+03.806079,-01.617750
-115.677,-048.401,+004.929,+0.794,+0.654,+2.315,-12.7010,-01.3700,-11.8400,+01.036033,+03.844402,-01.405346
-117.392,-043.620,+007.386,+0.678,+0.700,+2.336,-13.2220,-01.7810,-10.9370,+01.089795,+04.079219,-01.550750
-119.037,-038.779,+009.676,+0.539,+0.775,+2.297,-15.3240,-03.1610,-10.8350,+00.984878,+03.996219,-01.789393
-120.775,-033.863,+011.710,+0.400,+0.797,+2.302,-13.7730,-02.3710,-08.0740,+00.848586,+03.878768,-02.111212
-122.629,-029.294,+013.647,+0.307,+0.857,+2.324,-15.4270,-02.5730,-09.0930,+00.828934,+03.486024,-02.277180
-124.423,-024.833,+015.355,+0.196,+0.898,+2.287,-14.4950,-01.6120,-08.3280,+00.775101,+03.372019,-02.339999
-126.088,-020.598,+017.007,+0.066,+0.914,+2.286,-13.0800,-00.3930,-07.1030,+00.977492,+03.042273,-02.300438
-127.676,-016.635,+018.929,-0.050,+0.979,+2.319,-13.9830,-00.0960,-08.1700,+01.379248,+02.847404,-02.327830
-129.012,-012.650,+020.913,-0.203,+1.025,+2.263,-12.2980,+00.9980,-06.0560,+01.421445,+02.850682,-02.139775
-129.877,-009.154,+022.732,-0.347,+1.056,+2.229,-11.3500,+03.1710,-03.0610,+01.492506,+02.350502,-01.617188
-130.388,-006.509,+024.828,-0.449,+1.111,+2.181,-12.6570,+05.7870,+00.5050,+02.006167,+01.667497,-01.182108
-130.794,-004.882,+027.547,-0.500,+1.161,+2.082,-14.0560,+05.8400,+02.6030,+02.396638,+00.789284,-00.766044
-130.803,-004.389,+029.468,-0.524,+1.210,+2.032,-11.7350,+02.2740,+01.3360,+01.029412,+00.130965,+00.215904
-129.994,-005.065,+029.422,-0.519,+1.221,+2.064,-10.4060,+01.5350,-01.6970,-00.430491,-00.279228,+01.243482
-128.666,-006.307,+028.492,-0.482,+1.230,+2.028,-09.0170,-00.5740,-02.4930,-00.761828,-00.474000,+01.644650
-127.234,-007.803,+027.644,-0.440,+1.200,+2.052,+12.2040,+00.3170,-06.3090,-00.133161,-00.487040,+01.891920
-125.743,-009.529,+026.909,-0.403,+1.219,+2.075,+05.2330,-09.6180,+01.7390,-01.240400,-01.371751,+02.477310
-123.981,-013.943,+024.729,-0.250,+1.208,+2.130,-04.5920,-07.8490,-08.9750,-01.165935,-03.185961,+02.425504
-123.538,-018.178,+023.137,-0.133,+1.192,+2.162,-05.9670,-02.3690,-08.9450,-01.526203,-03.264705,+01.982524
-122.614,-022.387,+021.186,-0.027,+1.192,+2.216,-10.9070,+00.6810,-15.1660,-01.230066,-02.869995,+02.038977
-121.620,-025.814,+019.252,+0.089,+1.131,+2.226,-10.4160,-11.8470,-10.2350,-01.579123,-02.427296,+01.448485
-120.909,-028.323,+016.220,+0.168,+1.036,+2.247,-18.0550,+00.8890,-17.1290,-02.737994,-01.300962,+01.072940
-120.368,-029.347,+014.076,+0.191,+1.012,+2.302,-10.4480,-00.9970,-15.0100,-01.206689,-00.478475,+00.426559
-120.155,-029.748,+013.101,+0.215,+0.967,+2.287,-05.8070,-01.3100,-10.1630,-00.585746,-00.261642,+00.152910
-120.049,-030.004,+012.544,+0.219,+0.977,+2.298,-04.9950,-02.1570,-08.1880,-00.389081,-00.165808,+00.129916
-119.896,-030.177,+012.107,+0.219,+0.932,+2.315,-04.8080,-01.5620,-08.2220,-00.253149,-00.090064,+00.147232
-119.736,-030.270,+011.787,+0.215,+0.942,+2.298,-04.7770,-01.5430,-08.1170,-00.198015,-00.024943,+00.131765
-119.593,-030.329,+011.523,+0.219,+0.947,+2.293,-04.9470,-01.2400,-08.1540,-00.146709,-00.021833,+00.104243
-119.483,-030.364,+011.331,+0.215,+0.918,+2.347,-05.3980,-01.4910,-08.1080,-00.095201,-00.008968,+00.074006
-119.395,-030.379,+011.195,+0.238,+0.952,+2.310,-04.8600,-01.5330,-08.1480,-00.047467,-00.011835,+00.061766
-119.302,-030.418,+011.084,+0.228,+0.937,+2.320,-04.7850,-01.7190,-07.9690,-00.065608,-00.029531,+00.084647
-119.174,-030.457,+010.919,+0.228,+0.912,+2.331,-04.8440,-01.5320,-08.0350,-00.093021,-00.011721,+00.106106
-119.042,-030.476,+010.757,+0.233,+0.937,+2.315,-04.8480,-01.5450,-08.0060,-00.082277,+00.002585,+00.096887
-118.913,-030.495,+010.596,+0.238,+0.942,+2.326,-04.8410,-01.3640,-08.0780,-00.082466,-00.007572,+00.096073
-118.808,-030.538,+010.476,+0.233,+0.907,+2.337,-04.7350,-01.3370,-08.0470,-00.046664,-00.043342,+00.080948
-118.732,-030.647,+010.404,+0.233,+0.922,+2.294,-04.6860,-01.3240,-08.0000,-00.016488,-00.107941,+00.066859
-118.672,-030.801,+010.354,+0.242,+0.912,+2.305,-04.8780,-01.4210,-08.0210,-00.023791,-00.123011,+00.070703
-118.603,-030.939,+010.274,+0.242,+0.897,+2.321,-04.9850,-01.4060,-07.9980,-00.043389,-00.107643,+00.069852
-118.526,-031.045,+010.180,+0.247,+0.937,+2.289,-05.0250,-01.5110,-07.9820,-00.047907,-00.066479,+00.077359
-118.417,-031.108,+010.045,+0.252,+0.902,+2.311,-04.9790,-01.4830,-07.9400,-00.077694,-00.030209,+00.100788
-118.287,-031.139,+009.887,+0.247,+0.907,+2.338,-05.0330,-01.3230,-08.0040,-00.075209,+00.003023,+00.093283
-118.183,-031.164,+009.767,+0.261,+0.907,+2.306,-04.9650,-01.2880,-07.9520,-00.049425,-00.012988,+00.073081
-118.107,-031.200,+009.687,+0.266,+0.937,+2.317,-04.8730,-01.3040,-08.0370,-00.027233,-00.034501,+00.057611
-118.055,-031.258,+009.642,+0.261,+0.902,+2.322,-04.8760,-01.2910,-07.9900,-00.010912,-00.047122,+00.042657
-118.003,-031.330,+009.600,+0.266,+0.922,+2.301,-04.7840,-01.4100,-07.9790,-00.012694,-00.063230,+00.058225
-117.901,-031.425,+009.515,+0.266,+0.912,+2.317,-04.8590,-01.4790,-07.9780,-00.045244,-00.073161,+00.112619
-117.722,-031.534,+009.358,+0.284,+0.897,+2.334,-04.9330,-01.4500,-07.9320,-00.060956,-00.072997,+00.163465
-117.511,-031.662,+009.180,+0.284,+0.897,+2.307,-04.7990,-01.3370,-07.9420,-00.054240,-00.098911,+00.173779
-117.282,-031.830,+008.984,+0.280,+0.902,+2.323,-04.8120,-01.4580,-07.9610,-00.077155,-00.127227,+00.212062
-116.982,-032.056,+008.746,+0.279,+0.882,+2.339,-04.9600,-01.3190,-07.9900,-00.060680,-00.173880,+00.265896
-116.651,-032.343,+008.518,+0.298,+0.892,+2.329,-04.9900,-01.2920,-08.0540,-00.037171,-00.224354,+00.290158
-116.266,-032.715,+008.296,+0.312,+0.887,+2.303,-05.1150,-01.3210,-07.9050,-00.012128,-00.324246,+00.357172
-115.818,-033.196,+008.061,+0.326,+0.916,+2.330,-05.1800,-01.2140,-07.9440,+00.017617,-00.407662,+00.397041
-115.358,-033.840,+007.804,+0.354,+0.901,+2.305,-05.1650,-00.8020,-08.0610,-00.008292,-00.578635,+00.395814
-114.919,-034.758,+007.519,+0.382,+0.876,+2.301,-05.2240,-01.0510,-08.0440,-00.038388,-00.867211,+00.441128
-114.465,-036.065,+007.170,+0.419,+0.891,+2.324,-05.3290,-00.9840,-07.9770,-00.101322,-01.229186,+00.484942
-114.024,-037.841,+006.713,+0.484,+0.880,+2.300,-05.1300,-01.1310,-07.9030,-00.208704,-01.672186,+00.507901
-113.532,-040.243,+006.088,+0.558,+0.849,+2.260,-05.1960,-01.0500,-07.5920,-00.309505,-02.284646,+00.629298
-112.763,-043.320,+005.275,+0.637,+0.844,+2.269,-05.2430,-01.0320,-08.1380,-00.214356,-02.800137,+00.873337
-111.470,-046.957,+004.052,+0.753,+0.827,+2.215,-06.0430,-01.0660,-07.9400,-00.292776,-03.289905,+01.168727
-109.334,-051.233,+002.026,+0.887,+0.801,+2.167,-06.3540,-01.1560,-07.6860,-00.418284,-03.906872,+01.598365
-105.788,-056.176,-001.337,+1.022,+0.755,+2.119,-08.3920,-02.1530,-08.1950,-00.505294,-04.521870,+02.012838
-100.009,-061.657,-006.906,+1.179,+0.693,+1.997,-09.3270,-01.5170,-08.7530,-00.472310,-05.238424,+02.378890
-090.628,-067.508,-015.496,+1.351,+0.641,+1.848,-10.1520,+00.6980,-08.1400,+00.166791,-05.935839,+02.444338
-075.952,-073.142,-028.173,+1.494,+0.585,+1.703,-15.0960,-04.6780,-09.3800,+01.244065,-06.064655,+02.054896
-053.432,-076.351,-049.588,+1.619,+0.538,+1.493,-14.0370,-09.5250,-14.2340,-00.672755,-04.738805,+02.556623
-031.985,-075.317,-073.388,+1.670,+0.383,+1.367,-25.1630,-05.4940,-27.5410,-02.933753,-02.592221,+02.786343
-032.416,-074.251,-074.363,+1.679,+0.314,+1.351,-03.3030,-05.1270,-15.7620,-00.409274,+01.231222,+00.103484
-037.779,-074.302,-069.604,+1.642,+0.314,+1.323,-00.6780,-06.8210,-07.4380,-00.613541,+01.085462,-00.643382
-044.370,-074.742,-064.503,+1.623,+0.260,+1.290,-03.0240,-04.7610,-09.6940,-01.284885,+01.491808,-01.152453
-055.429,-075.005,-055.153,+1.628,+0.274,+1.290,-03.3530,-01.5770,-10.3040,-00.975228,+02.413479,-01.596932
-069.519,-074.268,-042.240,+1.651,+0.215,+1.248,-02.9360,-01.0830,-08.2190,-00.413663,+03.073650,-01.653940
-082.421,-072.293,-030.200,+1.744,+0.135,+1.323,-03.9810,-01.6590,-07.5400,-00.239776,+03.409603,-01.572170
-093.063,-069.279,-020.299,+1.846,+0.120,+1.479,-06.1430,-01.6340,-09.0210,-00.058442,+03.879761,-01.711562
-101.686,-065.217,-012.232,+1.935,+0.135,+1.758,-06.2430,-00.9610,-07.7280,+00.200196,+04.348943,-01.820477
-107.771,-060.561,-006.314,+1.833,+0.203,+2.180,-07.3800,+00.2450,-07.0200,+00.580335,+04.388493,-01.641866
-111.632,-055.732,-002.123,+1.606,+0.251,+2.451,-08.7030,+00.1880,-06.4460,+00.900085,+04.259916,-01.363929
-114.004,-051.207,+000.944,+1.309,+0.329,+2.588,-08.9510,-00.6120,-06.5730,+01.045277,+03.748838,-01.078833
-115.589,-046.910,+003.380,+1.045,+0.351,+2.636,-14.5440,-02.5030,-12.2930,+01.119323,+03.851812,-01.104748
-117.174,-042.227,+005.933,+0.873,+0.398,+2.693,-12.7030,-01.6140,-08.3480,+01.348288,+03.922627,-01.431862
-118.845,-037.932,+008.586,+0.679,+0.479,+2.716,-14.5240,-02.0010,-08.0180,+01.347909,+03.400827,-01.658078
-120.530,-034.238,+011.088,+0.498,+0.545,+2.719,-11.2960,-00.0900,-03.4950,+01.331223,+02.574589,-01.720210
-122.155,-031.765,+013.520,+0.382,+0.591,+2.724,-12.8300,-01.0480,-05.2250,+01.404771,+01.491188,-01.575654
-123.946,-029.443,+016.463,+0.266,+0.671,+2.664,-16.9050,-01.5520,-09.7960,+02.017561,+01.836230,-02.048594
-125.902,-026.429,+019.749,+0.140,+0.781,+2.626,-14.9410,-02.3160,-07.3190,+01.952289,+02.084892,-02.292438
-127.570,-022.949,+022.281,+0.038,+0.807,+2.610,-14.5210,-01.1430,-07.3110,+01.398164,+02.542588,-02.356012
-128.888,-019.070,+024.013,-0.120,+0.892,+2.538,-12.9090,-00.0830,-05.5110,+00.880730,+02.748577,-02.256093
-129.798,-015.278,+024.731,-0.259,+0.908,+2.515,-11.9980,+00.2470,-03.4290,+00.113701,+02.629193,-01.938061
-130.468,-011.875,+024.829,-0.366,+0.884,+2.500,-12.0740,+02.4660,-00.8350,-00.028319,+02.326663,-01.641065
-130.859,-009.122,+025.402,-0.472,+0.905,+2.441,-13.3880,+06.4140,+02.0990,+00.829871,+01.843235,-01.094632
-130.789,-007.294,+027.075,-0.547,+0.935,+2.378,-13.6090,+06.4140,+05.1900,+01.691835,+01.173698,-00.372218
-130.371,-006.976,+028.243,-0.556,+0.950,+2.372,-11.9090,+01.1320,+05.9240,+00.450513,-00.079928,+00.564898
-129.129,-009.373,+027.593,-0.486,+0.989,+2.375,-02.4740,-02.9080,-13.1300,-00.024089,-01.437969,+02.256847
-127.151,-012.742,+025.648,-0.389,+0.954,+2.401,-00.5910,-06.6660,-04.0650,-01.651012,-02.413372,+03.121437
-126.392,-017.007,+024.632,-0.273,+0.918,+2.455,-07.7310,-08.6290,-12.1060,-00.472441,-03.272653,+01.645119
-126.048,-021.162,+023.717,-0.138,+0.922,+2.467,-06.5790,+00.4270,-09.9990,-00.769813,-03.213785,+01.798874
-125.560,-025.251,+022.477,+0.015,+0.871,+2.479,-10.1280,-07.6940,-10.9370,-01.197634,-03.038001,+01.649282
-125.113,-028.569,+019.464,+0.112,+0.781,+2.549,-17.6620,-14.8160,-17.0060,-04.091814,-02.006938,+01.272225
-124.493,-030.185,+016.349,+0.173,+0.701,+2.563,-11.0870,+03.3490,-15.8860,-01.957492,-00.855671,+00.684849
-124.112,-030.732,+014.744,+0.187,+0.642,+2.564,-06.3500,-00.5720,-09.9110,-00.931623,-00.299939,+00.264947
-123.970,-031.008,+013.967,+0.186,+0.587,+2.597,-05.7780,-01.9490,-08.7280,-00.469700,-00.172313,+00.113113
-123.898,-031.176,+013.581,+0.210,+0.592,+2.587,-05.0190,-01.7790,-07.9830,-00.235633,-00.132855,+00.062498
-123.911,-031.329,+013.406,+0.210,+0.587,+2.571,-04.8960,-01.6180,-08.1300,-00.111222,-00.136974,-00.004121
-123.992,-031.458,+013.371,+0.214,+0.562,+2.587,-05.0930,-01.8330,-08.0440,-00.038528,-00.114588,-00.051170
-124.088,-031.557,+013.419,+0.214,+0.582,+2.571,-05.2250,-01.9440,-07.9270,+00.019942,-00.084002,-00.046347
-124.153,-031.633,+013.511,+0.224,+0.557,+2.582,-05.0970,-01.9690,-07.8370,+00.060044,-00.075627,-00.023631
-124.213,-031.725,+013.631,+0.228,+0.582,+2.604,-04.8450,-01.6220,-07.9080,+00.097518,-00.104150,-00.032387
-124.344,-031.883,+013.877,+0.228,+0.572,+2.582,-04.9530,-01.7360,-07.8530,+00.178817,-00.182659,-00.080576
-124.517,-032.076,+014.168,+0.233,+0.592,+2.577,-05.0820,-02.1160,-07.7870,+00.164979,-00.191572,-00.075345
-124.661,-032.242,+014.405,+0.247,+0.616,+2.594,-05.1940,-02.0260,-07.7500,+00.130293,-00.153640,-00.067230
-124.796,-032.395,+014.616,+0.247,+0.626,+2.567,-05.0540,-02.0380,-07.7800,+00.121376,-00.162844,-00.058577
-124.922,-032.580,+014.833,+0.256,+0.596,+2.562,-05.1760,-02.0540,-07.8050,+00.133305,-00.188273,-00.040400
-125.037,-032.785,+015.069,+0.256,+0.606,+2.600,-05.1850,-02.0860,-07.7480,+00.159494,-00.201788,-00.031653
-125.147,-033.000,+015.310,+0.270,+0.636,+2.573,-05.2600,-02.1810,-07.6070,+00.135360,-00.188840,-00.024967
-125.213,-033.186,+015.458,+0.279,+0.611,+2.563,-05.1730,-02.2770,-07.5360,+00.082654,-00.161665,+00.008099
-125.244,-033.359,+015.564,+0.270,+0.656,+2.578,-05.3080,-02.1130,-07.6220,+00.080418,-00.147503,+00.020069
-125.280,-033.525,+015.672,+0.279,+0.636,+2.573,-05.4030,-02.0510,-07.6350,+00.076219,-00.140006,+00.006381
-125.326,-033.669,+015.778,+0.289,+0.631,+2.552,-05.3590,-02.1340,-07.5950,+00.065904,-00.126041,+00.003556
-125.353,-033.798,+015.851,+0.289,+0.651,+2.585,-05.3050,-02.1130,-07.5070,+00.042952,-00.103319,+00.014946
-125.356,-033.909,+015.885,+0.298,+0.655,+2.563,-05.2710,-02.2280,-07.5240,+00.022562,-00.089690,+00.031425
-125.325,-034.026,+015.894,+0.293,+0.641,+2.552,-05.1140,-02.2370,-07.4790,+00.022604,-00.090748,+00.062731
-125.258,-034.169,+015.881,+0.317,+0.645,+2.564,-05.2470,-02.1750,-07.5340,+00.018985,-00.114233,+00.090876
-125.164,-034.338,+015.853,+0.317,+0.665,+2.564,-05.3180,-02.1360,-07.5750,+00.022791,-00.124293,+00.117759
-125.011,-034.506,+015.780,+0.307,+0.625,+2.542,-05.3050,-02.3870,-07.3950,+00.015691,-00.115391,+00.157311
-124.881,-034.705,+015.751,+0.326,+0.650,+2.570,-05.2490,-02.1530,-07.5440,+00.048613,-00.163979,+00.128624
-124.774,-034.960,+015.721,+0.326,+0.650,+2.554,-05.3170,-02.0650,-07.4140,-00.014414,-00.212805,+00.145029
-124.631,-035.282,+015.593,+0.340,+0.615,+2.555,-05.4280,-02.0030,-07.5630,-00.037558,-00.254855,+00.189667
-124.427,-035.651,+015.367,+0.344,+0.615,+2.560,-05.1770,-02.2770,-07.4560,-00.162447,-00.277850,+00.272843
-123.933,-036.081,+014.828,+0.363,+0.625,+2.529,-05.3460,-02.4860,-07.6070,-00.219397,-00.257031,+00.533747
-123.135,-036.561,+014.108,+0.381,+0.605,+2.551,-05.6280,-02.0890,-07.4550,-00.210968,-00.282960,+00.688174
-122.407,-037.164,+013.472,+0.391,+0.605,+2.579,-05.5830,-02.0070,-07.3790,-00.175324,-00.447811,+00.588709
-121.766,-037.982,+012.935,+0.432,+0.604,+2.537,-05.5110,-01.6300,-07.7020,-00.123581,-00.693364,+00.603286
-121.240,-039.125,+012.472,+0.456,+0.560,+2.533,-05.9470,-01.5240,-07.3320,-00.116883,-01.016078,+00.541606
-120.883,-040.643,+012.155,+0.507,+0.549,+2.557,-05.7100,-01.2650,-07.3470,-00.066293,-01.394466,+00.513050
-120.590,-042.721,+011.894,+0.572,+0.573,+2.533,-05.8760,-01.2530,-07.1730,-00.042422,-01.938170,+00.611998
-120.262,-045.479,+011.662,+0.669,+0.557,+2.505,-05.7590,-01.1880,-07.2430,+00.078557,-02.531395,+00.730533
-119.839,-048.868,+011.505,+0.767,+0.541,+2.487,-05.7510,-01.7010,-07.7720,+00.107221,-03.042896,+00.939144
-119.029,-052.961,+010.911,+0.906,+0.574,+2.418,-06.7580,-02.0770,-07.6560,-00.019111,-03.651334,+01.282457
-117.435,-057.875,+009.534,+1.059,+0.498,+2.339,-08.8670,-02.8420,-07.7760,-00.112552,-04.338999,+01.688842
-114.701,-063.533,+006.921,+1.203,+0.467,+2.269,-09.5000,-02.7180,-08.8650,-00.174503,-04.992312,+01.987804
-109.894,-070.060,+002.451,+1.402,+0.439,+2.116,-10.9790,-01.0810,-09.4610,-00.001030,-05.882360,+02.172828
-100.496,-077.007,-006.530,+1.578,+0.387,+1.914,-13.5980,-02.0740,-10.5140,+00.041592,-06.107099,+02.032789
-077.261,-082.587,-029.329,+1.703,+0.326,+1.785,-16.1970,-02.7920,-13.9960,+00.346854,-05.203808,+01.759420
-030.029,-084.200,-075.894,+1.814,+0.338,+1.579,+03.8220,-03.6990,-16.5940,-00.086588,-03.508073,+01.924495
-022.332,-082.894,-083.892,+1.809,+0.269,+1.536,-10.0420,-07.6880,-23.8810,-00.379391,+01.272430,+00.736780
-035.768,-081.906,-071.414,+1.786,+0.254,+1.551,+01.7910,-05.3300,-06.4430,-01.085240,+01.543740,+00.455797
-044.224,-080.953,-064.733,+1.735,+0.220,+1.560,-01.7850,-04.4910,-08.0780,-01.651879,+01.375148,+00.235400
-055.315,-079.994,-055.682,+1.698,+0.186,+1.553,-03.7000,-03.7440,-10.7550,-01.578359,+02.143311,-00.253461
-070.352,-078.293,-042.399,+1.652,+0.172,+1.627,-03.4440,-02.6620,-10.2120,-01.090904,+03.213034,-00.610082
-083.896,-075.453,-030.051,+1.610,+0.192,+1.657,-03.1170,-02.9490,-07.3120,-00.556654,+03.700010,-00.745337
-093.889,-071.862,-020.930,+1.531,+0.184,+1.740,-05.1750,-04.1800,-07.6580,-00.358925,+04.015586,-00.973870
-101.999,-067.576,-013.658,+1.489,+0.219,+1.803,-05.9640,-04.2810,-07.2840,-00.247802,+04.431580,-01.397702
-108.662,-062.845,-007.637,+1.439,+0.279,+1.881,-06.3970,-02.7540,-05.7710,+00.139355,+04.482698,-01.739457
-113.862,-058.036,-002.574,+1.397,+0.364,+2.009,-08.2700,-02.2130,-06.0220,+00.634309,+04.305275,-01.914590
-117.872,-053.334,+001.561,+1.328,+0.430,+2.162,-08.4800,-02.9680,-05.5000,+00.706039,+03.943571,-01.920133
-120.953,-048.920,+004.770,+1.193,+0.546,+2.285,-13.7600,-02.7350,-10.9570,+00.783105,+03.797077,-01.914362
-123.422,-044.004,+007.700,+0.994,+0.618,+2.416,-13.5790,-02.1780,-08.9930,+01.088149,+04.160876,-01.915790
-125.222,-039.263,+010.279,+0.822,+0.689,+2.456,-15.6930,-02.1020,-08.5490,+01.276239,+03.768590,-01.757214
-126.662,-034.734,+012.725,+0.614,+0.770,+2.398,-17.2470,-03.4150,-08.6650,+01.413097,+03.641504,-01.801571
-127.993,-030.093,+014.992,+0.474,+0.821,+2.354,-17.8240,-04.2460,-09.4640,+01.277116,+03.765013,-02.017071
-129.225,-025.093,+016.981,+0.368,+0.871,+2.316,-16.1950,-01.7040,-09.2120,+01.257001,+04.001350,-02.152483
-130.205,-019.897,+018.848,+0.242,+0.937,+2.310,-15.2560,-00.8770,-07.6270,+01.272098,+04.080085,-02.127673
-130.932,-014.931,+020.232,+0.103,+0.963,+2.315,-15.0150,-00.4390,-03.8430,+00.850707,+03.699034,-01.934456
-131.441,-010.782,+021.315,+0.006,+0.999,+2.327,-16.2080,+03.9090,+00.8580,+00.990853,+02.916678,-01.489518
-131.600,-007.877,+023.415,-0.106,+1.094,+2.305,-19.5660,+10.2680,+06.9120,+02.364081,+01.903826,-00.875691
-131.751,-006.479,+026.249,-0.152,+1.149,+2.281,-19.3510,+06.4250,+11.2840,+02.047040,+00.438158,-00.404415
-131.691,-007.719,+026.156,-0.119,+1.158,+2.298,-14.3280,+06.0680,+14.6750,-01.869990,-01.969131,+01.422392
-130.514,-010.589,+024.441,+0.006,+1.152,+2.325,-03.6110,-07.9670,-17.2850,-01.432461,-01.573654,+01.894560
-129.210,-014.169,+022.368,+0.155,+1.097,+2.370,+01.4550,-04.2700,+00.0860,-01.311722,-03.162605,+02.089299
-129.176,-018.552,+021.370,+0.303,+1.066,+2.409,-09.7230,-03.0190,-12.5160,-01.007728,-03.417985,+01.467487
-128.772,-022.747,+020.115,+0.470,+1.054,+2.401,-08.6280,-00.0960,-12.0340,-00.922463,-03.288965,+01.603494
-128.325,-026.579,+018.585,+0.633,+0.993,+2.408,-13.5820,-07.9780,-13.6120,-01.551824,-02.806649,+01.272690
-127.683,-029.048,+015.766,+0.721,+0.923,+2.445,-13.7250,-01.7440,-13.2090,-02.362782,-01.312644,+01.009486
-127.062,-030.264,+013.402,+0.781,+0.858,+2.437,-08.1460,+00.8600,-12.4390,-01.384602,-00.678979,+00.593984
-126.588,-030.892,+012.050,+0.804,+0.798,+2.455,-04.8550,-01.1660,-07.7020,-00.786382,-00.350355,+00.443783
-126.058,-031.268,+010.986,+0.813,+0.779,+2.472,-06.4930,-02.2260,-08.9180,-00.635771,-00.161024,+00.461616
-125.483,-031.391,+010.049,+0.832,+0.749,+2.451,-05.5640,-00.9980,-08.3800,-00.477391,+00.034220,+00.416359
-125.004,-031.365,+009.366,+0.832,+0.739,+2.467,-05.1520,-00.7280,-07.7410,-00.329330,+00.108004,+00.298996
-124.642,-031.307,+008.853,+0.832,+0.744,+2.505,-04.9240,-00.8040,-08.0210,-00.262086,+00.076402,+00.246393
-124.378,-031.289,+008.500,+0.837,+0.739,+2.462,-05.1220,-00.9330,-08.0070,-00.156357,+00.025777,+00.161030
-124.207,-031.291,+008.256,+0.827,+0.694,+2.473,-05.0050,-01.2940,-08.0650,-00.133118,+00.004029,+00.120591
-124.019,-031.268,+008.005,+0.827,+0.670,+2.500,-05.0390,-01.2560,-07.9520,-00.126844,+00.047892,+00.139118
-123.802,-031.226,+007.747,+0.827,+0.684,+2.462,-05.0670,-01.2050,-07.9950,-00.121032,+00.058802,+00.160290
-123.587,-031.173,+007.511,+0.832,+0.709,+2.473,-04.9580,-00.8980,-08.1090,-00.099876,+00.066066,+00.147281
-123.409,-031.152,+007.337,+0.836,+0.669,+2.490,-04.8340,-00.6130,-08.0090,-00.067099,+00.009222,+00.114106
-123.295,-031.209,+007.218,+0.836,+0.689,+2.490,-04.8770,-00.6380,-08.0920,-00.042101,-00.066288,+00.077537
-123.243,-031.318,+007.168,+0.841,+0.684,+2.479,-04.9180,-00.9950,-08.0310,-00.016066,-00.095545,+00.043747
-123.177,-031.440,+007.112,+0.846,+0.659,+2.479,-04.9870,-01.1150,-07.9680,-00.019088,-00.091275,+00.080534
-123.064,-031.533,+007.028,+0.850,+0.684,+2.463,-05.1760,-01.0590,-08.0290,-00.026892,-00.052314,+00.095744
-122.939,-031.592,+006.935,+0.846,+0.669,+2.490,-04.9780,-00.9410,-08.0480,-00.027129,-00.044629,+00.108631
-122.804,-031.648,+006.838,+0.850,+0.659,+2.501,-05.0470,-00.9130,-07.9530,-00.023205,-00.041503,+00.107388
-122.683,-031.694,+006.754,+0.855,+0.664,+2.491,-05.0270,-00.8120,-08.0200,-00.017739,-00.027031,+00.084075
-122.587,-031.729,+006.684,+0.855,+0.644,+2.474,-04.9500,-00.9270,-07.9460,-00.019886,-00.022518,+00.074044
-122.495,-031.780,+006.615,+0.855,+0.645,+2.496,-05.0060,-00.9090,-07.9740,-00.014166,-00.044599,+00.072987
-122.419,-031.850,+006.569,+0.869,+0.659,+2.480,-05.0580,-00.7960,-08.0700,+00.001026,-00.053503,+00.047482
-122.355,-031.937,+006.526,+0.864,+0.654,+2.480,-04.8950,-00.8490,-07.9840,-00.006704,-00.086263,+00.057083
-122.287,-032.067,+006.485,+0.874,+0.659,+2.464,-04.9160,-00.9800,-08.0250,-00.007367,-00.127039,+00.070204
-122.166,-032.241,+006.401,+0.860,+0.659,+2.464,-04.9350,-01.0480,-07.9720,-00.025406,-00.157187,+00.130726
-121.969,-032.472,+006.256,+0.878,+0.634,+2.470,-04.8560,-01.0750,-07.7760,-00.038100,-00.197270,+00.187981
-121.718,-032.783,+006.089,+0.901,+0.644,+2.504,-04.8920,-01.0410,-08.0140,-00.023238,-00.276792,+00.224880
-121.406,-033.182,+005.900,+0.911,+0.659,+2.471,-04.9730,-01.1080,-07.9950,-00.018335,-00.347835,+00.299099
-120.976,-033.692,+005.631,+0.925,+0.634,+2.467,-05.1350,-00.8890,-08.0470,-00.033611,-00.453471,+00.395079
-120.408,-034.325,+005.317,+0.952,+0.619,+2.463,-05.5940,-00.6310,-07.8220,+00.032440,-00.564787,+00.504466
-119.787,-035.248,+004.860,+0.976,+0.623,+2.437,-05.3970,-00.6940,-07.8860,-00.107948,-00.883218,+00.500877
-119.182,-036.599,+004.367,+1.027,+0.608,+2.417,-05.0710,-00.5420,-07.8020,-00.112677,-01.314335,+00.528077
-118.657,-038.540,+003.964,+1.073,+0.588,+2.420,-05.0220,+00.0430,-07.8420,-00.012426,-01.895557,+00.431646
-118.382,-041.251,+003.862,+1.161,+0.606,+2.353,-04.8530,+00.2930,-07.7360,+00.088536,-02.633164,+00.308817
-118.019,-044.720,+003.667,+1.282,+0.580,+2.294,-04.9030,-01.3270,-08.5560,-00.065534,-03.191340,+00.563502
-117.089,-048.868,+002.767,+1.375,+0.559,+2.260,-06.2690,-01.2220,-08.0640,-00.199163,-03.800794,+00.875544
-115.315,-053.690,+001.181,+1.523,+0.532,+2.105,-07.8250,-01.8700,-08.3350,-00.168633,-04.427273,+01.296018
-111.913,-059.264,-002.054,+1.685,+0.470,+2.010,-08.9570,-02.7640,-09.2060,-00.400664,-05.163352,+01.797326
-105.763,-065.420,-007.640,+1.801,+0.395,+1.897,-11.7180,-02.6460,-09.9830,+00.140605,-05.730419,+02.096156
-095.961,-071.348,-015.998,+1.958,+0.387,+1.693,-13.7330,-00.3770,-10.4210,+00.889562,-05.608305,+01.931443
-080.026,-075.938,-030.367,+2.051,+0.321,+1.524,-14.8110,-08.6850,-14.9200,+00.260573,-04.665499,+02.166184
-062.279,-076.661,-048.127,+2.088,+0.216,+1.478,-25.3950,-04.0380,-35.3330,-00.295003,-01.051787,+02.213909
-060.181,-074.848,-049.905,+2.042,+0.212,+1.546,+01.7400,-07.7780,-09.0120,+00.098466,+00.869224,+01.310283
-059.428,-073.475,-051.025,+1.967,+0.139,+1.619,-01.4530,-06.5110,-08.0910,-00.528146,+00.647004,+00.773676
-061.913,-072.686,-049.152,+1.888,+0.150,+1.691,-00.9300,-05.5930,-07.5290,-00.374037,+01.060424,-00.256584
-067.576,-072.328,-044.117,+1.786,+0.211,+1.719,-02.1270,-04.5240,-09.1340,-00.277106,+01.487346,-01.071595
-076.296,-071.612,-035.943,+1.661,+0.247,+1.751,-02.6930,-02.0650,-09.8280,+00.030470,+02.289158,-01.559508
-086.287,-070.008,-026.264,+1.559,+0.292,+1.773,-03.1520,-01.4650,-09.0130,+00.275777,+02.863928,-01.809500
-095.594,-067.476,-017.268,+1.480,+0.318,+1.770,-04.7520,-00.7260,-09.0900,+00.284135,+03.290391,-01.971161
-103.263,-064.123,-009.812,+1.434,+0.323,+1.811,-05.6530,+01.3760,-08.1930,+00.501880,+03.555079,-01.949077
-108.710,-060.217,-004.169,+1.411,+0.379,+1.880,-07.3690,+02.0630,-08.4250,+00.845793,+03.708701,-01.672619
-112.181,-055.943,-000.120,+1.406,+0.443,+1.965,-08.5340,+00.9630,-08.6220,+00.981716,+03.813994,-01.333525
-114.267,-051.578,+002.624,+1.342,+0.524,+2.097,-10.4240,-00.6090,-09.5010,+00.893469,+03.762060,-01.084426
-115.831,-047.077,+004.926,+1.296,+0.594,+2.256,-13.0400,-01.7260,-10.4070,+01.037075,+03.935396,-01.227892
-117.445,-042.549,+007.349,+1.157,+0.770,+2.395,-13.1690,-01.9180,-07.8420,+01.175612,+03.663568,-01.537009
-119.302,-038.371,+009.970,+0.934,+0.941,+2.519,-15.0610,-01.9750,-07.8900,+01.226396,+03.293895,-01.892241
-121.294,-034.467,+012.409,+0.716,+1.028,+2.584,-14.7870,-02.1880,-07.6110,+01.026801,+02.950997,-02.119013
-123.433,-030.603,+014.709,+0.466,+1.104,+2.535,-15.4880,-02.4760,-09.5050,+01.003237,+02.949698,-02.454511
-125.560,-026.269,+016.758,+0.234,+1.121,+2.444,-14.5720,-02.1640,-09.2850,+00.793443,+03.335382,-02.627950
-127.295,-021.729,+018.158,+0.062,+1.132,+2.415,-12.3120,-00.4580,-07.2010,+00.533193,+03.339553,-02.412245
-128.572,-017.394,+019.209,-0.105,+1.134,+2.369,-11.4360,+00.0470,-06.3610,+00.571620,+03.182615,-02.073604
-129.408,-013.445,+020.210,-0.245,+1.130,+2.282,-10.4930,+00.6650,-05.1010,+00.771576,+02.879539,-01.665828
-129.818,-010.020,+021.548,-0.319,+1.130,+2.263,-10.6550,+01.7600,-04.1970,+01.316703,+02.558123,-01.219853
-129.767,-007.184,+023.477,-0.412,+1.180,+2.150,-10.3630,+02.6350,-01.7710,+01.875192,+02.123825,-00.718085
-129.481,-005.177,+025.660,-0.473,+1.200,+2.077,-11.3560,+02.5600,+00.3660,+01.862398,+01.423968,-00.401164
-129.227,-004.139,+027.179,-0.477,+1.250,+2.071,-11.6500,+02.3230,+02.2020,+00.948997,+00.569977,-00.064571
-128.942,-004.256,+027.472,-0.463,+1.264,+2.034,-10.7600,+02.0260,+00.6030,-00.089061,-00.262483,+00.489030
-128.449,-005.253,+026.959,-0.431,+1.239,+2.025,-09.2230,+00.8870,-01.7400,-00.518492,-00.732377,+00.915775
-127.753,-006.699,+026.516,-0.394,+1.229,+2.064,+12.2530,+01.4460,-07.8580,+00.229048,-00.906210,+01.431482
-126.764,-008.628,+025.787,-0.324,+1.233,+2.046,+05.0950,-05.0810,-00.0420,-01.120873,-01.637110,+02.153375
-125.423,-012.403,+024.437,-0.185,+1.202,+2.052,-05.4220,-05.6380,-11.6410,-00.532353,-02.625713,+01.943847
-124.878,-016.081,+023.627,-0.083,+1.172,+2.089,-05.1320,-03.4450,-10.5670,-00.718035,-02.852501,+01.897911
-124.080,-019.755,+022.594,+0.048,+1.185,+2.079,-07.5880,-00.3050,-10.7680,-00.675569,-02.557308,+01.857785
-123.038,-023.046,+021.295,+0.154,+1.105,+2.084,-07.5550,-05.2420,-08.7900,-00.865173,-02.278594,+01.725173
-122.449,-025.942,+019.747,+0.233,+1.084,+2.088,-10.5420,-08.1480,-10.9080,-01.302121,-02.046359,+01.083472
-121.926,-027.844,+017.447,+0.298,+1.015,+2.096,-14.2310,-03.4250,-15.2480,-02.074652,-00.904017,+00.854217
-121.468,-028.906,+015.290,+0.344,+0.945,+2.115,-07.4940,-00.3760,-11.3290,-01.556242,-00.647231,+00.538873
-121.025,-029.584,+013.542,+0.354,+0.915,+2.132,-08.2670,-01.6530,-11.2220,-01.155515,-00.332692,+00.411244
-120.633,-029.999,+012.271,+0.381,+0.885,+2.112,-05.1450,-01.6020,-08.4870,-00.819377,-00.263675,+00.336047
-120.318,-030.255,+011.452,+0.381,+0.865,+2.160,-05.3680,-01.0200,-08.9630,-00.451966,-00.115197,+00.237869
-120.113,-030.406,+010.951,+0.391,+0.836,+2.139,-04.9700,-00.8970,-08.4040,-00.270012,-00.082795,+00.139350
-120.014,-030.534,+010.686,+0.405,+0.835,+2.151,-05.1470,-01.1100,-08.2890,-00.145122,-00.103506,+00.075454
-119.945,-030.609,+010.502,+0.395,+0.826,+2.129,-05.2260,-01.5250,-08.0020,-00.119206,-00.037137,+00.062476
-119.861,-030.671,+010.341,+0.395,+0.806,+2.156,-05.0270,-01.4990,-08.0230,-00.093401,-00.036714,+00.075091
-119.763,-030.703,+010.180,+0.405,+0.821,+2.156,-04.8060,-01.4110,-08.0710,-00.092320,-00.011158,+00.080928
-119.672,-030.755,+010.056,+0.400,+0.806,+2.145,-04.8730,-01.1380,-08.0680,-00.050054,-00.040210,+00.068206
-119.618,-030.819,+009.997,+0.409,+0.801,+2.178,-04.9440,-01.2870,-08.0560,-00.014521,-00.051950,+00.040563
-119.580,-030.879,+009.963,+0.414,+0.830,+2.157,-04.8900,-01.3600,-08.0640,-00.016022,-00.046438,+00.037962
-119.542,-030.954,+009.933,+0.409,+0.801,+2.146,-04.7870,-01.3570,-07.9100,-00.009403,-00.067828,+00.043931
-119.497,-031.070,+009.905,+0.414,+0.791,+2.162,-04.8290,-01.4680,-07.9750,-00.001274,-00.105980,+00.055110
-119.440,-031.205,+009.868,+0.423,+0.850,+2.146,-04.9750,-01.3910,-07.9560,-00.014194,-00.108075,+00.064891
-119.377,-031.318,+009.820,+0.418,+0.845,+2.146,-04.9680,-01.4810,-07.9670,-00.019466,-00.085373,+00.067740
-119.289,-031.409,+009.749,+0.428,+0.820,+2.157,-04.9630,-01.4290,-07.9870,-00.023100,-00.053874,+00.084533
-119.176,-031.479,+009.649,+0.418,+0.806,+2.157,-05.0460,-01.4510,-07.9530,-00.042416,-00.039358,+00.097559
-119.051,-031.548,+009.537,+0.418,+0.815,+2.141,-04.9840,-01.3260,-07.9580,-00.036507,-00.051385,+00.102806
-118.932,-031.638,+009.436,+0.432,+0.811,+2.168,-05.0050,-01.2740,-07.9920,-00.041458,-00.069021,+00.105478
-118.813,-031.734,+009.325,+0.432,+0.820,+2.141,-04.9740,-01.3170,-07.9950,-00.040228,-00.075149,+00.098900
-118.692,-031.840,+009.218,+0.442,+0.805,+2.153,-04.9990,-01.3040,-07.9520,-00.032092,-00.084218,+00.108609
-118.552,-031.956,+009.109,+0.446,+0.805,+2.164,-04.9770,-01.2840,-07.9090,-00.039250,-00.084326,+00.127450
-118.373,-032.074,+008.959,+0.456,+0.800,+2.137,-05.0220,-01.3500,-07.9740,-00.051065,-00.075460,+00.159377
-118.171,-032.207,+008.806,+0.456,+0.785,+2.132,-04.9860,-01.2830,-07.9420,-00.031996,-00.099935,+00.174166
-117.965,-032.366,+008.674,+0.456,+0.810,+2.159,-05.0780,-01.1640,-07.9400,-00.021147,-00.124921,+00.171562
-117.735,-032.555,+008.515,+0.465,+0.800,+2.127,-05.0180,-01.3090,-07.8810,-00.030885,-00.151076,+00.208811
-117.477,-032.788,+008.361,+0.474,+0.780,+2.133,-04.9510,-01.0280,-07.8980,-00.004814,-00.190283,+00.218717
-117.218,-033.085,+008.226,+0.483,+0.775,+2.144,-04.9660,-01.3610,-07.9410,+00.021603,-00.260669,+00.244040
-116.916,-033.500,+008.111,+0.493,+0.790,+2.117,-05.2100,-01.1490,-07.8530,+00.057808,-00.356825,+00.283236
-116.592,-034.041,+008.011,+0.516,+0.785,+2.113,-05.1290,-01.0970,-07.8400,+00.071615,-00.484866,+00.289415
-116.422,-034.781,+008.012,+0.530,+0.780,+2.108,-04.9940,-00.8610,-08.0760,+00.120686,-00.692112,+00.161655
-116.392,-035.845,+008.134,+0.562,+0.789,+2.120,-05.4210,-00.8830,-07.8020,+00.132703,-01.050898,+00.149132
-116.378,-037.341,+008.218,+0.613,+0.789,+2.090,-05.4010,-01.1250,-07.7110,+00.067983,-01.445492,+00.215599
-116.314,-039.394,+008.178,+0.660,+0.773,+2.103,-05.4030,-01.1820,-07.5810,-00.016347,-01.976884,+00.349311
-116.107,-042.157,+008.081,+0.743,+0.777,+2.047,-05.2930,-01.0480,-07.6240,+00.112870,-02.587342,+00.573967
-115.632,-045.577,+007.984,+0.845,+0.756,+1.987,-05.5610,-01.0710,-08.1250,+00.208832,-03.104580,+00.768565
-114.863,-049.659,+007.584,+0.920,+0.740,+1.980,-06.1110,-01.3690,-07.9450,+00.119874,-03.706060,+01.045379
-113.470,-054.504,+006.595,+1.073,+0.743,+1.878,-07.7250,-02.2380,-08.0150,+00.100929,-04.343008,+01.404867
-111.065,-060.092,+004.577,+1.226,+0.707,+1.772,-08.6820,-02.9250,-09.2620,-00.079619,-04.992052,+01.758123
-106.899,-066.487,+000.923,+1.360,+0.640,+1.681,-10.8790,-01.9120,-09.7360,+00.123189,-05.797989,+01.973197
-100.032,-073.300,-005.080,+1.513,+0.618,+1.493,-14.1930,-02.3420,-11.7320,+00.570656,-05.953471,+01.711004
-087.716,-078.972,-016.304,+1.657,+0.556,+1.316,-16.0540,-02.0170,-13.4340,+00.879778,-04.848100,+01.524573
-064.749,-082.002,-038.539,+1.745,+0.530,+1.223,-15.5310,-08.1530,-20.8770,-00.103056,-02.709894,+01.914963
-058.694,-081.157,-045.589,+1.814,+0.500,+1.172,-01.6710,-07.1580,-14.3540,-01.173294,+00.795363,+00.781643
-058.472,-080.079,-047.512,+1.861,+0.435,+1.213,-00.9140,-04.4580,-08.4270,-01.624778,+00.584886,+00.673057
-061.440,-078.968,-046.291,+1.893,+0.425,+1.295,-02.0390,-03.6750,-09.3070,-01.338455,+01.301194,+00.203886
-068.293,-077.581,-040.923,+1.916,+0.430,+1.361,-02.0800,-04.4010,-09.3080,-01.108737,+01.952861,-00.178230
-077.174,-075.601,-033.419,+1.907,+0.406,+1.491,-03.0580,-03.8280,-09.4810,-00.891761,+02.775395,-00.518069
-086.317,-072.857,-025.417,+1.894,+0.422,+1.636,-02.3830,-03.6240,-07.0200,-00.584775,+03.273853,-00.822954
-094.273,-069.705,-018.358,+1.843,+0.483,+1.801,-04.3290,-03.7880,-07.9810,-00.308271,+03.479390,-01.198996
-101.610,-065.958,-011.727,+1.718,+0.530,+2.016,-05.9180,-03.6330,-08.3550,-00.068100,+03.958265,-01.635483
-107.840,-061.577,-006.054,+1.565,+0.591,+2.193,-07.2090,-02.2500,-07.9890,+00.169601,+04.229577,-01.848241
-112.584,-056.888,-001.520,+1.310,+0.679,+2.316,-07.4570,-00.5970,-06.5620,+00.518945,+04.148925,-01.785235
-115.702,-052.321,+001.764,+1.027,+0.687,+2.358,-09.0700,-00.8330,-07.5700,+00.698295,+03.895578,-01.441117
-117.639,-047.794,+004.195,+0.864,+0.664,+2.351,-12.8360,-02.0380,-11.0110,+00.933755,+03.966928,-01.252862
-119.179,-043.000,+006.672,+0.716,+0.675,+2.290,-13.5590,-02.0390,-10.0080,+01.353024,+04.074142,-01.391043
-120.521,-038.337,+009.169,+0.646,+0.675,+2.276,-14.5950,-02.3400,-08.4860,+01.397521,+03.771682,-01.453827
-121.661,-034.069,+011.395,+0.609,+0.715,+2.317,-15.6910,-01.8520,-07.8500,+01.338053,+03.383937,-01.456043
-122.707,-030.073,+013.523,+0.544,+0.825,+2.373,-16.8980,-02.2820,-09.4680,+01.411465,+03.216313,-01.565964
-123.801,-025.769,+015.892,+0.419,+0.951,+2.432,-16.3840,-01.1350,-09.5690,+01.729857,+03.525015,-01.873233
-124.760,-021.308,+018.398,+0.257,+1.076,+2.483,-13.6990,+01.0290,-06.4850,+01.886775,+03.371467,-01.815712
-125.268,-017.071,+020.657,+0.062,+1.162,+2.447,-14.1310,+01.0280,-07.1290,+01.750027,+03.371628,-01.524063
-125.307,-013.064,+022.512,-0.138,+1.253,+2.410,-11.4310,+01.3980,-04.5580,+01.533694,+03.099421,-01.189979
-125.125,-009.609,+024.133,-0.263,+1.254,+2.324,-11.2930,+00.5050,-03.7230,+01.394309,+02.668994,-01.005068
-125.091,-006.686,+025.583,-0.384,+1.324,+2.242,-10.4100,+00.6900,-00.9740,+01.194963,+02.066552,-01.099442
-125.625,-004.525,+026.880,-0.472,+1.325,+2.185,-11.8090,+02.8000,+02.7410,+01.029051,+01.106619,-01.338249
-126.828,-003.441,+027.934,-0.505,+1.355,+2.194,-12.1750,+03.9930,+04.1550,+00.694544,-00.116118,-01.317974
-128.255,-003.675,+028.239,-0.523,+1.355,+2.160,-11.3930,+01.6970,+00.2100,-00.166788,-01.058720,-00.762743
-129.256,-004.700,+027.586,-0.486,+1.280,+2.190,-02.5480,+04.0610,-05.1480,-00.670991,-01.159822,-00.015882
-129.298,-006.338,+027.893,-0.468,+1.305,+2.185,+00.2980,-07.3600,-05.4110,-00.389096,-01.340748,+01.140712
-127.948,-010.022,+026.141,-0.338,+1.294,+2.234,-03.8030,-04.4460,-09.9570,-01.272661,-02.593941,+02.522563
-127.350,-013.923,+024.744,-0.208,+1.243,+2.278,-02.4610,-06.8340,-05.6300,-01.083779,-03.210683,+01.843820
-127.019,-018.180,+023.266,-0.078,+1.208,+2.316,-06.8580,-01.0870,-09.1810,-01.262036,-03.280671,+01.714659
-126.563,-022.285,+021.872,+0.071,+1.166,+2.318,-10.4870,-00.9820,-14.0310,-00.908724,-02.959203,+01.651751
-126.147,-025.545,+020.654,+0.187,+1.116,+2.361,-11.0010,-06.9250,-12.0360,-01.066815,-02.268179,+01.139428
-125.767,-027.774,+018.734,+0.257,+1.081,+2.359,-12.6270,-06.1660,-14.2960,-01.921852,-01.269079,+00.828107
-125.335,-028.838,+016.498,+0.294,+1.006,+2.382,-07.1300,-00.6580,-11.4080,-01.589614,-00.743790,+00.466814
-125.084,-029.502,+015.019,+0.312,+0.947,+2.395,-06.1180,-01.8940,-09.2690,-01.002880,-00.435527,+00.270718
-124.892,-029.887,+013.986,+0.326,+0.917,+2.433,-05.1110,-01.7330,-08.3880,-00.727040,-00.245361,+00.205986
-124.728,-030.134,+013.286,+0.349,+0.897,+2.424,-05.1760,-01.8910,-08.6890,-00.452206,-00.155494,+00.152528
-124.626,-030.284,+012.904,+0.345,+0.882,+2.423,-05.0050,-01.5480,-08.1330,-00.225126,-00.094583,+00.063429
-124.629,-030.398,+012.690,+0.359,+0.872,+2.457,-05.0530,-01.5210,-08.1760,-00.163321,-00.091099,-00.001678
-124.663,-030.475,+012.560,+0.359,+0.877,+2.440,-04.9370,-01.7550,-08.0450,-00.109407,-00.076940,-00.003027
-124.664,-030.540,+012.459,+0.359,+0.857,+2.435,-04.8320,-01.8700,-07.9790,-00.075885,-00.055418,+00.030720
-124.616,-030.624,+012.377,+0.349,+0.857,+2.456,-05.0620,-01.7100,-07.9180,-00.033849,-00.062420,+00.050149
-124.575,-030.707,+012.342,+0.363,+0.892,+2.419,-04.9030,-01.5360,-07.9710,-00.000168,-00.070488,+00.041005
-124.562,-030.795,+012.351,+0.363,+0.892,+2.424,-04.8400,-01.7090,-07.9430,+00.022459,-00.078388,+00.022610
-124.558,-030.892,+012.393,+0.368,+0.877,+2.457,-04.9080,-01.7140,-07.9910,+00.044289,-00.081787,+00.018794
-124.558,-030.998,+012.446,+0.377,+0.877,+2.425,-04.8550,-01.6250,-07.9800,+00.050190,-00.099490,+00.020293
-124.573,-031.138,+012.532,+0.386,+0.862,+2.415,-04.8900,-01.6180,-07.9320,+00.076127,-00.130906,+00.011516
-124.599,-031.295,+012.634,+0.382,+0.872,+2.441,-04.9960,-01.8400,-07.9120,+00.075325,-00.134978,+00.013959
-124.611,-031.444,+012.718,+0.386,+0.877,+2.425,-04.9820,-01.8700,-07.8990,+00.059340,-00.130336,+00.024048
-124.599,-031.590,+012.768,+0.386,+0.911,+2.414,-05.0090,-01.9110,-07.8660,+00.043976,-00.122309,+00.043906
-124.561,-031.713,+012.782,+0.391,+0.906,+2.436,-05.1100,-01.7980,-07.8780,+00.022575,-00.086346,+00.053089
-124.518,-031.810,+012.785,+0.400,+0.896,+2.420,-05.0110,-01.7710,-07.7870,+00.022463,-00.072810,+00.047127
-124.474,-031.920,+012.795,+0.391,+0.886,+2.404,-05.0500,-01.8140,-07.7770,+00.029873,-00.093362,+00.055720
-124.426,-032.049,+012.790,+0.410,+0.867,+2.437,-05.0810,-01.8070,-07.8700,+00.011480,-00.103191,+00.062913
-124.353,-032.182,+012.762,+0.410,+0.891,+2.426,-04.9930,-01.8200,-07.8710,+00.015463,-00.105494,+00.087597
-124.245,-032.340,+012.725,+0.410,+0.901,+2.421,-05.0390,-01.8100,-07.8400,+00.014934,-00.119148,+00.122384
-124.087,-032.501,+012.639,+0.428,+0.861,+2.427,-05.0970,-01.7510,-07.9090,-00.010896,-00.106478,+00.153202
-123.883,-032.652,+012.505,+0.428,+0.886,+2.411,-04.9860,-01.8840,-07.7700,-00.023635,-00.095319,+00.193297
-123.650,-032.824,+012.380,+0.428,+0.871,+2.416,-05.1310,-01.7550,-07.8020,+00.003762,-00.111349,+00.202870
-123.399,-033.018,+012.241,+0.447,+0.851,+2.428,-05.1680,-01.7140,-07.7500,-00.009153,-00.133115,+00.220997
-123.134,-033.237,+012.093,+0.456,+0.881,+2.407,-05.1440,-01.6670,-07.7670,+00.005206,-00.157235,+00.237046
-122.867,-033.491,+011.963,+0.465,+0.876,+2.407,-05.1950,-01.6030,-07.7720,+00.009353,-00.196592,+00.234839
-122.609,-033.791,+011.810,+0.475,+0.866,+2.424,-05.3700,-01.5490,-07.9160,+00.002991,-00.225508,+00.242431
-122.333,-034.173,+011.722,+0.493,+0.885,+2.392,-05.1940,-01.6270,-07.7980,+00.085831,-00.322874,+00.285156
-122.070,-034.680,+011.656,+0.502,+0.856,+2.414,-05.3770,-01.5760,-07.6210,+00.064109,-00.442963,+00.248950
-121.898,-035.337,+011.629,+0.521,+0.855,+2.426,-05.4230,-01.4150,-07.6440,+00.061974,-00.597088,+00.224668
-121.803,-036.158,+011.631,+0.549,+0.905,+2.394,-05.1260,-01.5550,-07.6600,+00.008648,-00.754576,+00.208251
-121.788,-037.197,+011.618,+0.586,+0.869,+2.353,-05.3850,-01.5190,-07.5340,+00.004530,-00.969865,+00.178981
-121.811,-038.529,+011.652,+0.623,+0.854,+2.398,-05.5800,-01.7600,-07.4130,+00.021722,-01.254803,+00.259161
-121.778,-040.269,+011.667,+0.693,+0.863,+2.352,-05.8000,-01.5350,-07.3130,+00.034291,-01.627470,+00.360956
-121.740,-042.509,+011.652,+0.748,+0.843,+2.317,-05.6980,-01.2680,-07.3560,+00.014806,-02.094434,+00.458906
-121.670,-045.337,+011.747,+0.813,+0.847,+2.331,-05.5840,-01.2600,-07.5490,+00.199216,-02.594558,+00.598679
-121.530,-048.753,+011.911,+0.948,+0.860,+2.250,-06.4620,-01.4550,-07.8420,+00.232057,-03.086167,+00.738529
-121.243,-052.778,+011.953,+1.069,+0.839,+2.191,-06.9570,-02.0290,-07.6310,+00.212659,-03.615035,+00.975522
-120.602,-057.578,+011.661,+1.184,+0.823,+2.131,-07.7950,-02.2440,-07.3780,+00.217678,-04.293629,+01.279838
-119.652,-063.188,+011.141,+1.342,+0.820,+1.976,-09.5590,-02.5250,-08.8400,+00.330664,-04.997069,+01.426757
-117.815,-069.842,+009.698,+1.509,+0.758,+1.800,-11.0130,-03.1700,-09.1110,+00.156792,-05.947719,+01.799502
-114.064,-077.262,+006.309,+1.671,+0.731,+1.672,-11.9510,-01.1880,-10.3640,+00.208072,-06.407633,+01.776515
-103.444,-084.167,-003.527,+1.796,+0.679,+1.408,-16.3290,-00.5690,-11.5680,+01.019072,-05.624754,+01.540205
-021.070,-087.978,-084.151,+1.907,+0.667,+1.213,+03.9770,-08.0890,-11.7140,+01.291638,-04.312082,+01.715461
+008.472,-085.928,-113.951,+1.940,+0.597,+1.134,-17.3550,-11.9990,-31.2030,-00.949210,+00.458521,+01.036278
-015.308,-085.483,-092.044,+1.963,+0.572,+1.157,+01.3790,-04.2790,-09.1250,-01.778638,+01.534723,+00.647796
-032.398,-084.664,-077.064,+1.977,+0.493,+1.196,-00.5620,-01.9840,-07.7860,-01.706401,+01.298885,+00.496520
-049.519,-083.652,-061.834,+2.005,+0.464,+1.278,-03.4610,-03.2890,-10.9090,-01.534131,+02.106527,+00.170889
-069.893,-081.562,-043.387,+2.033,+0.449,+1.382,-03.8000,-03.0900,-10.8290,-01.518199,+03.367256,-00.012095
-085.502,-077.976,-029.529,+2.024,+0.435,+1.587,-03.7150,-02.6940,-08.3370,-01.133850,+04.191179,-00.162087
-095.968,-073.439,-020.300,+2.001,+0.442,+1.824,-05.2060,-03.9980,-07.1100,-00.632065,+04.692763,-00.532882
-103.748,-068.459,-013.462,+1.866,+0.489,+2.099,-05.4880,-04.8840,-05.2140,-00.364183,+04.784423,-01.060936
-109.970,-063.508,-007.994,+1.649,+0.557,+2.337,-07.8100,-03.6230,-05.3480,-00.059322,+04.580904,-01.520620
-114.967,-058.497,-003.338,+1.459,+0.628,+2.469,-09.7630,-02.6750,-06.0750,+00.423543,+04.537036,-01.717801
-118.551,-053.565,+000.311,+1.213,+0.745,+2.603,-10.1840,-03.4480,-05.4030,+00.637878,+04.190502,-01.550092
-121.108,-048.927,+003.009,+0.944,+0.793,+2.737,-14.5830,-04.9570,-09.3580,+00.642404,+03.993273,-01.546461
-123.458,-044.047,+005.617,+0.661,+0.811,+2.821,-15.1310,-04.6770,-07.8330,+00.875056,+04.139292,-01.830309
-125.687,-039.413,+008.236,+0.280,+0.805,+2.772,-17.4920,-04.3240,-07.9140,+01.044979,+03.707583,-01.983536
-127.710,-034.839,+010.648,-0.022,+0.743,+2.581,-18.1470,-04.1220,-08.0550,+01.016552,+03.722824,-02.063325
-129.374,-030.152,+012.722,-0.111,+0.624,+2.422,-15.2250,-01.4010,-05.7550,+01.108721,+03.713667,-01.968680
-130.528,-025.710,+014.904,-0.079,+0.584,+2.288,-15.7410,-00.1230,-07.3040,+01.608699,+03.540542,-01.684057
-131.045,-021.262,+017.129,-0.028,+0.608,+2.274,-13.9010,+01.1040,-06.8590,+01.809750,+03.642228,-01.314940
-130.866,-017.047,+019.178,-0.037,+0.697,+2.349,-12.6230,+02.2800,-05.5160,+01.852147,+03.454377,-00.818889
-130.152,-013.344,+021.105,-0.115,+0.881,+2.360,-12.6050,+01.8270,-03.9500,+01.816723,+03.083671,-00.403115
-129.199,-010.330,+022.968,-0.236,+1.011,+2.381,-13.0840,+03.0250,-01.8990,+01.824449,+02.527236,-00.143830
-128.190,-008.127,+025.116,-0.305,+1.126,+2.361,-13.4930,+05.2400,+01.4030,+02.133366,+01.828557,+00.117206
-127.345,-006.983,+027.346,-0.379,+1.265,+2.319,-15.0320,+04.5750,+04.9130,+01.855348,+00.811914,+00.241760
-127.031,-007.106,+028.511,-0.393,+1.320,+2.312,-15.0210,+03.1250,+04.6340,+00.438032,-00.416499,+00.384615
-126.672,-008.971,+027.107,-0.351,+1.300,+2.390,-00.0550,+00.5340,-10.6320,-01.632304,-01.755105,+01.598381
-125.768,-011.563,+024.993,-0.258,+1.294,+2.475,+02.6350,-05.2350,-03.2480,-02.194040,-02.238830,+02.172788
-125.195,-015.636,+022.932,-0.091,+1.253,+2.553,-02.9480,-02.7690,-07.8150,-01.316010,-03.348927,+01.525188
-124.897,-019.979,+021.460,+0.039,+1.252,+2.624,-08.0620,+01.0800,-10.9850,-01.004923,-03.339936,+01.640222
-124.629,-024.020,+020.643,+0.225,+1.261,+2.669,-10.5630,-03.7310,-13.1620,-00.532627,-03.058163,+01.416183
-124.398,-027.352,+019.379,+0.359,+1.235,+2.681,-12.5460,-09.4170,-12.0940,-01.496639,-02.370709,+01.099009
-123.863,-029.328,+016.543,+0.424,+1.165,+2.776,-14.1610,+01.2380,-14.7460,-02.022100,-00.864068,+00.792426
-123.283,-030.216,+014.343,+0.471,+1.105,+2.784,-07.5320,-00.4030,-10.6040,-01.247643,-00.426910,+00.521807
-122.847,-030.715,+012.945,+0.489,+1.051,+2.785,-05.3710,-00.1090,-09.1690,-00.814541,-00.253514,+00.378700
-122.414,-030.954,+011.994,+0.489,+1.016,+2.818,-05.4540,-01.7680,-08.4890,-00.583526,-00.106452,+00.357471
-122.016,-031.099,+011.229,+0.499,+1.006,+2.813,-05.3240,-00.9380,-08.0850,-00.408892,-00.033499,+00.271252
-121.754,-031.174,+010.757,+0.512,+0.996,+2.819,-05.2730,-01.0470,-07.9080,-00.229653,-00.032619,+00.167052
-121.606,-031.220,+010.473,+0.508,+0.982,+2.851,-04.9150,-01.2250,-07.8930,-00.145184,-00.025523,+00.091430
-121.518,-031.288,+010.315,+0.517,+0.996,+2.825,-04.9850,-01.6400,-07.8780,-00.081492,-00.059180,+00.076015
-121.384,-031.346,+010.114,+0.517,+0.971,+2.819,-05.0310,-01.9440,-08.0230,-00.137392,-00.012694,+00.132186
-121.164,-031.365,+009.829,+0.517,+0.962,+2.857,-04.9740,-01.5660,-07.9100,-00.162914,+00.018997,+00.179114
-120.936,-031.363,+009.565,+0.522,+0.996,+2.836,-05.1570,-01.1510,-08.0360,-00.111481,+00.039941,+00.158829
-120.745,-031.334,+009.355,+0.517,+0.967,+2.841,-05.2130,-01.2680,-08.0060,-00.085677,+00.063722,+00.125411
-120.580,-031.279,+009.184,+0.508,+0.952,+2.873,-04.9280,-01.2390,-07.9710,-00.073482,+00.060110,+00.110753
-120.424,-031.261,+009.012,+0.512,+0.962,+2.835,-04.8440,-01.2440,-08.0920,-00.080963,+00.017770,+00.113270
-120.283,-031.286,+008.858,+0.512,+0.947,+2.841,-05.0060,-01.0010,-08.0500,-00.062921,-00.016923,+00.098326
-120.196,-031.331,+008.760,+0.517,+0.932,+2.857,-04.9700,-01.0250,-07.9330,-00.038977,-00.036550,+00.057280
-120.126,-031.387,+008.672,+0.522,+0.976,+2.847,-04.9620,-01.2560,-07.9790,-00.051505,-00.041613,+00.068090
-120.035,-031.440,+008.563,+0.531,+0.937,+2.847,-05.0880,-01.1890,-08.0000,-00.053649,-00.031934,+00.072165
-119.940,-031.484,+008.470,+0.522,+0.942,+2.863,-05.0040,-01.3530,-07.9320,-00.027403,-00.040993,+00.080437
-119.826,-031.538,+008.382,+0.536,+0.956,+2.853,-05.0590,-01.1230,-07.9140,-00.018778,-00.031456,+00.088267
-119.747,-031.567,+008.331,+0.517,+0.917,+2.831,-05.0170,-00.9810,-07.9720,-00.002482,-00.015266,+00.046981
-119.723,-031.589,+008.331,+0.522,+0.922,+2.863,-04.9870,-00.9310,-07.9760,+00.014981,-00.019923,+00.003313
-119.726,-031.619,+008.335,+0.540,+0.932,+2.869,-04.8730,-01.1800,-07.8920,-00.006919,-00.033764,+00.010554
-119.692,-031.684,+008.307,+0.531,+0.942,+2.869,-04.9970,-01.2160,-07.9770,-00.012584,-00.062829,+00.047871
-119.628,-031.770,+008.267,+0.531,+0.927,+2.869,-04.8990,-01.2620,-07.9660,-00.010128,-00.072057,+00.065650
-119.511,-031.869,+008.179,+0.554,+0.937,+2.859,-04.8590,-01.3680,-07.9220,-00.028125,-00.074685,+00.120214
-119.336,-031.996,+008.055,+0.550,+0.961,+2.842,-04.9390,-01.1700,-07.9510,-00.026730,-00.104865,+00.153250
-119.123,-032.158,+007.907,+0.554,+0.917,+2.865,-05.0090,-01.2550,-07.8950,-00.035869,-00.124651,+00.190656
-118.865,-032.347,+007.726,+0.582,+0.931,+2.850,-05.0190,-01.3380,-07.9260,-00.042763,-00.149334,+00.228930
-118.582,-032.600,+007.535,+0.573,+0.931,+2.844,-04.9620,-01.0740,-07.9470,-00.027261,-00.212397,+00.232469
-118.300,-032.913,+007.354,+0.596,+0.931,+2.866,-05.0740,-00.9470,-07.9790,-00.022544,-00.266220,+00.242935
-118.009,-033.302,+007.178,+0.615,+0.951,+2.829,-05.1750,-00.9770,-07.8890,-00.009155,-00.336926,+00.256338
-117.707,-033.772,+007.035,+0.619,+0.926,+2.835,-05.1840,-01.2690,-07.7850,+00.037959,-00.411442,+00.277160
-117.418,-034.407,+007.004,+0.642,+0.931,+2.847,-04.8310,-00.0500,-08.0800,+00.146902,-00.626444,+00.244644
-117.403,-035.301,+007.234,+0.693,+0.955,+2.843,-05.1460,-00.5620,-08.0920,+00.172333,-00.864937,+00.045671
-117.555,-036.491,+007.479,+0.726,+0.939,+2.802,-05.3110,-00.7220,-07.7730,+00.159822,-01.155090,+00.010797
-117.758,-038.046,+007.755,+0.786,+0.944,+2.826,-05.5480,-01.1050,-07.7140,+00.133056,-01.489518,+00.060676
-117.839,-040.055,+007.802,+0.861,+0.963,+2.780,-05.4040,-01.4850,-07.4770,-00.069561,-01.908027,+00.285000
-117.598,-042.628,+007.559,+0.949,+0.952,+2.736,-05.4530,-01.2410,-07.5960,-00.042125,-02.374042,+00.560502
-116.957,-045.723,+007.088,+1.055,+0.936,+2.719,-05.9080,-01.1750,-07.8750,-00.033309,-02.777595,+00.831077
-115.928,-049.358,+006.222,+1.204,+0.914,+2.639,-06.4780,-01.1350,-07.5020,-00.114835,-03.272741,+01.058843
-114.366,-053.612,+004.926,+1.357,+0.882,+2.554,-07.3080,-01.6560,-07.7190,-00.019795,-03.835911,+01.296457
-111.889,-058.541,+002.769,+1.491,+0.866,+2.495,-09.0130,-02.1160,-07.9660,-00.175802,-04.409759,+01.615575
-107.599,-064.179,-001.128,+1.672,+0.824,+2.331,-10.9530,-01.1340,-09.4900,+00.051361,-05.198886,+01.977569
-099.832,-070.493,-008.133,+1.872,+0.781,+2.140,-11.5680,-01.7110,-08.2400,+00.314118,-05.908211,+02.196429
-085.179,-076.582,-021.781,+2.011,+0.754,+1.979,-13.5590,-02.3040,-10.2400,+00.414277,-05.998093,+02.073470
-057.022,-080.342,-049.218,+2.131,+0.677,+1.715,-12.8060,-07.3720,-13.7700,-00.294379,-04.940695,+02.260865
-026.408,-079.315,-080.967,+2.182,+0.548,+1.583,-24.4370,-00.6660,-26.5060,-01.477726,-02.602738,+02.923492
-029.077,-077.694,-078.224,+2.117,+0.514,+1.623,-03.2920,-04.8330,-16.9120,+00.742044,+01.718913,+00.777974
-036.467,-076.748,-070.553,+2.010,+0.550,+1.651,+00.7890,-07.6650,-06.6280,-00.036230,+01.373143,+00.250025
-043.506,-076.373,-064.387,+1.903,+0.536,+1.689,-02.8870,-05.7390,-09.8740,-00.762627,+01.670555,-00.607485
-055.975,-076.178,-053.006,+1.820,+0.552,+1.756,-03.6750,-03.2250,-11.4510,-00.511700,+02.704006,-01.478952
-071.953,-074.926,-037.738,+1.704,+0.588,+1.810,-02.2970,-00.6660,-08.7790,+00.018895,+03.464060,-01.698476
-085.497,-072.354,-024.389,+1.583,+0.585,+1.848,-02.9110,-01.1500,-07.0460,+00.396394,+03.668871,-01.694766
-095.718,-068.929,-014.278,+1.518,+0.596,+1.931,-05.4630,-01.9650,-08.2020,+00.401256,+03.884987,-01.901956
-103.703,-064.878,-006.485,+1.472,+0.616,+1.983,-06.5770,-00.6620,-07.3030,+00.385135,+03.976060,-02.102161
-109.387,-060.489,-000.836,+1.440,+0.642,+2.144,-08.3760,+00.3230,-07.9660,+00.620736,+03.971392,-01.959209
-113.247,-055.853,+003.247,+1.342,+0.713,+2.344,-10.0780,-01.7240,-07.7580,+00.653109,+03.993546,-01.810339
-116.098,-051.213,+005.970,+1.157,+0.830,+2.476,-11.8050,-03.2140,-08.2030,+00.184703,+03.864073,-01.806801
-118.482,-046.595,+007.825,+0.897,+0.957,+2.593,-14.3120,-03.0380,-10.0270,+00.055049,+03.859660,-01.891423
-120.832,-041.849,+009.613,+0.665,+1.019,+2.647,-14.8990,-04.4140,-08.4580,+00.138143,+03.823797,-02.217180
-123.625,-037.276,+011.485,+0.396,+1.125,+2.618,-16.1060,-05.8530,-07.9150,+00.051839,+03.465883,-02.849276
-127.082,-032.589,+013.270,+0.192,+1.067,+2.540,-16.1310,-07.1800,-07.0280,-00.343000,+03.471992,-03.528060
-130.911,-027.831,+014.589,+0.057,+1.009,+2.588,-13.5440,-05.9310,-04.7270,-00.554626,+03.202156,-03.970429
-135.210,-023.340,+015.820,-0.082,+0.971,+2.566,-12.9060,-07.0710,-03.1020,-00.556340,+02.676900,-04.472664
-139.957,-019.293,+016.885,-0.208,+0.913,+2.588,-13.6450,-07.3870,-02.8890,-00.582357,+02.093442,-04.812237
-144.986,-015.698,+017.612,-0.310,+0.870,+2.600,-14.1030,-07.2170,-01.4710,-00.731557,+01.539196,-04.983426
-150.065,-012.666,+018.013,-0.408,+0.791,+2.580,-15.3090,-04.7300,+00.0740,-00.707615,+01.020943,-04.779865
-154.473,-010.282,+018.240,-0.482,+0.723,+2.599,-16.7470,-01.4520,+00.8540,-00.446742,+00.715878,-03.790333
-157.503,-008.544,+018.763,-0.538,+0.713,+2.613,-16.0980,+01.8040,+03.0970,+00.369547,+00.528992,-02.483670
-159.490,-007.684,+019.850,-0.570,+0.738,+2.595,-14.3730,-00.7580,+06.2510,+00.739534,-00.189303,-01.552406
-161.092,-008.162,+020.358,-0.538,+0.713,+2.591,-13.2080,-04.0970,+05.0740,-00.100527,-01.237672,-00.960684
-162.766,-010.056,+021.903,-0.473,+0.758,+2.648,-03.4380,-06.2260,-10.9800,+01.273215,-02.060348,-00.765556
-163.959,-012.904,+022.659,-0.352,+0.801,+2.658,-00.0440,-00.4300,-03.6130,+00.389830,-03.155826,+00.504789
-164.650,-016.862,+023.304,-0.203,+0.854,+2.681,-09.2730,-02.0390,-15.1240,+00.285736,-03.258261,+00.912508
-164.855,-020.788,+023.574,-0.068,+0.888,+2.719,-05.8200,-00.3420,-09.4300,+00.050391,-03.305284,+01.440467
-164.506,-024.868,+022.817,+0.117,+0.896,+2.711,-09.4490,-06.7790,-10.4420,-01.162790,-03.038163,+01.806360
-163.465,-028.057,+019.440,+0.243,+0.791,+2.760,-25.0730,-11.9280,-18.1860,-03.033439,-01.447392,+01.604185
-162.718,-029.190,+017.322,+0.284,+0.726,+2.762,-09.6570,-01.1870,-13.3270,-00.986468,-00.502586,+00.529895
-162.432,-029.927,+016.304,+0.308,+0.731,+2.763,-05.9460,-02.4630,-08.8740,-00.709396,-00.570240,+00.361689
-162.230,-030.435,+015.627,+0.335,+0.671,+2.754,-05.1630,-02.8040,-07.7830,-00.434055,-00.314728,+00.229312
-162.047,-030.816,+015.071,+0.349,+0.676,+2.793,-05.1420,-01.8420,-08.1420,-00.350371,-00.243027,+00.202571
-161.833,-031.164,+014.571,+0.363,+0.671,+2.788,-05.1750,-02.1740,-08.1430,-00.326874,-00.255023,+00.256558
-161.601,-031.432,+014.182,+0.359,+0.641,+2.777,-05.2980,-01.6950,-07.9370,-00.182180,-00.160133,+00.203031
-161.429,-031.614,+013.946,+0.373,+0.641,+2.794,-05.4330,-01.8410,-07.9320,-00.093098,-00.089902,+00.136081
-161.283,-031.729,+013.778,+0.377,+0.656,+2.789,-05.2420,-01.5550,-08.0360,-00.077220,-00.050981,+00.129805
-161.145,-031.807,+013.637,+0.386,+0.660,+2.762,-05.1110,-01.8200,-07.9530,-00.049069,-00.035462,+00.113746
-160.980,-031.870,+013.479,+0.391,+0.631,+2.784,-05.1960,-01.8970,-07.7850,-00.072363,-00.010337,+00.141782
-160.793,-031.894,+013.295,+0.382,+0.631,+2.784,-05.2360,-01.6630,-07.8900,-00.073653,+00.018937,+00.133026
-160.617,-031.874,+013.111,+0.391,+0.636,+2.762,-05.2110,-01.6480,-07.8820,-00.087020,+00.063732,+00.117725
-160.395,-031.789,+012.835,+0.382,+0.616,+2.805,-05.1310,-02.0710,-07.8440,-00.182250,+00.139525,+00.172934
-160.048,-031.611,+012.356,+0.391,+0.626,+2.784,-05.3090,-01.9280,-07.7850,-00.297033,+00.247317,+00.239057
-159.639,-031.363,+011.769,+0.372,+0.591,+2.773,-05.2770,-01.4740,-07.8200,-00.329340,+00.282773,+00.245893
-159.290,-031.113,+011.241,+0.358,+0.562,+2.794,-05.2140,-01.2990,-07.9250,-00.277770,+00.247144,+00.185811
-159.061,-030.935,+010.874,+0.340,+0.577,+2.787,-04.8670,-01.2590,-07.9350,-00.186950,+00.142952,+00.116740
-158.930,-030.842,+010.643,+0.345,+0.572,+2.793,-04.8890,-01.2970,-07.9930,-00.121491,+00.078308,+00.065131
-158.850,-030.791,+010.494,+0.349,+0.577,+2.810,-04.9660,-01.3160,-08.0050,-00.081395,+00.044405,+00.040638
-158.789,-030.752,+010.373,+0.349,+0.572,+2.777,-04.8460,-01.4550,-07.9700,-00.078718,+00.038565,+00.042976
-158.714,-030.720,+010.250,+0.335,+0.552,+2.798,-04.9750,-01.3170,-07.9840,-00.067442,+00.037954,+00.049619
-158.648,-030.685,+010.149,+0.331,+0.552,+2.820,-04.9160,-01.2610,-08.0070,-00.050892,+00.041973,+00.038204
-158.598,-030.656,+010.073,+0.340,+0.552,+2.788,-04.9530,-01.3120,-08.0060,-00.041687,+00.031732,+00.031386
-158.545,-030.618,+009.996,+0.340,+0.537,+2.788,-04.9270,-01.4840,-07.9690,-00.049509,+00.052529,+00.037745
-158.475,-030.571,+009.894,+0.340,+0.552,+2.815,-04.8900,-01.2220,-08.0520,-00.055733,+00.044947,+00.040624
-158.431,-030.539,+009.824,+0.349,+0.542,+2.794,-04.8810,-01.1720,-07.9780,-00.032588,+00.027095,+00.019173
-158.415,-030.530,+009.797,+0.345,+0.542,+2.799,-04.8390,-01.1920,-07.9770,-00.007983,-00.007073,+00.006341
-158.416,-030.539,+009.808,+0.331,+0.542,+2.814,-04.8590,-01.3420,-08.0000,+00.011869,-00.013230,+00.002365
-158.415,-030.552,+009.821,+0.335,+0.552,+2.804,-04.9060,-01.2660,-07.9930,+00.008760,-00.009327,+00.002233
-158.417,-030.571,+009.833,+0.331,+0.557,+2.803,-04.8730,-01.2640,-08.0140,+00.004561,-00.020189,+00.003415
-158.418,-030.603,+009.833,+0.335,+0.528,+2.831,-04.9070,-01.3460,-08.0670,-00.007868,-00.033828,+00.007015
-158.404,-030.639,+009.799,+0.345,+0.547,+2.788,-04.8650,-01.3030,-07.9960,-00.033246,-00.019944,+00.021529
-158.369,-030.676,+009.732,+0.335,+0.552,+2.793,-04.9540,-01.3090,-07.9920,-00.044083,-00.029195,+00.035606
-158.306,-030.705,+009.644,+0.345,+0.567,+2.826,-04.9620,-01.2610,-07.9900,-00.051906,-00.010000,+00.056534
-158.234,-030.723,+009.548,+0.345,+0.567,+2.799,-04.8920,-01.1890,-08.0020,-00.048808,-00.015447,+00.052958
-158.177,-030.761,+009.461,+0.344,+0.522,+2.788,-04.8190,-01.2440,-08.0430,-00.052074,-00.042692,+00.047678
-158.113,-030.848,+009.363,+0.349,+0.518,+2.821,-04.8510,-01.2750,-08.0620,-00.058020,-00.085218,+00.069267
-158.016,-030.997,+009.252,+0.358,+0.532,+2.794,-04.6810,-01.3230,-07.9700,-00.045707,-00.141718,+00.105985
-157.876,-031.237,+009.139,+0.368,+0.522,+2.778,-04.5950,-01.1880,-08.1280,-00.034590,-00.212345,+00.147400
-157.730,-031.562,+009.011,+0.372,+0.527,+2.816,-04.8040,-01.2090,-08.1460,-00.059812,-00.284946,+00.151931
-157.555,-032.003,+008.824,+0.396,+0.542,+2.801,-04.8860,-01.3360,-08.0780,-00.107049,-00.419068,+00.210271
-157.401,-032.674,+008.629,+0.428,+0.511,+2.759,-04.8320,-01.6940,-08.2690,-00.069381,-00.652563,+00.168039
-157.249,-033.661,+008.521,+0.447,+0.502,+2.809,-04.9660,-01.0160,-08.2110,+00.006363,-00.959039,+00.257091
-157.124,-035.053,+008.451,+0.507,+0.516,+2.774,-04.8690,-01.2600,-08.2880,-00.009990,-01.341293,+00.278972
-156.992,-037.000,+008.349,+0.577,+0.505,+2.777,-05.0880,-01.2420,-07.9900,-00.018597,-01.888104,+00.378901
-156.792,-039.677,+008.140,+0.656,+0.494,+2.780,-05.2450,-01.4030,-08.1000,-00.115244,-02.547959,+00.533672
-156.328,-043.070,+007.594,+0.799,+0.493,+2.711,-05.3120,-01.3130,-08.3350,-00.233444,-03.062741,+00.817254
-155.462,-046.849,+006.577,+0.939,+0.442,+2.680,-07.3600,-02.6980,-08.3900,-00.546363,-03.227837,+01.028042
-153.773,-050.567,+004.089,+1.041,+0.396,+2.647,-08.6560,-05.1090,-08.8170,-01.405323,-03.078675,+01.455484
-150.756,-053.906,-000.430,+1.170,+0.295,+2.534,-08.5800,-04.9630,-07.7870,-02.126301,-02.764017,+01.903650
-145.819,-056.612,-007.926,+1.258,+0.101,+2.496,-10.5180,-07.1010,-09.2680,-03.552873,-02.374879,+02.510306
-139.027,-058.367,-019.444,+1.313,-0.083,+2.451,-09.2330,-08.2420,-07.4590,-05.841742,-02.213928,+02.794514
-133.037,-059.461,-032.152,+1.350,-0.401,+2.293,-19.2600,-09.2780,-16.9430,-06.197837,-01.669737,+00.684588
-135.218,-060.967,-034.771,+1.368,-0.506,+2.230,-03.6720,-08.3350,-06.6710,-03.057148,-00.459712,-02.353257
-139.949,-063.242,-034.216,+1.415,-0.531,+2.173,-06.3410,-08.2020,-09.1360,-03.466100,-00.447100,-02.767685
-145.630,-064.948,-033.348,+1.428,-0.591,+2.098,-04.6780,-01.7110,-09.2290,-03.639638,+00.190354,-02.497615
-151.511,-065.813,-031.470,+1.433,-0.641,+2.050,-03.7120,+00.2470,-09.6460,-02.598508,+00.709239,-02.010259
-157.079,-065.642,-028.715,+1.419,-0.685,+2.050,-04.4290,-01.7010,-10.7100,-01.764175,+01.415065,-01.441935
-162.373,-064.306,-025.690,+1.386,-0.725,+2.032,-04.4230,-03.7980,-09.9690,-01.465651,+02.214146,-01.103440
-167.546,-062.177,-022.671,+1.330,-0.789,+2.041,-04.1990,-05.1880,-08.1840,-01.354404,+02.667248,-01.129490
-172.846,-059.679,-019.449,+1.302,-0.833,+2.089,-05.0150,-05.9810,-07.7630,-01.123350,+02.946076,-01.454967
-178.510,-056.930,-015.624,+1.316,-0.867,+2.139,-06.0040,-06.1620,-07.7160,-00.706614,+03.133097,-01.932122
+175.608,-053.914,-011.290,+1.340,-0.872,+2.231,-07.3660,-06.0840,-08.1240,-00.295364,+03.298753,-02.379345
+169.836,-050.546,-006.871,+1.335,-0.826,+2.425,-07.5990,-05.6080,-07.2360,-00.025967,+03.394578,-02.688436
+164.462,-047.099,-002.648,+1.266,-0.666,+2.589,-07.9810,-04.6210,-06.9100,+00.261189,+03.148361,-02.898490
+159.516,-043.744,+001.337,+1.113,-0.506,+2.694,-09.7900,-04.4480,-08.9190,+00.475672,+02.883101,-03.055312
+154.902,-040.103,+005.113,+0.984,-0.381,+2.736,-11.9600,-03.7950,-11.1700,+00.674352,+03.132151,-03.224453
+150.870,-036.095,+008.554,+0.789,-0.280,+2.684,-11.0620,-00.8860,-09.2730,+00.954432,+03.075497,-03.077182
+147.731,-032.178,+011.732,+0.663,-0.249,+2.640,-12.6510,+00.0740,-09.7740,+01.387959,+02.932811,-02.670541
+145.540,-028.293,+014.629,+0.594,-0.248,+2.632,-12.9000,+00.0620,-09.3020,+01.649238,+02.914524,-02.196611
+144.238,-024.333,+017.224,+0.506,-0.203,+2.687,-14.6930,-00.3380,-11.2980,+01.792689,+03.200727,-01.784962
+143.760,-019.911,+019.500,+0.371,-0.147,+2.719,-13.9550,+00.6050,-11.0020,+01.853320,+03.733523,-01.462151
+144.017,-015.268,+021.633,+0.213,-0.081,+2.765,-12.0940,+01.2190,-08.5330,+01.963164,+03.886868,-01.070715
+144.762,-010.892,+023.631,+0.023,+0.005,+2.718,-12.1540,-00.6710,-06.5440,+01.810110,+03.656961,-00.815932
+145.425,-007.034,+025.483,-0.116,+0.051,+2.647,-11.7290,-00.8420,-03.1570,+01.684780,+03.024988,-00.962638
+145.457,-003.962,+027.578,-0.190,+0.101,+2.654,-13.4770,+01.5600,-00.8380,+01.986624,+02.040227,-01.292239
+144.855,-001.584,+030.219,-0.237,+0.166,+2.587,-16.6660,+05.6850,+03.2540,+02.397122,+01.267421,-01.523821
+143.785,-000.385,+032.504,-0.251,+0.235,+2.580,-14.7750,+04.8390,+06.1640,+01.487846,-00.198253,-01.103921
+142.735,-001.079,+032.563,-0.209,+0.220,+2.620,-13.1830,+01.0830,+01.1190,-00.828585,-01.365814,-00.058404
+142.366,-002.769,+031.189,-0.149,+0.170,+2.612,+13.7120,+05.0750,-15.3560,-00.637902,-01.170913,+01.140953
+142.845,-004.911,+029.876,-0.084,+0.085,+2.573,+05.7370,-04.2640,+02.7540,-02.235191,-02.185417,+02.535407
+144.068,-008.874,+027.376,-0.005,+0.010,+2.609,-06.4060,-04.2660,-13.1700,-01.689309,-02.351196,+02.001364
+144.490,-012.522,+025.642,+0.116,-0.056,+2.550,-02.5320,-01.8730,-08.1930,-01.444053,-03.012907,+01.837013
+145.020,-016.370,+024.066,+0.232,-0.117,+2.550,-07.2270,+00.5120,-10.6780,-01.093306,-02.731818,+01.772603
+145.475,-020.040,+022.957,+0.320,-0.187,+2.538,-07.6650,-04.1370,-10.7030,-00.758451,-02.780018,+01.512310
+145.678,-023.410,+021.979,+0.436,-0.238,+2.479,-09.8800,-04.4340,-11.7330,-00.890751,-02.471749,+01.175085
+145.873,-026.033,+020.458,+0.524,-0.318,+2.440,-10.9160,-05.3510,-11.7880,-01.472628,-01.795658,+00.848398
+146.258,-027.373,+017.946,+0.542,-0.358,+2.447,-04.7620,-00.4500,-06.5030,-01.916755,-00.955414,+00.542821
+146.578,-028.201,+016.143,+0.579,-0.467,+2.406,-06.5430,-01.9820,-08.9060,-01.262100,-00.495518,+00.411048
+146.831,-028.639,+014.929,+0.588,-0.502,+2.379,-05.2710,-00.7530,-09.0650,-00.793732,-00.271656,+00.243240
+146.978,-028.890,+014.229,+0.598,-0.537,+2.380,-05.0460,-01.8600,-08.4650,-00.456903,-00.164996,+00.129988
+147.026,-029.051,+013.836,+0.593,-0.532,+2.369,-05.0510,-01.4770,-08.2610,-00.254840,-00.107148,+00.037220
+146.964,-029.176,+013.660,+0.612,-0.547,+2.359,-04.8490,-01.3780,-08.1920,-00.147725,-00.133582,-00.044965
+146.871,-029.307,+013.589,+0.616,-0.567,+2.387,-05.3070,-02.0400,-08.0230,-00.081429,-00.093003,-00.033318
+146.835,-029.400,+013.512,+0.612,-0.532,+2.359,-05.0200,-01.9230,-07.9010,-00.087148,-00.071931,+00.014853
+146.846,-029.471,+013.446,+0.625,-0.567,+2.338,-04.8830,-01.6350,-08.1030,-00.031612,-00.053279,+00.018689
+146.842,-029.558,+013.457,+0.621,-0.572,+2.376,-05.0450,-01.5930,-08.0670,+00.032220,-00.088446,+00.006832
+146.798,-029.658,+013.553,+0.630,-0.562,+2.360,-05.0130,-01.6580,-08.0170,+00.078473,-00.092880,-00.021342
+146.729,-029.760,+013.695,+0.625,-0.523,+2.338,-04.8190,-01.7790,-07.9420,+00.101462,-00.109605,-00.034144
+146.640,-029.900,+013.868,+0.635,-0.537,+2.366,-04.8910,-01.8250,-07.8810,+00.117756,-00.149385,-00.035932
+146.532,-030.090,+014.073,+0.644,-0.538,+2.350,-04.8410,-01.9440,-07.8530,+00.136592,-00.200798,-00.039840
+146.418,-030.324,+014.297,+0.658,-0.548,+2.361,-05.0630,-01.8890,-07.8510,+00.148365,-00.221232,-00.029801
+146.320,-030.553,+014.504,+0.658,-0.552,+2.367,-05.1440,-02.0520,-07.7730,+00.127664,-00.202427,-00.015077
+146.256,-030.745,+014.666,+0.667,-0.513,+2.345,-05.0280,-02.1360,-07.6900,+00.102740,-00.163428,+00.004994
+146.244,-030.916,+014.757,+0.663,-0.538,+2.334,-05.1140,-02.0310,-07.7480,+00.058175,-00.137363,+00.041883
+146.289,-031.048,+014.767,+0.677,-0.543,+2.373,-05.1870,-02.0330,-07.7000,+00.013235,-00.078579,+00.071087
+146.369,-031.131,+014.726,+0.672,-0.528,+2.351,-05.1440,-01.9430,-07.7160,-00.008259,-00.043422,+00.078604
+146.467,-031.200,+014.653,+0.686,-0.533,+2.335,-05.0840,-01.9990,-07.7700,-00.023325,-00.040504,+00.097680
+146.609,-031.290,+014.533,+0.681,-0.548,+2.373,-05.1060,-01.9670,-07.7350,-00.052057,-00.048615,+00.140440
+146.835,-031.371,+014.326,+0.672,-0.548,+2.356,-05.2500,-01.9120,-07.7420,-00.085254,-00.003864,+00.196287
+147.144,-031.420,+014.026,+0.672,-0.548,+2.346,-05.2130,-01.9620,-07.7080,-00.150268,+00.037546,+00.264506
+147.574,-031.415,+013.529,+0.663,-0.553,+2.345,-05.2740,-02.0230,-07.7850,-00.264719,+00.100148,+00.341798
+148.116,-031.407,+012.987,+0.653,-0.562,+2.345,-05.2520,-01.9020,-07.7390,-00.212399,+00.103761,+00.411973
+148.672,-031.386,+012.446,+0.653,-0.592,+2.345,-05.1490,-01.6110,-07.8100,-00.212529,+00.108495,+00.392729
+149.175,-031.398,+011.970,+0.644,-0.597,+2.350,-05.0970,-01.5280,-07.8100,-00.161066,+00.043016,+00.349284
+149.558,-031.473,+011.625,+0.635,-0.592,+2.344,-05.0240,-01.3650,-07.8000,-00.120678,-00.026384,+00.257881
+149.852,-031.601,+011.325,+0.625,-0.612,+2.317,-04.9760,-01.5410,-07.8650,-00.148721,-00.083324,+00.247254
+150.191,-031.798,+010.987,+0.639,-0.607,+2.361,-05.0920,-01.5160,-07.8670,-00.123076,-00.138743,+00.293057
+150.521,-032.067,+010.719,+0.635,-0.617,+2.317,-05.1310,-01.2620,-07.8740,-00.067420,-00.217069,+00.270534
+150.829,-032.428,+010.507,+0.639,-0.627,+2.318,-05.2360,-01.3030,-07.8420,-00.037828,-00.302437,+00.292787
+151.191,-032.901,+010.248,+0.667,-0.637,+2.335,-05.0800,-01.0740,-07.8240,-00.073422,-00.408014,+00.344590
+151.457,-033.504,+010.043,+0.662,-0.622,+2.308,-05.1600,-00.9920,-07.9180,-00.031571,-00.539288,+00.250721
+151.611,-034.310,+009.913,+0.690,-0.642,+2.298,-05.3960,-01.1360,-07.7300,-00.032027,-00.750450,+00.219035
+151.673,-035.360,+009.869,+0.709,-0.667,+2.305,-05.3640,-01.1720,-07.6390,-00.001248,-00.995238,+00.201084
+151.714,-036.728,+009.824,+0.755,-0.638,+2.285,-05.4510,-01.4330,-07.6710,-00.031493,-01.286317,+00.257932
+151.787,-038.506,+009.741,+0.797,-0.653,+2.255,-05.6180,-01.0800,-07.2490,-00.031208,-01.664051,+00.330566
+151.857,-040.777,+009.677,+0.862,-0.674,+2.263,-05.7030,-00.8610,-07.3320,+00.010724,-02.102260,+00.404617
+151.982,-043.528,+009.706,+0.927,-0.625,+2.206,-05.8030,-01.1450,-07.3810,+00.129152,-02.510063,+00.538550
+152.181,-046.766,+009.772,+1.006,-0.666,+2.145,-06.5230,-01.1120,-07.3820,+00.206668,-02.911820,+00.622446
+152.386,-050.505,+010.002,+1.089,-0.672,+2.127,-06.9980,-00.9720,-06.8730,+00.407082,-03.429425,+00.717408
+152.677,-055.049,+010.303,+1.191,-0.663,+2.050,-07.6050,-01.4270,-06.8040,+00.484580,-04.146468,+00.931479
+152.955,-060.369,+010.440,+1.326,-0.690,+1.932,-09.4610,-02.2880,-08.0620,+00.281764,-04.806866,+01.029527
+153.433,-066.587,+010.366,+1.418,-0.716,+1.883,-09.0110,-02.3350,-07.9900,+00.275273,-05.600761,+01.281058
+155.100,-073.461,+008.753,+1.562,-0.733,+1.678,-13.1240,-02.3540,-09.2210,-00.195015,-05.850593,+01.541507
+160.456,-080.751,+003.013,+1.669,-0.790,+1.505,-13.8870,-01.9010,-09.9650,-00.512961,-06.085438,+01.713002
-177.198,-086.531,-019.210,+1.743,-0.821,+1.384,-12.8000,-03.5200,-11.7740,+00.492131,-04.922396,+01.222859
-077.682,-086.873,-117.746,+1.817,-0.832,+1.220,-09.4690,-00.7420,-18.0400,+00.985893,-03.260690,+01.883997
-100.711,-085.741,-094.600,+1.807,-0.866,+1.279,-07.8120,-05.9750,-20.5870,+00.055735,+02.685707,+01.036276
-133.180,-083.557,-062.717,+1.784,-0.910,+1.392,+00.7720,-04.2530,-05.7730,-00.668687,+02.649758,+01.504099
-144.390,-080.528,-052.492,+1.715,-0.939,+1.449,-03.7340,-03.8470,-08.8430,-00.691373,+02.645295,+01.365312
-155.097,-077.139,-042.495,+1.664,-0.968,+1.549,-04.8280,-05.2740,-10.1790,-00.313853,+03.779290,+00.693943
-165.383,-073.018,-032.819,+1.627,-0.981,+1.688,-01.4480,-04.8530,-05.4150,-00.194614,+04.371668,+00.188170
-172.947,-068.889,-025.563,+1.585,-0.961,+1.811,-01.8690,-03.7590,-03.7540,+00.334162,+04.051600,-00.347345
-179.541,-065.093,-018.699,+1.534,-0.865,+1.997,-04.9360,-05.1130,-05.5280,+00.831202,+03.871686,-01.145231
+173.784,-061.326,-011.860,+1.475,-0.750,+2.182,-06.8840,-04.8620,-06.5310,+00.717066,+03.847459,-01.967676
+167.383,-057.404,-005.475,+1.313,-0.539,+2.341,-07.9650,-01.9650,-06.8400,+00.843028,+03.768111,-02.429999
+162.042,-053.352,-000.002,+1.090,-0.408,+2.390,-09.7410,-01.6440,-07.1140,+00.958376,+03.584668,-02.477572
+157.829,-049.304,+004.240,+0.932,-0.302,+2.425,-11.8330,-02.6140,-08.2890,+00.716056,+03.366481,-02.371935
+154.582,-045.154,+007.272,+0.751,-0.330,+2.385,-14.5730,-02.2870,-09.9990,+00.530620,+03.467867,-02.245764
+151.913,-040.835,+009.788,+0.616,-0.438,+2.342,-15.3110,-03.0110,-08.9320,+00.639842,+03.448921,-02.256764
+149.459,-036.471,+011.880,+0.598,-0.517,+2.358,-15.4590,-05.1460,-07.6590,+00.359087,+03.397770,-02.445463
+146.841,-032.367,+013.723,+0.690,-0.642,+2.401,-14.0360,-04.1860,-05.4630,+00.377652,+02.850629,-02.758363
+143.910,-028.554,+015.715,+0.779,-0.627,+2.626,-15.7490,-05.3650,-07.0440,+00.384403,+02.614397,-03.076746
+141.076,-024.721,+017.043,+0.779,-0.606,+2.815,-14.2360,-03.9810,-05.9570,-00.155426,+02.548127,-03.021363
+138.550,-020.966,+017.730,+0.659,-0.525,+2.950,-12.6320,-02.3380,-06.0750,-00.259043,+02.501401,-02.845307
+136.356,-017.337,+018.180,+0.487,-0.503,+3.012,-11.2740,-02.6980,-05.7020,-00.249647,+02.413810,-02.600501
+134.404,-013.977,+018.355,+0.362,-0.487,+3.045,-09.9410,-03.1880,-04.6240,-00.329915,+02.161738,-02.425405
+132.404,-011.015,+018.433,+0.232,-0.476,+3.001,-08.9760,-03.7950,-03.4790,-00.275063,+01.744487,-02.467087
+130.032,-008.484,+018.669,+0.167,-0.490,+2.950,-09.3960,-04.4820,-03.5800,-00.063551,+01.288051,-02.762560
+127.057,-006.301,+018.930,+0.139,-0.480,+2.938,-08.8630,-06.2720,-01.5200,-00.153042,+00.724144,-03.283537
+123.040,-004.699,+019.034,+0.157,-0.461,+2.911,-09.4720,-05.5600,+00.8960,-00.254316,-00.164565,-04.016470
+118.239,-003.863,+019.141,+0.241,-0.501,+2.872,-12.2220,-02.7910,+00.4600,-00.186602,-00.915967,-04.177743
+113.673,-003.669,+019.336,+0.324,-0.497,+2.876,-12.3330,+00.8650,-00.1160,-00.006588,-01.271777,-03.500312
+109.933,-004.225,+019.595,+0.445,-0.499,+2.838,-10.1840,-00.5420,+00.2410,-00.076034,-01.755242,-02.569538
+106.795,-005.620,+019.734,+0.547,-0.490,+2.799,-05.4320,+02.7780,-02.5540,+00.372219,-02.321606,-02.022289
+103.663,-007.501,+020.495,+0.645,-0.481,+2.803,+01.3720,-02.1330,-07.7910,+00.149820,-02.674713,-01.708967
+101.152,-010.526,+021.119,+0.802,-0.453,+2.734,-04.8480,-00.1930,-08.4400,+00.222033,-03.480066,-00.797226
+099.629,-014.057,+021.476,+0.942,-0.470,+2.692,-07.1440,+06.0460,-13.8360,-00.062431,-03.175236,+00.433269
+099.584,-017.411,+021.558,+1.011,-0.505,+2.674,-08.0850,+03.0410,-12.4910,+00.188359,-02.507636,+01.274105
+100.012,-020.447,+021.611,+1.062,-0.521,+2.600,-07.7790,-06.8260,-09.9790,+00.095193,-02.237579,+01.227954
